{
  "resourceType": "Bundle",
  "id": "NUMER1and3PASS-SulfonylureasMedsOrderedDiffDays",
  "type": "transaction",
  "entry": [ {
    "fullUrl": "https://madie.cms.gov/Patient/708b6eaa-5d2e-463b-9d9f-d97b19f4af75",
    "resource": {
      "resourceType": "Patient",
      "id": "708b6eaa-5d2e-463b-9d9f-d97b19f4af75",
      "meta": {
        "profile": [ "http://hl7.org/fhir/us/qicore/StructureDefinition/qicore-patient" ]
      },
      "extension": [ {
        "url": "http://hl7.org/fhir/us/core/StructureDefinition/us-core-race",
        "extension": [ {
          "url": "ombCategory",
          "valueCoding": {
            "system": "urn:oid:2.16.840.1.113883.6.238",
            "code": "2028-9",
            "display": "Asian",
            "userSelected": true
          }
        }, {
          "url": "text",
          "valueString": "Asian"
        } ]
      }, {
        "url": "http://hl7.org/fhir/us/core/StructureDefinition/us-core-ethnicity",
        "extension": [ {
          "url": "ombCategory",
          "valueCoding": {
            "system": "urn:oid:2.16.840.1.113883.6.238",
            "code": "2135-2",
            "display": "Hispanic or Latino",
            "userSelected": true
          }
        }, {
          "url": "text",
          "valueString": "Hispanic or Latino"
        } ]
      } ],
      "identifier": [ {
        "type": {
          "coding": [ {
            "system": "http://terminology.hl7.org/CodeSystem/v2-0203",
            "code": "MR"
          } ]
        },
        "system": "http://hospital.smarthealthit.org",
        "value": "999999995"
      } ],
      "name": [ {
        "family": "Bertha",
        "given": [ "Betty" ]
      } ],
      "gender": "female",
      "birthDate": "1961-01-01"
    },
    "request": {
      "method": "PUT",
      "url": "Patient/708b6eaa-5d2e-463b-9d9f-d97b19f4af75"
    }
  }, {
    "fullUrl": "https://madie.cms.gov/Encounter/a4e3acc1-06ef-4aca-b7ad-8ac3405c83f2",
    "resource": {
      "resourceType": "Encounter",
      "id": "a4e3acc1-06ef-4aca-b7ad-8ac3405c83f2",
      "meta": {
        "profile": [ "http://hl7.org/fhir/us/qicore/StructureDefinition/qicore-encounter" ]
      },
      "status": "finished",
      "class": {
        "system": "http://terminology.hl7.org/CodeSystem/v3-ActCode",
        "code": "AMB",
        "display": "ambulatory"
      },
      "type": [ {
        "coding": [ {
          "system": "http://snomed.info/sct",
          "code": "185317003",
          "display": "Telephone encounter (procedure)"
        } ]
      } ],
      "subject": {
        "reference": "Patient/708b6eaa-5d2e-463b-9d9f-d97b19f4af75"
      },
      "period": {
        "start": "2026-01-01T00:00:00.000+00:00",
        "end": "2026-01-01T01:15:00.000+00:00"
      }
    },
    "request": {
      "method": "PUT",
      "url": "Encounter/a4e3acc1-06ef-4aca-b7ad-8ac3405c83f2"
    }
  }, {
    "fullUrl": "https://madie.cms.gov/MedicationRequest/83a0dd14-da82-422f-9343-d0842f1b803f",
    "resource": {
      "resourceType": "MedicationRequest",
      "id": "83a0dd14-da82-422f-9343-d0842f1b803f",
      "meta": {
        "profile": [ "http://hl7.org/fhir/us/qicore/StructureDefinition/qicore-medicationrequest" ]
      },
      "status": "active",
      "intent": "order",
      "category": [ {
        "coding": [ {
          "system": "http://terminology.hl7.org/CodeSystem/medicationrequest-category",
          "code": "discharge",
          "display": "Discharge"
        } ]
      } ],
      "medicationCodeableConcept": {
        "coding": [ {
          "system": "http://www.nlm.nih.gov/research/umls/rxnorm",
          "code": "1361493",
          "display": "glimepiride 6 MG Oral Tablet",
          "userSelected": true
        } ]
      },
      "subject": {
        "reference": "Patient/708b6eaa-5d2e-463b-9d9f-d97b19f4af75"
      },
      "authoredOn": "2026-01-01T00:00:00.000+00:00",
      "requester": {
        "reference": "Practitioner/example"
      }
    },
    "request": {
      "method": "PUT",
      "url": "MedicationRequest/83a0dd14-da82-422f-9343-d0842f1b803f"
    }
  }, {
    "fullUrl": "https://madie.cms.gov/MedicationRequest/74dd74e9-452d-4264-bbe4-fdc26cd3114e",
    "resource": {
      "resourceType": "MedicationRequest",
      "id": "74dd74e9-452d-4264-bbe4-fdc26cd3114e",
      "meta": {
        "profile": [ "http://hl7.org/fhir/us/qicore/StructureDefinition/qicore-medicationrequest" ]
      },
      "status": "active",
      "intent": "order",
      "category": [ {
        "coding": [ {
          "system": "http://terminology.hl7.org/CodeSystem/medicationrequest-category",
          "code": "discharge",
          "display": "Discharge"
        } ]
      } ],
      "medicationCodeableConcept": {
        "coding": [ {
          "system": "http://www.nlm.nih.gov/research/umls/rxnorm",
          "code": "1361493",
          "display": "glimepiride 6 MG Oral Tablet",
          "userSelected": true
        } ]
      },
      "subject": {
        "reference": "Patient/708b6eaa-5d2e-463b-9d9f-d97b19f4af75"
      },
      "authoredOn": "2026-01-02T00:00:00.000+00:00",
      "requester": {
        "reference": "Practitioner/example"
      }
    },
    "request": {
      "method": "PUT",
      "url": "MedicationRequest/74dd74e9-452d-4264-bbe4-fdc26cd3114e"
    }
  }, {
    "fullUrl": "https://madie.cms.gov/MeasureReport/327a2ed8-83a9-4d99-8467-5bf3b847c057",
    "resource": {
      "resourceType": "MeasureReport",
      "id": "327a2ed8-83a9-4d99-8467-5bf3b847c057",
      "meta": {
        "profile": [ "http://hl7.org/fhir/us/cqfmeasures/StructureDefinition/test-case-cqfm" ]
      },
      "contained": [ {
        "resourceType": "Parameters",
        "id": "f8c020d6-1634-41a3-bac1-1410303aca79-parameters",
        "parameter": [ {
          "name": "subject",
          "valueString": "708b6eaa-5d2e-463b-9d9f-d97b19f4af75"
        } ]
      } ],
      "extension": [ {
        "url": "http://hl7.org/fhir/StructureDefinition/cqf-inputParameters",
        "valueReference": {
          "reference": "#f8c020d6-1634-41a3-bac1-1410303aca79-parameters"
        }
      }, {
        "url": "http://hl7.org/fhir/us/cqfmeasures/StructureDefinition/cqfm-testCaseDescription",
        "valueMarkdown": "Sulfonylureas meds ordered on different days"
      } ],
      "modifierExtension": [ {
        "url": "http://hl7.org/fhir/us/cqfmeasures/StructureDefinition/cqfm-isTestCase",
        "valueBoolean": true
      } ],
      "status": "complete",
      "type": "individual",
      "measure": "https://madie.cms.gov/Measure/CMS156FHIRHighRiskMedsElderly",
      "period": {
        "start": "2026-01-01",
        "end": "2026-12-31"
      },
      "group": [ {
        "id": "Group_1",
        "population": [ {
          "id": "InitialPopulation_1",
          "code": {
            "coding": [ {
              "system": "http://terminology.hl7.org/CodeSystem/measure-population",
              "code": "initial-population",
              "display": "Initial Population"
            } ]
          },
          "count": 1
        }, {
          "id": "Denominator_1",
          "code": {
            "coding": [ {
              "system": "http://terminology.hl7.org/CodeSystem/measure-population",
              "code": "denominator",
              "display": "Denominator"
            } ]
          },
          "count": 1
        }, {
          "id": "DenominatorExclusion_1",
          "code": {
            "coding": [ {
              "system": "http://terminology.hl7.org/CodeSystem/measure-population",
              "code": "denominator-exclusion",
              "display": "Denominator Exclusion"
            } ]
          },
          "count": 0
        }, {
          "id": "Numerator_1",
          "code": {
            "coding": [ {
              "system": "http://terminology.hl7.org/CodeSystem/measure-population",
              "code": "numerator",
              "display": "Numerator"
            } ]
          },
          "count": 1
        } ],
        "measureScore": {
          "value": 1.0
        }
      }, {
        "id": "Group_2",
        "population": [ {
          "id": "InitialPopulation_2",
          "code": {
            "coding": [ {
              "system": "http://terminology.hl7.org/CodeSystem/measure-population",
              "code": "initial-population",
              "display": "Initial Population"
            } ]
          },
          "count": 1
        }, {
          "id": "Denominator_2",
          "code": {
            "coding": [ {
              "system": "http://terminology.hl7.org/CodeSystem/measure-population",
              "code": "denominator",
              "display": "Denominator"
            } ]
          },
          "count": 1
        }, {
          "id": "DenominatorExclusion_2",
          "code": {
            "coding": [ {
              "system": "http://terminology.hl7.org/CodeSystem/measure-population",
              "code": "denominator-exclusion",
              "display": "Denominator Exclusion"
            } ]
          },
          "count": 0
        }, {
          "id": "Numerator_2",
          "code": {
            "coding": [ {
              "system": "http://terminology.hl7.org/CodeSystem/measure-population",
              "code": "numerator",
              "display": "Numerator"
            } ]
          },
          "count": 0
        } ],
        "measureScore": {
          "value": 1.0
        }
      }, {
        "id": "Group_3",
        "population": [ {
          "id": "InitialPopulation_3",
          "code": {
            "coding": [ {
              "system": "http://terminology.hl7.org/CodeSystem/measure-population",
              "code": "initial-population",
              "display": "Initial Population"
            } ]
          },
          "count": 1
        }, {
          "id": "Denominator_3",
          "code": {
            "coding": [ {
              "system": "http://terminology.hl7.org/CodeSystem/measure-population",
              "code": "denominator",
              "display": "Denominator"
            } ]
          },
          "count": 1
        }, {
          "id": "DenominatorExclusion_3",
          "code": {
            "coding": [ {
              "system": "http://terminology.hl7.org/CodeSystem/measure-population",
              "code": "denominator-exclusion",
              "display": "Denominator Exclusion"
            } ]
          },
          "count": 0
        }, {
          "id": "Numerator_3",
          "code": {
            "coding": [ {
              "system": "http://terminology.hl7.org/CodeSystem/measure-population",
              "code": "numerator",
              "display": "Numerator"
            } ]
          },
          "count": 1
        } ],
        "measureScore": {
          "value": 1.0
        }
      } ],
      "evaluatedResource": [ {
        "reference": "Patient/708b6eaa-5d2e-463b-9d9f-d97b19f4af75"
      }, {
        "reference": "Encounter/a4e3acc1-06ef-4aca-b7ad-8ac3405c83f2"
      }, {
        "reference": "MedicationRequest/83a0dd14-da82-422f-9343-d0842f1b803f"
      }, {
        "reference": "MedicationRequest/74dd74e9-452d-4264-bbe4-fdc26cd3114e"
      } ]
    },
    "request": {
      "method": "PUT",
      "url": "MeasureReport/327a2ed8-83a9-4d99-8467-5bf3b847c057"
    }
  } ]
}