{
  "resourceType": "Bundle",
  "id": "612e6a8d02c62a011f2ea53e",
  "type": "transaction",
  "entry": [ {
    "fullUrl": "https://madie.cms.gov/Patient/77c1bf41-fce8-4044-9eeb-c205b8fdc0a9",
    "resource": {
      "resourceType": "Patient",
      "id": "77c1bf41-fce8-4044-9eeb-c205b8fdc0a9",
      "meta": {
        "profile": [ "http://hl7.org/fhir/us/qicore/StructureDefinition/qicore-patient" ]
      },
      "text": {
        "status": "generated",
        "div": "<div xmlns=\"http://www.w3.org/1999/xhtml\"><div class=\"hapiHeaderText\">MA_InjXa_1MinAfterAnesEndTime <b>NUMERPASS </b></div><table class=\"hapiPropertyTable\"><tbody><tr><td>Identifier</td><td>9a09d8440030e02516ccf84b416cd528</td></tr><tr><td>Date of birth</td><td><span>02 January 1974</span></td></tr></tbody></table></div>"
      },
      "extension": [ {
        "url": "http://hl7.org/fhir/us/core/StructureDefinition/us-core-race",
        "extension": [ {
          "url": "ombCategory",
          "valueCoding": {
            "system": "urn:oid:2.16.840.1.113883.6.238",
            "code": "1002-5",
            "display": "American Indian or Alaska Native",
            "userSelected": true
          }
        }, {
          "url": "text",
          "valueString": "American Indian or Alaska Native"
        } ]
      }, {
        "url": "http://hl7.org/fhir/us/core/StructureDefinition/us-core-ethnicity",
        "extension": [ {
          "url": "ombCategory",
          "valueCoding": {
            "system": "urn:oid:2.16.840.1.113883.6.238",
            "code": "2135-2",
            "display": "Hispanic or Latino",
            "userSelected": true
          }
        }, {
          "url": "text",
          "valueString": "Hispanic or Latino"
        } ]
      } ],
      "identifier": [ {
        "type": {
          "coding": [ {
            "system": "http://terminology.hl7.org/CodeSystem/v2-0203",
            "code": "MR"
          } ]
        },
        "system": "https://bonnie-fhir.healthit.gov/",
        "value": "612e6a8d02c62a011f2ea53e"
      } ],
      "active": true,
      "name": [ {
        "use": "usual",
        "family": "NUMERPass",
        "given": [ "MAInjXa1MinAfterAnesEndTime" ]
      } ],
      "gender": "male",
      "birthDate": "1975-01-02"
    },
    "request": {
      "method": "PUT",
      "url": "Patient/77c1bf41-fce8-4044-9eeb-c205b8fdc0a9"
    }
  }, {
    "fullUrl": "https://madie.cms.gov/Encounter/e82335ab-65c0-4ad8-994c-76a31bf08207",
    "resource": {
      "resourceType": "Encounter",
      "id": "e82335ab-65c0-4ad8-994c-76a31bf08207",
      "meta": {
        "profile": [ "http://hl7.org/fhir/us/qicore/StructureDefinition/qicore-encounter" ]
      },
      "status": "finished",
      "class": {
        "system": "http://terminology.hl7.org/CodeSystem/v3-ActCode",
        "code": "IMP",
        "display": "inpatient encounter"
      },
      "type": [ {
        "coding": [ {
          "system": "http://snomed.info/sct",
          "code": "8715000"
        } ]
      } ],
      "subject": {
        "reference": "Patient/77c1bf41-fce8-4044-9eeb-c205b8fdc0a9"
      },
      "period": {
        "start": "2026-11-01T00:00:00.000+00:00",
        "end": "2026-11-30T23:59:00.000+00:00"
      },
      "length": {
        "value": 29,
        "unit": "days"
      }
    },
    "request": {
      "method": "PUT",
      "url": "Encounter/e82335ab-65c0-4ad8-994c-76a31bf08207"
    }
  }, {
    "fullUrl": "https://madie.cms.gov/Coverage/15ab786f-1e3b-4f4a-9694-1c40a8e406dd",
    "resource": {
      "resourceType": "Coverage",
      "id": "15ab786f-1e3b-4f4a-9694-1c40a8e406dd",
      "status": "active",
      "beneficiary": {
        "reference": "Patient/77c1bf41-fce8-4044-9eeb-c205b8fdc0a9"
      },
      "period": {
        "start": "1975-01-02T08:00:00.000+00:00"
      },
      "payor": [ {
        "reference": "Organization/94474e11-ac46-49d8-81cb-83c0ea117b8e"
      } ]
    },
    "request": {
      "method": "PUT",
      "url": "Coverage/15ab786f-1e3b-4f4a-9694-1c40a8e406dd"
    }
  }, {
    "fullUrl": "https://madie.cms.gov/MedicationAdministration/8df38206-ff3d-4158-8ae1-572278f42bc0",
    "resource": {
      "resourceType": "MedicationAdministration",
      "id": "8df38206-ff3d-4158-8ae1-572278f42bc0",
      "meta": {
        "profile": [ "http://hl7.org/fhir/us/qicore/StructureDefinition/qicore-medicationadministration" ]
      },
      "status": "completed",
      "medicationCodeableConcept": {
        "coding": [ {
          "system": "http://www.nlm.nih.gov/research/umls/rxnorm",
          "code": "861356"
        } ]
      },
      "subject": {
        "reference": "Patient/77c1bf41-fce8-4044-9eeb-c205b8fdc0a9"
      },
      "effectivePeriod": {
        "start": "2026-11-01T01:01:00.000+00:00"
      }
    },
    "request": {
      "method": "PUT",
      "url": "MedicationAdministration/8df38206-ff3d-4158-8ae1-572278f42bc0"
    }
  }, {
    "fullUrl": "https://madie.cms.gov/Procedure/50518382-c65c-44c6-bf65-a0db53f257c2",
    "resource": {
      "resourceType": "Procedure",
      "id": "50518382-c65c-44c6-bf65-a0db53f257c2",
      "meta": {
        "profile": [ "http://hl7.org/fhir/us/qicore/StructureDefinition/qicore-procedure" ]
      },
      "extension": [ {
        "url": "http://hl7.org/fhir/us/qicore/StructureDefinition/qicore-recorded",
        "valueDateTime": "2013-11-01T13:35:00.000+00:00"
      } ],
      "status": "completed",
      "code": {
        "coding": [ {
          "system": "http://www.icd10data.com/icd10pcs",
          "code": "3E030FZ"
        }, {
          "system": "http://snomed.info/sct",
          "code": "18946005"
        } ]
      },
      "subject": {
        "reference": "Patient/77c1bf41-fce8-4044-9eeb-c205b8fdc0a9"
      },
      "performedPeriod": {
        "start": "2026-11-01T00:00:00.000+00:00",
        "end": "2026-11-01T01:00:00.000+00:00"
      }
    },
    "request": {
      "method": "PUT",
      "url": "Procedure/50518382-c65c-44c6-bf65-a0db53f257c2"
    }
  }, {
    "fullUrl": "https://madie.cms.gov/Organization/94474e11-ac46-49d8-81cb-83c0ea117b8e",
    "resource": {
      "resourceType": "Organization",
      "id": "94474e11-ac46-49d8-81cb-83c0ea117b8e",
      "meta": {
        "profile": [ "http://hl7.org/fhir/us/qicore/StructureDefinition/qicore-organization" ]
      },
      "identifier": [ {
        "use": "temp",
        "system": "urn:oid:2.16.840.1.113883.4.4",
        "value": "21-3259825"
      } ],
      "active": true,
      "type": [ {
        "coding": [ {
          "system": "http://terminology.hl7.org/CodeSystem/organization-type",
          "code": "pay",
          "display": "Payer"
        } ]
      } ],
      "name": "Blue Cross Blue Shield of Texas",
      "telecom": [ {
        "system": "phone",
        "value": "(+1) 972-766-6900"
      } ],
      "address": [ {
        "use": "billing",
        "type": "postal",
        "line": [ "P.O. Box 660044" ],
        "city": "Dallas",
        "state": "TX",
        "postalCode": "75266-0044",
        "country": "USA"
      } ]
    },
    "request": {
      "method": "PUT",
      "url": "Organization/94474e11-ac46-49d8-81cb-83c0ea117b8e"
    }
  }, {
    "fullUrl": "https://madie.cms.gov/Practitioner/4ccd8d94-e6de-4a75-8529-cb91c846168b",
    "resource": {
      "resourceType": "Practitioner",
      "id": "4ccd8d94-e6de-4a75-8529-cb91c846168b",
      "identifier": [ {
        "system": "http://hl7.org/fhir/sid/us-npi",
        "value": "123456"
      } ],
      "name": [ {
        "family": "Evil",
        "prefix": [ "Dr" ]
      } ]
    },
    "request": {
      "method": "PUT",
      "url": "Practitioner/4ccd8d94-e6de-4a75-8529-cb91c846168b"
    }
  }, {
    "fullUrl": "https://madie.cms.gov/MeasureReport/8fa2e35a-e403-4bc2-98a1-3babce522810",
    "resource": {
      "resourceType": "MeasureReport",
      "id": "8fa2e35a-e403-4bc2-98a1-3babce522810",
      "meta": {
        "profile": [ "http://hl7.org/fhir/us/cqfmeasures/StructureDefinition/test-case-cqfm" ]
      },
      "contained": [ {
        "resourceType": "Parameters",
        "id": "ccdb841e-1502-4816-83e7-475650c993f0-parameters",
        "parameter": [ {
          "name": "subject",
          "valueString": "77c1bf41-fce8-4044-9eeb-c205b8fdc0a9"
        } ]
      } ],
      "extension": [ {
        "url": "http://hl7.org/fhir/StructureDefinition/cqf-inputParameters",
        "valueReference": {
          "reference": "#ccdb841e-1502-4816-83e7-475650c993f0-parameters"
        }
      }, {
        "url": "http://hl7.org/fhir/us/cqfmeasures/StructureDefinition/cqfm-testCaseDescription",
        "valueMarkdown": "Patient received injectable factor Xa med 1 min after anesthesia.end\n"
      } ],
      "modifierExtension": [ {
        "url": "http://hl7.org/fhir/us/cqfmeasures/StructureDefinition/cqfm-isTestCase",
        "valueBoolean": true
      } ],
      "status": "complete",
      "type": "individual",
      "measure": "https://madie.cms.gov/Measure/CMS108FHIRVTEProphylaxis",
      "period": {
        "start": "2026-01-01",
        "end": "2026-12-31"
      },
      "group": [ {
        "id": "Group_1",
        "population": [ {
          "id": "InitialPopulation_1",
          "code": {
            "coding": [ {
              "system": "http://terminology.hl7.org/CodeSystem/measure-population",
              "code": "initial-population",
              "display": "Initial Population"
            } ]
          },
          "count": 1
        }, {
          "id": "Denominator_1",
          "code": {
            "coding": [ {
              "system": "http://terminology.hl7.org/CodeSystem/measure-population",
              "code": "denominator",
              "display": "Denominator"
            } ]
          },
          "count": 1
        }, {
          "id": "DenominatorExclusion_1",
          "code": {
            "coding": [ {
              "system": "http://terminology.hl7.org/CodeSystem/measure-population",
              "code": "denominator-exclusion",
              "display": "Denominator Exclusion"
            } ]
          },
          "count": 0
        }, {
          "id": "Numerator_1",
          "code": {
            "coding": [ {
              "system": "http://terminology.hl7.org/CodeSystem/measure-population",
              "code": "numerator",
              "display": "Numerator"
            } ]
          },
          "count": 1
        } ],
        "measureScore": {
          "value": 0.0
        }
      } ],
      "evaluatedResource": [ {
        "reference": "Patient/77c1bf41-fce8-4044-9eeb-c205b8fdc0a9"
      }, {
        "reference": "Encounter/e82335ab-65c0-4ad8-994c-76a31bf08207"
      }, {
        "reference": "Coverage/15ab786f-1e3b-4f4a-9694-1c40a8e406dd"
      }, {
        "reference": "MedicationAdministration/8df38206-ff3d-4158-8ae1-572278f42bc0"
      }, {
        "reference": "Procedure/50518382-c65c-44c6-bf65-a0db53f257c2"
      }, {
        "reference": "Organization/94474e11-ac46-49d8-81cb-83c0ea117b8e"
      }, {
        "reference": "Practitioner/4ccd8d94-e6de-4a75-8529-cb91c846168b"
      } ]
    },
    "request": {
      "method": "PUT",
      "url": "MeasureReport/8fa2e35a-e403-4bc2-98a1-3babce522810"
    }
  } ]
}