{
  "resourceType": "Bundle",
  "id": "6359776b6aee9629c8298235",
  "type": "transaction",
  "entry": [ {
    "fullUrl": "https://madie.cms.gov/Patient/bf104ec1-2d51-4709-ae27-b3ae475454e4",
    "resource": {
      "resourceType": "Patient",
      "id": "bf104ec1-2d51-4709-ae27-b3ae475454e4",
      "meta": {
        "profile": [ "http://hl7.org/fhir/us/qicore/StructureDefinition/qicore-patient" ]
      },
      "text": {
        "status": "generated",
        "div": "<div xmlns=\"http://www.w3.org/1999/xhtml\"><div class=\"hapiHeaderText\">RISKWBC24hoursB4EDOTTriageEnc <b>RISKPass </b></div><table class=\"hapiPropertyTable\"><tbody><tr><td>Date of birth</td><td><span>01 February 2004</span></td></tr></tbody></table></div>"
      },
      "extension": [ {
        "url": "http://hl7.org/fhir/us/core/StructureDefinition/us-core-race",
        "extension": [ {
          "url": "ombCategory",
          "valueCoding": {
            "system": "urn:oid:2.16.840.1.113883.6.238",
            "code": "1002-5",
            "display": "American Indian or Alaska Native",
            "userSelected": true
          }
        }, {
          "url": "text",
          "valueString": "American Indian or Alaska Native"
        } ]
      }, {
        "url": "http://hl7.org/fhir/us/core/StructureDefinition/us-core-ethnicity",
        "extension": [ {
          "url": "ombCategory",
          "valueCoding": {
            "system": "urn:oid:2.16.840.1.113883.6.238",
            "code": "2135-2",
            "display": "Hispanic or Latino",
            "userSelected": true
          }
        }, {
          "url": "text",
          "valueString": "Hispanic or Latino"
        } ]
      } ],
      "identifier": [ {
        "type": {
          "coding": [ {
            "system": "http://terminology.hl7.org/CodeSystem/v2-0203",
            "code": "MR"
          } ]
        },
        "system": "https://bonnie-fhir.healthit.gov/",
        "value": "6359776b6aee9629c8298235"
      } ],
      "active": true,
      "name": [ {
        "use": "usual",
        "family": "RiskPassWBC",
        "given": [ "RISKWBC24hoursB4EDOTTriageEnc" ]
      } ],
      "gender": "female",
      "birthDate": "2005-02-01"
    },
    "request": {
      "method": "PUT",
      "url": "Patient/bf104ec1-2d51-4709-ae27-b3ae475454e4"
    }
  }, {
    "fullUrl": "https://madie.cms.gov/Observation/31aaf401-ba41-41d1-a4df-b2fcf75e6b68",
    "resource": {
      "resourceType": "Observation",
      "id": "31aaf401-ba41-41d1-a4df-b2fcf75e6b68",
      "meta": {
        "profile": [ "http://hl7.org/fhir/us/qicore/StructureDefinition/qicore-simple-observation" ]
      },
      "status": "final",
      "category": [ {
        "coding": [ {
          "system": "http://terminology.hl7.org/CodeSystem/observation-category",
          "code": "exam",
          "display": "exam",
          "userSelected": true
        } ]
      } ],
      "code": {
        "coding": [ {
          "system": "http://loinc.org",
          "code": "93857-1"
        } ]
      },
      "subject": {
        "reference": "Patient/bf104ec1-2d51-4709-ae27-b3ae475454e4"
      },
      "effectiveDateTime": "2026-02-01T08:00:00.000+00:00",
      "valueDateTime": "2026-02-01T08:00:00.000+00:00"
    },
    "request": {
      "method": "PUT",
      "url": "Observation/31aaf401-ba41-41d1-a4df-b2fcf75e6b68"
    }
  }, {
    "fullUrl": "https://madie.cms.gov/Observation/423cb320-2341-48fe-981e-311ecb87e32c",
    "resource": {
      "resourceType": "Observation",
      "id": "423cb320-2341-48fe-981e-311ecb87e32c",
      "meta": {
        "profile": [ "http://hl7.org/fhir/us/qicore/StructureDefinition/qicore-simple-observation" ]
      },
      "status": "final",
      "category": [ {
        "coding": [ {
          "system": "http://terminology.hl7.org/CodeSystem/observation-category",
          "code": "exam",
          "display": "exam",
          "userSelected": true
        } ]
      } ],
      "code": {
        "coding": [ {
          "system": "http://loinc.org",
          "code": "11884-4"
        } ]
      },
      "subject": {
        "reference": "Patient/bf104ec1-2d51-4709-ae27-b3ae475454e4"
      },
      "effectiveDateTime": "2026-02-01T08:00:00.000+00:00",
      "valueQuantity": {
        "value": 21,
        "system": "http://unitsofmeasure.org",
        "code": "wk"
      }
    },
    "request": {
      "method": "PUT",
      "url": "Observation/423cb320-2341-48fe-981e-311ecb87e32c"
    }
  }, {
    "fullUrl": "https://madie.cms.gov/Encounter/59f191e0-a675-4be5-8490-52e702267b3c",
    "resource": {
      "resourceType": "Encounter",
      "id": "59f191e0-a675-4be5-8490-52e702267b3c",
      "meta": {
        "profile": [ "http://hl7.org/fhir/us/qicore/StructureDefinition/qicore-encounter" ]
      },
      "status": "finished",
      "class": {
        "system": "http://terminology.hl7.org/CodeSystem/v3-ActCode",
        "code": "IMP",
        "display": "inpatient encounter"
      },
      "type": [ {
        "coding": [ {
          "system": "http://snomed.info/sct",
          "code": "183452005"
        } ]
      } ],
      "subject": {
        "reference": "Patient/bf104ec1-2d51-4709-ae27-b3ae475454e4"
      },
      "period": {
        "start": "2026-02-01T08:00:00.000+00:00",
        "end": "2026-02-05T08:15:00.000+00:00"
      }
    },
    "request": {
      "method": "PUT",
      "url": "Encounter/59f191e0-a675-4be5-8490-52e702267b3c"
    }
  }, {
    "fullUrl": "https://madie.cms.gov/Encounter/9f5a7d54-dadd-4dc9-a2c8-7149328b065f",
    "resource": {
      "resourceType": "Encounter",
      "id": "9f5a7d54-dadd-4dc9-a2c8-7149328b065f",
      "meta": {
        "profile": [ "http://hl7.org/fhir/us/qicore/StructureDefinition/qicore-encounter" ]
      },
      "status": "finished",
      "class": {
        "system": "http://terminology.hl7.org/CodeSystem/v3-ActCode",
        "code": "EMER",
        "display": "emergency"
      },
      "type": [ {
        "coding": [ {
          "system": "http://snomed.info/sct",
          "code": "4525004"
        } ]
      } ],
      "subject": {
        "reference": "Patient/bf104ec1-2d51-4709-ae27-b3ae475454e4"
      },
      "period": {
        "start": "2026-02-01T07:00:00.000+00:00",
        "end": "2026-02-01T07:59:00.000+00:00"
      }
    },
    "request": {
      "method": "PUT",
      "url": "Encounter/9f5a7d54-dadd-4dc9-a2c8-7149328b065f"
    }
  }, {
    "fullUrl": "https://madie.cms.gov/Procedure/735f4f62-57f9-492a-ab4f-4d97f044cc73",
    "resource": {
      "resourceType": "Procedure",
      "id": "735f4f62-57f9-492a-ab4f-4d97f044cc73",
      "meta": {
        "profile": [ "http://hl7.org/fhir/us/qicore/StructureDefinition/qicore-procedure" ]
      },
      "extension": [ {
        "url": "http://hl7.org/fhir/us/qicore/StructureDefinition/qicore-recorded",
        "valueDateTime": "2026-02-04T13:35:00.000+00:00"
      } ],
      "status": "completed",
      "code": {
        "coding": [ {
          "system": "http://snomed.info/sct",
          "code": "10745001"
        } ]
      },
      "subject": {
        "reference": "Patient/bf104ec1-2d51-4709-ae27-b3ae475454e4"
      },
      "performedPeriod": {
        "start": "2026-02-01T08:00:00.000+00:00",
        "end": "2026-02-05T08:15:00.000+00:00"
      }
    },
    "request": {
      "method": "PUT",
      "url": "Procedure/735f4f62-57f9-492a-ab4f-4d97f044cc73"
    }
  }, {
    "fullUrl": "https://madie.cms.gov/Observation/a8be5784-d579-4ad6-b0a1-6137d6e9dc74",
    "resource": {
      "resourceType": "Observation",
      "id": "a8be5784-d579-4ad6-b0a1-6137d6e9dc74",
      "meta": {
        "profile": [ "http://hl7.org/fhir/us/qicore/StructureDefinition/qicore-observation-lab" ]
      },
      "status": "final",
      "category": [ {
        "coding": [ {
          "system": "http://terminology.hl7.org/CodeSystem/observation-category",
          "code": "laboratory",
          "display": "laboratory",
          "userSelected": true
        } ]
      } ],
      "code": {
        "coding": [ {
          "system": "http://loinc.org",
          "version": "2.73",
          "code": "26464-8",
          "display": "Leukocytes [#/volume] in Blood",
          "userSelected": true
        } ]
      },
      "subject": {
        "reference": "Patient/bf104ec1-2d51-4709-ae27-b3ae475454e4"
      },
      "effectiveDateTime": "2026-01-31T07:00:00.000+00:00",
      "issued": "2026-01-31T07:00:00.000+00:00",
      "valueQuantity": {
        "value": 20,
        "unit": "10*3/u"
      }
    },
    "request": {
      "method": "PUT",
      "url": "Observation/a8be5784-d579-4ad6-b0a1-6137d6e9dc74"
    }
  }, {
    "fullUrl": "https://madie.cms.gov/MeasureReport/ff64ee5b-b615-434f-a8f4-89922abeb940",
    "resource": {
      "resourceType": "MeasureReport",
      "id": "ff64ee5b-b615-434f-a8f4-89922abeb940",
      "meta": {
        "profile": [ "http://hl7.org/fhir/us/cqfmeasures/StructureDefinition/test-case-cqfm" ]
      },
      "contained": [ {
        "resourceType": "Parameters",
        "id": "057e8f24-eba6-4327-aa76-b433b20e2340-parameters",
        "parameter": [ {
          "name": "subject",
          "valueString": "bf104ec1-2d51-4709-ae27-b3ae475454e4"
        } ]
      } ],
      "extension": [ {
        "url": "http://hl7.org/fhir/StructureDefinition/cqf-inputParameters",
        "valueReference": {
          "reference": "#057e8f24-eba6-4327-aa76-b433b20e2340-parameters"
        }
      }, {
        "url": "http://hl7.org/fhir/us/cqfmeasures/StructureDefinition/cqfm-testCaseDescription",
        "valueMarkdown": "Patient with WBC that starts 24 hours before ED OB Triage encounter.  \n"
      } ],
      "modifierExtension": [ {
        "url": "http://hl7.org/fhir/us/cqfmeasures/StructureDefinition/cqfm-isTestCase",
        "valueBoolean": true
      } ],
      "status": "complete",
      "type": "individual",
      "measure": "https://madie.cms.gov/Measure/CMS1028FHIRPCSevereOBComps",
      "period": {
        "start": "2026-01-01",
        "end": "2026-12-31"
      },
      "group": [ {
        "id": "Group_1",
        "population": [ {
          "id": "InitialPopulation_1",
          "code": {
            "coding": [ {
              "system": "http://terminology.hl7.org/CodeSystem/measure-population",
              "code": "initial-population",
              "display": "Initial Population"
            } ]
          },
          "count": 1
        }, {
          "id": "Denominator_1",
          "code": {
            "coding": [ {
              "system": "http://terminology.hl7.org/CodeSystem/measure-population",
              "code": "denominator",
              "display": "Denominator"
            } ]
          },
          "count": 1
        }, {
          "id": "Numerator_1",
          "code": {
            "coding": [ {
              "system": "http://terminology.hl7.org/CodeSystem/measure-population",
              "code": "numerator",
              "display": "Numerator"
            } ]
          },
          "count": 0
        }, {
          "id": "NumeratorExclusion_1",
          "code": {
            "coding": [ {
              "system": "http://terminology.hl7.org/CodeSystem/measure-population",
              "code": "numerator-exclusion",
              "display": "Numerator Exclusion"
            } ]
          },
          "count": 0
        } ],
        "measureScore": {
          "value": 0.0
        }
      }, {
        "id": "Group_2",
        "population": [ {
          "id": "InitialPopulation_2",
          "code": {
            "coding": [ {
              "system": "http://terminology.hl7.org/CodeSystem/measure-population",
              "code": "initial-population",
              "display": "Initial Population"
            } ]
          },
          "count": 1
        }, {
          "id": "Denominator_2",
          "code": {
            "coding": [ {
              "system": "http://terminology.hl7.org/CodeSystem/measure-population",
              "code": "denominator",
              "display": "Denominator"
            } ]
          },
          "count": 1
        }, {
          "id": "Numerator_2",
          "code": {
            "coding": [ {
              "system": "http://terminology.hl7.org/CodeSystem/measure-population",
              "code": "numerator",
              "display": "Numerator"
            } ]
          },
          "count": 0
        }, {
          "id": "NumeratorExclusion_2",
          "code": {
            "coding": [ {
              "system": "http://terminology.hl7.org/CodeSystem/measure-population",
              "code": "numerator-exclusion",
              "display": "Numerator Exclusion"
            } ]
          },
          "count": 0
        } ],
        "measureScore": {
          "value": 0.0
        }
      } ],
      "evaluatedResource": [ {
        "reference": "Patient/bf104ec1-2d51-4709-ae27-b3ae475454e4"
      }, {
        "reference": "Observation/31aaf401-ba41-41d1-a4df-b2fcf75e6b68"
      }, {
        "reference": "Observation/423cb320-2341-48fe-981e-311ecb87e32c"
      }, {
        "reference": "Encounter/59f191e0-a675-4be5-8490-52e702267b3c"
      }, {
        "reference": "Encounter/9f5a7d54-dadd-4dc9-a2c8-7149328b065f"
      }, {
        "reference": "Procedure/735f4f62-57f9-492a-ab4f-4d97f044cc73"
      }, {
        "reference": "Observation/a8be5784-d579-4ad6-b0a1-6137d6e9dc74"
      } ]
    },
    "request": {
      "method": "PUT",
      "url": "MeasureReport/ff64ee5b-b615-434f-a8f4-89922abeb940"
    }
  } ]
}