{
  "resourceType": "Bundle",
  "id": "TMT-PATIENT-BUNDLE-59",
  "type": "collection",
  "entry": [ {
    "fullUrl": "https://madie.cms.gov/Patient/ca961cfb-a923-4ace-a62b-76521493586d",
    "resource": {
      "resourceType": "Patient",
      "id": "ca961cfb-a923-4ace-a62b-76521493586d",
      "meta": {
        "profile": [ "http://hl7.org/fhir/us/qicore/StructureDefinition/qicore-patient" ]
      },
      "text": {
        "status": "generated",
        "div": "<div xmlns=\"http://www.w3.org/1999/xhtml\"><div class=\"hapiHeaderText\">DOVE-IPP-PASS <b>PATIENT </b></div><table class=\"hapiPropertyTable\"><tbody><tr><td>Identifier</td><td>679a60f5-1866-49a0-9992-a7ded2451985</td></tr><tr><td>Date of birth</td><td><span>10 May 1960</span></td></tr></tbody></table></div>"
      },
      "extension": [ {
        "url": "http://hl7.org/fhir/us/core/StructureDefinition/us-core-race",
        "extension": [ {
          "url": "ombCategory",
          "valueCoding": {
            "system": "urn:oid:2.16.840.1.113883.6.238",
            "code": "1002-5",
            "display": "American Indian or Alaska Native",
            "userSelected": true
          }
        }, {
          "url": "text",
          "valueString": "American Indian or Alaska Native"
        }, {
          "url": "detailed",
          "valueCoding": {
            "system": "urn:oid:2.16.840.1.113883.6.238",
            "code": "1653-5",
            "display": "Tohono O'Odham"
          }
        } ]
      }, {
        "url": "http://hl7.org/fhir/us/core/StructureDefinition/us-core-ethnicity",
        "extension": [ {
          "url": "ombCategory",
          "valueCoding": {
            "system": "urn:oid:2.16.840.1.113883.6.238",
            "code": "2135-2",
            "display": "Hispanic or Latino",
            "userSelected": true
          }
        }, {
          "url": "text",
          "valueString": "Hispanic or Latino"
        }, {
          "url": "detailed",
          "valueCoding": {
            "system": "urn:oid:2.16.840.1.113883.6.238",
            "code": "2153-5",
            "display": "Mexican American Indian"
          }
        } ]
      }, {
        "id": "sex",
        "url": "http://hl7.org/fhir/us/core/StructureDefinition/us-core-sex",
        "valueCode": "248153007"
      } ],
      "identifier": [ {
        "use": "usual",
        "type": {
          "coding": [ {
            "system": "http://terminology.hl7.org/CodeSystem/v2-0203",
            "code": "MR"
          } ]
        },
        "system": "urn:oid:1.2.36.146.595.217.0.1",
        "value": "12345",
        "period": {
          "start": "1995-05-06"
        },
        "assigner": {
          "display": "Acme Healthcare"
        }
      } ],
      "active": true,
      "name": [ {
        "use": "official",
        "family": "Dovetestpatient59",
        "given": [ "Tom" ]
      } ],
      "telecom": [ {
        "system": "phone",
        "value": "(212) 212 1212",
        "use": "mobile",
        "rank": 1
      } ],
      "gender": "male",
      "birthDate": "1946-02-25",
      "_birthDate": {
        "extension": [ {
          "url": "http://hl7.org/fhir/StructureDefinition/patient-birthTime",
          "valueDateTime": "1946-02-25T19:35:45.000+00:00"
        } ]
      },
      "deceasedBoolean": false,
      "address": [ {
        "use": "home",
        "type": "both",
        "text": "1600 Pennslyvania Ave",
        "line": [ "1600 Pennslyvania Ave" ],
        "city": "Washington DC",
        "state": "DC",
        "postalCode": "20500",
        "period": {
          "start": "1946-12-25"
        }
      } ],
      "contact": [ {
        "relationship": [ {
          "coding": [ {
            "system": "http://terminology.hl7.org/CodeSystem/v2-0131",
            "code": "N"
          } ]
        } ],
        "name": {
          "family": "du Marché",
          "_family": {
            "extension": [ {
              "url": "http://hl7.org/fhir/StructureDefinition/humanname-own-prefix",
              "valueString": "VV"
            } ]
          },
          "given": [ "Bénédicte" ]
        },
        "telecom": [ {
          "system": "phone",
          "value": "+33 (237) 998327"
        } ],
        "address": {
          "use": "home",
          "type": "both",
          "line": [ "534 Erewhon St" ],
          "city": "PleasantVille",
          "district": "Rainbow",
          "state": "VT",
          "postalCode": "3999",
          "period": {
            "start": "1974-12-25"
          }
        },
        "gender": "female",
        "period": {
          "start": "2012"
        }
      } ],
      "managingOrganization": {
        "reference": "Organization/example"
      }
    }
  }, {
    "fullUrl": "https://madie.cms.gov/Encounter/14167bfd-c605-4208-95b2-c4fa0cf5e34d",
    "resource": {
      "resourceType": "Encounter",
      "id": "14167bfd-c605-4208-95b2-c4fa0cf5e34d",
      "meta": {
        "profile": [ "http://hl7.org/fhir/us/qicore/StructureDefinition/qicore-encounter" ]
      },
      "text": {
        "status": "generated",
        "div": "<div xmlns=\"http://www.w3.org/1999/xhtml\"><div class=\"hapiHeaderText\">Generic Resource Narrative for Testing</div><table class=\"hapiPropertyTable\"><tbody><tr><td>Identifier</td><td>resource narrative</td></tr></tbody></table></div>"
      },
      "status": "finished",
      "class": {
        "system": "http://terminology.hl7.org/CodeSystem/v3-ActCode",
        "code": "IMP",
        "display": "inpatient encounter"
      },
      "type": [ {
        "coding": [ {
          "system": "http://snomed.info/sct",
          "code": "183452005",
          "display": "Emergency hospital admission (procedure)"
        } ]
      } ],
      "subject": {
        "reference": "Patient/ca961cfb-a923-4ace-a62b-76521493586d"
      },
      "period": {
        "start": "2026-05-15T02:30:00.000+00:00",
        "end": "2026-05-15T22:30:00.000+00:00"
      },
      "length": {
        "value": 20,
        "unit": "hours"
      },
      "reasonCode": [ {
        "coding": [ {
          "system": "http://hl7.org/fhir/sid/icd-10-cm",
          "code": "I26.01",
          "display": "Septic pulmonary embolism with acute cor pulmonale",
          "userSelected": true
        } ]
      } ],
      "reasonReference": [ {
        "reference": "Condition/051c235d-ee65-4ad5-8e86-1c8b00624dfd"
      } ]
    }
  }, {
    "fullUrl": "https://madie.cms.gov/Condition/c37e1da4-ae93-4298-b557-b6ebcac4f508",
    "resource": {
      "resourceType": "Condition",
      "id": "c37e1da4-ae93-4298-b557-b6ebcac4f508",
      "meta": {
        "profile": [ "http://hl7.org/fhir/us/qicore/StructureDefinition/qicore-condition-encounter-diagnosis" ]
      },
      "text": {
        "status": "generated",
        "div": "<div xmlns=\"http://www.w3.org/1999/xhtml\"><p><b>Generated Narrative: Condition</b><a name=\"appendicitis-example\"> </a></p><div style=\"display: inline-block; background-color: #d9e0e7; padding: 6px; margin: 4px; border: 1px solid #8da1b4; border-radius: 5px; line-height: 60%\"><p style=\"margin-bottom: 0px\">Resource Condition &quot;appendicitis-example&quot; </p><p style=\"margin-bottom: 0px\">Profile: <a href=\"StructureDefinition-qicore-condition-encounter-diagnosis.html\">QICore Condition Encounter Diagnosis</a></p></div><p><b>clinicalStatus</b>: Active <span style=\"background: LightGoldenRodYellow; margin: 4px; border: 1px solid khaki\"> (<a href=\"http://terminology.hl7.org/5.4.0/CodeSystem-condition-clinical.html\">Condition Clinical Status Codes</a>#active)</span></p><p><b>verificationStatus</b>: Confirmed <span style=\"background: LightGoldenRodYellow; margin: 4px; border: 1px solid khaki\"> (<a href=\"http://terminology.hl7.org/5.4.0/CodeSystem-condition-ver-status.html\">ConditionVerificationStatus</a>#confirmed)</span></p><p><b>category</b>: Encounter Diagnosis <span style=\"background: LightGoldenRodYellow; margin: 4px; border: 1px solid khaki\"> (<a href=\"http://terminology.hl7.org/5.4.0/CodeSystem-condition-category.html\">Condition Category Codes</a>#encounter-diagnosis)</span></p><p><b>severity</b>: Severe (severity modifier) <span style=\"background: LightGoldenRodYellow; margin: 4px; border: 1px solid khaki\"> (<a href=\"https://browser.ihtsdotools.org/\">SNOMED CT</a>#24484000)</span></p><p><b>code</b>: Appendicitis <span style=\"background: LightGoldenRodYellow; margin: 4px; border: 1px solid khaki\"> (<a href=\"https://browser.ihtsdotools.org/\">SNOMED CT</a>#74400008 &quot;Appendicitis (disorder)&quot;)</span></p><p><b>bodySite</b>: Appendix structure <span style=\"background: LightGoldenRodYellow; margin: 4px; border: 1px solid khaki\"> (<a href=\"https://browser.ihtsdotools.org/\">SNOMED CT</a>#66754008)</span></p><p><b>subject</b>: <a href=\"Patient-example.html\">Patient/example</a> &quot; CHALMERS&quot;</p><p><b>encounter</b>: <a href=\"Encounter-example.html\">Encounter/example</a></p><p><b>onset</b>: 2012-05-24 00:00:00+0000</p><p><b>recordedDate</b>: 2012-05-24 00:00:00+0000</p></div>"
      },
      "clinicalStatus": {
        "coding": [ {
          "system": "http://terminology.hl7.org/CodeSystem/condition-clinical",
          "code": "active"
        } ]
      },
      "verificationStatus": {
        "coding": [ {
          "system": "http://terminology.hl7.org/CodeSystem/condition-ver-status",
          "code": "confirmed"
        } ]
      },
      "category": [ {
        "coding": [ {
          "system": "http://terminology.hl7.org/CodeSystem/condition-category",
          "code": "encounter-diagnosis",
          "display": "Encounter Diagnosis"
        } ]
      } ],
      "code": {
        "coding": [ {
          "system": "http://hl7.org/fhir/sid/icd-10-cm",
          "code": "I26.01",
          "display": "Septic pulmonary embolism with acute cor pulmonale"
        } ],
        "text": "Septic pulmonary embolism with acute cor pulmonale"
      },
      "subject": {
        "reference": "Patient/ca961cfb-a923-4ace-a62b-76521493586d"
      },
      "encounter": {
        "reference": "Encounter/14167bfd-c605-4208-95b2-c4fa0cf5e34d"
      },
      "onsetDateTime": "2026-05-15T02:30:00.000+00:00",
      "recordedDate": "2026-05-15T22:30:00.000+00:00"
    }
  }, {
    "fullUrl": "https://madie.cms.gov/Encounter/6c252adb-cc9d-4ad4-b677-ebaa1ea6c0b3",
    "resource": {
      "resourceType": "Encounter",
      "id": "6c252adb-cc9d-4ad4-b677-ebaa1ea6c0b3",
      "meta": {
        "profile": [ "http://hl7.org/fhir/us/qicore/StructureDefinition/qicore-encounter" ]
      },
      "text": {
        "status": "generated",
        "div": "<div xmlns=\"http://www.w3.org/1999/xhtml\"><div class=\"hapiHeaderText\">Generic Resource Narrative for Testing</div><table class=\"hapiPropertyTable\"><tbody><tr><td>Identifier</td><td>resource narrative</td></tr></tbody></table></div>"
      },
      "status": "finished",
      "class": {
        "system": "http://terminology.hl7.org/CodeSystem/v3-ActCode",
        "code": "AMB",
        "display": "ambulatory"
      },
      "type": [ {
        "coding": [ {
          "system": "http://www.ama-assn.org/go/cpt",
          "code": "99202",
          "display": "Office or other outpatient visit for the evaluation and management of a new patient, which requires a medically appropriate history and/or examination and straightforward medical decision making. When using time for code selection, 15-29 minutes of total time is spent on the date of the encounter."
        } ]
      } ],
      "subject": {
        "reference": "Patient/ca961cfb-a923-4ace-a62b-76521493586d"
      },
      "period": {
        "start": "2026-05-05T02:30:00.000+00:00",
        "end": "2026-05-05T22:30:00.000+00:00"
      },
      "length": {
        "value": 20,
        "unit": "hours"
      },
      "reasonCode": [ {
        "coding": [ {
          "system": "http://snomed.info/sct",
          "code": "10601006",
          "display": "Pain in lower limb (finding)",
          "userSelected": true
        } ]
      } ],
      "reasonReference": [ {
        "reference": "Condition/541894f8-4a6e-4456-bba4-bb533bd0a1ab"
      } ]
    }
  }, {
    "fullUrl": "https://madie.cms.gov/Condition/541894f8-4a6e-4456-bba4-bb533bd0a1ab",
    "resource": {
      "resourceType": "Condition",
      "id": "541894f8-4a6e-4456-bba4-bb533bd0a1ab",
      "meta": {
        "profile": [ "http://hl7.org/fhir/us/qicore/StructureDefinition/qicore-condition-encounter-diagnosis" ]
      },
      "text": {
        "status": "generated",
        "div": "<div xmlns=\"http://www.w3.org/1999/xhtml\"><p><b>Generated Narrative: Condition</b><a name=\"appendicitis-example\"> </a></p><div style=\"display: inline-block; background-color: #d9e0e7; padding: 6px; margin: 4px; border: 1px solid #8da1b4; border-radius: 5px; line-height: 60%\"><p style=\"margin-bottom: 0px\">Resource Condition &quot;appendicitis-example&quot; </p><p style=\"margin-bottom: 0px\">Profile: <a href=\"StructureDefinition-qicore-condition-encounter-diagnosis.html\">QICore Condition Encounter Diagnosis</a></p></div><p><b>clinicalStatus</b>: Active <span style=\"background: LightGoldenRodYellow; margin: 4px; border: 1px solid khaki\"> (<a href=\"http://terminology.hl7.org/5.4.0/CodeSystem-condition-clinical.html\">Condition Clinical Status Codes</a>#active)</span></p><p><b>verificationStatus</b>: Confirmed <span style=\"background: LightGoldenRodYellow; margin: 4px; border: 1px solid khaki\"> (<a href=\"http://terminology.hl7.org/5.4.0/CodeSystem-condition-ver-status.html\">ConditionVerificationStatus</a>#confirmed)</span></p><p><b>category</b>: Encounter Diagnosis <span style=\"background: LightGoldenRodYellow; margin: 4px; border: 1px solid khaki\"> (<a href=\"http://terminology.hl7.org/5.4.0/CodeSystem-condition-category.html\">Condition Category Codes</a>#encounter-diagnosis)</span></p><p><b>severity</b>: Severe (severity modifier) <span style=\"background: LightGoldenRodYellow; margin: 4px; border: 1px solid khaki\"> (<a href=\"https://browser.ihtsdotools.org/\">SNOMED CT</a>#24484000)</span></p><p><b>code</b>: Appendicitis <span style=\"background: LightGoldenRodYellow; margin: 4px; border: 1px solid khaki\"> (<a href=\"https://browser.ihtsdotools.org/\">SNOMED CT</a>#74400008 &quot;Appendicitis (disorder)&quot;)</span></p><p><b>bodySite</b>: Appendix structure <span style=\"background: LightGoldenRodYellow; margin: 4px; border: 1px solid khaki\"> (<a href=\"https://browser.ihtsdotools.org/\">SNOMED CT</a>#66754008)</span></p><p><b>subject</b>: <a href=\"Patient-example.html\">Patient/example</a> &quot; CHALMERS&quot;</p><p><b>encounter</b>: <a href=\"Encounter-example.html\">Encounter/example</a></p><p><b>onset</b>: 2012-05-24 00:00:00+0000</p><p><b>recordedDate</b>: 2012-05-24 00:00:00+0000</p></div>"
      },
      "clinicalStatus": {
        "coding": [ {
          "system": "http://terminology.hl7.org/CodeSystem/condition-clinical",
          "code": "active"
        } ]
      },
      "verificationStatus": {
        "coding": [ {
          "system": "http://terminology.hl7.org/CodeSystem/condition-ver-status",
          "code": "confirmed"
        } ]
      },
      "category": [ {
        "coding": [ {
          "system": "http://terminology.hl7.org/CodeSystem/condition-category",
          "code": "encounter-diagnosis",
          "display": "Encounter Diagnosis"
        } ]
      } ],
      "code": {
        "coding": [ {
          "system": "http://snomed.info/sct",
          "code": "10601006",
          "display": "Pain in lower limb (finding)"
        } ],
        "text": "Pain in lower limb (finding)"
      },
      "subject": {
        "reference": "Patient/ca961cfb-a923-4ace-a62b-76521493586d"
      },
      "encounter": {
        "reference": "Encounter/6c252adb-cc9d-4ad4-b677-ebaa1ea6c0b3"
      },
      "onsetDateTime": "2026-05-05T02:30:00.000+00:00",
      "recordedDate": "2026-05-05T22:30:00.000+00:00"
    }
  }, {
    "fullUrl": "https://madie.cms.gov/DiagnosticReport/45b42ce7-d35d-4a1d-b4cd-ba0172748953",
    "resource": {
      "resourceType": "DiagnosticReport",
      "id": "45b42ce7-d35d-4a1d-b4cd-ba0172748953",
      "meta": {
        "profile": [ "http://hl7.org/fhir/us/qicore/StructureDefinition/qicore-diagnosticreport-note" ]
      },
      "text": {
        "status": "generated",
        "div": "<div xmlns=\"http://www.w3.org/1999/xhtml\"><p><b>Generated Narrative: DiagnosticReport</b><a name=\"clinical-result-heart-rate-rhythm\"> </a></p><div style=\"display: inline-block; background-color: #d9e0e7; padding: 6px; margin: 4px; border: 1px solid #8da1b4; border-radius: 5px; line-height: 60%\"><p style=\"margin-bottom: 0px\">Resource Observation &quot;clinical-result-heart-rate-rhythm&quot; </p><p style=\"margin-bottom: 0px\">Profile: <a href=\"StructureDefinition-qicore-observation-clinical-result.html\">QICore Observation Clinical Result</a></p></div><p><b>status</b>: final</p><p><b>category</b>: Exam <span style=\"background: LightGoldenRodYellow; margin: 4px; border: 1px solid khaki\"> (<a href=\"http://terminology.hl7.org/5.4.0/CodeSystem-observation-category.html\">Observation Category Codes</a>#exam)</span></p><p><b>code</b>: Heart rate rhythm <span style=\"background: LightGoldenRodYellow; margin: 4px; border: 1px solid khaki\"> (<a href=\"https://loinc.org/\">LOINC</a>#8884-9)</span></p><p><b>subject</b>: <a href=\"Patient-example.html\">Patient/example</a> &quot; CHALMERS&quot;</p><p><b>encounter</b>: <span>: Cardiology Consult</span></p><p><b>effective</b>: 2021-11-10 16:48:57-0800</p><p><b>performer</b>: <a href=\"Practitioner-example.html\">Practitioner/example: Practitioner</a> &quot; CAREFUL&quot;</p><p><b>value</b>: Regular (R)</p></div>"
      },
      "status": "final",
      "category": [ {
        "coding": [ {
          "system": "http://loinc.org",
          "code": "LP29684-5",
          "display": "Radiology"
        } ],
        "text": "Imaging"
      } ],
      "code": {
        "coding": [ {
          "system": "http://www.ama-assn.org/go/cpt",
          "code": "71260",
          "display": "Computed tomography, thorax, diagnostic; with contrast material(s)"
        } ],
        "text": "Computed tomography, thorax, diagnostic; with contrast material(s)"
      },
      "subject": {
        "reference": "Patient/ca961cfb-a923-4ace-a62b-76521493586d"
      },
      "encounter": {
        "display": "Computed tomography"
      },
      "effectiveDateTime": "2026-05-15T17:48:57.000+00:00",
      "performer": [ {
        "reference": "Practitioner/example",
        "display": "Practitioner"
      } ]
    }
  }, {
    "fullUrl": "https://madie.cms.gov/MedicationRequest/d54d6799-f609-4db5-92a4-5f0ab9bf332b",
    "resource": {
      "resourceType": "MedicationRequest",
      "id": "d54d6799-f609-4db5-92a4-5f0ab9bf332b",
      "meta": {
        "profile": [ "http://hl7.org/fhir/us/qicore/StructureDefinition/qicore-medicationrequest" ]
      },
      "text": {
        "status": "generated",
        "div": "<div xmlns=\"http://www.w3.org/1999/xhtml\"><div class=\"hapiHeaderText\">Generic Resource Narrative for Testing</div><table class=\"hapiPropertyTable\"><tbody><tr><td>Identifier</td><td>resource narrative</td></tr></tbody></table></div>"
      },
      "status": "active",
      "intent": "order",
      "category": [ {
        "coding": [ {
          "system": "http://terminology.hl7.org/CodeSystem/medicationrequest-category",
          "code": "discharge",
          "display": "Discharge",
          "userSelected": true
        } ]
      } ],
      "medicationCodeableConcept": {
        "coding": [ {
          "system": "http://www.nlm.nih.gov/research/umls/rxnorm",
          "code": "114194"
        } ]
      },
      "subject": {
        "reference": "Patient/ca961cfb-a923-4ace-a62b-76521493586d"
      },
      "authoredOn": "2026-05-15T06:30:00.000+00:00",
      "requester": {
        "reference": "Practitioner/example"
      }
    }
  }, {
    "fullUrl": "https://madie.cms.gov/Procedure/17e8ecd7-1e01-4c2a-bb3d-a6045f359aea",
    "resource": {
      "resourceType": "Procedure",
      "id": "17e8ecd7-1e01-4c2a-bb3d-a6045f359aea",
      "meta": {
        "profile": [ "http://hl7.org/fhir/us/qicore/StructureDefinition/qicore-procedure" ]
      },
      "text": {
        "status": "generated",
        "div": "<div xmlns=\"http://www.w3.org/1999/xhtml\"><div class=\"hapiHeaderText\">Generic Resource Narrative for Testing</div><table class=\"hapiPropertyTable\"><tbody><tr><td>Identifier</td><td>resource narrative</td></tr></tbody></table></div>"
      },
      "extension": [ {
        "url": "http://hl7.org/fhir/us/qicore/StructureDefinition/qicore-recorded",
        "valueDateTime": "2027-12-31T09:00:00.000+00:00"
      } ],
      "status": "completed",
      "code": {
        "coding": [ {
          "system": "http://snomed.info/sct",
          "code": "395670002",
          "display": "Specialist palliative care treatment - inpatient (regime/therapy)",
          "userSelected": true
        } ]
      },
      "subject": {
        "reference": "Patient/ca961cfb-a923-4ace-a62b-76521493586d"
      },
      "performedDateTime": "2026-02-14T22:30:00.000+00:00"
    }
  }, {
    "fullUrl": "https://madie.cms.gov/Coverage/b2528bc7-b63f-431b-8c49-75172c23e87d",
    "resource": {
      "resourceType": "Coverage",
      "id": "b2528bc7-b63f-431b-8c49-75172c23e87d",
      "meta": {
        "profile": [ "http://hl7.org/fhir/us/qicore/StructureDefinition/qicore-coverage" ]
      },
      "text": {
        "status": "generated",
        "div": "<div xmlns=\"http://www.w3.org/1999/xhtml\"><div class=\"hapiHeaderText\">Generic Resource Narrative for Testing</div><table class=\"hapiPropertyTable\"><tbody><tr><td>Identifier</td><td>resource narrative</td></tr></tbody></table></div>"
      },
      "status": "active",
      "type": {
        "coding": [ {
          "system": "https://nahdo.org/sopt",
          "code": "59",
          "display": "Other Private Insurance"
        } ]
      },
      "policyHolder": {
        "reference": "Patient/ca961cfb-a923-4ace-a62b-76521493586d"
      },
      "subscriber": {
        "reference": "Patient/ca961cfb-a923-4ace-a62b-76521493586d"
      },
      "subscriberId": "888009336",
      "beneficiary": {
        "reference": "Patient/ca961cfb-a923-4ace-a62b-76521493586d"
      },
      "dependent": "0",
      "relationship": {
        "coding": [ {
          "system": "http://terminology.hl7.org/CodeSystem/subscriber-relationship",
          "code": "self"
        } ]
      },
      "period": {
        "start": "2026-01-10T08:00:00.000+00:00",
        "end": "2026-12-31T08:15:00.000+00:00"
      },
      "payor": [ {
        "reference": "Organization/214b3893-dd03-4117-b73d-aff2a59a1b3b"
      } ]
    }
  }, {
    "fullUrl": "https://madie.cms.gov/Claim/3b6c3bdb-fde4-438e-8e3d-0ea87509d90a",
    "resource": {
      "resourceType": "Claim",
      "id": "3b6c3bdb-fde4-438e-8e3d-0ea87509d90a",
      "meta": {
        "profile": [ "http://hl7.org/fhir/us/qicore/StructureDefinition/qicore-claim" ]
      },
      "text": {
        "status": "generated",
        "div": "<div xmlns=\"http://www.w3.org/1999/xhtml\"><div class=\"hapiHeaderText\">Generic Resource Narrative for Testing</div><table class=\"hapiPropertyTable\"><tbody><tr><td>Identifier</td><td>resource narrative</td></tr></tbody></table></div>"
      },
      "status": "active",
      "type": {
        "coding": [ {
          "system": "http://terminology.hl7.org/CodeSystem/claim-type",
          "code": "institutional"
        } ]
      },
      "use": "claim",
      "patient": {
        "reference": "Patient/ca961cfb-a923-4ace-a62b-76521493586d"
      },
      "created": "2026-01-01",
      "provider": {
        "reference": "Practitioner/practitioner-123456"
      },
      "priority": {
        "coding": [ {
          "system": "http://terminology.hl7.org/CodeSystem/processpriority",
          "code": "normal"
        } ]
      },
      "diagnosis": [ {
        "sequence": 1,
        "diagnosisCodeableConcept": {
          "coding": [ {
            "system": "http://hl7.org/fhir/sid/icd-10-cm",
            "code": "I63.00"
          } ]
        },
        "type": [ {
          "coding": [ {
            "system": "http://terminology.hl7.org/CodeSystem/ex-diagnosistype",
            "code": "principal"
          } ]
        } ]
      } ],
      "insurance": [ {
        "sequence": 1,
        "focal": true,
        "coverage": {
          "reference": "Coverage/5fa041661c76ba66d9959367"
        }
      } ],
      "item": [ {
        "sequence": 1,
        "diagnosisSequence": [ 1 ],
        "productOrService": {
          "coding": [ {
            "system": "http://terminology.hl7.org/CodeSystem/ex-USCLS",
            "code": "99555"
          } ]
        },
        "encounter": [ {
          "reference": "Encounter/14167bfd-c605-4208-95b2-c4fa0cf5e34d"
        } ]
      } ]
    }
  }, {
    "fullUrl": "https://madie.cms.gov/Organization/214b3893-dd03-4117-b73d-aff2a59a1b3b",
    "resource": {
      "resourceType": "Organization",
      "id": "214b3893-dd03-4117-b73d-aff2a59a1b3b",
      "meta": {
        "profile": [ "http://hl7.org/fhir/us/qicore/StructureDefinition/qicore-organization" ]
      },
      "text": {
        "status": "generated",
        "div": "<div xmlns=\"http://www.w3.org/1999/xhtml\"><div class=\"hapiHeaderText\">Generic Resource Narrative for Testing</div><table class=\"hapiPropertyTable\"><tbody><tr><td>Identifier</td><td>resource narrative</td></tr></tbody></table></div>"
      },
      "identifier": [ {
        "use": "temp",
        "system": "urn:oid:2.16.840.1.113883.4.4",
        "value": "21-3259825"
      } ],
      "active": true,
      "type": [ {
        "coding": [ {
          "system": "http://terminology.hl7.org/CodeSystem/organization-type",
          "code": "pay",
          "display": "Payer"
        } ]
      } ],
      "name": "Blue Cross Blue Shield of Texas",
      "telecom": [ {
        "system": "phone",
        "value": "(+1) 972-766-6900"
      } ],
      "address": [ {
        "use": "billing",
        "type": "postal",
        "line": [ "P.O. Box 660044" ],
        "city": "Dallas",
        "state": "TX",
        "postalCode": "75266-0044",
        "country": "USA"
      } ]
    }
  }, {
    "fullUrl": "https://madie.cms.gov/MeasureReport/d874a1f8-9004-4bde-ae62-cfa9befbc4c2",
    "resource": {
      "resourceType": "MeasureReport",
      "id": "d874a1f8-9004-4bde-ae62-cfa9befbc4c2",
      "meta": {
        "profile": [ "http://hl7.org/fhir/us/cqfmeasures/StructureDefinition/test-case-cqfm" ]
      },
      "contained": [ {
        "resourceType": "Parameters",
        "id": "25abb001-64b2-4dcd-ac80-f39484c16225-parameters",
        "parameter": [ {
          "name": "subject",
          "valueString": "ca961cfb-a923-4ace-a62b-76521493586d"
        } ]
      } ],
      "extension": [ {
        "url": "http://hl7.org/fhir/StructureDefinition/cqf-inputParameters",
        "valueReference": {
          "reference": "#25abb001-64b2-4dcd-ac80-f39484c16225-parameters"
        }
      }, {
        "url": "http://hl7.org/fhir/us/cqfmeasures/StructureDefinition/cqfm-testCaseDescription",
        "valueMarkdown": "Patient has an palliative care procedure done exactly 90 days before the end of the qualified VTE encounter"
      } ],
      "modifierExtension": [ {
        "url": "http://hl7.org/fhir/us/cqfmeasures/StructureDefinition/cqfm-isTestCase",
        "valueBoolean": true
      } ],
      "status": "complete",
      "type": "individual",
      "measure": "https://madie.cms.gov/Measure/CMS1173FHIRDiagnosticDelayVTE",
      "period": {
        "start": "2026-01-01",
        "end": "2026-12-31"
      },
      "group": [ {
        "id": "Group_1",
        "population": [ {
          "id": "InitialPopulation_1",
          "code": {
            "coding": [ {
              "system": "http://terminology.hl7.org/CodeSystem/measure-population",
              "code": "initial-population",
              "display": "Initial Population"
            } ]
          },
          "count": 1
        }, {
          "id": "Denominator_1",
          "code": {
            "coding": [ {
              "system": "http://terminology.hl7.org/CodeSystem/measure-population",
              "code": "denominator",
              "display": "Denominator"
            } ]
          },
          "count": 1
        }, {
          "id": "DenominatorExclusion_1",
          "code": {
            "coding": [ {
              "system": "http://terminology.hl7.org/CodeSystem/measure-population",
              "code": "denominator-exclusion",
              "display": "Denominator Exclusion"
            } ]
          },
          "count": 1
        }, {
          "id": "Numerator_1",
          "code": {
            "coding": [ {
              "system": "http://terminology.hl7.org/CodeSystem/measure-population",
              "code": "numerator",
              "display": "Numerator"
            } ]
          },
          "count": 0
        } ],
        "measureScore": {
          "value": 0.0
        }
      } ],
      "evaluatedResource": [ {
        "reference": "Patient/ca961cfb-a923-4ace-a62b-76521493586d"
      }, {
        "reference": "Encounter/14167bfd-c605-4208-95b2-c4fa0cf5e34d"
      }, {
        "reference": "Condition/c37e1da4-ae93-4298-b557-b6ebcac4f508"
      }, {
        "reference": "Encounter/6c252adb-cc9d-4ad4-b677-ebaa1ea6c0b3"
      }, {
        "reference": "Condition/541894f8-4a6e-4456-bba4-bb533bd0a1ab"
      }, {
        "reference": "DiagnosticReport/45b42ce7-d35d-4a1d-b4cd-ba0172748953"
      }, {
        "reference": "MedicationRequest/d54d6799-f609-4db5-92a4-5f0ab9bf332b"
      }, {
        "reference": "Procedure/17e8ecd7-1e01-4c2a-bb3d-a6045f359aea"
      }, {
        "reference": "Coverage/b2528bc7-b63f-431b-8c49-75172c23e87d"
      }, {
        "reference": "Claim/3b6c3bdb-fde4-438e-8e3d-0ea87509d90a"
      }, {
        "reference": "Organization/214b3893-dd03-4117-b73d-aff2a59a1b3b"
      } ]
    }
  } ]
}