{
  "resourceType": "Bundle",
  "id": "Patient-2-IPPass-PatientAge75",
  "type": "transaction",
  "entry": [ {
    "fullUrl": "https://madie.cms.gov/Patient/090ad2fc-274b-4fef-bc5a-2077dbdc28f5",
    "resource": {
      "resourceType": "Patient",
      "id": "090ad2fc-274b-4fef-bc5a-2077dbdc28f5",
      "meta": {
        "profile": [ "http://hl7.org/fhir/us/qicore/StructureDefinition/qicore-patient" ]
      },
      "extension": [ {
        "url": "http://hl7.org/fhir/us/core/StructureDefinition/us-core-race",
        "extension": [ {
          "url": "ombCategory",
          "valueCoding": {
            "system": "urn:oid:2.16.840.1.113883.6.238",
            "code": "2028-9",
            "display": "Asian"
          }
        }, {
          "url": "text",
          "valueString": "Asian"
        } ]
      }, {
        "url": "http://hl7.org/fhir/us/core/StructureDefinition/us-core-ethnicity",
        "extension": [ {
          "url": "ombCategory",
          "valueCoding": {
            "system": "urn:oid:2.16.840.1.113883.6.238",
            "code": "2135-2",
            "display": "Hispanic or Latino"
          }
        }, {
          "url": "text",
          "valueString": "Hispanic or Latino"
        } ]
      } ],
      "identifier": [ {
        "system": "http://hospital.smarthealthit.org",
        "value": "999999995"
      } ],
      "name": [ {
        "family": "Bertha",
        "given": [ "Betty" ]
      } ],
      "gender": "female",
      "birthDate": "1951-01-01"
    },
    "request": {
      "method": "PUT",
      "url": "Patient/090ad2fc-274b-4fef-bc5a-2077dbdc28f5"
    }
  }, {
    "fullUrl": "https://madie.cms.gov/Encounter/f9c844d6-ea2d-4c4c-8e50-dad4577c9964",
    "resource": {
      "resourceType": "Encounter",
      "id": "f9c844d6-ea2d-4c4c-8e50-dad4577c9964",
      "meta": {
        "profile": [ "http://hl7.org/fhir/us/qicore/StructureDefinition/qicore-encounter" ]
      },
      "status": "finished",
      "class": {
        "system": "http://terminology.hl7.org/CodeSystem/v3-ActCode",
        "code": "AMB",
        "display": "ambulatory"
      },
      "type": [ {
        "coding": [ {
          "system": "http://snomed.info/sct",
          "code": "185460008",
          "display": "Home visit request by patient (procedure)"
        } ]
      } ],
      "subject": {
        "reference": "Patient/090ad2fc-274b-4fef-bc5a-2077dbdc28f5"
      },
      "period": {
        "start": "2026-01-01T00:00:00.000+00:00",
        "end": "2026-01-01T00:15:00.000+00:00"
      }
    },
    "request": {
      "method": "PUT",
      "url": "Encounter/f9c844d6-ea2d-4c4c-8e50-dad4577c9964"
    }
  }, {
    "fullUrl": "https://madie.cms.gov/Condition/eb2b7436-7416-40a0-a1e2-c342a2f52bae",
    "resource": {
      "resourceType": "Condition",
      "id": "eb2b7436-7416-40a0-a1e2-c342a2f52bae",
      "meta": {
        "profile": [ "http://hl7.org/fhir/us/qicore/StructureDefinition/qicore-condition-encounter-diagnosis" ]
      },
      "clinicalStatus": {
        "coding": [ {
          "system": "http://terminology.hl7.org/CodeSystem/condition-clinical",
          "code": "active"
        } ]
      },
      "category": [ {
        "coding": [ {
          "system": "http://terminology.hl7.org/CodeSystem/condition-category",
          "code": "encounter-diagnosis",
          "display": "Encounter Diagnosis"
        } ]
      } ],
      "code": {
        "coding": [ {
          "system": "http://snomed.info/sct",
          "code": "102781000119107",
          "display": "Sensory neuropathy due to type 1 diabetes mellitus (disorder)"
        } ]
      },
      "subject": {
        "reference": "Patient/090ad2fc-274b-4fef-bc5a-2077dbdc28f5"
      },
      "onsetDateTime": "2026-01-01T23:59:00.000+00:00"
    },
    "request": {
      "method": "PUT",
      "url": "Condition/eb2b7436-7416-40a0-a1e2-c342a2f52bae"
    }
  }, {
    "fullUrl": "https://madie.cms.gov/MeasureReport/ca30e820-61f7-448c-b61b-3fe777fbbb40",
    "resource": {
      "resourceType": "MeasureReport",
      "id": "ca30e820-61f7-448c-b61b-3fe777fbbb40",
      "meta": {
        "profile": [ "http://hl7.org/fhir/us/cqfmeasures/StructureDefinition/test-case-cqfm" ]
      },
      "contained": [ {
        "resourceType": "Parameters",
        "id": "3f93af0a-923c-482c-ab49-c44c888be9ae-parameters",
        "parameter": [ {
          "name": "subject",
          "valueString": "090ad2fc-274b-4fef-bc5a-2077dbdc28f5"
        } ]
      } ],
      "extension": [ {
        "url": "http://hl7.org/fhir/StructureDefinition/cqf-inputParameters",
        "valueReference": {
          "reference": "#3f93af0a-923c-482c-ab49-c44c888be9ae-parameters"
        }
      }, {
        "url": "http://hl7.org/fhir/us/cqfmeasures/StructureDefinition/cqfm-testCaseDescription",
        "valueMarkdown": "Correct age (age 75)"
      } ],
      "modifierExtension": [ {
        "url": "http://hl7.org/fhir/us/cqfmeasures/StructureDefinition/cqfm-isTestCase",
        "valueBoolean": true
      } ],
      "status": "complete",
      "type": "individual",
      "measure": "https://madie.cms.gov/Measure/CMS122FHIRDiabetesAssessGT9Pct",
      "period": {
        "start": "2026-01-01",
        "end": "2026-12-31"
      },
      "group": [ {
        "id": "Group_1",
        "population": [ {
          "id": "InitialPopulation_1",
          "code": {
            "coding": [ {
              "system": "http://terminology.hl7.org/CodeSystem/measure-population",
              "code": "initial-population",
              "display": "Initial Population"
            } ]
          },
          "count": 1
        }, {
          "id": "Denominator_1",
          "code": {
            "coding": [ {
              "system": "http://terminology.hl7.org/CodeSystem/measure-population",
              "code": "denominator",
              "display": "Denominator"
            } ]
          },
          "count": 1
        }, {
          "id": "DenominatorExclusion_1",
          "code": {
            "coding": [ {
              "system": "http://terminology.hl7.org/CodeSystem/measure-population",
              "code": "denominator-exclusion",
              "display": "Denominator Exclusion"
            } ]
          },
          "count": 0
        }, {
          "id": "Numerator_1",
          "code": {
            "coding": [ {
              "system": "http://terminology.hl7.org/CodeSystem/measure-population",
              "code": "numerator",
              "display": "Numerator"
            } ]
          },
          "count": 1
        } ],
        "measureScore": {
          "value": 1.0
        }
      } ],
      "evaluatedResource": [ {
        "reference": "Patient/090ad2fc-274b-4fef-bc5a-2077dbdc28f5"
      }, {
        "reference": "Encounter/f9c844d6-ea2d-4c4c-8e50-dad4577c9964"
      }, {
        "reference": "Condition/eb2b7436-7416-40a0-a1e2-c342a2f52bae"
      } ]
    },
    "request": {
      "method": "PUT",
      "url": "MeasureReport/ca30e820-61f7-448c-b61b-3fe777fbbb40"
    }
  } ]
}