{
  "resourceType": "Bundle",
  "id": "612e6b5d02c62a011f2ed7ba",
  "type": "transaction",
  "entry": [ {
    "fullUrl": "https://madie.cms.gov/Patient/fa49d072-3d0c-4140-b2f8-d29c55346aa8",
    "resource": {
      "resourceType": "Patient",
      "id": "fa49d072-3d0c-4140-b2f8-d29c55346aa8",
      "meta": {
        "profile": [ "http://hl7.org/fhir/us/qicore/StructureDefinition/qicore-patient" ]
      },
      "text": {
        "status": "generated",
        "div": "<div xmlns=\"http://www.w3.org/1999/xhtml\"><div class=\"hapiHeaderText\">MA_UHep_EDendTimeOnIPEncStrtTm <b>NUMERPASS </b></div><table class=\"hapiPropertyTable\"><tbody><tr><td>Identifier</td><td>613a0a42598b5d681406521f174c78ac</td></tr><tr><td>Date of birth</td><td><span>02 January 1974</span></td></tr></tbody></table></div>"
      },
      "extension": [ {
        "url": "http://hl7.org/fhir/us/core/StructureDefinition/us-core-race",
        "extension": [ {
          "url": "ombCategory",
          "valueCoding": {
            "system": "urn:oid:2.16.840.1.113883.6.238",
            "code": "1002-5",
            "display": "American Indian or Alaska Native",
            "userSelected": true
          }
        }, {
          "url": "text",
          "valueString": "American Indian or Alaska Native"
        } ]
      }, {
        "url": "http://hl7.org/fhir/us/core/StructureDefinition/us-core-ethnicity",
        "extension": [ {
          "url": "ombCategory",
          "valueCoding": {
            "system": "urn:oid:2.16.840.1.113883.6.238",
            "code": "2135-2",
            "display": "Hispanic or Latino",
            "userSelected": true
          }
        }, {
          "url": "text",
          "valueString": "Hispanic or Latino"
        } ]
      } ],
      "identifier": [ {
        "type": {
          "coding": [ {
            "system": "http://terminology.hl7.org/CodeSystem/v2-0203",
            "code": "MR"
          } ]
        },
        "system": "https://bonnie-fhir.healthit.gov/",
        "value": "612e6b5d02c62a011f2ed7ba"
      } ],
      "active": true,
      "name": [ {
        "use": "usual",
        "family": "NUMERPass",
        "given": [ "MAUHepEDendTimeOnIPEncStrtTm" ]
      } ],
      "gender": "male",
      "birthDate": "1975-01-02"
    },
    "request": {
      "method": "PUT",
      "url": "Patient/fa49d072-3d0c-4140-b2f8-d29c55346aa8"
    }
  }, {
    "fullUrl": "https://madie.cms.gov/Encounter/aab5b950-edc1-41cc-bcc3-41425106cfd8",
    "resource": {
      "resourceType": "Encounter",
      "id": "aab5b950-edc1-41cc-bcc3-41425106cfd8",
      "meta": {
        "profile": [ "http://hl7.org/fhir/us/qicore/StructureDefinition/qicore-encounter" ]
      },
      "status": "finished",
      "class": {
        "system": "http://terminology.hl7.org/CodeSystem/v3-ActCode",
        "code": "EMER",
        "display": "emergency"
      },
      "type": [ {
        "coding": [ {
          "system": "http://snomed.info/sct",
          "code": "4525004"
        } ]
      } ],
      "subject": {
        "reference": "Patient/fa49d072-3d0c-4140-b2f8-d29c55346aa8"
      },
      "period": {
        "start": "2026-10-30T06:00:00.000+00:00",
        "end": "2026-11-01T08:00:00.000+00:00"
      },
      "length": {
        "value": 2,
        "unit": "days"
      }
    },
    "request": {
      "method": "PUT",
      "url": "Encounter/aab5b950-edc1-41cc-bcc3-41425106cfd8"
    }
  }, {
    "fullUrl": "https://madie.cms.gov/Encounter/61d97bb3-a3d0-4536-a39e-4b2c89931b84",
    "resource": {
      "resourceType": "Encounter",
      "id": "61d97bb3-a3d0-4536-a39e-4b2c89931b84",
      "meta": {
        "profile": [ "http://hl7.org/fhir/us/qicore/StructureDefinition/qicore-encounter" ]
      },
      "status": "finished",
      "class": {
        "system": "http://terminology.hl7.org/CodeSystem/v3-ActCode",
        "code": "IMP",
        "display": "inpatient encounter"
      },
      "type": [ {
        "coding": [ {
          "system": "http://snomed.info/sct",
          "code": "8715000"
        } ]
      } ],
      "subject": {
        "reference": "Patient/fa49d072-3d0c-4140-b2f8-d29c55346aa8"
      },
      "period": {
        "start": "2026-11-01T08:00:00.000+00:00",
        "end": "2026-11-26T08:15:00.000+00:00"
      },
      "length": {
        "value": 25,
        "unit": "days"
      }
    },
    "request": {
      "method": "PUT",
      "url": "Encounter/61d97bb3-a3d0-4536-a39e-4b2c89931b84"
    }
  }, {
    "fullUrl": "https://madie.cms.gov/Coverage/c944b33b-6c1f-4816-a19a-950219aeb61b",
    "resource": {
      "resourceType": "Coverage",
      "id": "c944b33b-6c1f-4816-a19a-950219aeb61b",
      "status": "active",
      "beneficiary": {
        "reference": "Patient/fa49d072-3d0c-4140-b2f8-d29c55346aa8"
      },
      "period": {
        "start": "1975-01-02T08:00:00.000+00:00"
      },
      "payor": [ {
        "reference": "Organization/fb65cf2f-c25f-45b7-82f8-12824f7c6ca0"
      } ]
    },
    "request": {
      "method": "PUT",
      "url": "Coverage/c944b33b-6c1f-4816-a19a-950219aeb61b"
    }
  }, {
    "fullUrl": "https://madie.cms.gov/MedicationAdministration/fd3ec788-0bf8-4258-b232-cf63f0ec2850",
    "resource": {
      "resourceType": "MedicationAdministration",
      "id": "fd3ec788-0bf8-4258-b232-cf63f0ec2850",
      "meta": {
        "profile": [ "http://hl7.org/fhir/us/qicore/StructureDefinition/qicore-medicationadministration" ]
      },
      "status": "completed",
      "medicationCodeableConcept": {
        "coding": [ {
          "system": "http://www.nlm.nih.gov/research/umls/rxnorm",
          "code": "1361607"
        } ]
      },
      "subject": {
        "reference": "Patient/fa49d072-3d0c-4140-b2f8-d29c55346aa8"
      },
      "effectivePeriod": {
        "start": "2026-11-01T06:00:00.000+00:00",
        "end": "2026-11-01T07:00:00.000+00:00"
      },
      "dosage": {
        "route": {
          "coding": [ {
            "system": "http://snomed.info/sct",
            "code": "418114005",
            "display": "Intravenous route"
          } ]
        },
        "dose": {
          "value": 500,
          "unit": "ml",
          "system": "http://unitsofmeasure.org",
          "code": "ml"
        }
      }
    },
    "request": {
      "method": "PUT",
      "url": "MedicationAdministration/fd3ec788-0bf8-4258-b232-cf63f0ec2850"
    }
  }, {
    "fullUrl": "https://madie.cms.gov/Organization/fb65cf2f-c25f-45b7-82f8-12824f7c6ca0",
    "resource": {
      "resourceType": "Organization",
      "id": "fb65cf2f-c25f-45b7-82f8-12824f7c6ca0",
      "meta": {
        "profile": [ "http://hl7.org/fhir/us/qicore/StructureDefinition/qicore-organization" ]
      },
      "identifier": [ {
        "use": "temp",
        "system": "urn:oid:2.16.840.1.113883.4.4",
        "value": "21-3259825"
      } ],
      "active": true,
      "type": [ {
        "coding": [ {
          "system": "http://terminology.hl7.org/CodeSystem/organization-type",
          "code": "pay",
          "display": "Payer"
        } ]
      } ],
      "name": "Blue Cross Blue Shield of Texas",
      "telecom": [ {
        "system": "phone",
        "value": "(+1) 972-766-6900"
      } ],
      "address": [ {
        "use": "billing",
        "type": "postal",
        "line": [ "P.O. Box 660044" ],
        "city": "Dallas",
        "state": "TX",
        "postalCode": "75266-0044",
        "country": "USA"
      } ]
    },
    "request": {
      "method": "PUT",
      "url": "Organization/fb65cf2f-c25f-45b7-82f8-12824f7c6ca0"
    }
  }, {
    "fullUrl": "https://madie.cms.gov/Practitioner/e18d27e1-7757-4d27-8407-9c0b40cd018a",
    "resource": {
      "resourceType": "Practitioner",
      "id": "e18d27e1-7757-4d27-8407-9c0b40cd018a",
      "identifier": [ {
        "system": "http://hl7.org/fhir/sid/us-npi",
        "value": "123456"
      } ],
      "name": [ {
        "family": "Evil",
        "prefix": [ "Dr" ]
      } ]
    },
    "request": {
      "method": "PUT",
      "url": "Practitioner/e18d27e1-7757-4d27-8407-9c0b40cd018a"
    }
  }, {
    "fullUrl": "https://madie.cms.gov/MeasureReport/b879c55d-3900-4fa2-93b8-650df39bad1e",
    "resource": {
      "resourceType": "MeasureReport",
      "id": "b879c55d-3900-4fa2-93b8-650df39bad1e",
      "meta": {
        "profile": [ "http://hl7.org/fhir/us/cqfmeasures/StructureDefinition/test-case-cqfm" ]
      },
      "contained": [ {
        "resourceType": "Parameters",
        "id": "e038035a-8cdc-4a4d-bb82-7af9ce75585c-parameters",
        "parameter": [ {
          "name": "subject",
          "valueString": "fa49d072-3d0c-4140-b2f8-d29c55346aa8"
        } ]
      } ],
      "extension": [ {
        "url": "http://hl7.org/fhir/StructureDefinition/cqf-inputParameters",
        "valueReference": {
          "reference": "#e038035a-8cdc-4a4d-bb82-7af9ce75585c-parameters"
        }
      }, {
        "url": "http://hl7.org/fhir/us/cqfmeasures/StructureDefinition/cqfm-testCaseDescription",
        "valueMarkdown": ">18, LOS<120 day, Unfractionated Heparin during ED, EDendTime concurrent EncInp StartTime\n"
      } ],
      "modifierExtension": [ {
        "url": "http://hl7.org/fhir/us/cqfmeasures/StructureDefinition/cqfm-isTestCase",
        "valueBoolean": true
      } ],
      "status": "complete",
      "type": "individual",
      "measure": "https://madie.cms.gov/Measure/CMS108FHIRVTEProphylaxis",
      "period": {
        "start": "2026-01-01",
        "end": "2026-12-31"
      },
      "group": [ {
        "id": "Group_1",
        "population": [ {
          "id": "InitialPopulation_1",
          "code": {
            "coding": [ {
              "system": "http://terminology.hl7.org/CodeSystem/measure-population",
              "code": "initial-population",
              "display": "Initial Population"
            } ]
          },
          "count": 1
        }, {
          "id": "Denominator_1",
          "code": {
            "coding": [ {
              "system": "http://terminology.hl7.org/CodeSystem/measure-population",
              "code": "denominator",
              "display": "Denominator"
            } ]
          },
          "count": 1
        }, {
          "id": "DenominatorExclusion_1",
          "code": {
            "coding": [ {
              "system": "http://terminology.hl7.org/CodeSystem/measure-population",
              "code": "denominator-exclusion",
              "display": "Denominator Exclusion"
            } ]
          },
          "count": 0
        }, {
          "id": "Numerator_1",
          "code": {
            "coding": [ {
              "system": "http://terminology.hl7.org/CodeSystem/measure-population",
              "code": "numerator",
              "display": "Numerator"
            } ]
          },
          "count": 1
        } ],
        "measureScore": {
          "value": 0.0
        }
      } ],
      "evaluatedResource": [ {
        "reference": "Patient/fa49d072-3d0c-4140-b2f8-d29c55346aa8"
      }, {
        "reference": "Encounter/aab5b950-edc1-41cc-bcc3-41425106cfd8"
      }, {
        "reference": "Encounter/61d97bb3-a3d0-4536-a39e-4b2c89931b84"
      }, {
        "reference": "Coverage/c944b33b-6c1f-4816-a19a-950219aeb61b"
      }, {
        "reference": "MedicationAdministration/fd3ec788-0bf8-4258-b232-cf63f0ec2850"
      }, {
        "reference": "Organization/fb65cf2f-c25f-45b7-82f8-12824f7c6ca0"
      }, {
        "reference": "Practitioner/e18d27e1-7757-4d27-8407-9c0b40cd018a"
      } ]
    },
    "request": {
      "method": "PUT",
      "url": "MeasureReport/b879c55d-3900-4fa2-93b8-650df39bad1e"
    }
  } ]
}