{
  "resourceType": "Bundle",
  "id": "657cbdc9b4f1f0343662347a",
  "type": "transaction",
  "entry": [ {
    "fullUrl": "https://madie.cms.gov/Patient/de2f4806-ec26-462d-9940-0ae983bf3e3f",
    "resource": {
      "resourceType": "Patient",
      "id": "de2f4806-ec26-462d-9940-0ae983bf3e3f",
      "meta": {
        "profile": [ "http://hl7.org/fhir/us/qicore/StructureDefinition/qicore-patient" ]
      },
      "extension": [ {
        "url": "http://hl7.org/fhir/us/core/StructureDefinition/us-core-race",
        "extension": [ {
          "url": "ombCategory",
          "valueCoding": {
            "system": "urn:oid:2.16.840.1.113883.6.238",
            "code": "2106-3",
            "display": "White",
            "userSelected": true
          }
        }, {
          "url": "text",
          "valueString": "White"
        } ]
      }, {
        "url": "http://hl7.org/fhir/us/core/StructureDefinition/us-core-ethnicity",
        "extension": [ {
          "url": "ombCategory",
          "valueCoding": {
            "system": "urn:oid:2.16.840.1.113883.6.238",
            "code": "2186-5",
            "display": "Not Hispanic or Latino",
            "userSelected": true
          }
        }, {
          "url": "text",
          "valueString": "Not Hispanic or Latino"
        } ]
      } ],
      "identifier": [ {
        "type": {
          "coding": [ {
            "system": "http://terminology.hl7.org/CodeSystem/v2-0203",
            "code": "MR"
          } ]
        },
        "system": "https://bonnie-fhir.healthit.gov/",
        "value": "657cbdc9b4f1f0343662347a"
      } ],
      "name": [ {
        "family": "InitialPopulationEncountersPass",
        "given": [ "InitialPopulationEncountersAttributes" ]
      } ],
      "gender": "female",
      "birthDate": "2008-01-01"
    },
    "request": {
      "method": "PUT",
      "url": "Patient/de2f4806-ec26-462d-9940-0ae983bf3e3f"
    }
  }, {
    "fullUrl": "https://madie.cms.gov/Encounter/845dd681-1105-4c69-8ccb-82e82ca3680f",
    "resource": {
      "resourceType": "Encounter",
      "id": "845dd681-1105-4c69-8ccb-82e82ca3680f",
      "meta": {
        "profile": [ "http://hl7.org/fhir/us/qicore/StructureDefinition/qicore-encounter" ]
      },
      "status": "finished",
      "statusHistory": [ {
        "status": "finished",
        "period": {
          "start": "2026-01-01",
          "end": "2026-01-07"
        }
      } ],
      "class": {
        "system": "http://terminology.hl7.org/CodeSystem/v3-ActCode",
        "code": "ACUTE",
        "display": "inpatient acute"
      },
      "classHistory": [ {
        "class": {
          "system": "http://terminology.hl7.org/CodeSystem/v3-ActCode",
          "code": "IMP",
          "display": "inpatient encounter"
        },
        "period": {
          "start": "2026-01-06",
          "end": "2026-01-07"
        }
      } ],
      "type": [ {
        "coding": [ {
          "system": "http://snomed.info/sct",
          "version": "2024",
          "code": "32485007",
          "display": "Hospital admission (procedure)",
          "userSelected": true
        } ]
      } ],
      "subject": {
        "reference": "Patient/de2f4806-ec26-462d-9940-0ae983bf3e3f"
      },
      "period": {
        "start": "2026-01-01T08:00:00.000Z",
        "end": "2026-01-02T09:15:00.000Z"
      },
      "diagnosis": [ {
        "condition": {
          "reference": "Condition/96515cbe-4dfe-43a9-97c9-49bf5aab7b66"
        },
        "use": {
          "coding": [ {
            "system": "http://terminology.hl7.org/CodeSystem/diagnosis-role",
            "code": "billing"
          } ]
        },
        "rank": 1
      } ],
      "account": [ {
        "reference": "Account/example"
      } ],
      "hospitalization": {
        "dischargeDisposition": {
          "coding": [ {
            "system": "http://snomed.info/sct",
            "code": "371828006",
            "display": "Patient deceased during stay (discharge status = dead) (finding)",
            "userSelected": true
          } ]
        }
      }
    },
    "request": {
      "method": "PUT",
      "url": "Encounter/845dd681-1105-4c69-8ccb-82e82ca3680f"
    }
  }, {
    "fullUrl": "https://madie.cms.gov/Location/f8efa914-d8e3-4675-9ce0-4d12f3edf67e",
    "resource": {
      "resourceType": "Location",
      "id": "f8efa914-d8e3-4675-9ce0-4d12f3edf67e",
      "meta": {
        "profile": [ "http://hl7.org/fhir/us/qicore/StructureDefinition/qicore-location" ]
      },
      "identifier": [ {
        "use": "usual",
        "system": "http://exampleoflocation.com",
        "value": "B1-S.F2"
      } ],
      "name": "Medical Surgical East, first floor",
      "type": [ {
        "coding": [ {
          "system": "https://www.cdc.gov/nhsn/cdaportal/terminology/codesystem/hsloc.html",
          "code": "1028-0",
          "display": "Medical Cardiac Critical Care",
          "userSelected": true
        } ]
      } ]
    },
    "request": {
      "method": "PUT",
      "url": "Location/f8efa914-d8e3-4675-9ce0-4d12f3edf67e"
    }
  }, {
    "fullUrl": "https://madie.cms.gov/MedicationRequest/6fc444ee-64e7-465d-8cba-a9ec2281c4da",
    "resource": {
      "resourceType": "MedicationRequest",
      "id": "6fc444ee-64e7-465d-8cba-a9ec2281c4da",
      "meta": {
        "profile": [ "http://hl7.org/fhir/us/qicore/StructureDefinition/qicore-medicationrequest" ]
      },
      "status": "completed",
      "intent": "order",
      "medicationCodeableConcept": {
        "coding": [ {
          "system": "http://www.nlm.nih.gov/research/umls/rxnorm",
          "version": "06052023",
          "code": "1007184"
        } ]
      },
      "subject": {
        "reference": "Patient/de2f4806-ec26-462d-9940-0ae983bf3e3f"
      },
      "authoredOn": "2026-01-01T08:15:00.000Z",
      "requester": {
        "reference": "Practitioner/33d87640-6b2a-40b0-ab11-542478a88d5a"
      },
      "dosageInstruction": [ {
        "timing": {
          "repeat": {
            "boundsPeriod": {
              "start": "2025-01-01T08:15:00.000Z"
            }
          }
        }
      } ]
    },
    "request": {
      "method": "PUT",
      "url": "MedicationRequest/6fc444ee-64e7-465d-8cba-a9ec2281c4da"
    }
  }, {
    "fullUrl": "https://madie.cms.gov/Coverage/cc863586-48c7-4e7d-8a8b-a7db1998179b",
    "resource": {
      "resourceType": "Coverage",
      "id": "cc863586-48c7-4e7d-8a8b-a7db1998179b",
      "meta": {
        "profile": [ "http://hl7.org/fhir/us/qicore/StructureDefinition/qicore-coverage" ]
      },
      "identifier": [ {
        "system": "http://benefitsinc.com/certificate",
        "value": "12345"
      } ],
      "status": "active",
      "type": {
        "coding": [ {
          "system": "https://nahdo.org/sopt",
          "version": "1.0.1",
          "code": "1",
          "display": "MEDICARE",
          "userSelected": true
        } ]
      },
      "subscriberId": "AB9876",
      "beneficiary": {
        "reference": "Patient/de2f4806-ec26-462d-9940-0ae983bf3e3f"
      },
      "relationship": {
        "coding": [ {
          "system": "http://terminology.hl7.org/CodeSystem/subscriber-relationship",
          "code": "self"
        } ]
      },
      "payor": [ {
        "reference": "Organization/8e33320b-2da9-4ad3-9990-7aeec63eee68"
      } ]
    },
    "request": {
      "method": "PUT",
      "url": "Coverage/cc863586-48c7-4e7d-8a8b-a7db1998179b"
    }
  }, {
    "fullUrl": "https://madie.cms.gov/Organization/8e33320b-2da9-4ad3-9990-7aeec63eee68",
    "resource": {
      "resourceType": "Organization",
      "id": "8e33320b-2da9-4ad3-9990-7aeec63eee68",
      "meta": {
        "profile": [ "http://hl7.org/fhir/us/qicore/StructureDefinition/qicore-organization" ]
      },
      "identifier": [ {
        "use": "temp",
        "system": "urn:oid:2.16.840.1.113883.4.4",
        "value": "21-3259825"
      } ],
      "active": true,
      "type": [ {
        "coding": [ {
          "system": "http://terminology.hl7.org/CodeSystem/organization-type",
          "code": "pay",
          "display": "Payer"
        } ]
      } ],
      "name": "Blue Cross Blue Shield of Texas",
      "telecom": [ {
        "system": "phone",
        "value": "(+1) 972-766-6900"
      } ],
      "address": [ {
        "use": "billing",
        "type": "postal",
        "line": [ "P.O. Box 660044" ],
        "city": "Dallas",
        "state": "TX",
        "postalCode": "75266-0044",
        "country": "USA"
      } ]
    },
    "request": {
      "method": "PUT",
      "url": "Organization/8e33320b-2da9-4ad3-9990-7aeec63eee68"
    }
  }, {
    "fullUrl": "https://madie.cms.gov/Practitioner/6206b3d9-f4f2-44fd-9089-444a109587a9",
    "resource": {
      "resourceType": "Practitioner",
      "id": "6206b3d9-f4f2-44fd-9089-444a109587a9",
      "meta": {
        "profile": [ "http://hl7.org/fhir/us/qicore/StructureDefinition/qicore-practitioner" ]
      },
      "identifier": [ {
        "system": "http://hl7.org/fhir/sid/us-npi",
        "value": "0723660813"
      } ],
      "name": [ {
        "family": "Evil",
        "prefix": [ "Dr" ]
      } ]
    },
    "request": {
      "method": "PUT",
      "url": "Practitioner/6206b3d9-f4f2-44fd-9089-444a109587a9"
    }
  }, {
    "fullUrl": "https://madie.cms.gov/MeasureReport/639bbb9a-6437-4afa-9603-98e395151998",
    "resource": {
      "resourceType": "MeasureReport",
      "id": "639bbb9a-6437-4afa-9603-98e395151998",
      "meta": {
        "profile": [ "http://hl7.org/fhir/us/cqfmeasures/StructureDefinition/test-case-cqfm" ]
      },
      "contained": [ {
        "resourceType": "Parameters",
        "id": "5f7e0f46-6d89-4b9a-aea0-1110950d8e3f-parameters",
        "parameter": [ {
          "name": "subject",
          "valueString": "de2f4806-ec26-462d-9940-0ae983bf3e3f"
        } ]
      } ],
      "extension": [ {
        "url": "http://hl7.org/fhir/StructureDefinition/cqf-inputParameters",
        "valueReference": {
          "reference": "#5f7e0f46-6d89-4b9a-aea0-1110950d8e3f-parameters"
        }
      }, {
        "url": "http://hl7.org/fhir/us/cqfmeasures/StructureDefinition/cqfm-testCaseDescription",
        "valueMarkdown": "Inpatient encounter with diabetic medication during MP with SDE initial population encounters account, statusHistory, and classHistory attributes"
      } ],
      "modifierExtension": [ {
        "url": "http://hl7.org/fhir/us/cqfmeasures/StructureDefinition/cqfm-isTestCase",
        "valueBoolean": true
      } ],
      "status": "complete",
      "type": "individual",
      "measure": "https://madie.cms.gov/Measure/NHSNGlycemicControlHypoglycemiaInitialPopulation",
      "period": {
        "start": "2026-01-01",
        "end": "2026-12-31"
      },
      "group": [ {
        "id": "Group_1",
        "population": [ {
          "id": "InitialPopulation_1",
          "code": {
            "coding": [ {
              "system": "http://terminology.hl7.org/CodeSystem/measure-population",
              "code": "initial-population",
              "display": "Initial Population"
            } ]
          },
          "count": 1
        } ],
        "measureScore": {
          "value": 0.0
        }
      } ],
      "evaluatedResource": [ {
        "reference": "Patient/de2f4806-ec26-462d-9940-0ae983bf3e3f"
      }, {
        "reference": "Encounter/845dd681-1105-4c69-8ccb-82e82ca3680f"
      }, {
        "reference": "Location/f8efa914-d8e3-4675-9ce0-4d12f3edf67e"
      }, {
        "reference": "MedicationRequest/6fc444ee-64e7-465d-8cba-a9ec2281c4da"
      }, {
        "reference": "Coverage/cc863586-48c7-4e7d-8a8b-a7db1998179b"
      }, {
        "reference": "Organization/8e33320b-2da9-4ad3-9990-7aeec63eee68"
      }, {
        "reference": "Practitioner/6206b3d9-f4f2-44fd-9089-444a109587a9"
      } ]
    },
    "request": {
      "method": "PUT",
      "url": "MeasureReport/639bbb9a-6437-4afa-9603-98e395151998"
    }
  } ]
}