{
  "resourceType": "Bundle",
  "id": "63487c300968f801225401ba",
  "type": "transaction",
  "entry": [ {
    "fullUrl": "https://madie.cms.gov/Patient/24466f7b-b722-4c54-9315-6116c81c3dd4",
    "resource": {
      "resourceType": "Patient",
      "id": "24466f7b-b722-4c54-9315-6116c81c3dd4",
      "meta": {
        "profile": [ "http://hl7.org/fhir/us/qicore/StructureDefinition/qicore-patient" ]
      },
      "text": {
        "status": "generated",
        "div": "<div xmlns=\"http://www.w3.org/1999/xhtml\"><div class=\"hapiHeaderText\">AssessLastGresultMissing <b>DENPASS </b></div><table class=\"hapiPropertyTable\"><tbody><tr><td>Identifier</td><td>a71c730e90531277040df227a6edf32e5d1d845b7af7c742588090b545382c72</td></tr><tr><td>Date of birth</td><td><span>14 February 1985</span></td></tr></tbody></table></div>"
      },
      "extension": [ {
        "url": "http://hl7.org/fhir/us/core/StructureDefinition/us-core-race",
        "extension": [ {
          "url": "ombCategory",
          "valueCoding": {
            "system": "urn:oid:2.16.840.1.113883.6.238",
            "code": "1002-5",
            "display": "American Indian or Alaska Native",
            "userSelected": true
          }
        }, {
          "url": "text",
          "valueString": "American Indian or Alaska Native"
        } ]
      }, {
        "url": "http://hl7.org/fhir/us/core/StructureDefinition/us-core-ethnicity",
        "extension": [ {
          "url": "ombCategory",
          "valueCoding": {
            "system": "urn:oid:2.16.840.1.113883.6.238",
            "code": "2135-2",
            "display": "Hispanic or Latino",
            "userSelected": true
          }
        }, {
          "url": "text",
          "valueString": "Hispanic or Latino"
        } ]
      } ],
      "identifier": [ {
        "type": {
          "coding": [ {
            "system": "http://terminology.hl7.org/CodeSystem/v2-0203",
            "code": "MR"
          } ]
        },
        "system": "https://bonnie-fhir.healthit.gov/",
        "value": "63487c300968f801225401ba"
      } ],
      "active": true,
      "name": [ {
        "use": "usual",
        "family": "DENPass",
        "given": [ "AssessLastGresultMissing" ]
      } ],
      "gender": "female",
      "birthDate": "1998-02-14"
    },
    "request": {
      "method": "PUT",
      "url": "Patient/24466f7b-b722-4c54-9315-6116c81c3dd4"
    }
  }, {
    "fullUrl": "https://madie.cms.gov/Observation/890af562-d3e3-464e-93a4-9d2078773b01",
    "resource": {
      "resourceType": "Observation",
      "id": "890af562-d3e3-464e-93a4-9d2078773b01",
      "meta": {
        "profile": [ "http://hl7.org/fhir/us/qicore/StructureDefinition/qicore-simple-observation" ]
      },
      "status": "final",
      "category": [ {
        "coding": [ {
          "system": "http://terminology.hl7.org/CodeSystem/observation-category",
          "code": "exam",
          "display": "exam",
          "userSelected": true
        } ]
      } ],
      "code": {
        "coding": [ {
          "system": "http://loinc.org",
          "code": "11996-6"
        } ]
      },
      "subject": {
        "reference": "Patient/24466f7b-b722-4c54-9315-6116c81c3dd4"
      },
      "effectiveDateTime": "2026-06-08T08:00:00.000+00:00"
    },
    "request": {
      "method": "PUT",
      "url": "Observation/890af562-d3e3-464e-93a4-9d2078773b01"
    }
  }, {
    "fullUrl": "https://madie.cms.gov/Observation/f8197d01-19a4-484c-8a5b-4a91a9544713",
    "resource": {
      "resourceType": "Observation",
      "id": "f8197d01-19a4-484c-8a5b-4a91a9544713",
      "meta": {
        "profile": [ "http://hl7.org/fhir/us/qicore/StructureDefinition/qicore-simple-observation" ]
      },
      "status": "final",
      "category": [ {
        "coding": [ {
          "system": "http://terminology.hl7.org/CodeSystem/observation-category",
          "code": "exam",
          "display": "exam",
          "userSelected": true
        } ]
      } ],
      "code": {
        "coding": [ {
          "system": "http://loinc.org",
          "code": "11884-4"
        } ]
      },
      "subject": {
        "reference": "Patient/24466f7b-b722-4c54-9315-6116c81c3dd4"
      },
      "effectiveDateTime": "2026-06-08T09:15:00.000+00:00",
      "valueQuantity": {
        "value": 38,
        "system": "http://unitsofmeasure.org",
        "code": "wk"
      }
    },
    "request": {
      "method": "PUT",
      "url": "Observation/f8197d01-19a4-484c-8a5b-4a91a9544713"
    }
  }, {
    "fullUrl": "https://madie.cms.gov/Observation/4bb60fbf-43e5-465c-8c88-bf7e9c5667e1",
    "resource": {
      "resourceType": "Observation",
      "id": "4bb60fbf-43e5-465c-8c88-bf7e9c5667e1",
      "meta": {
        "profile": [ "http://hl7.org/fhir/us/qicore/StructureDefinition/qicore-simple-observation" ]
      },
      "status": "final",
      "category": [ {
        "coding": [ {
          "system": "http://terminology.hl7.org/CodeSystem/observation-category",
          "code": "exam",
          "display": "exam",
          "userSelected": true
        } ]
      } ],
      "code": {
        "coding": [ {
          "system": "http://loinc.org",
          "code": "93857-1"
        } ]
      },
      "subject": {
        "reference": "Patient/24466f7b-b722-4c54-9315-6116c81c3dd4"
      },
      "effectiveDateTime": "2026-06-08T20:00:00.000+00:00",
      "valueDateTime": "2026-06-08T20:00:00.000+00:00"
    },
    "request": {
      "method": "PUT",
      "url": "Observation/4bb60fbf-43e5-465c-8c88-bf7e9c5667e1"
    }
  }, {
    "fullUrl": "https://madie.cms.gov/Observation/3bdf3a1b-6c41-4a23-a352-87b6fe3c4340",
    "resource": {
      "resourceType": "Observation",
      "id": "3bdf3a1b-6c41-4a23-a352-87b6fe3c4340",
      "meta": {
        "profile": [ "http://hl7.org/fhir/us/qicore/StructureDefinition/qicore-simple-observation" ]
      },
      "status": "final",
      "category": [ {
        "coding": [ {
          "system": "http://terminology.hl7.org/CodeSystem/observation-category",
          "code": "exam",
          "display": "exam",
          "userSelected": true
        } ]
      } ],
      "code": {
        "coding": [ {
          "system": "http://loinc.org",
          "code": "11996-6"
        } ]
      },
      "subject": {
        "reference": "Patient/24466f7b-b722-4c54-9315-6116c81c3dd4"
      },
      "effectiveDateTime": "2026-04-24T08:00:00.000+00:00",
      "valueInteger": 1
    },
    "request": {
      "method": "PUT",
      "url": "Observation/3bdf3a1b-6c41-4a23-a352-87b6fe3c4340"
    }
  }, {
    "fullUrl": "https://madie.cms.gov/Encounter/999ab118-6e89-41bc-bcc2-5ccf1e336e3b",
    "resource": {
      "resourceType": "Encounter",
      "id": "999ab118-6e89-41bc-bcc2-5ccf1e336e3b",
      "meta": {
        "profile": [ "http://hl7.org/fhir/us/qicore/StructureDefinition/qicore-encounter" ]
      },
      "status": "finished",
      "class": {
        "system": "http://terminology.hl7.org/CodeSystem/v3-ActCode",
        "code": "IMP",
        "display": "inpatient encounter"
      },
      "type": [ {
        "coding": [ {
          "system": "http://snomed.info/sct",
          "code": "183452005"
        } ]
      } ],
      "subject": {
        "reference": "Patient/24466f7b-b722-4c54-9315-6116c81c3dd4"
      },
      "period": {
        "start": "2026-06-08T08:00:00.000+00:00",
        "end": "2026-06-10T08:15:00.000+00:00"
      },
      "length": {
        "value": 2,
        "unit": "days"
      },
      "reasonReference": [ {
        "reference": "Condition/d69a3f43-1911-4307-acb8-8064eaad8493"
      } ]
    },
    "request": {
      "method": "PUT",
      "url": "Encounter/999ab118-6e89-41bc-bcc2-5ccf1e336e3b"
    }
  }, {
    "fullUrl": "https://madie.cms.gov/Procedure/44f78e0e-96d4-40bf-8e5b-1e2c91c22f3e",
    "resource": {
      "resourceType": "Procedure",
      "id": "44f78e0e-96d4-40bf-8e5b-1e2c91c22f3e",
      "meta": {
        "profile": [ "http://hl7.org/fhir/us/qicore/StructureDefinition/qicore-procedure" ]
      },
      "extension": [ {
        "url": "http://hl7.org/fhir/us/qicore/StructureDefinition/qicore-recorded",
        "valueDateTime": "2014-04-05T13:35:00.000+00:00"
      } ],
      "status": "completed",
      "code": {
        "coding": [ {
          "system": "http://www.cms.gov/Medicare/Coding/ICD10",
          "code": "10D07Z3"
        } ]
      },
      "subject": {
        "reference": "Patient/24466f7b-b722-4c54-9315-6116c81c3dd4"
      },
      "performedPeriod": {
        "start": "2026-06-08T08:10:00.000+00:00",
        "end": "2026-06-08T09:14:00.000+00:00"
      }
    },
    "request": {
      "method": "PUT",
      "url": "Procedure/44f78e0e-96d4-40bf-8e5b-1e2c91c22f3e"
    }
  }, {
    "fullUrl": "https://madie.cms.gov/Condition/d69a3f43-1911-4307-acb8-8064eaad8493",
    "resource": {
      "resourceType": "Condition",
      "id": "d69a3f43-1911-4307-acb8-8064eaad8493",
      "meta": {
        "profile": [ "http://hl7.org/fhir/us/qicore/StructureDefinition/qicore-condition-encounter-diagnosis" ]
      },
      "category": [ {
        "coding": [ {
          "system": "http://terminology.hl7.org/CodeSystem/condition-category",
          "code": "encounter-diagnosis",
          "display": "Encounter Diagnosis"
        } ]
      } ],
      "code": {
        "coding": [ {
          "system": "http://snomed.info/sct",
          "version": "2022-09",
          "code": "169826009",
          "display": "Single live birth from singleton pregnancy (finding)",
          "userSelected": true
        } ]
      },
      "subject": {
        "reference": "Patient/24466f7b-b722-4c54-9315-6116c81c3dd4"
      },
      "encounter": {
        "reference": "Encounter/999ab118-6e89-41bc-bcc2-5ccf1e336e3b"
      },
      "recordedDate": "2026-10-14T08:00:00.000+00:00"
    },
    "request": {
      "method": "PUT",
      "url": "Condition/d69a3f43-1911-4307-acb8-8064eaad8493"
    }
  }, {
    "fullUrl": "https://madie.cms.gov/Coverage/d01fc37b-c3a9-46ea-8831-17d090dc0578",
    "resource": {
      "resourceType": "Coverage",
      "id": "d01fc37b-c3a9-46ea-8831-17d090dc0578",
      "meta": {
        "profile": [ "http://hl7.org/fhir/us/qicore/StructureDefinition/qicore-coverage" ]
      },
      "status": "active",
      "subscriberId": "523435",
      "beneficiary": {
        "reference": "Patient/24466f7b-b722-4c54-9315-6116c81c3dd4"
      },
      "relationship": {
        "coding": [ {
          "system": "http://terminology.hl7.org/CodeSystem/subscriber-relationship",
          "code": "self"
        } ]
      },
      "payor": [ {
        "reference": "Organization/54c3dbc9-52f3-44dc-aa65-bcdd944d29fa"
      } ]
    },
    "request": {
      "method": "PUT",
      "url": "Coverage/d01fc37b-c3a9-46ea-8831-17d090dc0578"
    }
  }, {
    "fullUrl": "https://madie.cms.gov/Organization/54c3dbc9-52f3-44dc-aa65-bcdd944d29fa",
    "resource": {
      "resourceType": "Organization",
      "id": "54c3dbc9-52f3-44dc-aa65-bcdd944d29fa",
      "meta": {
        "profile": [ "http://hl7.org/fhir/us/qicore/StructureDefinition/qicore-organization" ]
      },
      "identifier": [ {
        "use": "temp",
        "system": "urn:oid:2.16.840.1.113883.4.4",
        "value": "21-3259825"
      } ],
      "active": true,
      "type": [ {
        "coding": [ {
          "system": "http://terminology.hl7.org/CodeSystem/organization-type",
          "code": "pay",
          "display": "Payer"
        } ]
      } ],
      "name": "Blue Cross Blue Shield of Texas",
      "telecom": [ {
        "system": "phone",
        "value": "(+1) 972-766-6900"
      } ],
      "address": [ {
        "use": "billing",
        "type": "postal",
        "line": [ "P.O. Box 660044" ],
        "city": "Dallas",
        "state": "TX",
        "postalCode": "75266-0044",
        "country": "USA"
      } ]
    },
    "request": {
      "method": "PUT",
      "url": "Organization/54c3dbc9-52f3-44dc-aa65-bcdd944d29fa"
    }
  }, {
    "fullUrl": "https://madie.cms.gov/Practitioner/f764d902-8494-45e8-bc51-97aae3e4b195",
    "resource": {
      "resourceType": "Practitioner",
      "id": "f764d902-8494-45e8-bc51-97aae3e4b195",
      "meta": {
        "profile": [ "http://hl7.org/fhir/us/qicore/StructureDefinition/qicore-practitioner" ]
      },
      "identifier": [ {
        "system": "http://hl7.org/fhir/sid/us-npi",
        "value": "1234567890"
      } ],
      "name": [ {
        "family": "Evil",
        "prefix": [ "Dr" ]
      } ]
    },
    "request": {
      "method": "PUT",
      "url": "Practitioner/f764d902-8494-45e8-bc51-97aae3e4b195"
    }
  }, {
    "fullUrl": "https://madie.cms.gov/MeasureReport/29e8c04b-0e18-460f-8409-ac3b5fd7ca65",
    "resource": {
      "resourceType": "MeasureReport",
      "id": "29e8c04b-0e18-460f-8409-ac3b5fd7ca65",
      "meta": {
        "profile": [ "http://hl7.org/fhir/us/cqfmeasures/StructureDefinition/test-case-cqfm" ]
      },
      "contained": [ {
        "resourceType": "Parameters",
        "id": "29b09424-6e2f-4927-af35-b07d11fa67bf-parameters",
        "parameter": [ {
          "name": "subject",
          "valueString": "24466f7b-b722-4c54-9315-6116c81c3dd4"
        } ]
      } ],
      "extension": [ {
        "url": "http://hl7.org/fhir/StructureDefinition/cqf-inputParameters",
        "valueReference": {
          "reference": "#29b09424-6e2f-4927-af35-b07d11fa67bf-parameters"
        }
      }, {
        "url": "http://hl7.org/fhir/us/cqfmeasures/StructureDefinition/cqfm-testCaseDescription",
        "valueMarkdown": "Passes: IP, Passes DENOM because Last Gravida result is null, however previous G=1.   Pt is 27 years of age,  encounter dx delivery of singleton,  EGA @ 38 weeks\n"
      } ],
      "modifierExtension": [ {
        "url": "http://hl7.org/fhir/us/cqfmeasures/StructureDefinition/cqfm-isTestCase",
        "valueBoolean": true
      } ],
      "status": "complete",
      "type": "individual",
      "measure": "https://madie.cms.gov/Measure/CMS0334FHIRPCCesareanBirth",
      "period": {
        "start": "2026-01-01",
        "end": "2026-12-31"
      },
      "group": [ {
        "id": "Group_1",
        "population": [ {
          "id": "InitialPopulation_1",
          "code": {
            "coding": [ {
              "system": "http://terminology.hl7.org/CodeSystem/measure-population",
              "code": "initial-population",
              "display": "Initial Population"
            } ]
          },
          "count": 1
        }, {
          "id": "Denominator_1",
          "code": {
            "coding": [ {
              "system": "http://terminology.hl7.org/CodeSystem/measure-population",
              "code": "denominator",
              "display": "Denominator"
            } ]
          },
          "count": 1
        }, {
          "id": "DenominatorExclusion_1",
          "code": {
            "coding": [ {
              "system": "http://terminology.hl7.org/CodeSystem/measure-population",
              "code": "denominator-exclusion",
              "display": "Denominator Exclusion"
            } ]
          },
          "count": 0
        }, {
          "id": "Numerator_1",
          "code": {
            "coding": [ {
              "system": "http://terminology.hl7.org/CodeSystem/measure-population",
              "code": "numerator",
              "display": "Numerator"
            } ]
          },
          "count": 0
        } ],
        "measureScore": {
          "value": 0.0
        }
      } ],
      "evaluatedResource": [ {
        "reference": "Patient/24466f7b-b722-4c54-9315-6116c81c3dd4"
      }, {
        "reference": "Observation/890af562-d3e3-464e-93a4-9d2078773b01"
      }, {
        "reference": "Observation/f8197d01-19a4-484c-8a5b-4a91a9544713"
      }, {
        "reference": "Observation/4bb60fbf-43e5-465c-8c88-bf7e9c5667e1"
      }, {
        "reference": "Observation/3bdf3a1b-6c41-4a23-a352-87b6fe3c4340"
      }, {
        "reference": "Encounter/999ab118-6e89-41bc-bcc2-5ccf1e336e3b"
      }, {
        "reference": "Procedure/44f78e0e-96d4-40bf-8e5b-1e2c91c22f3e"
      }, {
        "reference": "Condition/d69a3f43-1911-4307-acb8-8064eaad8493"
      }, {
        "reference": "Coverage/d01fc37b-c3a9-46ea-8831-17d090dc0578"
      }, {
        "reference": "Organization/54c3dbc9-52f3-44dc-aa65-bcdd944d29fa"
      }, {
        "reference": "Practitioner/f764d902-8494-45e8-bc51-97aae3e4b195"
      } ]
    },
    "request": {
      "method": "PUT",
      "url": "MeasureReport/29e8c04b-0e18-460f-8409-ac3b5fd7ca65"
    }
  } ]
}