{
  "resourceType": "Bundle",
  "id": "62fd4b670968f8012246b0ba",
  "type": "collection",
  "entry": [ {
    "fullUrl": "https://madie.cms.gov/Patient/d9a98a4c-9208-4370-b07c-1c5c63fd09b6",
    "resource": {
      "resourceType": "Patient",
      "id": "d9a98a4c-9208-4370-b07c-1c5c63fd09b6",
      "meta": {
        "profile": [ "http://hl7.org/fhir/us/qicore/StructureDefinition/qicore-patient" ]
      },
      "extension": [ {
        "url": "http://hl7.org/fhir/us/core/StructureDefinition/us-core-race",
        "extension": [ {
          "url": "ombCategory",
          "valueCoding": {
            "system": "urn:oid:2.16.840.1.113883.6.238",
            "code": "1002-5",
            "display": "American Indian or Alaska Native",
            "userSelected": true
          }
        }, {
          "url": "text",
          "valueString": "American Indian or Alaska Native"
        } ]
      }, {
        "url": "http://hl7.org/fhir/us/core/StructureDefinition/us-core-ethnicity",
        "extension": [ {
          "url": "ombCategory",
          "valueCoding": {
            "system": "urn:oid:2.16.840.1.113883.6.238",
            "code": "2186-5",
            "display": "Not Hispanic or Latino",
            "userSelected": true
          }
        }, {
          "url": "text",
          "valueString": "Not Hispanic or Latino"
        } ]
      } ],
      "identifier": [ {
        "type": {
          "coding": [ {
            "system": "http://terminology.hl7.org/CodeSystem/v2-0203",
            "code": "MR"
          } ]
        },
        "system": "https://bonnie-fhir.healthit.gov/",
        "value": "62fd4b670968f8012246b0ba"
      } ],
      "name": [ {
        "family": "IPFail",
        "given": [ "ReferralIntentNotOrder" ]
      } ],
      "gender": "male",
      "birthDate": "1967-01-19"
    }
  }, {
    "fullUrl": "https://madie.cms.gov/Encounter/c8cfdba6-3c39-4909-9a63-cdfaaad92fd8",
    "resource": {
      "resourceType": "Encounter",
      "id": "c8cfdba6-3c39-4909-9a63-cdfaaad92fd8",
      "meta": {
        "profile": [ "http://hl7.org/fhir/us/qicore/StructureDefinition/qicore-encounter" ]
      },
      "status": "finished",
      "class": {
        "system": "http://terminology.hl7.org/CodeSystem/v3-ActCode",
        "code": "AMB",
        "display": "ambulatory"
      },
      "type": [ {
        "coding": [ {
          "system": "http://snomed.info/sct",
          "version": "2022-03",
          "code": "185463005",
          "display": "Visit out of hours (procedure)",
          "userSelected": true
        } ]
      } ],
      "subject": {
        "reference": "Patient/d9a98a4c-9208-4370-b07c-1c5c63fd09b6"
      },
      "period": {
        "start": "2026-01-01T00:00:00.000+00:00",
        "end": "2026-01-01T01:15:00.000+00:00"
      }
    }
  }, {
    "fullUrl": "https://madie.cms.gov/ServiceRequest/ad19ed07-fc93-4745-96cc-708b91805016",
    "resource": {
      "resourceType": "ServiceRequest",
      "id": "ad19ed07-fc93-4745-96cc-708b91805016",
      "meta": {
        "profile": [ "http://hl7.org/fhir/us/qicore/StructureDefinition/qicore-servicerequest" ]
      },
      "status": "active",
      "intent": "instance-order",
      "code": {
        "coding": [ {
          "system": "http://snomed.info/sct",
          "version": "http://snomed.info/sct/731000124108/version/20250301",
          "code": "103696004",
          "display": "Patient referral to specialist (procedure)",
          "userSelected": true
        } ]
      },
      "subject": {
        "reference": "Patient/d9a98a4c-9208-4370-b07c-1c5c63fd09b6"
      },
      "authoredOn": "2026-05-27T00:01:00.000+00:00"
    }
  }, {
    "fullUrl": "https://madie.cms.gov/Coverage/93a479e1-1396-4a83-bc1b-c788be2e1292",
    "resource": {
      "resourceType": "Coverage",
      "id": "93a479e1-1396-4a83-bc1b-c788be2e1292",
      "meta": {
        "profile": [ "http://hl7.org/fhir/us/qicore/StructureDefinition/qicore-coverage" ]
      },
      "status": "active",
      "subscriberId": "123456",
      "beneficiary": {
        "reference": "Patient/d9a98a4c-9208-4370-b07c-1c5c63fd09b6"
      },
      "relationship": {
        "coding": [ {
          "system": "http://terminology.hl7.org/CodeSystem/subscriber-relationship",
          "code": "self",
          "display": "Self"
        } ]
      },
      "payor": [ {
        "reference": "Organization/2ae9d35b-7c03-4f57-9134-081af8734993"
      } ]
    }
  }, {
    "fullUrl": "https://madie.cms.gov/Organization/2ae9d35b-7c03-4f57-9134-081af8734993",
    "resource": {
      "resourceType": "Organization",
      "id": "2ae9d35b-7c03-4f57-9134-081af8734993",
      "meta": {
        "profile": [ "http://hl7.org/fhir/us/qicore/StructureDefinition/qicore-organization" ]
      },
      "identifier": [ {
        "use": "temp",
        "system": "urn:oid:2.16.840.1.113883.4.4",
        "value": "21-3259825"
      } ],
      "active": true,
      "type": [ {
        "coding": [ {
          "system": "http://terminology.hl7.org/CodeSystem/organization-type",
          "code": "pay",
          "display": "Payer"
        } ]
      } ],
      "name": "Blue Cross Blue Shield of Texas",
      "telecom": [ {
        "system": "phone",
        "value": "(+1) 972-766-6900"
      } ],
      "address": [ {
        "use": "billing",
        "type": "postal",
        "line": [ "P.O. Box 660044" ],
        "city": "Dallas",
        "state": "TX",
        "postalCode": "75266-0044",
        "country": "USA"
      } ]
    }
  }, {
    "fullUrl": "https://madie.cms.gov/Practitioner/8a1d4bbb-73d5-4f6b-9892-220b08f20420",
    "resource": {
      "resourceType": "Practitioner",
      "id": "8a1d4bbb-73d5-4f6b-9892-220b08f20420",
      "meta": {
        "profile": [ "http://hl7.org/fhir/us/qicore/StructureDefinition/qicore-practitioner" ]
      },
      "identifier": [ {
        "system": "http://hl7.org/fhir/sid/us-npi",
        "value": "1689411712"
      } ],
      "name": [ {
        "family": "Evil",
        "prefix": [ "Dr" ]
      } ]
    }
  }, {
    "fullUrl": "https://madie.cms.gov/MeasureReport/e3ca26cb-6e07-40e2-ae9d-1fc34c627bd0",
    "resource": {
      "resourceType": "MeasureReport",
      "id": "e3ca26cb-6e07-40e2-ae9d-1fc34c627bd0",
      "meta": {
        "profile": [ "http://hl7.org/fhir/us/cqfmeasures/StructureDefinition/test-case-cqfm" ]
      },
      "contained": [ {
        "resourceType": "Parameters",
        "id": "07ad23de-5059-4f68-90b7-5664a39fa00e-parameters",
        "parameter": [ {
          "name": "subject",
          "valueString": "d9a98a4c-9208-4370-b07c-1c5c63fd09b6"
        } ]
      } ],
      "extension": [ {
        "url": "http://hl7.org/fhir/StructureDefinition/cqf-inputParameters",
        "valueReference": {
          "reference": "#07ad23de-5059-4f68-90b7-5664a39fa00e-parameters"
        }
      }, {
        "url": "http://hl7.org/fhir/us/cqfmeasures/StructureDefinition/cqfm-testCaseDescription",
        "valueMarkdown": "Encounter during MP,  status finished, Referral Status Active,  Intent not Order during Referral period\n\n"
      } ],
      "modifierExtension": [ {
        "url": "http://hl7.org/fhir/us/cqfmeasures/StructureDefinition/cqfm-isTestCase",
        "valueBoolean": true
      } ],
      "status": "complete",
      "type": "individual",
      "measure": "https://madie.cms.gov/Measure/CMS50FHIRReceiptofSpecialistReport",
      "period": {
        "start": "2026-01-01",
        "end": "2026-12-31"
      },
      "group": [ {
        "id": "Group_1",
        "population": [ {
          "id": "InitialPopulation_1",
          "code": {
            "coding": [ {
              "system": "http://terminology.hl7.org/CodeSystem/measure-population",
              "code": "initial-population",
              "display": "Initial Population"
            } ]
          },
          "count": 0
        }, {
          "id": "Denominator_1",
          "code": {
            "coding": [ {
              "system": "http://terminology.hl7.org/CodeSystem/measure-population",
              "code": "denominator",
              "display": "Denominator"
            } ]
          },
          "count": 0
        }, {
          "id": "Numerator_1",
          "code": {
            "coding": [ {
              "system": "http://terminology.hl7.org/CodeSystem/measure-population",
              "code": "numerator",
              "display": "Numerator"
            } ]
          },
          "count": 0
        } ],
        "measureScore": {
          "value": 1.0
        }
      } ],
      "evaluatedResource": [ {
        "reference": "Patient/d9a98a4c-9208-4370-b07c-1c5c63fd09b6"
      }, {
        "reference": "Encounter/c8cfdba6-3c39-4909-9a63-cdfaaad92fd8"
      }, {
        "reference": "ServiceRequest/ad19ed07-fc93-4745-96cc-708b91805016"
      }, {
        "reference": "Coverage/93a479e1-1396-4a83-bc1b-c788be2e1292"
      }, {
        "reference": "Organization/2ae9d35b-7c03-4f57-9134-081af8734993"
      }, {
        "reference": "Practitioner/8a1d4bbb-73d5-4f6b-9892-220b08f20420"
      } ]
    }
  } ]
}