{
  "resourceType": "Bundle",
  "id": "62fd4b6a0968f8012246b316",
  "type": "collection",
  "entry": [ {
    "fullUrl": "https://madie.cms.gov/Patient/2feec6c6-7250-4391-a4ee-0d5006cc70bc",
    "resource": {
      "resourceType": "Patient",
      "id": "2feec6c6-7250-4391-a4ee-0d5006cc70bc",
      "meta": {
        "profile": [ "http://hl7.org/fhir/us/qicore/StructureDefinition/qicore-patient" ]
      },
      "extension": [ {
        "url": "http://hl7.org/fhir/us/core/StructureDefinition/us-core-race",
        "extension": [ {
          "url": "ombCategory",
          "valueCoding": {
            "system": "urn:oid:2.16.840.1.113883.6.238",
            "code": "1002-5",
            "display": "American Indian or Alaska Native",
            "userSelected": true
          }
        }, {
          "url": "text",
          "valueString": "American Indian or Alaska Native"
        } ]
      }, {
        "url": "http://hl7.org/fhir/us/core/StructureDefinition/us-core-ethnicity",
        "extension": [ {
          "url": "ombCategory",
          "valueCoding": {
            "system": "urn:oid:2.16.840.1.113883.6.238",
            "code": "2135-2",
            "display": "Hispanic or Latino",
            "userSelected": true
          }
        }, {
          "url": "text",
          "valueString": "Hispanic or Latino"
        } ]
      }, {
        "url": "http://hl7.org/fhir/us/core/StructureDefinition/us-core-sex",
        "valueCode": "248152002"
      } ],
      "identifier": [ {
        "type": {
          "coding": [ {
            "system": "http://terminology.hl7.org/CodeSystem/v2-0203",
            "code": "MR"
          } ]
        },
        "system": "https://bonnie-fhir.healthit.gov/",
        "value": "62fd4b6a0968f8012246b316"
      } ],
      "name": [ {
        "family": "NUMERPass",
        "given": [ "1stof2ReferralWithConsultantReport" ]
      } ],
      "gender": "female",
      "birthDate": "1990-12-31"
    }
  }, {
    "fullUrl": "https://madie.cms.gov/Task/a4a487f1-0538-427a-b3b6-06d07c0c2dbc",
    "resource": {
      "resourceType": "Task",
      "id": "a4a487f1-0538-427a-b3b6-06d07c0c2dbc",
      "meta": {
        "profile": [ "http://hl7.org/fhir/us/qicore/StructureDefinition/qicore-task" ]
      },
      "identifier": [ {
        "use": "official",
        "system": "http:/goodhealth.org/identifiers",
        "value": "20170201-002"
      } ],
      "basedOn": [ {
        "reference": "ServiceRequest/7f18aade-a31d-4e80-a6c2-9fa42089a300"
      } ],
      "status": "failed",
      "intent": "order",
      "priority": "routine",
      "code": {
        "coding": [ {
          "system": "http://hl7.org/fhir/CodeSystem/task-code",
          "code": "fulfill",
          "display": "Fulfill the focal request",
          "userSelected": true
        } ]
      },
      "focus": {
        "reference": "ServiceRequest/7f18aade-a31d-4e80-a6c2-9fa42089a300"
      },
      "for": {
        "reference": "Patient/2feec6c6-7250-4391-a4ee-0d5006cc70bc"
      },
      "executionPeriod": {
        "start": "2026-06-06T08:00:00Z",
        "end": "2026-06-06T08:15:00Z"
      },
      "reasonCode": {
        "coding": [ {
          "system": "http://loinc.org",
          "version": "2.72",
          "code": "11488-4",
          "display": "Consult note",
          "userSelected": true
        } ]
      }
    }
  }, {
    "fullUrl": "https://madie.cms.gov/ServiceRequest/7f18aade-a31d-4e80-a6c2-9fa42089a300",
    "resource": {
      "resourceType": "ServiceRequest",
      "id": "7f18aade-a31d-4e80-a6c2-9fa42089a300",
      "meta": {
        "profile": [ "http://hl7.org/fhir/us/qicore/StructureDefinition/qicore-servicerequest" ]
      },
      "status": "active",
      "intent": "order",
      "code": {
        "coding": [ {
          "system": "http://loinc.org",
          "version": "2.72",
          "code": "11488-4",
          "display": "Consult note",
          "userSelected": true
        } ]
      },
      "subject": {
        "reference": "Patient/2feec6c6-7250-4391-a4ee-0d5006cc70bc"
      },
      "authoredOn": "2026-06-06T08:00:00Z"
    }
  }, {
    "fullUrl": "https://madie.cms.gov/Task/4ee22abd-a502-4361-bd76-12cd074459b1",
    "resource": {
      "resourceType": "Task",
      "id": "4ee22abd-a502-4361-bd76-12cd074459b1",
      "meta": {
        "profile": [ "http://hl7.org/fhir/us/qicore/StructureDefinition/qicore-task" ]
      },
      "identifier": [ {
        "use": "official",
        "system": "http:/goodhealth.org/identifiers",
        "value": "20170201-002"
      } ],
      "basedOn": [ {
        "reference": "ServiceRequest/6ace6cad-d5c3-4be8-ba79-fee1fd43abef"
      } ],
      "status": "completed",
      "intent": "order",
      "priority": "routine",
      "code": {
        "coding": [ {
          "system": "http://hl7.org/fhir/CodeSystem/task-code",
          "code": "fulfill",
          "display": "Fulfill the focal request",
          "userSelected": true
        } ]
      },
      "focus": {
        "reference": "ServiceRequest/6ace6cad-d5c3-4be8-ba79-fee1fd43abef"
      },
      "for": {
        "reference": "Patient/2feec6c6-7250-4391-a4ee-0d5006cc70bc"
      },
      "executionPeriod": {
        "start": "2026-06-09T08:00:00Z",
        "end": "2026-06-09T08:15:00Z"
      },
      "reasonCode": {
        "coding": [ {
          "system": "http://loinc.org",
          "version": "2.72",
          "code": "11488-4",
          "display": "Consult note",
          "userSelected": true
        } ]
      }
    }
  }, {
    "fullUrl": "https://madie.cms.gov/ServiceRequest/6ace6cad-d5c3-4be8-ba79-fee1fd43abef",
    "resource": {
      "resourceType": "ServiceRequest",
      "id": "6ace6cad-d5c3-4be8-ba79-fee1fd43abef",
      "meta": {
        "profile": [ "http://hl7.org/fhir/us/qicore/StructureDefinition/qicore-servicerequest" ]
      },
      "status": "active",
      "intent": "order",
      "code": {
        "coding": [ {
          "system": "http://snomed.info/sct",
          "version": "http://snomed.info/sct/731000124108/version/20250301",
          "code": "103696004",
          "display": "Patient referral to specialist (procedure)",
          "userSelected": true
        } ]
      },
      "subject": {
        "reference": "Patient/2feec6c6-7250-4391-a4ee-0d5006cc70bc"
      },
      "authoredOn": "2026-01-09T08:00:00Z"
    }
  }, {
    "fullUrl": "https://madie.cms.gov/Encounter/f66e29ae-920d-4132-ae53-c90ee752fab6",
    "resource": {
      "resourceType": "Encounter",
      "id": "f66e29ae-920d-4132-ae53-c90ee752fab6",
      "meta": {
        "profile": [ "http://hl7.org/fhir/us/qicore/StructureDefinition/qicore-encounter" ]
      },
      "status": "finished",
      "class": {
        "system": "http://terminology.hl7.org/CodeSystem/v3-ActCode",
        "code": "AMB",
        "display": "ambulatory"
      },
      "type": [ {
        "coding": [ {
          "system": "http://snomed.info/sct",
          "version": "2022-03",
          "code": "359960003",
          "display": "Ophthalmologic examination and evaluation under general anesthesia, limited (procedure)",
          "userSelected": true
        } ]
      } ],
      "subject": {
        "reference": "Patient/2feec6c6-7250-4391-a4ee-0d5006cc70bc"
      },
      "period": {
        "start": "2026-05-27T08:00:00Z",
        "end": "2026-05-27T09:15:00Z"
      }
    }
  }, {
    "fullUrl": "https://madie.cms.gov/Coverage/0db5215d-63b8-40d1-acdc-80d1d27e6649",
    "resource": {
      "resourceType": "Coverage",
      "id": "0db5215d-63b8-40d1-acdc-80d1d27e6649",
      "meta": {
        "profile": [ "http://hl7.org/fhir/us/qicore/StructureDefinition/qicore-coverage" ]
      },
      "status": "active",
      "subscriberId": "123456",
      "beneficiary": {
        "reference": "Patient/2feec6c6-7250-4391-a4ee-0d5006cc70bc"
      },
      "relationship": {
        "coding": [ {
          "system": "http://terminology.hl7.org/CodeSystem/subscriber-relationship",
          "code": "self",
          "display": "Self"
        } ]
      },
      "payor": [ {
        "reference": "Organization/d93c055a-67ab-46d0-b76a-567c7186159e"
      } ]
    }
  }, {
    "fullUrl": "https://madie.cms.gov/Organization/d93c055a-67ab-46d0-b76a-567c7186159e",
    "resource": {
      "resourceType": "Organization",
      "id": "d93c055a-67ab-46d0-b76a-567c7186159e",
      "meta": {
        "profile": [ "http://hl7.org/fhir/us/qicore/StructureDefinition/qicore-organization" ]
      },
      "identifier": [ {
        "use": "temp",
        "system": "urn:oid:2.16.840.1.113883.4.4",
        "value": "21-3259825"
      } ],
      "active": true,
      "type": [ {
        "coding": [ {
          "system": "http://terminology.hl7.org/CodeSystem/organization-type",
          "code": "pay",
          "display": "Payer"
        } ]
      } ],
      "name": "Blue Cross Blue Shield of Texas",
      "telecom": [ {
        "system": "phone",
        "value": "(+1) 972-766-6900"
      } ],
      "address": [ {
        "use": "billing",
        "type": "postal",
        "line": [ "P.O. Box 660044" ],
        "city": "Dallas",
        "state": "TX",
        "postalCode": "75266-0044",
        "country": "USA"
      } ]
    }
  }, {
    "fullUrl": "https://madie.cms.gov/Practitioner/a339136c-2ac0-4d75-8003-6e40faefc18f",
    "resource": {
      "resourceType": "Practitioner",
      "id": "a339136c-2ac0-4d75-8003-6e40faefc18f",
      "meta": {
        "profile": [ "http://hl7.org/fhir/us/qicore/StructureDefinition/qicore-practitioner" ]
      },
      "identifier": [ {
        "system": "http://hl7.org/fhir/sid/us-npi",
        "value": "1689411712"
      } ],
      "name": [ {
        "family": "Evil",
        "prefix": [ "Dr" ]
      } ]
    }
  }, {
    "fullUrl": "https://madie.cms.gov/MeasureReport/039031ab-a8a1-4374-8179-e9d8126c9629",
    "resource": {
      "resourceType": "MeasureReport",
      "id": "039031ab-a8a1-4374-8179-e9d8126c9629",
      "meta": {
        "profile": [ "http://hl7.org/fhir/us/cqfmeasures/StructureDefinition/test-case-cqfm" ]
      },
      "contained": [ {
        "resourceType": "Parameters",
        "id": "eb531296-836a-4feb-ab09-47377b835fb0-parameters",
        "parameter": [ {
          "name": "subject",
          "valueString": "2feec6c6-7250-4391-a4ee-0d5006cc70bc"
        } ]
      } ],
      "extension": [ {
        "url": "http://hl7.org/fhir/StructureDefinition/cqf-inputParameters",
        "valueReference": {
          "reference": "#eb531296-836a-4feb-ab09-47377b835fb0-parameters"
        }
      }, {
        "url": "http://hl7.org/fhir/us/cqfmeasures/StructureDefinition/cqfm-testCaseDescription",
        "valueMarkdown": "2 referrals. 1st one closed with an associated consultant report. 2nd referral with a consultant report with status of failed. "
      } ],
      "modifierExtension": [ {
        "url": "http://hl7.org/fhir/us/cqfmeasures/StructureDefinition/cqfm-isTestCase",
        "valueBoolean": true
      } ],
      "status": "complete",
      "type": "individual",
      "measure": "https://madie.cms.gov/Measure/CMS50FHIRReceiptofSpecialistReport",
      "period": {
        "start": "2026-01-01",
        "end": "2026-12-31"
      },
      "group": [ {
        "id": "Group_1",
        "population": [ {
          "id": "InitialPopulation_1",
          "code": {
            "coding": [ {
              "system": "http://terminology.hl7.org/CodeSystem/measure-population",
              "code": "initial-population",
              "display": "Initial Population"
            } ]
          },
          "count": 1
        }, {
          "id": "Denominator_1",
          "code": {
            "coding": [ {
              "system": "http://terminology.hl7.org/CodeSystem/measure-population",
              "code": "denominator",
              "display": "Denominator"
            } ]
          },
          "count": 1
        }, {
          "id": "Numerator_1",
          "code": {
            "coding": [ {
              "system": "http://terminology.hl7.org/CodeSystem/measure-population",
              "code": "numerator",
              "display": "Numerator"
            } ]
          },
          "count": 1
        } ],
        "measureScore": {
          "value": 1.0
        }
      } ],
      "evaluatedResource": [ {
        "reference": "Patient/2feec6c6-7250-4391-a4ee-0d5006cc70bc"
      }, {
        "reference": "Task/a4a487f1-0538-427a-b3b6-06d07c0c2dbc"
      }, {
        "reference": "ServiceRequest/7f18aade-a31d-4e80-a6c2-9fa42089a300"
      }, {
        "reference": "Task/4ee22abd-a502-4361-bd76-12cd074459b1"
      }, {
        "reference": "ServiceRequest/6ace6cad-d5c3-4be8-ba79-fee1fd43abef"
      }, {
        "reference": "Encounter/f66e29ae-920d-4132-ae53-c90ee752fab6"
      }, {
        "reference": "Coverage/0db5215d-63b8-40d1-acdc-80d1d27e6649"
      }, {
        "reference": "Organization/d93c055a-67ab-46d0-b76a-567c7186159e"
      }, {
        "reference": "Practitioner/a339136c-2ac0-4d75-8003-6e40faefc18f"
      } ]
    }
  } ]
}