{
  "resourceType": "Bundle",
  "id": "62c880ec0111a60120dc21f0",
  "type": "transaction",
  "entry": [ {
    "fullUrl": "https://madie.cms.gov/Patient/719a6ae4-ac86-406f-a762-380383e4a74d",
    "resource": {
      "resourceType": "Patient",
      "id": "719a6ae4-ac86-406f-a762-380383e4a74d",
      "meta": {
        "profile": [ "http://hl7.org/fhir/us/qicore/StructureDefinition/qicore-patient" ]
      },
      "extension": [ {
        "url": "http://hl7.org/fhir/us/core/StructureDefinition/us-core-race",
        "extension": [ {
          "url": "ombCategory",
          "valueCoding": {
            "system": "urn:oid:2.16.840.1.113883.6.238",
            "code": "1002-5",
            "display": "American Indian or Alaska Native"
          }
        }, {
          "url": "text",
          "valueString": "American Indian or Alaska Native"
        } ]
      }, {
        "url": "http://hl7.org/fhir/us/core/StructureDefinition/us-core-ethnicity",
        "extension": [ {
          "url": "ombCategory",
          "valueCoding": {
            "system": "urn:oid:2.16.840.1.113883.6.238",
            "code": "2135-2",
            "display": "Hispanic or Latino"
          }
        }, {
          "url": "text",
          "valueString": "Hispanic or Latino"
        } ]
      } ],
      "identifier": [ {
        "type": {
          "coding": [ {
            "system": "http://terminology.hl7.org/CodeSystem/v2-0203",
            "code": "MR"
          } ]
        },
        "system": "https://bonnie-fhir.healthit.gov/",
        "value": "62c880ec0111a60120dc21f0"
      } ],
      "active": true,
      "name": [ {
        "use": "usual",
        "family": "NUMERPassPop1",
        "given": [ "MultEp1Num1Den2" ]
      } ],
      "gender": "female",
      "birthDate": "1938-05-13"
    },
    "request": {
      "method": "PUT",
      "url": "Patient/719a6ae4-ac86-406f-a762-380383e4a74d"
    }
  }, {
    "fullUrl": "https://madie.cms.gov/Observation/1a182e83-f244-48bc-8aa5-d77991990525",
    "resource": {
      "resourceType": "Observation",
      "id": "1a182e83-f244-48bc-8aa5-d77991990525",
      "meta": {
        "profile": [ "http://hl7.org/fhir/us/qicore/StructureDefinition/qicore-observation-screening-assessment" ]
      },
      "status": "final",
      "category": [ {
        "coding": [ {
          "system": "http://terminology.hl7.org/CodeSystem/observation-category",
          "code": "survey",
          "display": "Survey"
        } ],
        "text": "Survey"
      } ],
      "code": {
        "coding": [ {
          "system": "http://loinc.org",
          "code": "38208-5",
          "display": "Pain severity - Reported"
        } ],
        "text": "Pain severity - Reported"
      },
      "subject": {
        "reference": "Patient/719a6ae4-ac86-406f-a762-380383e4a74d"
      },
      "effectiveDateTime": "2026-03-03T14:00:00.000+00:00",
      "valueInteger": 10
    },
    "request": {
      "method": "PUT",
      "url": "Observation/1a182e83-f244-48bc-8aa5-d77991990525"
    }
  }, {
    "fullUrl": "https://madie.cms.gov/Observation/55ef63b0-f092-4305-a832-33c058728608",
    "resource": {
      "resourceType": "Observation",
      "id": "55ef63b0-f092-4305-a832-33c058728608",
      "meta": {
        "profile": [ "http://hl7.org/fhir/us/qicore/StructureDefinition/qicore-observation-screening-assessment" ]
      },
      "status": "final",
      "category": [ {
        "coding": [ {
          "system": "http://terminology.hl7.org/CodeSystem/observation-category",
          "code": "survey",
          "display": "Survey"
        } ],
        "text": "Survey"
      } ],
      "code": {
        "coding": [ {
          "system": "http://loinc.org",
          "code": "38208-5",
          "display": "Pain severity - Reported"
        } ],
        "text": "Pain severity - Reported"
      },
      "subject": {
        "reference": "Patient/719a6ae4-ac86-406f-a762-380383e4a74d"
      },
      "effectiveDateTime": "2026-05-22T08:00:00.000+00:00"
    },
    "request": {
      "method": "PUT",
      "url": "Observation/55ef63b0-f092-4305-a832-33c058728608"
    }
  }, {
    "fullUrl": "https://madie.cms.gov/Condition/7bed5805-ddbc-4aa8-8d0d-756f8678ada8",
    "resource": {
      "resourceType": "Condition",
      "id": "7bed5805-ddbc-4aa8-8d0d-756f8678ada8",
      "meta": {
        "profile": [ "http://hl7.org/fhir/us/qicore/StructureDefinition/qicore-condition-problems-health-concerns" ]
      },
      "clinicalStatus": {
        "coding": [ {
          "system": "http://terminology.hl7.org/CodeSystem/condition-clinical",
          "code": "active",
          "display": "active",
          "userSelected": true
        } ]
      },
      "verificationStatus": {
        "coding": [ {
          "system": "http://terminology.hl7.org/CodeSystem/condition-ver-status",
          "code": "confirmed",
          "display": "Confirmed"
        } ]
      },
      "category": [ {
        "coding": [ {
          "system": "http://terminology.hl7.org/CodeSystem/condition-category",
          "code": "problem-list-item",
          "display": "Problem List Item"
        } ]
      } ],
      "code": {
        "coding": [ {
          "system": "http://hl7.org/fhir/sid/icd-10-cm",
          "code": "C00.0"
        } ]
      },
      "subject": {
        "reference": "Patient/719a6ae4-ac86-406f-a762-380383e4a74d"
      },
      "onsetDateTime": "2024-11-01T13:30:00.000+00:00"
    },
    "request": {
      "method": "PUT",
      "url": "Condition/7bed5805-ddbc-4aa8-8d0d-756f8678ada8"
    }
  }, {
    "fullUrl": "https://madie.cms.gov/Encounter/30a41f91-d260-49b3-9c50-baf486b8e72f",
    "resource": {
      "resourceType": "Encounter",
      "id": "30a41f91-d260-49b3-9c50-baf486b8e72f",
      "meta": {
        "profile": [ "http://hl7.org/fhir/us/qicore/StructureDefinition/qicore-encounter" ]
      },
      "status": "finished",
      "class": {
        "system": "http://terminology.hl7.org/CodeSystem/v3-ActCode",
        "code": "AMB",
        "display": "ambulatory",
        "userSelected": true
      },
      "type": [ {
        "coding": [ {
          "system": "http://snomed.info/sct",
          "code": "185463005"
        } ]
      } ],
      "subject": {
        "reference": "Patient/719a6ae4-ac86-406f-a762-380383e4a74d"
      },
      "period": {
        "start": "2026-01-30T14:00:00.000+00:00",
        "end": "2026-01-30T15:00:00.000+00:00"
      }
    },
    "request": {
      "method": "PUT",
      "url": "Encounter/30a41f91-d260-49b3-9c50-baf486b8e72f"
    }
  }, {
    "fullUrl": "https://madie.cms.gov/Encounter/4354e533-e1a8-4d77-abb0-74990d6ba14e",
    "resource": {
      "resourceType": "Encounter",
      "id": "4354e533-e1a8-4d77-abb0-74990d6ba14e",
      "meta": {
        "profile": [ "http://hl7.org/fhir/us/qicore/StructureDefinition/qicore-encounter" ]
      },
      "status": "finished",
      "class": {
        "system": "http://terminology.hl7.org/CodeSystem/v3-ActCode",
        "code": "AMB",
        "display": "ambulatory",
        "userSelected": true
      },
      "type": [ {
        "coding": [ {
          "system": "http://snomed.info/sct",
          "code": "185463005"
        } ]
      } ],
      "subject": {
        "reference": "Patient/719a6ae4-ac86-406f-a762-380383e4a74d"
      },
      "period": {
        "start": "2026-03-03T13:30:00.000+00:00",
        "end": "2026-03-03T14:30:00.000+00:00"
      }
    },
    "request": {
      "method": "PUT",
      "url": "Encounter/4354e533-e1a8-4d77-abb0-74990d6ba14e"
    }
  }, {
    "fullUrl": "https://madie.cms.gov/Encounter/196910eb-2d8b-4e86-862d-0a74d5340a48",
    "resource": {
      "resourceType": "Encounter",
      "id": "196910eb-2d8b-4e86-862d-0a74d5340a48",
      "meta": {
        "profile": [ "http://hl7.org/fhir/us/qicore/StructureDefinition/qicore-encounter" ]
      },
      "status": "finished",
      "class": {
        "system": "http://terminology.hl7.org/CodeSystem/v3-ActCode",
        "code": "AMB",
        "display": "ambulatory",
        "userSelected": true
      },
      "type": [ {
        "coding": [ {
          "system": "http://www.ama-assn.org/go/cpt",
          "code": "99203"
        } ]
      } ],
      "subject": {
        "reference": "Patient/719a6ae4-ac86-406f-a762-380383e4a74d"
      },
      "period": {
        "start": "2026-05-30T12:45:00.000+00:00",
        "end": "2026-05-30T13:45:00.000+00:00"
      }
    },
    "request": {
      "method": "PUT",
      "url": "Encounter/196910eb-2d8b-4e86-862d-0a74d5340a48"
    }
  }, {
    "fullUrl": "https://madie.cms.gov/Encounter/a039a449-21dd-45d1-92f3-3fae864f607c",
    "resource": {
      "resourceType": "Encounter",
      "id": "a039a449-21dd-45d1-92f3-3fae864f607c",
      "meta": {
        "profile": [ "http://hl7.org/fhir/us/qicore/StructureDefinition/qicore-encounter" ]
      },
      "status": "finished",
      "class": {
        "system": "http://terminology.hl7.org/CodeSystem/v3-ActCode",
        "code": "AMB",
        "display": "ambulatory",
        "userSelected": true
      },
      "type": [ {
        "coding": [ {
          "system": "http://www.ama-assn.org/go/cpt",
          "code": "99202"
        } ]
      } ],
      "subject": {
        "reference": "Patient/719a6ae4-ac86-406f-a762-380383e4a74d"
      },
      "period": {
        "start": "2026-07-03T10:45:00.000+00:00",
        "end": "2026-07-03T11:45:00.000+00:00"
      }
    },
    "request": {
      "method": "PUT",
      "url": "Encounter/a039a449-21dd-45d1-92f3-3fae864f607c"
    }
  }, {
    "fullUrl": "https://madie.cms.gov/Coverage/a15b60a8-4730-4fa5-aa76-9b1faf405744",
    "resource": {
      "resourceType": "Coverage",
      "id": "a15b60a8-4730-4fa5-aa76-9b1faf405744",
      "meta": {
        "profile": [ "http://hl7.org/fhir/us/qicore/StructureDefinition/qicore-coverage" ]
      },
      "status": "active",
      "beneficiary": {
        "reference": "Patient/719a6ae4-ac86-406f-a762-380383e4a74d"
      },
      "period": {
        "start": "1938-05-13T08:00:00.000+00:00"
      },
      "payor": [ {
        "reference": "Organization/a96b6873-33f9-45e3-9e3b-6128e5a67acf"
      } ]
    },
    "request": {
      "method": "PUT",
      "url": "Coverage/a15b60a8-4730-4fa5-aa76-9b1faf405744"
    }
  }, {
    "fullUrl": "https://madie.cms.gov/Procedure/cb2750d4-fc3a-41c0-966b-7807b27740a1",
    "resource": {
      "resourceType": "Procedure",
      "id": "cb2750d4-fc3a-41c0-966b-7807b27740a1",
      "meta": {
        "profile": [ "http://hl7.org/fhir/us/qicore/StructureDefinition/qicore-procedure" ]
      },
      "extension": [ {
        "url": "http://hl7.org/fhir/us/qicore/StructureDefinition/qicore-recorded",
        "valueDateTime": "2026-02-27T11:35:00.000+00:00"
      } ],
      "status": "completed",
      "code": {
        "coding": [ {
          "system": "http://www.ama-assn.org/go/cpt",
          "code": "96409"
        } ]
      },
      "subject": {
        "reference": "Patient/719a6ae4-ac86-406f-a762-380383e4a74d"
      },
      "performedPeriod": {
        "start": "2026-02-27T11:30:00.000+00:00",
        "end": "2026-02-27T11:30:00.000+00:00"
      }
    },
    "request": {
      "method": "PUT",
      "url": "Procedure/cb2750d4-fc3a-41c0-966b-7807b27740a1"
    }
  }, {
    "fullUrl": "https://madie.cms.gov/Procedure/c3381005-5198-4f9c-bc44-0f19d28693fa",
    "resource": {
      "resourceType": "Procedure",
      "id": "c3381005-5198-4f9c-bc44-0f19d28693fa",
      "meta": {
        "profile": [ "http://hl7.org/fhir/us/qicore/StructureDefinition/qicore-procedure" ]
      },
      "extension": [ {
        "url": "http://hl7.org/fhir/us/qicore/StructureDefinition/qicore-recorded",
        "valueDateTime": "2026-04-01T12:35:00.000+00:00"
      } ],
      "status": "completed",
      "code": {
        "coding": [ {
          "system": "http://www.ama-assn.org/go/cpt",
          "code": "96409"
        } ]
      },
      "subject": {
        "reference": "Patient/719a6ae4-ac86-406f-a762-380383e4a74d"
      },
      "performedPeriod": {
        "start": "2026-04-01T12:30:00.000+00:00",
        "end": "2026-04-01T12:30:00.000+00:00"
      }
    },
    "request": {
      "method": "PUT",
      "url": "Procedure/c3381005-5198-4f9c-bc44-0f19d28693fa"
    }
  }, {
    "fullUrl": "https://madie.cms.gov/Procedure/8dd51abd-e4ed-4f75-8d88-a20b15243767",
    "resource": {
      "resourceType": "Procedure",
      "id": "8dd51abd-e4ed-4f75-8d88-a20b15243767",
      "meta": {
        "profile": [ "http://hl7.org/fhir/us/qicore/StructureDefinition/qicore-procedure" ]
      },
      "extension": [ {
        "url": "http://hl7.org/fhir/us/qicore/StructureDefinition/qicore-recorded",
        "valueDateTime": "2026-05-30T12:35:00.000+00:00"
      } ],
      "status": "completed",
      "code": {
        "coding": [ {
          "system": "http://snomed.info/sct",
          "code": "169396008"
        } ]
      },
      "subject": {
        "reference": "Patient/719a6ae4-ac86-406f-a762-380383e4a74d"
      },
      "performedPeriod": {
        "start": "2026-05-30T12:45:00.000+00:00",
        "end": "2026-05-30T13:45:00.000+00:00"
      }
    },
    "request": {
      "method": "PUT",
      "url": "Procedure/8dd51abd-e4ed-4f75-8d88-a20b15243767"
    }
  }, {
    "fullUrl": "https://madie.cms.gov/Procedure/a30074e4-979d-4097-a608-7cef9b106cef",
    "resource": {
      "resourceType": "Procedure",
      "id": "a30074e4-979d-4097-a608-7cef9b106cef",
      "meta": {
        "profile": [ "http://hl7.org/fhir/us/qicore/StructureDefinition/qicore-procedure" ]
      },
      "extension": [ {
        "url": "http://hl7.org/fhir/us/qicore/StructureDefinition/qicore-recorded",
        "valueDateTime": "2026-06-04T12:35:00.000+00:00"
      } ],
      "status": "completed",
      "code": {
        "coding": [ {
          "system": "http://www.ama-assn.org/go/cpt",
          "code": "51720"
        } ]
      },
      "subject": {
        "reference": "Patient/719a6ae4-ac86-406f-a762-380383e4a74d"
      },
      "performedPeriod": {
        "start": "2026-06-04T15:30:00.000+00:00",
        "end": "2026-06-04T15:30:00.000+00:00"
      }
    },
    "request": {
      "method": "PUT",
      "url": "Procedure/a30074e4-979d-4097-a608-7cef9b106cef"
    }
  }, {
    "fullUrl": "https://madie.cms.gov/Organization/a96b6873-33f9-45e3-9e3b-6128e5a67acf",
    "resource": {
      "resourceType": "Organization",
      "id": "a96b6873-33f9-45e3-9e3b-6128e5a67acf",
      "meta": {
        "profile": [ "http://hl7.org/fhir/us/qicore/StructureDefinition/qicore-organization" ]
      },
      "identifier": [ {
        "use": "temp",
        "system": "urn:oid:2.16.840.1.113883.4.4",
        "value": "21-3259825"
      } ],
      "active": true,
      "type": [ {
        "coding": [ {
          "system": "http://terminology.hl7.org/CodeSystem/organization-type",
          "code": "pay",
          "display": "Payer"
        } ]
      } ],
      "name": "Blue Cross Blue Shield of Texas",
      "telecom": [ {
        "system": "phone",
        "value": "(+1) 972-766-6900"
      } ],
      "address": [ {
        "use": "billing",
        "type": "postal",
        "line": [ "P.O. Box 660044" ],
        "city": "Dallas",
        "state": "TX",
        "postalCode": "75266-0044",
        "country": "USA"
      } ]
    },
    "request": {
      "method": "PUT",
      "url": "Organization/a96b6873-33f9-45e3-9e3b-6128e5a67acf"
    }
  }, {
    "fullUrl": "https://madie.cms.gov/Practitioner/67ea7bf0-b940-4e82-8885-398ebb32e330",
    "resource": {
      "resourceType": "Practitioner",
      "id": "67ea7bf0-b940-4e82-8885-398ebb32e330",
      "meta": {
        "profile": [ "http://hl7.org/fhir/us/qicore/StructureDefinition/qicore-practitioner" ]
      },
      "identifier": [ {
        "system": "http://hl7.org/fhir/sid/us-npi",
        "value": "1234567890"
      } ],
      "name": [ {
        "family": "Evil",
        "prefix": [ "Dr" ]
      } ]
    },
    "request": {
      "method": "PUT",
      "url": "Practitioner/67ea7bf0-b940-4e82-8885-398ebb32e330"
    }
  }, {
    "fullUrl": "https://madie.cms.gov/MeasureReport/84729f91-b0f3-4571-80b0-40bfa0dd05ee",
    "resource": {
      "resourceType": "MeasureReport",
      "id": "84729f91-b0f3-4571-80b0-40bfa0dd05ee",
      "meta": {
        "profile": [ "http://hl7.org/fhir/us/cqfmeasures/StructureDefinition/test-case-cqfm" ]
      },
      "contained": [ {
        "resourceType": "Parameters",
        "id": "8342a4ff-bb90-4054-8ce8-0ffc75314fa3-parameters",
        "parameter": [ {
          "name": "subject",
          "valueString": "719a6ae4-ac86-406f-a762-380383e4a74d"
        } ]
      } ],
      "extension": [ {
        "url": "http://hl7.org/fhir/StructureDefinition/cqf-inputParameters",
        "valueReference": {
          "reference": "#8342a4ff-bb90-4054-8ce8-0ffc75314fa3-parameters"
        }
      }, {
        "url": "http://hl7.org/fhir/us/cqfmeasures/StructureDefinition/cqfm-testCaseDescription",
        "valueMarkdown": "Patient with cancer diagnosis overlaps multiple office visits during measurement period. Multiple chemotherapy administrations prior and after office visits. Pain intensity assessment was performed during 1 office visit."
      } ],
      "modifierExtension": [ {
        "url": "http://hl7.org/fhir/us/cqfmeasures/StructureDefinition/cqfm-isTestCase",
        "valueBoolean": true
      } ],
      "status": "complete",
      "type": "individual",
      "measure": "https://madie.cms.gov/Measure/CMS157FHIRPainIntensityQuantified",
      "period": {
        "start": "2026-01-01",
        "end": "2026-12-31"
      },
      "group": [ {
        "id": "Group_1",
        "population": [ {
          "id": "InitialPopulation_1",
          "code": {
            "coding": [ {
              "system": "http://terminology.hl7.org/CodeSystem/measure-population",
              "code": "initial-population",
              "display": "Initial Population"
            } ]
          },
          "count": 2
        }, {
          "id": "Denominator_1",
          "code": {
            "coding": [ {
              "system": "http://terminology.hl7.org/CodeSystem/measure-population",
              "code": "denominator",
              "display": "Denominator"
            } ]
          },
          "count": 2
        }, {
          "id": "Numerator_1",
          "code": {
            "coding": [ {
              "system": "http://terminology.hl7.org/CodeSystem/measure-population",
              "code": "numerator",
              "display": "Numerator"
            } ]
          },
          "count": 1
        } ],
        "measureScore": {
          "value": 0.0
        }
      }, {
        "id": "Group_2",
        "population": [ {
          "id": "InitialPopulation_2",
          "code": {
            "coding": [ {
              "system": "http://terminology.hl7.org/CodeSystem/measure-population",
              "code": "initial-population",
              "display": "Initial Population"
            } ]
          },
          "count": 0
        }, {
          "id": "Denominator_2",
          "code": {
            "coding": [ {
              "system": "http://terminology.hl7.org/CodeSystem/measure-population",
              "code": "denominator",
              "display": "Denominator"
            } ]
          },
          "count": 0
        }, {
          "id": "Numerator_2",
          "code": {
            "coding": [ {
              "system": "http://terminology.hl7.org/CodeSystem/measure-population",
              "code": "numerator",
              "display": "Numerator"
            } ]
          },
          "count": 0
        } ],
        "measureScore": {
          "value": 0.0
        }
      } ],
      "evaluatedResource": [ {
        "reference": "Patient/719a6ae4-ac86-406f-a762-380383e4a74d"
      }, {
        "reference": "Observation/1a182e83-f244-48bc-8aa5-d77991990525"
      }, {
        "reference": "Observation/55ef63b0-f092-4305-a832-33c058728608"
      }, {
        "reference": "Condition/7bed5805-ddbc-4aa8-8d0d-756f8678ada8"
      }, {
        "reference": "Encounter/30a41f91-d260-49b3-9c50-baf486b8e72f"
      }, {
        "reference": "Encounter/4354e533-e1a8-4d77-abb0-74990d6ba14e"
      }, {
        "reference": "Encounter/196910eb-2d8b-4e86-862d-0a74d5340a48"
      }, {
        "reference": "Encounter/a039a449-21dd-45d1-92f3-3fae864f607c"
      }, {
        "reference": "Coverage/a15b60a8-4730-4fa5-aa76-9b1faf405744"
      }, {
        "reference": "Procedure/cb2750d4-fc3a-41c0-966b-7807b27740a1"
      }, {
        "reference": "Procedure/c3381005-5198-4f9c-bc44-0f19d28693fa"
      }, {
        "reference": "Procedure/8dd51abd-e4ed-4f75-8d88-a20b15243767"
      }, {
        "reference": "Procedure/a30074e4-979d-4097-a608-7cef9b106cef"
      }, {
        "reference": "Organization/a96b6873-33f9-45e3-9e3b-6128e5a67acf"
      }, {
        "reference": "Practitioner/67ea7bf0-b940-4e82-8885-398ebb32e330"
      } ]
    },
    "request": {
      "method": "PUT",
      "url": "MeasureReport/84729f91-b0f3-4571-80b0-40bfa0dd05ee"
    }
  } ]
}