{
  "resourceType": "Bundle",
  "id": "62fd35b632e2f917c3627d91",
  "type": "collection",
  "entry": [ {
    "fullUrl": "https://madie.cms.gov/Patient/f561d914-95ab-4519-9b02-b9570ea69d48",
    "resource": {
      "resourceType": "Patient",
      "id": "f561d914-95ab-4519-9b02-b9570ea69d48",
      "meta": {
        "profile": [ "http://hl7.org/fhir/us/qicore/StructureDefinition/qicore-patient" ]
      },
      "extension": [ {
        "url": "http://hl7.org/fhir/us/core/StructureDefinition/us-core-race",
        "extension": [ {
          "url": "ombCategory",
          "valueCoding": {
            "system": "urn:oid:2.16.840.1.113883.6.238",
            "code": "2106-3",
            "display": "White",
            "userSelected": true
          }
        }, {
          "url": "text",
          "valueString": "White"
        } ]
      }, {
        "url": "http://hl7.org/fhir/us/core/StructureDefinition/us-core-ethnicity",
        "extension": [ {
          "url": "ombCategory",
          "valueCoding": {
            "system": "urn:oid:2.16.840.1.113883.6.238",
            "code": "2135-2",
            "display": "Hispanic or Latino",
            "userSelected": true
          }
        }, {
          "url": "text",
          "valueString": "Hispanic or Latino"
        } ]
      } ],
      "identifier": [ {
        "type": {
          "coding": [ {
            "system": "http://terminology.hl7.org/CodeSystem/v2-0203",
            "code": "MR"
          } ]
        },
        "system": "https://bonnie-fhir.healthit.gov/",
        "value": "62fd35b632e2f917c3627d91"
      } ],
      "name": [ {
        "family": "DENEXCEPFail",
        "given": [ "SalvageTxBeforePrCaDxInvalidCode" ]
      } ],
      "gender": "male",
      "birthDate": "1989-08-18"
    }
  }, {
    "fullUrl": "https://madie.cms.gov/Condition/752adfe9-f40f-4a1e-a33a-a0143a51fd6c",
    "resource": {
      "resourceType": "Condition",
      "id": "752adfe9-f40f-4a1e-a33a-a0143a51fd6c",
      "meta": {
        "profile": [ "http://hl7.org/fhir/us/qicore/StructureDefinition/qicore-condition-problems-health-concerns" ]
      },
      "clinicalStatus": {
        "coding": [ {
          "system": "http://terminology.hl7.org/CodeSystem/condition-clinical",
          "code": "active",
          "display": "active",
          "userSelected": true
        } ]
      },
      "category": [ {
        "coding": [ {
          "system": "http://terminology.hl7.org/CodeSystem/condition-category",
          "code": "problem-list-item",
          "display": "Problem List Item"
        } ]
      } ],
      "code": {
        "coding": [ {
          "system": "http://snomed.info/sct",
          "code": "254900004",
          "display": "Carcinoma of prostate (disorder)",
          "userSelected": true
        } ]
      },
      "subject": {
        "reference": "Patient/f561d914-95ab-4519-9b02-b9570ea69d48"
      },
      "onsetDateTime": "2010-01-01T08:00:00.000+00:00",
      "recordedDate": "2013-06-02T08:00:00.000+00:00"
    }
  }, {
    "fullUrl": "https://madie.cms.gov/Procedure/22d470e8-733f-4b9b-9e76-9d55212e369a",
    "resource": {
      "resourceType": "Procedure",
      "id": "22d470e8-733f-4b9b-9e76-9d55212e369a",
      "meta": {
        "profile": [ "http://hl7.org/fhir/us/qicore/StructureDefinition/qicore-procedure" ]
      },
      "extension": [ {
        "url": "http://hl7.org/fhir/us/qicore/StructureDefinition/qicore-recorded",
        "valueDateTime": "2026-02-01T09:00:00.000+00:00"
      } ],
      "status": "completed",
      "code": {
        "coding": [ {
          "system": "http://snomed.info/sct",
          "code": "38915000",
          "display": "Radionuclide therapy for gland ablation (procedure)",
          "userSelected": true
        } ]
      },
      "subject": {
        "reference": "Patient/f561d914-95ab-4519-9b02-b9570ea69d48"
      },
      "performedDateTime": "2026-06-02T08:00:00.000+00:00"
    }
  }, {
    "fullUrl": "https://madie.cms.gov/Observation/1964a976-e432-463d-9642-c595bd83c303",
    "resource": {
      "resourceType": "Observation",
      "id": "1964a976-e432-463d-9642-c595bd83c303",
      "meta": {
        "profile": [ "http://hl7.org/fhir/us/qicore/StructureDefinition/qicore-observation-lab" ]
      },
      "status": "final",
      "category": [ {
        "coding": [ {
          "system": "http://terminology.hl7.org/CodeSystem/observation-category",
          "code": "laboratory",
          "display": "Laboratory"
        } ]
      } ],
      "code": {
        "coding": [ {
          "system": "http://loinc.org",
          "version": "2.72",
          "code": "2857-1",
          "display": "Prostate specific Ag [Mass/volume] in Serum or Plasma",
          "userSelected": true
        } ]
      },
      "subject": {
        "reference": "Patient/f561d914-95ab-4519-9b02-b9570ea69d48"
      },
      "effectiveDateTime": "2026-01-07T08:00:00.000+00:00",
      "issued": "2026-04-02T08:00:00.000+00:00",
      "valueQuantity": {
        "value": 8.0,
        "system": "http://unitsofmeasure.org",
        "code": "ng/mL"
      }
    }
  }, {
    "fullUrl": "https://madie.cms.gov/Observation/99cf2d36-2b8e-4586-b34f-1864c3b13a39",
    "resource": {
      "resourceType": "Observation",
      "id": "99cf2d36-2b8e-4586-b34f-1864c3b13a39",
      "meta": {
        "profile": [ "http://hl7.org/fhir/us/qicore/StructureDefinition/qicore-observation-clinical-result" ]
      },
      "status": "final",
      "category": [ {
        "coding": [ {
          "system": "http://terminology.hl7.org/CodeSystem/observation-category",
          "code": "procedure",
          "display": "Procedure"
        } ]
      } ],
      "code": {
        "coding": [ {
          "system": "http://loinc.org",
          "code": "35266-6",
          "display": "Gleason score in Specimen Qualitative",
          "userSelected": true
        } ]
      },
      "subject": {
        "reference": "Patient/f561d914-95ab-4519-9b02-b9570ea69d48"
      },
      "effectivePeriod": {
        "start": "2026-04-02T08:00:00.000+00:00"
      },
      "issued": "2026-04-02T08:00:00.000+00:00",
      "valueInteger": 5
    }
  }, {
    "fullUrl": "https://madie.cms.gov/Observation/18096dbc-5a88-480e-9ef6-763049919c2f",
    "resource": {
      "resourceType": "Observation",
      "id": "18096dbc-5a88-480e-9ef6-763049919c2f",
      "meta": {
        "profile": [ "http://hl7.org/fhir/us/qicore/StructureDefinition/qicore-observation-clinical-result" ]
      },
      "status": "final",
      "category": [ {
        "coding": [ {
          "system": "http://terminology.hl7.org/CodeSystem/observation-category",
          "code": "procedure",
          "display": "Procedure"
        } ]
      } ],
      "code": {
        "coding": [ {
          "system": "http://snomed.info/sct",
          "code": "254292007",
          "display": "Tumor staging (tumor staging)",
          "userSelected": true
        } ]
      },
      "subject": {
        "reference": "Patient/f561d914-95ab-4519-9b02-b9570ea69d48"
      },
      "focus": [ {
        "reference": "Condition/752adfe9-f40f-4a1e-a33a-a0143a51fd6c"
      } ],
      "effectivePeriod": {
        "start": "2026-04-02T08:00:00.000+00:00"
      },
      "issued": "2026-02-02T08:00:00.000+00:00",
      "valueCodeableConcept": {
        "coding": [ {
          "system": "http://snomed.info/sct",
          "code": "1228892002",
          "display": "American Joint Committee on Cancer cT1a (qualifier value)",
          "userSelected": true
        } ]
      }
    }
  }, {
    "fullUrl": "https://madie.cms.gov/Procedure/a4dcb83f-f90d-4ac2-a873-8f786839c5a7",
    "resource": {
      "resourceType": "Procedure",
      "id": "a4dcb83f-f90d-4ac2-a873-8f786839c5a7",
      "meta": {
        "profile": [ "http://hl7.org/fhir/us/qicore/StructureDefinition/qicore-procedure" ]
      },
      "extension": [ {
        "url": "http://hl7.org/fhir/us/qicore/StructureDefinition/qicore-recorded",
        "valueDateTime": "2024-02-01T09:00:00.000+00:00"
      } ],
      "status": "completed",
      "code": {
        "coding": [ {
          "system": "http://snomed.info/sct",
          "code": "236209003",
          "display": "Salvage cystoprostatourethrectomy (procedure)",
          "userSelected": true
        } ]
      },
      "subject": {
        "reference": "Patient/f561d914-95ab-4519-9b02-b9570ea69d48"
      },
      "performedDateTime": "2009-01-01T08:00:00.000+00:00"
    }
  }, {
    "fullUrl": "https://madie.cms.gov/Coverage/2c0b5c6a-5fd1-4fb8-9379-dded0638e1a7",
    "resource": {
      "resourceType": "Coverage",
      "id": "2c0b5c6a-5fd1-4fb8-9379-dded0638e1a7",
      "meta": {
        "profile": [ "http://hl7.org/fhir/us/qicore/StructureDefinition/qicore-coverage" ]
      },
      "status": "active",
      "subscriberId": "123456789",
      "beneficiary": {
        "reference": "Patient/f561d914-95ab-4519-9b02-b9570ea69d48"
      },
      "relationship": {
        "coding": [ {
          "system": "http://terminology.hl7.org/CodeSystem/subscriber-relationship",
          "code": "self",
          "display": "Self",
          "userSelected": true
        } ]
      },
      "payor": [ {
        "reference": "Organization/774f3d49-5aba-4fdb-b7b8-a620ddec0b46"
      } ]
    }
  }, {
    "fullUrl": "https://madie.cms.gov/Organization/774f3d49-5aba-4fdb-b7b8-a620ddec0b46",
    "resource": {
      "resourceType": "Organization",
      "id": "774f3d49-5aba-4fdb-b7b8-a620ddec0b46",
      "meta": {
        "profile": [ "http://hl7.org/fhir/us/qicore/StructureDefinition/qicore-organization" ]
      },
      "identifier": [ {
        "use": "temp",
        "system": "urn:oid:2.16.840.1.113883.4.4",
        "value": "21-3259825"
      } ],
      "active": true,
      "type": [ {
        "coding": [ {
          "system": "http://terminology.hl7.org/CodeSystem/organization-type",
          "code": "pay",
          "display": "Payer"
        } ]
      } ],
      "name": "Blue Cross Blue Shield of Texas",
      "telecom": [ {
        "system": "phone",
        "value": "(+1) 972-766-6900"
      } ],
      "address": [ {
        "use": "billing",
        "type": "postal",
        "line": [ "P.O. Box 660044" ],
        "city": "Dallas",
        "state": "TX",
        "postalCode": "75266-0044",
        "country": "USA"
      } ]
    }
  }, {
    "fullUrl": "https://madie.cms.gov/Practitioner/04c5223a-7693-40f7-9c1d-9aa9723bc230",
    "resource": {
      "resourceType": "Practitioner",
      "id": "04c5223a-7693-40f7-9c1d-9aa9723bc230",
      "meta": {
        "profile": [ "http://hl7.org/fhir/us/qicore/StructureDefinition/qicore-practitioner" ]
      },
      "identifier": [ {
        "system": "http://hl7.org/fhir/sid/us-npi",
        "value": "1234567893"
      } ],
      "name": [ {
        "family": "Evil",
        "prefix": [ "Dr" ]
      } ]
    }
  }, {
    "fullUrl": "https://madie.cms.gov/MeasureReport/bda7e130-e905-4143-89b2-6205935087ee",
    "resource": {
      "resourceType": "MeasureReport",
      "id": "bda7e130-e905-4143-89b2-6205935087ee",
      "meta": {
        "profile": [ "http://hl7.org/fhir/us/cqfmeasures/StructureDefinition/test-case-cqfm" ]
      },
      "contained": [ {
        "resourceType": "Parameters",
        "id": "83d10b31-aace-4330-83af-b264c22328bd-parameters",
        "parameter": [ {
          "name": "subject",
          "valueString": "f561d914-95ab-4519-9b02-b9570ea69d48"
        } ]
      } ],
      "extension": [ {
        "url": "http://hl7.org/fhir/StructureDefinition/cqf-inputParameters",
        "valueReference": {
          "reference": "#83d10b31-aace-4330-83af-b264c22328bd-parameters"
        }
      }, {
        "url": "http://hl7.org/fhir/us/cqfmeasures/StructureDefinition/cqfm-testCaseDescription",
        "valueMarkdown": "Patient with prostate cancer diagnosis with salvage therapy. Procedure before start of diagnosis."
      } ],
      "modifierExtension": [ {
        "url": "http://hl7.org/fhir/us/cqfmeasures/StructureDefinition/cqfm-isTestCase",
        "valueBoolean": true
      } ],
      "status": "complete",
      "type": "individual",
      "measure": "https://madie.cms.gov/Measure/CMS129FHIRProstCaBoneScanUse",
      "period": {
        "start": "2026-01-01",
        "end": "2026-12-31"
      },
      "group": [ {
        "id": "Group_1",
        "population": [ {
          "id": "InitialPopulation_1",
          "code": {
            "coding": [ {
              "system": "http://terminology.hl7.org/CodeSystem/measure-population",
              "code": "initial-population",
              "display": "Initial Population"
            } ]
          },
          "count": 1
        }, {
          "id": "Denominator_1",
          "code": {
            "coding": [ {
              "system": "http://terminology.hl7.org/CodeSystem/measure-population",
              "code": "denominator",
              "display": "Denominator"
            } ]
          },
          "count": 1
        }, {
          "id": "Numerator_1",
          "code": {
            "coding": [ {
              "system": "http://terminology.hl7.org/CodeSystem/measure-population",
              "code": "numerator",
              "display": "Numerator"
            } ]
          },
          "count": 1
        }, {
          "id": "DenominatorException_1",
          "code": {
            "coding": [ {
              "system": "http://terminology.hl7.org/CodeSystem/measure-population",
              "code": "denominator-exception",
              "display": "Denominator Exception"
            } ]
          },
          "count": 0
        } ],
        "measureScore": {
          "value": 1.0
        }
      } ],
      "evaluatedResource": [ {
        "reference": "Patient/f561d914-95ab-4519-9b02-b9570ea69d48"
      }, {
        "reference": "Condition/752adfe9-f40f-4a1e-a33a-a0143a51fd6c"
      }, {
        "reference": "Procedure/22d470e8-733f-4b9b-9e76-9d55212e369a"
      }, {
        "reference": "Observation/1964a976-e432-463d-9642-c595bd83c303"
      }, {
        "reference": "Observation/99cf2d36-2b8e-4586-b34f-1864c3b13a39"
      }, {
        "reference": "Observation/18096dbc-5a88-480e-9ef6-763049919c2f"
      }, {
        "reference": "Procedure/a4dcb83f-f90d-4ac2-a873-8f786839c5a7"
      }, {
        "reference": "Coverage/2c0b5c6a-5fd1-4fb8-9379-dded0638e1a7"
      }, {
        "reference": "Organization/774f3d49-5aba-4fdb-b7b8-a620ddec0b46"
      }, {
        "reference": "Practitioner/04c5223a-7693-40f7-9c1d-9aa9723bc230"
      } ]
    }
  } ]
}