{
  "resourceType": "Bundle",
  "id": "DENEXPass-ImmunodeficiencyCondEncDx",
  "type": "transaction",
  "entry": [ {
    "fullUrl": "https://madie.cms.gov/Patient/45174386-5ec3-4b52-b695-dc4261b97d0f",
    "resource": {
      "resourceType": "Patient",
      "id": "45174386-5ec3-4b52-b695-dc4261b97d0f",
      "meta": {
        "profile": [ "http://hl7.org/fhir/us/qicore/StructureDefinition/qicore-patient" ]
      },
      "extension": [ {
        "url": "http://hl7.org/fhir/us/core/StructureDefinition/us-core-race",
        "extension": [ {
          "url": "ombCategory",
          "valueCoding": {
            "system": "urn:oid:2.16.840.1.113883.6.238",
            "code": "2028-9",
            "display": "Asian"
          }
        }, {
          "url": "text",
          "valueString": "Asian"
        } ]
      }, {
        "url": "http://hl7.org/fhir/us/core/StructureDefinition/us-core-ethnicity",
        "extension": [ {
          "url": "ombCategory",
          "valueCoding": {
            "system": "urn:oid:2.16.840.1.113883.6.238",
            "code": "2135-2",
            "display": "Hispanic or Latino"
          }
        }, {
          "url": "text",
          "valueString": "Hispanic or Latino"
        } ]
      } ],
      "identifier": [ {
        "system": "http://hospital.smarthealthit.org",
        "value": "999999995"
      } ],
      "name": [ {
        "family": "Bertha",
        "given": [ "Betty" ]
      } ],
      "gender": "female",
      "birthDate": "2024-01-01"
    },
    "request": {
      "method": "PUT",
      "url": "Patient/45174386-5ec3-4b52-b695-dc4261b97d0f"
    }
  }, {
    "fullUrl": "https://madie.cms.gov/Encounter/b53d5c7a-c1d7-479d-a567-c48234cbc463",
    "resource": {
      "resourceType": "Encounter",
      "id": "b53d5c7a-c1d7-479d-a567-c48234cbc463",
      "meta": {
        "profile": [ "http://hl7.org/fhir/us/qicore/StructureDefinition/qicore-encounter" ]
      },
      "status": "finished",
      "class": {
        "system": "http://terminology.hl7.org/CodeSystem/v3-ActCode",
        "code": "AMB",
        "display": "ambulatory"
      },
      "type": [ {
        "coding": [ {
          "system": "http://snomed.info/sct",
          "code": "185317003",
          "display": "Telephone encounter (procedure)"
        } ]
      } ],
      "subject": {
        "reference": "Patient/45174386-5ec3-4b52-b695-dc4261b97d0f"
      },
      "period": {
        "start": "2026-01-01T01:00:00.000+00:00",
        "end": "2026-01-01T01:15:00.000+00:00"
      }
    },
    "request": {
      "method": "PUT",
      "url": "Encounter/b53d5c7a-c1d7-479d-a567-c48234cbc463"
    }
  }, {
    "fullUrl": "https://madie.cms.gov/Condition/c1736ab2-199a-4f2e-b713-b2ab97ee3da5",
    "resource": {
      "resourceType": "Condition",
      "id": "c1736ab2-199a-4f2e-b713-b2ab97ee3da5",
      "meta": {
        "profile": [ "http://hl7.org/fhir/us/qicore/StructureDefinition/qicore-condition-encounter-diagnosis" ]
      },
      "clinicalStatus": {
        "coding": [ {
          "system": "http://terminology.hl7.org/CodeSystem/condition-clinical",
          "code": "active"
        } ]
      },
      "category": [ {
        "coding": [ {
          "system": "http://terminology.hl7.org/CodeSystem/condition-category",
          "code": "encounter-diagnosis",
          "display": "Encounter Diagnosis"
        } ]
      } ],
      "code": {
        "coding": [ {
          "system": "http://snomed.info/sct",
          "code": "18827005",
          "display": "Complement abnormality (disorder)"
        } ]
      },
      "subject": {
        "reference": "Patient/45174386-5ec3-4b52-b695-dc4261b97d0f"
      },
      "onsetDateTime": "2025-01-02T00:00:00.000+00:00"
    },
    "request": {
      "method": "PUT",
      "url": "Condition/c1736ab2-199a-4f2e-b713-b2ab97ee3da5"
    }
  }, {
    "fullUrl": "https://madie.cms.gov/Immunization/224ada45-0212-48be-8cd2-41bbc10f9b9d",
    "resource": {
      "resourceType": "Immunization",
      "id": "224ada45-0212-48be-8cd2-41bbc10f9b9d",
      "meta": {
        "profile": [ "http://hl7.org/fhir/us/qicore/StructureDefinition/qicore-immunization" ]
      },
      "status": "completed",
      "vaccineCode": {
        "coding": [ {
          "system": "http://hl7.org/fhir/sid/cvx",
          "code": "146",
          "display": "DTaP,IPV,Hib,HepB"
        } ]
      },
      "patient": {
        "reference": "Patient/45174386-5ec3-4b52-b695-dc4261b97d0f"
      },
      "occurrenceDateTime": "2025-01-02T00:00:00.000+00:00",
      "recorded": "2025-01-02T00:00:00.000+00:00",
      "primarySource": true
    },
    "request": {
      "method": "PUT",
      "url": "Immunization/224ada45-0212-48be-8cd2-41bbc10f9b9d"
    }
  }, {
    "fullUrl": "https://madie.cms.gov/Immunization/83a7ad1b-a0ab-4aed-b9db-a2f8f8005d46",
    "resource": {
      "resourceType": "Immunization",
      "id": "83a7ad1b-a0ab-4aed-b9db-a2f8f8005d46",
      "meta": {
        "profile": [ "http://hl7.org/fhir/us/qicore/StructureDefinition/qicore-immunization" ]
      },
      "status": "completed",
      "vaccineCode": {
        "coding": [ {
          "system": "http://hl7.org/fhir/sid/cvx",
          "code": "146",
          "display": "DTaP,IPV,Hib,HepB"
        } ]
      },
      "patient": {
        "reference": "Patient/45174386-5ec3-4b52-b695-dc4261b97d0f"
      },
      "occurrenceDateTime": "2025-01-05T00:00:00.000+00:00",
      "recorded": "2025-01-02T00:00:00.000+00:00",
      "primarySource": true
    },
    "request": {
      "method": "PUT",
      "url": "Immunization/83a7ad1b-a0ab-4aed-b9db-a2f8f8005d46"
    }
  }, {
    "fullUrl": "https://madie.cms.gov/Immunization/945e8d78-b667-4d52-8199-61e7f6bab778",
    "resource": {
      "resourceType": "Immunization",
      "id": "945e8d78-b667-4d52-8199-61e7f6bab778",
      "meta": {
        "profile": [ "http://hl7.org/fhir/us/qicore/StructureDefinition/qicore-immunization" ]
      },
      "status": "completed",
      "vaccineCode": {
        "coding": [ {
          "system": "http://hl7.org/fhir/sid/cvx",
          "code": "146",
          "display": "DTaP,IPV,Hib,HepB"
        } ]
      },
      "patient": {
        "reference": "Patient/45174386-5ec3-4b52-b695-dc4261b97d0f"
      },
      "occurrenceDateTime": "2025-01-07T00:00:00.000+00:00",
      "recorded": "2025-01-02T00:00:00.000+00:00",
      "primarySource": true
    },
    "request": {
      "method": "PUT",
      "url": "Immunization/945e8d78-b667-4d52-8199-61e7f6bab778"
    }
  }, {
    "fullUrl": "https://madie.cms.gov/Immunization/d9e07729-4320-4bfb-8c68-1fd1f36ab930",
    "resource": {
      "resourceType": "Immunization",
      "id": "d9e07729-4320-4bfb-8c68-1fd1f36ab930",
      "meta": {
        "profile": [ "http://hl7.org/fhir/us/qicore/StructureDefinition/qicore-immunization" ]
      },
      "status": "completed",
      "vaccineCode": {
        "coding": [ {
          "system": "http://hl7.org/fhir/sid/cvx",
          "code": "146",
          "display": "DTaP,IPV,Hib,HepB"
        } ]
      },
      "patient": {
        "reference": "Patient/45174386-5ec3-4b52-b695-dc4261b97d0f"
      },
      "occurrenceDateTime": "2025-01-10T00:00:00.000+00:00",
      "recorded": "2025-01-02T00:00:00.000+00:00",
      "primarySource": true
    },
    "request": {
      "method": "PUT",
      "url": "Immunization/d9e07729-4320-4bfb-8c68-1fd1f36ab930"
    }
  }, {
    "fullUrl": "https://madie.cms.gov/Immunization/bd749394-f8bc-4609-a297-395fa92b8a60",
    "resource": {
      "resourceType": "Immunization",
      "id": "bd749394-f8bc-4609-a297-395fa92b8a60",
      "meta": {
        "profile": [ "http://hl7.org/fhir/us/qicore/StructureDefinition/qicore-immunization" ]
      },
      "status": "completed",
      "vaccineCode": {
        "coding": [ {
          "system": "http://hl7.org/fhir/sid/cvx",
          "code": "146",
          "display": "DTaP,IPV,Hib,HepB"
        } ]
      },
      "patient": {
        "reference": "Patient/45174386-5ec3-4b52-b695-dc4261b97d0f"
      },
      "occurrenceDateTime": "2025-01-02T00:00:00.000+00:00",
      "recorded": "2025-01-02T00:00:00.000+00:00",
      "primarySource": true
    },
    "request": {
      "method": "PUT",
      "url": "Immunization/bd749394-f8bc-4609-a297-395fa92b8a60"
    }
  }, {
    "fullUrl": "https://madie.cms.gov/Immunization/4a7096f0-32c4-4029-bcb1-4dfb83740f9d",
    "resource": {
      "resourceType": "Immunization",
      "id": "4a7096f0-32c4-4029-bcb1-4dfb83740f9d",
      "meta": {
        "profile": [ "http://hl7.org/fhir/us/qicore/StructureDefinition/qicore-immunization" ]
      },
      "status": "completed",
      "vaccineCode": {
        "coding": [ {
          "system": "http://hl7.org/fhir/sid/cvx",
          "code": "146",
          "display": "DTaP,IPV,Hib,HepB"
        } ]
      },
      "patient": {
        "reference": "Patient/45174386-5ec3-4b52-b695-dc4261b97d0f"
      },
      "occurrenceDateTime": "2025-01-06T00:00:00.000+00:00",
      "recorded": "2025-01-02T00:00:00.000+00:00",
      "primarySource": true
    },
    "request": {
      "method": "PUT",
      "url": "Immunization/4a7096f0-32c4-4029-bcb1-4dfb83740f9d"
    }
  }, {
    "fullUrl": "https://madie.cms.gov/Immunization/3a2d6491-e13a-4d7e-a174-97137a24856f",
    "resource": {
      "resourceType": "Immunization",
      "id": "3a2d6491-e13a-4d7e-a174-97137a24856f",
      "meta": {
        "profile": [ "http://hl7.org/fhir/us/qicore/StructureDefinition/qicore-immunization" ]
      },
      "status": "completed",
      "vaccineCode": {
        "coding": [ {
          "system": "http://hl7.org/fhir/sid/cvx",
          "code": "146",
          "display": "DTaP,IPV,Hib,HepB"
        } ]
      },
      "patient": {
        "reference": "Patient/45174386-5ec3-4b52-b695-dc4261b97d0f"
      },
      "occurrenceDateTime": "2025-01-09T00:00:00.000+00:00",
      "recorded": "2025-01-02T00:00:00.000+00:00",
      "primarySource": true
    },
    "request": {
      "method": "PUT",
      "url": "Immunization/3a2d6491-e13a-4d7e-a174-97137a24856f"
    }
  }, {
    "fullUrl": "https://madie.cms.gov/Immunization/761779c7-3a67-4df8-abce-5482a826112e",
    "resource": {
      "resourceType": "Immunization",
      "id": "761779c7-3a67-4df8-abce-5482a826112e",
      "meta": {
        "profile": [ "http://hl7.org/fhir/us/qicore/StructureDefinition/qicore-immunization" ]
      },
      "status": "completed",
      "vaccineCode": {
        "coding": [ {
          "system": "http://hl7.org/fhir/sid/cvx",
          "code": "94",
          "display": "measles, mumps, rubella, and varicella virus vaccine"
        } ]
      },
      "patient": {
        "reference": "Patient/45174386-5ec3-4b52-b695-dc4261b97d0f"
      },
      "occurrenceDateTime": "2025-01-02T00:00:00.000+00:00",
      "recorded": "2025-01-02T00:00:00.000+00:00",
      "primarySource": true
    },
    "request": {
      "method": "PUT",
      "url": "Immunization/761779c7-3a67-4df8-abce-5482a826112e"
    }
  }, {
    "fullUrl": "https://madie.cms.gov/Immunization/e49b9ddd-d2f0-4a8c-b032-1b6db27903f4",
    "resource": {
      "resourceType": "Immunization",
      "id": "e49b9ddd-d2f0-4a8c-b032-1b6db27903f4",
      "meta": {
        "profile": [ "http://hl7.org/fhir/us/qicore/StructureDefinition/qicore-immunization" ]
      },
      "status": "completed",
      "vaccineCode": {
        "coding": [ {
          "system": "http://hl7.org/fhir/sid/cvx",
          "code": "49",
          "display": "Haemophilus influenzae type b vaccine, PRP-OMP conjugate"
        } ]
      },
      "patient": {
        "reference": "Patient/45174386-5ec3-4b52-b695-dc4261b97d0f"
      },
      "occurrenceDateTime": "2025-01-02T00:00:00.000+00:00",
      "recorded": "2025-01-02T00:00:00.000+00:00",
      "primarySource": true
    },
    "request": {
      "method": "PUT",
      "url": "Immunization/e49b9ddd-d2f0-4a8c-b032-1b6db27903f4"
    }
  }, {
    "fullUrl": "https://madie.cms.gov/Immunization/838765db-b92a-4cc6-8a92-52a7f64ca646",
    "resource": {
      "resourceType": "Immunization",
      "id": "838765db-b92a-4cc6-8a92-52a7f64ca646",
      "meta": {
        "profile": [ "http://hl7.org/fhir/us/qicore/StructureDefinition/qicore-immunization" ]
      },
      "status": "completed",
      "vaccineCode": {
        "coding": [ {
          "system": "http://hl7.org/fhir/sid/cvx",
          "code": "49",
          "display": "Haemophilus influenzae type b vaccine, PRP-OMP conjugate"
        } ]
      },
      "patient": {
        "reference": "Patient/45174386-5ec3-4b52-b695-dc4261b97d0f"
      },
      "occurrenceDateTime": "2025-01-02T00:00:00.000+00:00",
      "recorded": "2025-01-02T00:00:00.000+00:00",
      "primarySource": true
    },
    "request": {
      "method": "PUT",
      "url": "Immunization/838765db-b92a-4cc6-8a92-52a7f64ca646"
    }
  }, {
    "fullUrl": "https://madie.cms.gov/Immunization/1a9ad602-f19d-47a6-a846-1d0896d0cb2c",
    "resource": {
      "resourceType": "Immunization",
      "id": "1a9ad602-f19d-47a6-a846-1d0896d0cb2c",
      "meta": {
        "profile": [ "http://hl7.org/fhir/us/qicore/StructureDefinition/qicore-immunization" ]
      },
      "status": "completed",
      "vaccineCode": {
        "coding": [ {
          "system": "http://hl7.org/fhir/sid/cvx",
          "code": "49",
          "display": "Haemophilus influenzae type b vaccine, PRP-OMP conjugate"
        } ]
      },
      "patient": {
        "reference": "Patient/45174386-5ec3-4b52-b695-dc4261b97d0f"
      },
      "occurrenceDateTime": "2025-01-02T00:00:00.000+00:00",
      "recorded": "2025-01-02T00:00:00.000+00:00",
      "primarySource": true
    },
    "request": {
      "method": "PUT",
      "url": "Immunization/1a9ad602-f19d-47a6-a846-1d0896d0cb2c"
    }
  }, {
    "fullUrl": "https://madie.cms.gov/Immunization/70522ad2-db32-4e30-b398-a8743646aa16",
    "resource": {
      "resourceType": "Immunization",
      "id": "70522ad2-db32-4e30-b398-a8743646aa16",
      "meta": {
        "profile": [ "http://hl7.org/fhir/us/qicore/StructureDefinition/qicore-immunization" ]
      },
      "status": "completed",
      "vaccineCode": {
        "coding": [ {
          "system": "http://hl7.org/fhir/sid/cvx",
          "code": "51",
          "display": "Haemophilus influenzae type b conjugate and Hepatitis B vaccine"
        } ]
      },
      "patient": {
        "reference": "Patient/45174386-5ec3-4b52-b695-dc4261b97d0f"
      },
      "occurrenceDateTime": "2025-01-02T00:00:00.000+00:00",
      "recorded": "2025-01-02T00:00:00.000+00:00",
      "primarySource": true
    },
    "request": {
      "method": "PUT",
      "url": "Immunization/70522ad2-db32-4e30-b398-a8743646aa16"
    }
  }, {
    "fullUrl": "https://madie.cms.gov/Immunization/5a8c41be-8131-4953-93a9-b94458886065",
    "resource": {
      "resourceType": "Immunization",
      "id": "5a8c41be-8131-4953-93a9-b94458886065",
      "meta": {
        "profile": [ "http://hl7.org/fhir/us/qicore/StructureDefinition/qicore-immunization" ]
      },
      "status": "completed",
      "vaccineCode": {
        "coding": [ {
          "system": "http://hl7.org/fhir/sid/cvx",
          "code": "51",
          "display": "Haemophilus influenzae type b conjugate and Hepatitis B vaccine"
        } ]
      },
      "patient": {
        "reference": "Patient/45174386-5ec3-4b52-b695-dc4261b97d0f"
      },
      "occurrenceDateTime": "2025-01-10T00:00:00.000+00:00",
      "recorded": "2025-01-02T00:00:00.000+00:00",
      "primarySource": true
    },
    "request": {
      "method": "PUT",
      "url": "Immunization/5a8c41be-8131-4953-93a9-b94458886065"
    }
  }, {
    "fullUrl": "https://madie.cms.gov/Immunization/7d288f81-97fd-4c57-9a4d-fb61042a83a2",
    "resource": {
      "resourceType": "Immunization",
      "id": "7d288f81-97fd-4c57-9a4d-fb61042a83a2",
      "meta": {
        "profile": [ "http://hl7.org/fhir/us/qicore/StructureDefinition/qicore-immunization" ]
      },
      "status": "completed",
      "vaccineCode": {
        "coding": [ {
          "system": "http://hl7.org/fhir/sid/cvx",
          "code": "51",
          "display": "Haemophilus influenzae type b conjugate and Hepatitis B vaccine"
        } ]
      },
      "patient": {
        "reference": "Patient/45174386-5ec3-4b52-b695-dc4261b97d0f"
      },
      "occurrenceDateTime": "2025-01-12T00:00:00.000+00:00",
      "recorded": "2025-01-02T00:00:00.000+00:00",
      "primarySource": true
    },
    "request": {
      "method": "PUT",
      "url": "Immunization/7d288f81-97fd-4c57-9a4d-fb61042a83a2"
    }
  }, {
    "fullUrl": "https://madie.cms.gov/Immunization/d966f5d7-2ff0-4bda-9fbd-eb83172b898c",
    "resource": {
      "resourceType": "Immunization",
      "id": "d966f5d7-2ff0-4bda-9fbd-eb83172b898c",
      "meta": {
        "profile": [ "http://hl7.org/fhir/us/qicore/StructureDefinition/qicore-immunization" ]
      },
      "status": "completed",
      "vaccineCode": {
        "coding": [ {
          "system": "http://hl7.org/fhir/sid/cvx",
          "code": "94",
          "display": "measles, mumps, rubella, and varicella virus vaccine"
        } ]
      },
      "patient": {
        "reference": "Patient/45174386-5ec3-4b52-b695-dc4261b97d0f"
      },
      "occurrenceDateTime": "2025-01-02T00:00:00.000+00:00",
      "recorded": "2025-01-02T00:00:00.000+00:00",
      "primarySource": true
    },
    "request": {
      "method": "PUT",
      "url": "Immunization/d966f5d7-2ff0-4bda-9fbd-eb83172b898c"
    }
  }, {
    "fullUrl": "https://madie.cms.gov/Immunization/fcb9812b-59ac-4029-9191-c293ef1b649a",
    "resource": {
      "resourceType": "Immunization",
      "id": "fcb9812b-59ac-4029-9191-c293ef1b649a",
      "meta": {
        "profile": [ "http://hl7.org/fhir/us/qicore/StructureDefinition/qicore-immunization" ]
      },
      "status": "completed",
      "vaccineCode": {
        "coding": [ {
          "system": "http://hl7.org/fhir/sid/cvx",
          "code": "215",
          "display": "Pneumococcal conjugate vaccine 15-valent (PCV15), polysaccharide CRM197 conjugate, adjuvant, preservative free"
        } ]
      },
      "patient": {
        "reference": "Patient/45174386-5ec3-4b52-b695-dc4261b97d0f"
      },
      "occurrenceDateTime": "2025-01-12T00:00:00.000+00:00",
      "recorded": "2025-01-02T00:00:00.000+00:00",
      "primarySource": true
    },
    "request": {
      "method": "PUT",
      "url": "Immunization/fcb9812b-59ac-4029-9191-c293ef1b649a"
    }
  }, {
    "fullUrl": "https://madie.cms.gov/Immunization/52489607-3da7-43f3-a1ef-48d2ed79a259",
    "resource": {
      "resourceType": "Immunization",
      "id": "52489607-3da7-43f3-a1ef-48d2ed79a259",
      "meta": {
        "profile": [ "http://hl7.org/fhir/us/qicore/StructureDefinition/qicore-immunization" ]
      },
      "status": "completed",
      "vaccineCode": {
        "coding": [ {
          "system": "http://hl7.org/fhir/sid/cvx",
          "code": "215",
          "display": "Pneumococcal conjugate vaccine 15-valent (PCV15), polysaccharide CRM197 conjugate, adjuvant, preservative free"
        } ]
      },
      "patient": {
        "reference": "Patient/45174386-5ec3-4b52-b695-dc4261b97d0f"
      },
      "occurrenceDateTime": "2025-01-14T00:00:00.000+00:00",
      "recorded": "2025-01-02T00:00:00.000+00:00",
      "primarySource": true
    },
    "request": {
      "method": "PUT",
      "url": "Immunization/52489607-3da7-43f3-a1ef-48d2ed79a259"
    }
  }, {
    "fullUrl": "https://madie.cms.gov/Immunization/ad151b23-6961-4b53-bfcf-caff8c1e5040",
    "resource": {
      "resourceType": "Immunization",
      "id": "ad151b23-6961-4b53-bfcf-caff8c1e5040",
      "meta": {
        "profile": [ "http://hl7.org/fhir/us/qicore/StructureDefinition/qicore-immunization" ]
      },
      "status": "completed",
      "vaccineCode": {
        "coding": [ {
          "system": "http://hl7.org/fhir/sid/cvx",
          "code": "215",
          "display": "Pneumococcal conjugate vaccine 15-valent (PCV15), polysaccharide CRM197 conjugate, adjuvant, preservative free"
        } ]
      },
      "patient": {
        "reference": "Patient/45174386-5ec3-4b52-b695-dc4261b97d0f"
      },
      "occurrenceDateTime": "2025-01-20T00:00:00.000+00:00",
      "recorded": "2025-01-02T00:00:00.000+00:00",
      "primarySource": true
    },
    "request": {
      "method": "PUT",
      "url": "Immunization/ad151b23-6961-4b53-bfcf-caff8c1e5040"
    }
  }, {
    "fullUrl": "https://madie.cms.gov/Immunization/815373e3-0adc-494d-87d9-1a1130a3c95c",
    "resource": {
      "resourceType": "Immunization",
      "id": "815373e3-0adc-494d-87d9-1a1130a3c95c",
      "meta": {
        "profile": [ "http://hl7.org/fhir/us/qicore/StructureDefinition/qicore-immunization" ]
      },
      "status": "completed",
      "vaccineCode": {
        "coding": [ {
          "system": "http://hl7.org/fhir/sid/cvx",
          "code": "215",
          "display": "Pneumococcal conjugate vaccine 15-valent (PCV15), polysaccharide CRM197 conjugate, adjuvant, preservative free"
        } ]
      },
      "patient": {
        "reference": "Patient/45174386-5ec3-4b52-b695-dc4261b97d0f"
      },
      "occurrenceDateTime": "2025-01-22T00:00:00.000+00:00",
      "recorded": "2025-01-02T00:00:00.000+00:00",
      "primarySource": true
    },
    "request": {
      "method": "PUT",
      "url": "Immunization/815373e3-0adc-494d-87d9-1a1130a3c95c"
    }
  }, {
    "fullUrl": "https://madie.cms.gov/Immunization/796d8276-e646-443b-a129-a42d729a035e",
    "resource": {
      "resourceType": "Immunization",
      "id": "796d8276-e646-443b-a129-a42d729a035e",
      "meta": {
        "profile": [ "http://hl7.org/fhir/us/qicore/StructureDefinition/qicore-immunization" ]
      },
      "status": "completed",
      "vaccineCode": {
        "coding": [ {
          "system": "http://hl7.org/fhir/sid/cvx",
          "code": "85",
          "display": "hepatitis A vaccine, unspecified formulation"
        } ]
      },
      "patient": {
        "reference": "Patient/45174386-5ec3-4b52-b695-dc4261b97d0f"
      },
      "occurrenceDateTime": "2026-01-02T00:00:00.000+00:00",
      "recorded": "2026-01-02T00:00:00.000+00:00",
      "primarySource": true
    },
    "request": {
      "method": "PUT",
      "url": "Immunization/796d8276-e646-443b-a129-a42d729a035e"
    }
  }, {
    "fullUrl": "https://madie.cms.gov/Immunization/93e708a6-558e-4ca6-9f68-a999850871d7",
    "resource": {
      "resourceType": "Immunization",
      "id": "93e708a6-558e-4ca6-9f68-a999850871d7",
      "meta": {
        "profile": [ "http://hl7.org/fhir/us/qicore/StructureDefinition/qicore-immunization" ]
      },
      "status": "completed",
      "vaccineCode": {
        "coding": [ {
          "system": "http://hl7.org/fhir/sid/cvx",
          "code": "119",
          "display": "rotavirus, live, monovalent vaccine"
        } ]
      },
      "patient": {
        "reference": "Patient/45174386-5ec3-4b52-b695-dc4261b97d0f"
      },
      "occurrenceDateTime": "2026-01-02T00:00:00.000+00:00",
      "recorded": "2026-01-02T00:00:00.000+00:00",
      "primarySource": true
    },
    "request": {
      "method": "PUT",
      "url": "Immunization/93e708a6-558e-4ca6-9f68-a999850871d7"
    }
  }, {
    "fullUrl": "https://madie.cms.gov/Immunization/15af4da0-f7fb-48b0-b264-869814fcc2a8",
    "resource": {
      "resourceType": "Immunization",
      "id": "15af4da0-f7fb-48b0-b264-869814fcc2a8",
      "meta": {
        "profile": [ "http://hl7.org/fhir/us/qicore/StructureDefinition/qicore-immunization" ]
      },
      "status": "completed",
      "vaccineCode": {
        "coding": [ {
          "system": "http://hl7.org/fhir/sid/cvx",
          "code": "119",
          "display": "rotavirus, live, monovalent vaccine"
        } ]
      },
      "patient": {
        "reference": "Patient/45174386-5ec3-4b52-b695-dc4261b97d0f"
      },
      "occurrenceDateTime": "2025-01-07T00:00:00.000+00:00",
      "recorded": "2025-01-02T00:00:00.000+00:00",
      "primarySource": true
    },
    "request": {
      "method": "PUT",
      "url": "Immunization/15af4da0-f7fb-48b0-b264-869814fcc2a8"
    }
  }, {
    "fullUrl": "https://madie.cms.gov/Immunization/4cc6687d-9169-4ba5-be5b-eb0a31bbaaac",
    "resource": {
      "resourceType": "Immunization",
      "id": "4cc6687d-9169-4ba5-be5b-eb0a31bbaaac",
      "meta": {
        "profile": [ "http://hl7.org/fhir/us/qicore/StructureDefinition/qicore-immunization" ]
      },
      "status": "completed",
      "vaccineCode": {
        "coding": [ {
          "system": "http://hl7.org/fhir/sid/cvx",
          "code": "153",
          "display": "Influenza, injectable, MDCK, preservative free"
        } ]
      },
      "patient": {
        "reference": "Patient/45174386-5ec3-4b52-b695-dc4261b97d0f"
      },
      "occurrenceDateTime": "2026-01-02T00:00:00.000+00:00",
      "recorded": "2026-01-02T00:00:00.000+00:00",
      "primarySource": true
    },
    "request": {
      "method": "PUT",
      "url": "Immunization/4cc6687d-9169-4ba5-be5b-eb0a31bbaaac"
    }
  }, {
    "fullUrl": "https://madie.cms.gov/Immunization/9d1a9947-532d-49c7-be5f-c3b8b63b48f2",
    "resource": {
      "resourceType": "Immunization",
      "id": "9d1a9947-532d-49c7-be5f-c3b8b63b48f2",
      "meta": {
        "profile": [ "http://hl7.org/fhir/us/qicore/StructureDefinition/qicore-immunization" ]
      },
      "status": "completed",
      "vaccineCode": {
        "coding": [ {
          "system": "http://hl7.org/fhir/sid/cvx",
          "code": "153",
          "display": "Influenza, injectable, MDCK, preservative free"
        } ]
      },
      "patient": {
        "reference": "Patient/45174386-5ec3-4b52-b695-dc4261b97d0f"
      },
      "occurrenceDateTime": "2026-01-10T00:00:00.000+00:00",
      "recorded": "2026-01-02T00:00:00.000+00:00",
      "primarySource": true
    },
    "request": {
      "method": "PUT",
      "url": "Immunization/9d1a9947-532d-49c7-be5f-c3b8b63b48f2"
    }
  }, {
    "fullUrl": "https://madie.cms.gov/MeasureReport/40766a24-3a07-4830-ba55-ecdbaf326d83",
    "resource": {
      "resourceType": "MeasureReport",
      "id": "40766a24-3a07-4830-ba55-ecdbaf326d83",
      "meta": {
        "profile": [ "http://hl7.org/fhir/us/cqfmeasures/StructureDefinition/test-case-cqfm" ]
      },
      "contained": [ {
        "resourceType": "Parameters",
        "id": "4b110668-9108-4389-838e-b8db65b64f74-parameters",
        "parameter": [ {
          "name": "subject",
          "valueString": "45174386-5ec3-4b52-b695-dc4261b97d0f"
        } ]
      } ],
      "extension": [ {
        "url": "http://hl7.org/fhir/StructureDefinition/cqf-inputParameters",
        "valueReference": {
          "reference": "#4b110668-9108-4389-838e-b8db65b64f74-parameters"
        }
      }, {
        "url": "http://hl7.org/fhir/us/cqfmeasures/StructureDefinition/cqfm-testCaseDescription",
        "valueMarkdown": "Patient has immunodeficiency. Testing condition encounter diagnosis."
      } ],
      "modifierExtension": [ {
        "url": "http://hl7.org/fhir/us/cqfmeasures/StructureDefinition/cqfm-isTestCase",
        "valueBoolean": true
      } ],
      "status": "complete",
      "type": "individual",
      "measure": "https://madie.cms.gov/Measure/CMS117FHIRChildImmunStatus",
      "period": {
        "start": "2026-01-01",
        "end": "2026-12-31"
      },
      "group": [ {
        "id": "Group_1",
        "population": [ {
          "id": "InitialPopulation_1",
          "code": {
            "coding": [ {
              "system": "http://terminology.hl7.org/CodeSystem/measure-population",
              "code": "initial-population",
              "display": "Initial Population"
            } ]
          },
          "count": 1
        }, {
          "id": "Denominator_1",
          "code": {
            "coding": [ {
              "system": "http://terminology.hl7.org/CodeSystem/measure-population",
              "code": "denominator",
              "display": "Denominator"
            } ]
          },
          "count": 1
        }, {
          "id": "DenominatorExclusion_1",
          "code": {
            "coding": [ {
              "system": "http://terminology.hl7.org/CodeSystem/measure-population",
              "code": "denominator-exclusion",
              "display": "Denominator Exclusion"
            } ]
          },
          "count": 1
        }, {
          "id": "Numerator_1",
          "code": {
            "coding": [ {
              "system": "http://terminology.hl7.org/CodeSystem/measure-population",
              "code": "numerator",
              "display": "Numerator"
            } ]
          },
          "count": 0
        } ],
        "measureScore": {
          "value": 1.0
        }
      } ],
      "evaluatedResource": [ {
        "reference": "Patient/45174386-5ec3-4b52-b695-dc4261b97d0f"
      }, {
        "reference": "Encounter/b53d5c7a-c1d7-479d-a567-c48234cbc463"
      }, {
        "reference": "Condition/c1736ab2-199a-4f2e-b713-b2ab97ee3da5"
      }, {
        "reference": "Immunization/224ada45-0212-48be-8cd2-41bbc10f9b9d"
      }, {
        "reference": "Immunization/83a7ad1b-a0ab-4aed-b9db-a2f8f8005d46"
      }, {
        "reference": "Immunization/945e8d78-b667-4d52-8199-61e7f6bab778"
      }, {
        "reference": "Immunization/d9e07729-4320-4bfb-8c68-1fd1f36ab930"
      }, {
        "reference": "Immunization/bd749394-f8bc-4609-a297-395fa92b8a60"
      }, {
        "reference": "Immunization/4a7096f0-32c4-4029-bcb1-4dfb83740f9d"
      }, {
        "reference": "Immunization/3a2d6491-e13a-4d7e-a174-97137a24856f"
      }, {
        "reference": "Immunization/761779c7-3a67-4df8-abce-5482a826112e"
      }, {
        "reference": "Immunization/e49b9ddd-d2f0-4a8c-b032-1b6db27903f4"
      }, {
        "reference": "Immunization/838765db-b92a-4cc6-8a92-52a7f64ca646"
      }, {
        "reference": "Immunization/1a9ad602-f19d-47a6-a846-1d0896d0cb2c"
      }, {
        "reference": "Immunization/70522ad2-db32-4e30-b398-a8743646aa16"
      }, {
        "reference": "Immunization/5a8c41be-8131-4953-93a9-b94458886065"
      }, {
        "reference": "Immunization/7d288f81-97fd-4c57-9a4d-fb61042a83a2"
      }, {
        "reference": "Immunization/d966f5d7-2ff0-4bda-9fbd-eb83172b898c"
      }, {
        "reference": "Immunization/fcb9812b-59ac-4029-9191-c293ef1b649a"
      }, {
        "reference": "Immunization/52489607-3da7-43f3-a1ef-48d2ed79a259"
      }, {
        "reference": "Immunization/ad151b23-6961-4b53-bfcf-caff8c1e5040"
      }, {
        "reference": "Immunization/815373e3-0adc-494d-87d9-1a1130a3c95c"
      }, {
        "reference": "Immunization/796d8276-e646-443b-a129-a42d729a035e"
      }, {
        "reference": "Immunization/93e708a6-558e-4ca6-9f68-a999850871d7"
      }, {
        "reference": "Immunization/15af4da0-f7fb-48b0-b264-869814fcc2a8"
      }, {
        "reference": "Immunization/4cc6687d-9169-4ba5-be5b-eb0a31bbaaac"
      }, {
        "reference": "Immunization/9d1a9947-532d-49c7-be5f-c3b8b63b48f2"
      } ]
    },
    "request": {
      "method": "PUT",
      "url": "MeasureReport/40766a24-3a07-4830-ba55-ecdbaf326d83"
    }
  } ]
}