{
  "resourceType": "Bundle",
  "id": "DENEXPass-HospiceProcedureStartsDuringMP",
  "type": "transaction",
  "entry": [ {
    "fullUrl": "https://madie.cms.gov/Patient/ee6d52b0-149c-4ffe-b260-bb214151652c",
    "resource": {
      "resourceType": "Patient",
      "id": "ee6d52b0-149c-4ffe-b260-bb214151652c",
      "meta": {
        "profile": [ "http://hl7.org/fhir/us/qicore/StructureDefinition/qicore-patient" ]
      },
      "extension": [ {
        "url": "http://hl7.org/fhir/us/core/StructureDefinition/us-core-race",
        "extension": [ {
          "url": "ombCategory",
          "valueCoding": {
            "system": "urn:oid:2.16.840.1.113883.6.238",
            "code": "2028-9",
            "display": "Asian",
            "userSelected": true
          }
        }, {
          "url": "text",
          "valueString": "Asian"
        } ]
      }, {
        "url": "http://hl7.org/fhir/us/core/StructureDefinition/us-core-ethnicity",
        "extension": [ {
          "url": "ombCategory",
          "valueCoding": {
            "system": "urn:oid:2.16.840.1.113883.6.238",
            "code": "2135-2",
            "display": "Hispanic or Latino",
            "userSelected": true
          }
        }, {
          "url": "text",
          "valueString": "Hispanic or Latino"
        } ]
      } ],
      "identifier": [ {
        "type": {
          "coding": [ {
            "system": "http://terminology.hl7.org/CodeSystem/v2-0203",
            "code": "MR"
          } ]
        },
        "system": "http://hospital.smarthealthit.org",
        "value": "999999995"
      } ],
      "name": [ {
        "family": "Bertha",
        "given": [ "Betty" ]
      } ],
      "gender": "male",
      "birthDate": "2007-01-01"
    },
    "request": {
      "method": "PUT",
      "url": "Patient/ee6d52b0-149c-4ffe-b260-bb214151652c"
    }
  }, {
    "fullUrl": "https://madie.cms.gov/Encounter/cbac5b45-19df-4e46-b33e-0d07bfb3ea74",
    "resource": {
      "resourceType": "Encounter",
      "id": "cbac5b45-19df-4e46-b33e-0d07bfb3ea74",
      "meta": {
        "profile": [ "http://hl7.org/fhir/us/qicore/StructureDefinition/qicore-encounter" ]
      },
      "status": "finished",
      "class": {
        "system": "http://terminology.hl7.org/CodeSystem/v3-ActCode",
        "code": "AMB",
        "display": "ambulatory"
      },
      "type": [ {
        "coding": [ {
          "system": "http://snomed.info/sct",
          "code": "3391000175108",
          "display": "Office visit for pediatric care and assessment (procedure)"
        } ]
      } ],
      "subject": {
        "reference": "Patient/ee6d52b0-149c-4ffe-b260-bb214151652c"
      },
      "period": {
        "start": "2026-01-01T00:00:00.000+00:00",
        "end": "2026-01-01T01:00:00.000+00:00"
      }
    },
    "request": {
      "method": "PUT",
      "url": "Encounter/cbac5b45-19df-4e46-b33e-0d07bfb3ea74"
    }
  }, {
    "fullUrl": "https://madie.cms.gov/MedicationDispense/cc4d27c8-d0e7-4531-ad44-54b701543f3d",
    "resource": {
      "resourceType": "MedicationDispense",
      "id": "cc4d27c8-d0e7-4531-ad44-54b701543f3d",
      "meta": {
        "profile": [ "http://hl7.org/fhir/us/qicore/StructureDefinition/qicore-medicationdispense" ]
      },
      "status": "completed",
      "medicationCodeableConcept": {
        "coding": [ {
          "system": "http://www.nlm.nih.gov/research/umls/rxnorm",
          "code": "1099316",
          "display": "desipramine hydrochloride 75 MG Oral Tablet"
        } ]
      },
      "subject": {
        "reference": "Patient/ee6d52b0-149c-4ffe-b260-bb214151652c"
      },
      "daysSupply": {
        "value": 10,
        "system": "http://unitsofmeasure.org",
        "code": "d"
      },
      "whenHandedOver": "2026-01-01T01:00:00.000+00:00"
    },
    "request": {
      "method": "PUT",
      "url": "MedicationDispense/cc4d27c8-d0e7-4531-ad44-54b701543f3d"
    }
  }, {
    "fullUrl": "https://madie.cms.gov/MedicationDispense/7ddab29a-7b25-4cc1-ae07-aa6df9d587a9",
    "resource": {
      "resourceType": "MedicationDispense",
      "id": "7ddab29a-7b25-4cc1-ae07-aa6df9d587a9",
      "meta": {
        "profile": [ "http://hl7.org/fhir/us/qicore/StructureDefinition/qicore-medicationdispense" ]
      },
      "status": "completed",
      "medicationCodeableConcept": {
        "coding": [ {
          "system": "http://www.nlm.nih.gov/research/umls/rxnorm",
          "code": "1099316",
          "display": "desipramine hydrochloride 75 MG Oral Tablet"
        } ]
      },
      "subject": {
        "reference": "Patient/ee6d52b0-149c-4ffe-b260-bb214151652c"
      },
      "daysSupply": {
        "value": 10,
        "system": "http://unitsofmeasure.org",
        "code": "d"
      },
      "whenHandedOver": "2026-03-01T01:00:00.000+00:00"
    },
    "request": {
      "method": "PUT",
      "url": "MedicationDispense/7ddab29a-7b25-4cc1-ae07-aa6df9d587a9"
    }
  }, {
    "fullUrl": "https://madie.cms.gov/Condition/27b9be3a-d288-4a1f-af70-4d4f70eb0731",
    "resource": {
      "resourceType": "Condition",
      "id": "27b9be3a-d288-4a1f-af70-4d4f70eb0731",
      "meta": {
        "profile": [ "http://hl7.org/fhir/us/qicore/StructureDefinition/qicore-condition-encounter-diagnosis" ]
      },
      "clinicalStatus": {
        "coding": [ {
          "system": "http://terminology.hl7.org/CodeSystem/condition-clinical",
          "code": "active"
        } ]
      },
      "category": [ {
        "coding": [ {
          "system": "http://terminology.hl7.org/CodeSystem/condition-category",
          "code": "encounter-diagnosis",
          "display": "Encounter Diagnosis"
        } ]
      } ],
      "code": {
        "coding": [ {
          "system": "http://snomed.info/sct",
          "code": "15193003",
          "display": "Severe recurrent major depression with psychotic features, mood-incongruent (disorder)"
        } ]
      },
      "subject": {
        "reference": "Patient/ee6d52b0-149c-4ffe-b260-bb214151652c"
      },
      "onsetDateTime": "2026-01-01T01:00:00.000+00:00"
    },
    "request": {
      "method": "PUT",
      "url": "Condition/27b9be3a-d288-4a1f-af70-4d4f70eb0731"
    }
  }, {
    "fullUrl": "https://madie.cms.gov/Procedure/89abea56-7c01-43d3-b148-d354c7628690",
    "resource": {
      "resourceType": "Procedure",
      "id": "89abea56-7c01-43d3-b148-d354c7628690",
      "meta": {
        "profile": [ "http://hl7.org/fhir/us/qicore/StructureDefinition/qicore-procedure" ]
      },
      "extension": [ {
        "url": "http://hl7.org/fhir/us/qicore/StructureDefinition/qicore-recorded",
        "valueDateTime": "2026-12-31T00:00:00.000+00:00"
      } ],
      "status": "completed",
      "code": {
        "coding": [ {
          "system": "http://snomed.info/sct",
          "code": "385763009",
          "display": "Hospice care (regime/therapy)"
        } ]
      },
      "subject": {
        "reference": "Patient/ee6d52b0-149c-4ffe-b260-bb214151652c"
      },
      "performedPeriod": {
        "start": "2026-12-31T00:00:00.000+00:00",
        "end": "2026-12-31T23:59:59.000+00:00"
      }
    },
    "request": {
      "method": "PUT",
      "url": "Procedure/89abea56-7c01-43d3-b148-d354c7628690"
    }
  }, {
    "fullUrl": "https://madie.cms.gov/MeasureReport/d065776d-41a1-43fc-8e72-f5dc32741f4c",
    "resource": {
      "resourceType": "MeasureReport",
      "id": "d065776d-41a1-43fc-8e72-f5dc32741f4c",
      "meta": {
        "profile": [ "http://hl7.org/fhir/us/cqfmeasures/StructureDefinition/test-case-cqfm" ]
      },
      "contained": [ {
        "resourceType": "Parameters",
        "id": "0c4c4e6d-7e22-4ae5-8615-68e94ae238eb-parameters",
        "parameter": [ {
          "name": "subject",
          "valueString": "ee6d52b0-149c-4ffe-b260-bb214151652c"
        } ]
      } ],
      "extension": [ {
        "url": "http://hl7.org/fhir/StructureDefinition/cqf-inputParameters",
        "valueReference": {
          "reference": "#0c4c4e6d-7e22-4ae5-8615-68e94ae238eb-parameters"
        }
      }, {
        "url": "http://hl7.org/fhir/us/cqfmeasures/StructureDefinition/cqfm-testCaseDescription",
        "valueMarkdown": "Hospice procedure starts during the MP"
      } ],
      "modifierExtension": [ {
        "url": "http://hl7.org/fhir/us/cqfmeasures/StructureDefinition/cqfm-isTestCase",
        "valueBoolean": true
      } ],
      "status": "complete",
      "type": "individual",
      "measure": "https://madie.cms.gov/Measure/CMS128FHIRAntidepressantMgmt",
      "period": {
        "start": "2026-01-01",
        "end": "2026-12-31"
      },
      "group": [ {
        "id": "Group_1",
        "population": [ {
          "id": "InitialPopulation_1",
          "code": {
            "coding": [ {
              "system": "http://terminology.hl7.org/CodeSystem/measure-population",
              "code": "initial-population",
              "display": "Initial Population"
            } ]
          },
          "count": 1
        }, {
          "id": "Denominator_1",
          "code": {
            "coding": [ {
              "system": "http://terminology.hl7.org/CodeSystem/measure-population",
              "code": "denominator",
              "display": "Denominator"
            } ]
          },
          "count": 1
        }, {
          "id": "DenominatorExclusion_1",
          "code": {
            "coding": [ {
              "system": "http://terminology.hl7.org/CodeSystem/measure-population",
              "code": "denominator-exclusion",
              "display": "Denominator Exclusion"
            } ]
          },
          "count": 1
        }, {
          "id": "Numerator_1",
          "code": {
            "coding": [ {
              "system": "http://terminology.hl7.org/CodeSystem/measure-population",
              "code": "numerator",
              "display": "Numerator"
            } ]
          },
          "count": 0
        } ],
        "measureScore": {
          "value": 1.0
        }
      }, {
        "id": "Group_2",
        "population": [ {
          "id": "InitialPopulation_2",
          "code": {
            "coding": [ {
              "system": "http://terminology.hl7.org/CodeSystem/measure-population",
              "code": "initial-population",
              "display": "Initial Population"
            } ]
          },
          "count": 1
        }, {
          "id": "Denominator_2",
          "code": {
            "coding": [ {
              "system": "http://terminology.hl7.org/CodeSystem/measure-population",
              "code": "denominator",
              "display": "Denominator"
            } ]
          },
          "count": 1
        }, {
          "id": "DenominatorExclusion_2",
          "code": {
            "coding": [ {
              "system": "http://terminology.hl7.org/CodeSystem/measure-population",
              "code": "denominator-exclusion",
              "display": "Denominator Exclusion"
            } ]
          },
          "count": 1
        }, {
          "id": "Numerator_2",
          "code": {
            "coding": [ {
              "system": "http://terminology.hl7.org/CodeSystem/measure-population",
              "code": "numerator",
              "display": "Numerator"
            } ]
          },
          "count": 0
        } ],
        "measureScore": {
          "value": 1.0
        }
      } ],
      "evaluatedResource": [ {
        "reference": "Patient/ee6d52b0-149c-4ffe-b260-bb214151652c"
      }, {
        "reference": "Encounter/cbac5b45-19df-4e46-b33e-0d07bfb3ea74"
      }, {
        "reference": "MedicationDispense/cc4d27c8-d0e7-4531-ad44-54b701543f3d"
      }, {
        "reference": "MedicationDispense/7ddab29a-7b25-4cc1-ae07-aa6df9d587a9"
      }, {
        "reference": "Condition/27b9be3a-d288-4a1f-af70-4d4f70eb0731"
      }, {
        "reference": "Procedure/89abea56-7c01-43d3-b148-d354c7628690"
      } ]
    },
    "request": {
      "method": "PUT",
      "url": "MeasureReport/d065776d-41a1-43fc-8e72-f5dc32741f4c"
    }
  } ]
}