{
  "resourceType": "Bundle",
  "id": "OBSERVFail-BothMOsFailDueToFallPOA",
  "type": "transaction",
  "entry": [ {
    "fullUrl": "https://madie.cms.gov/Patient/4d82afdc-16a1-4f82-849f-10ed8bf9d9a0",
    "resource": {
      "resourceType": "Patient",
      "id": "4d82afdc-16a1-4f82-849f-10ed8bf9d9a0",
      "meta": {
        "profile": [ "http://hl7.org/fhir/us/qicore/StructureDefinition/qicore-patient" ]
      },
      "extension": [ {
        "url": "http://hl7.org/fhir/us/core/StructureDefinition/us-core-sex",
        "valueCode": "248153007"
      } ],
      "identifier": [ {
        "type": {
          "coding": [ {
            "system": "http://terminology.hl7.org/CodeSystem/v2-0203",
            "code": "MR"
          } ]
        },
        "system": "http://hospital.smarthealthit.org",
        "value": "999999999"
      } ],
      "name": [ {
        "family": "Example",
        "given": [ "Patient" ]
      } ],
      "gender": "male",
      "birthDate": "1975-01-01"
    },
    "request": {
      "method": "PUT",
      "url": "Patient/4d82afdc-16a1-4f82-849f-10ed8bf9d9a0"
    }
  }, {
    "fullUrl": "https://madie.cms.gov/Encounter/5aef411c-15fb-4ec4-a15b-f36dff3f0f40",
    "resource": {
      "resourceType": "Encounter",
      "id": "5aef411c-15fb-4ec4-a15b-f36dff3f0f40",
      "meta": {
        "profile": [ "http://hl7.org/fhir/us/qicore/StructureDefinition/qicore-encounter" ]
      },
      "status": "finished",
      "class": {
        "system": "http://terminology.hl7.org/CodeSystem/v3-ActCode",
        "code": "IMP",
        "display": "inpatient encounter"
      },
      "type": [ {
        "coding": [ {
          "system": "http://snomed.info/sct",
          "code": "4525004",
          "display": "Emergency department patient visit (procedure)"
        } ]
      } ],
      "subject": {
        "reference": "Patient/4d82afdc-16a1-4f82-849f-10ed8bf9d9a0"
      },
      "period": {
        "start": "2026-11-09T08:00:00.000Z",
        "end": "2026-11-09T10:15:00.000Z"
      },
      "location": [ {
        "location": {
          "reference": "Location/9cd3b325-7a4d-4986-9749-f0919ff18f96"
        },
        "period": {
          "start": "2026-11-09T08:00:00.000Z",
          "end": "2026-11-09T08:00:00.000Z"
        }
      } ]
    },
    "request": {
      "method": "PUT",
      "url": "Encounter/5aef411c-15fb-4ec4-a15b-f36dff3f0f40"
    }
  }, {
    "fullUrl": "https://madie.cms.gov/Encounter/4e6f3fc7-9b32-491d-85db-9b3df28fb78a",
    "resource": {
      "resourceType": "Encounter",
      "id": "4e6f3fc7-9b32-491d-85db-9b3df28fb78a",
      "meta": {
        "profile": [ "http://hl7.org/fhir/us/qicore/StructureDefinition/qicore-encounter" ]
      },
      "status": "finished",
      "class": {
        "system": "http://terminology.hl7.org/CodeSystem/v3-ActCode",
        "code": "IMP",
        "display": "inpatient encounter"
      },
      "type": [ {
        "coding": [ {
          "system": "http://snomed.info/sct",
          "code": "183452005",
          "display": "Emergency hospital admission (procedure)"
        } ]
      } ],
      "subject": {
        "reference": "Patient/4d82afdc-16a1-4f82-849f-10ed8bf9d9a0"
      },
      "period": {
        "start": "2026-11-09T11:15:00.000Z",
        "end": "2026-11-13T08:15:00.000Z"
      },
      "reasonReference": [ {
        "reference": "Condition/dec9fd2e-0795-440e-95b3-21fe24a98f6f"
      }, {
        "reference": "Condition/cad1cdb7-4455-4838-a3fb-0fedd92769fc"
      } ],
      "location": [ {
        "location": {
          "reference": "Location/9cd3b325-7a4d-4986-9749-f0919ff18f96"
        },
        "period": {
          "start": "2026-11-09T11:15:00.000Z",
          "end": "2026-11-09T11:15:00.000Z"
        }
      } ]
    },
    "request": {
      "method": "PUT",
      "url": "Encounter/4e6f3fc7-9b32-491d-85db-9b3df28fb78a"
    }
  }, {
    "fullUrl": "https://madie.cms.gov/Condition/dec9fd2e-0795-440e-95b3-21fe24a98f6f",
    "resource": {
      "resourceType": "Condition",
      "id": "dec9fd2e-0795-440e-95b3-21fe24a98f6f",
      "meta": {
        "profile": [ "http://hl7.org/fhir/us/qicore/StructureDefinition/qicore-condition-encounter-diagnosis" ]
      },
      "clinicalStatus": {
        "coding": [ {
          "system": "http://terminology.hl7.org/CodeSystem/condition-clinical",
          "code": "active",
          "display": "Active"
        } ]
      },
      "verificationStatus": {
        "coding": [ {
          "system": "http://terminology.hl7.org/CodeSystem/condition-ver-status",
          "code": "confirmed",
          "display": "Confirmed"
        } ]
      },
      "category": [ {
        "coding": [ {
          "system": "http://terminology.hl7.org/CodeSystem/condition-category",
          "code": "encounter-diagnosis",
          "display": "Encounter Diagnosis"
        } ]
      } ],
      "code": {
        "coding": [ {
          "system": "http://hl7.org/fhir/sid/icd-10-cm",
          "code": "W08.XXXA"
        } ]
      },
      "subject": {
        "reference": "Patient/4d82afdc-16a1-4f82-849f-10ed8bf9d9a0"
      },
      "encounter": {
        "reference": "Encounter/5aef411c-15fb-4ec4-a15b-f36dff3f0f40"
      }
    },
    "request": {
      "method": "PUT",
      "url": "Condition/dec9fd2e-0795-440e-95b3-21fe24a98f6f"
    }
  }, {
    "fullUrl": "https://madie.cms.gov/Condition/cad1cdb7-4455-4838-a3fb-0fedd92769fc",
    "resource": {
      "resourceType": "Condition",
      "id": "cad1cdb7-4455-4838-a3fb-0fedd92769fc",
      "meta": {
        "profile": [ "http://hl7.org/fhir/us/qicore/StructureDefinition/qicore-condition-encounter-diagnosis" ]
      },
      "clinicalStatus": {
        "coding": [ {
          "system": "http://terminology.hl7.org/CodeSystem/condition-clinical",
          "code": "active",
          "display": "Active"
        } ]
      },
      "verificationStatus": {
        "coding": [ {
          "system": "http://terminology.hl7.org/CodeSystem/condition-ver-status",
          "code": "confirmed",
          "display": "Confirmed"
        } ]
      },
      "category": [ {
        "coding": [ {
          "system": "http://terminology.hl7.org/CodeSystem/condition-category",
          "code": "encounter-diagnosis",
          "display": "Encounter Diagnosis"
        } ]
      } ],
      "code": {
        "coding": [ {
          "system": "http://snomed.info/sct",
          "code": "56307009"
        } ]
      },
      "subject": {
        "reference": "Patient/4d82afdc-16a1-4f82-849f-10ed8bf9d9a0"
      },
      "encounter": {
        "reference": "Encounter/5aef411c-15fb-4ec4-a15b-f36dff3f0f40"
      }
    },
    "request": {
      "method": "PUT",
      "url": "Condition/cad1cdb7-4455-4838-a3fb-0fedd92769fc"
    }
  }, {
    "fullUrl": "https://madie.cms.gov/Claim/6c2bf9d1-4963-4271-869f-dc9ceff95886",
    "resource": {
      "resourceType": "Claim",
      "id": "6c2bf9d1-4963-4271-869f-dc9ceff95886",
      "meta": {
        "profile": [ "http://hl7.org/fhir/us/qicore/StructureDefinition/qicore-claim" ]
      },
      "status": "active",
      "type": {
        "coding": [ {
          "system": "http://terminology.hl7.org/CodeSystem/claim-type",
          "code": "institutional",
          "display": "Institutional"
        } ]
      },
      "use": "claim",
      "patient": {
        "reference": "Patient/4d82afdc-16a1-4f82-849f-10ed8bf9d9a0"
      },
      "created": "2026-11-13",
      "provider": {
        "reference": "Practitioner/fc6fc0aa-03a9-4430-a08d-edd8b1fb7e01"
      },
      "priority": {
        "coding": [ {
          "system": "http://terminology.hl7.org/CodeSystem/processpriority",
          "code": "normal"
        } ]
      },
      "diagnosis": [ {
        "sequence": 1,
        "diagnosisReference": {
          "reference": "Condition/dec9fd2e-0795-440e-95b3-21fe24a98f6f"
        },
        "onAdmission": {
          "coding": [ {
            "system": "https://www.cms.gov/Medicare/Medicare-Fee-for-Service-Payment/HospitalAcqCond/Coding",
            "code": "Y"
          } ]
        }
      } ],
      "insurance": [ {
        "sequence": 1,
        "focal": true,
        "coverage": {
          "reference": "Coverage/056173c4-5acd-47fb-b297-f3963f2666b8"
        }
      } ],
      "item": [ {
        "sequence": 1,
        "diagnosisSequence": [ 1 ],
        "productOrService": {
          "coding": [ {
            "system": "http://terminology.hl7.org/CodeSystem/ex-USCLS",
            "code": "1101"
          } ]
        },
        "encounter": [ {
          "reference": "Encounter/4e6f3fc7-9b32-491d-85db-9b3df28fb78a"
        } ]
      } ]
    },
    "request": {
      "method": "PUT",
      "url": "Claim/6c2bf9d1-4963-4271-869f-dc9ceff95886"
    }
  }, {
    "fullUrl": "https://madie.cms.gov/Claim/86824337-c085-439f-8b3a-a758724f7d74",
    "resource": {
      "resourceType": "Claim",
      "id": "86824337-c085-439f-8b3a-a758724f7d74",
      "meta": {
        "profile": [ "http://hl7.org/fhir/us/qicore/StructureDefinition/qicore-claim" ]
      },
      "status": "active",
      "type": {
        "coding": [ {
          "system": "http://terminology.hl7.org/CodeSystem/claim-type",
          "code": "institutional",
          "display": "Institutional"
        } ]
      },
      "use": "claim",
      "patient": {
        "reference": "Patient/4d82afdc-16a1-4f82-849f-10ed8bf9d9a0"
      },
      "created": "2026-11-13",
      "provider": {
        "reference": "Practitioner/fc6fc0aa-03a9-4430-a08d-edd8b1fb7e01"
      },
      "priority": {
        "coding": [ {
          "system": "http://terminology.hl7.org/CodeSystem/processpriority",
          "code": "normal"
        } ]
      },
      "diagnosis": [ {
        "sequence": 1,
        "diagnosisReference": {
          "reference": "Condition/cad1cdb7-4455-4838-a3fb-0fedd92769fc"
        },
        "onAdmission": {
          "coding": [ {
            "system": "https://www.cms.gov/Medicare/Medicare-Fee-for-Service-Payment/HospitalAcqCond/Coding",
            "code": "N"
          } ]
        }
      } ],
      "insurance": [ {
        "sequence": 1,
        "focal": true,
        "coverage": {
          "reference": "Coverage/056173c4-5acd-47fb-b297-f3963f2666b8"
        }
      } ],
      "item": [ {
        "sequence": 1,
        "diagnosisSequence": [ 1 ],
        "productOrService": {
          "coding": [ {
            "system": "http://terminology.hl7.org/CodeSystem/ex-USCLS",
            "code": "1101"
          } ]
        },
        "encounter": [ {
          "reference": "Encounter/4e6f3fc7-9b32-491d-85db-9b3df28fb78a"
        } ]
      } ]
    },
    "request": {
      "method": "PUT",
      "url": "Claim/86824337-c085-439f-8b3a-a758724f7d74"
    }
  }, {
    "fullUrl": "https://madie.cms.gov/Practitioner/fc6fc0aa-03a9-4430-a08d-edd8b1fb7e01",
    "resource": {
      "resourceType": "Practitioner",
      "id": "fc6fc0aa-03a9-4430-a08d-edd8b1fb7e01",
      "meta": {
        "profile": [ "http://hl7.org/fhir/us/qicore/StructureDefinition/qicore-practitioner" ]
      },
      "identifier": [ {
        "system": "http://www.cms.gov/identifiers/pracitioners",
        "value": "P12345"
      } ],
      "name": [ {
        "use": "official",
        "family": "Smith",
        "given": [ "John" ]
      } ],
      "qualification": [ {
        "identifier": [ {
          "system": "http://hl7.org/fhir/sid/us-npi",
          "value": "1234567890"
        } ],
        "code": {
          "coding": [ {
            "system": "http://terminology.hl7.org/CodeSystem/v2-0203",
            "code": "MD",
            "display": "Medical License number"
          } ]
        }
      } ]
    },
    "request": {
      "method": "PUT",
      "url": "Practitioner/fc6fc0aa-03a9-4430-a08d-edd8b1fb7e01"
    }
  }, {
    "fullUrl": "https://madie.cms.gov/Organization/1dbd420b-75c4-43be-a290-f2d0922f5576",
    "resource": {
      "resourceType": "Organization",
      "id": "1dbd420b-75c4-43be-a290-f2d0922f5576",
      "meta": {
        "profile": [ "http://hl7.org/fhir/us/qicore/StructureDefinition/qicore-organization" ]
      },
      "identifier": [ {
        "system": "http://cms.gov/insurance-ids",
        "value": "AET12345"
      } ],
      "active": true,
      "type": [ {
        "coding": [ {
          "system": "http://terminology.hl7.org/CodeSystem/organization-type",
          "code": "prov",
          "display": "Healthcare Provider"
        } ]
      } ],
      "name": "Aetna Insurance",
      "telecom": [ {
        "system": "phone",
        "value": "+1-800-123-4567"
      } ],
      "address": [ {
        "line": [ "123 Main Street" ],
        "city": "Cityville",
        "state": "CA",
        "postalCode": "12345",
        "country": "USA"
      } ]
    },
    "request": {
      "method": "PUT",
      "url": "Organization/1dbd420b-75c4-43be-a290-f2d0922f5576"
    }
  }, {
    "fullUrl": "https://madie.cms.gov/Coverage/056173c4-5acd-47fb-b297-f3963f2666b8",
    "resource": {
      "resourceType": "Coverage",
      "id": "056173c4-5acd-47fb-b297-f3963f2666b8",
      "meta": {
        "profile": [ "http://hl7.org/fhir/us/qicore/StructureDefinition/qicore-coverage" ]
      },
      "identifier": [ {
        "use": "official",
        "type": {
          "coding": [ {
            "system": "http://terminology.hl7.org/CodeSystem/v2-0203",
            "code": "MB"
          } ]
        },
        "system": "http://insuranceNumber.org/",
        "value": "123456789"
      } ],
      "status": "active",
      "beneficiary": {
        "reference": "Patient/4d82afdc-16a1-4f82-849f-10ed8bf9d9a0"
      },
      "relationship": {
        "coding": [ {
          "system": "http://terminology.hl7.org/CodeSystem/subscriber-relationship",
          "code": "self",
          "display": "Self"
        } ]
      },
      "payor": [ {
        "reference": "Organization/1dbd420b-75c4-43be-a290-f2d0922f5576"
      } ]
    },
    "request": {
      "method": "PUT",
      "url": "Coverage/056173c4-5acd-47fb-b297-f3963f2666b8"
    }
  }, {
    "fullUrl": "https://madie.cms.gov/Location/9cd3b325-7a4d-4986-9749-f0919ff18f96",
    "resource": {
      "resourceType": "Location",
      "id": "9cd3b325-7a4d-4986-9749-f0919ff18f96",
      "meta": {
        "profile": [ "http://hl7.org/fhir/us/qicore/StructureDefinition/qicore-location" ]
      },
      "status": "active",
      "name": "Hospital Operating Room/Suite",
      "mode": "instance",
      "type": [ {
        "coding": [ {
          "system": "https://www.cdc.gov/nhsn/cdaportal/terminology/codesystem/hsloc.html",
          "code": "1096-7"
        } ]
      } ]
    },
    "request": {
      "method": "PUT",
      "url": "Location/9cd3b325-7a4d-4986-9749-f0919ff18f96"
    }
  }, {
    "fullUrl": "https://madie.cms.gov/MeasureReport/32c4b62e-da68-444f-9ee4-fd4c3a3c54b8",
    "resource": {
      "resourceType": "MeasureReport",
      "id": "32c4b62e-da68-444f-9ee4-fd4c3a3c54b8",
      "meta": {
        "profile": [ "http://hl7.org/fhir/us/cqfmeasures/StructureDefinition/test-case-cqfm" ]
      },
      "contained": [ {
        "resourceType": "Parameters",
        "id": "8cef6203-e212-4b35-bf51-c7a37f3f5a24-parameters",
        "parameter": [ {
          "name": "subject",
          "valueString": "4d82afdc-16a1-4f82-849f-10ed8bf9d9a0"
        } ]
      } ],
      "extension": [ {
        "url": "http://hl7.org/fhir/StructureDefinition/cqf-inputParameters",
        "valueReference": {
          "reference": "#8cef6203-e212-4b35-bf51-c7a37f3f5a24-parameters"
        }
      }, {
        "url": "http://hl7.org/fhir/us/cqfmeasures/StructureDefinition/cqfm-testCaseDescription",
        "valueMarkdown": "Encounter diagnoses include: Fall POA and Moderate injury NPOA. Fall POA meets Denominator so Measure Observations is not counted."
      } ],
      "modifierExtension": [ {
        "url": "http://hl7.org/fhir/us/cqfmeasures/StructureDefinition/cqfm-isTestCase",
        "valueBoolean": true
      } ],
      "status": "complete",
      "type": "individual",
      "measure": "https://madie.cms.gov/Measure/CMS1017FHIRHHFI",
      "period": {
        "start": "2026-01-01",
        "end": "2026-12-31"
      },
      "group": [ {
        "id": "Group_1",
        "population": [ {
          "id": "InitialPopulation_1",
          "code": {
            "coding": [ {
              "system": "http://terminology.hl7.org/CodeSystem/measure-population",
              "code": "initial-population",
              "display": "Initial Population"
            } ]
          },
          "count": 1
        }, {
          "id": "Denominator_1",
          "code": {
            "coding": [ {
              "system": "http://terminology.hl7.org/CodeSystem/measure-population",
              "code": "denominator",
              "display": "Denominator"
            } ]
          },
          "count": 1
        }, {
          "id": "DenominatorExclusion_1",
          "code": {
            "coding": [ {
              "system": "http://terminology.hl7.org/CodeSystem/measure-population",
              "code": "denominator-exclusion",
              "display": "Denominator Exclusion"
            } ]
          },
          "count": 1
        }, {
          "id": "Numerator_1",
          "code": {
            "coding": [ {
              "system": "http://terminology.hl7.org/CodeSystem/measure-population",
              "code": "numerator",
              "display": "Numerator"
            } ]
          },
          "count": 0
        }, {
          "id": "NumeratorExclusion_1",
          "code": {
            "coding": [ {
              "system": "http://terminology.hl7.org/CodeSystem/measure-population",
              "code": "numerator-exclusion",
              "display": "Numerator Exclusion"
            } ]
          },
          "count": 0
        } ],
        "measureScore": {
          "value": 0.0
        }
      } ],
      "evaluatedResource": [ {
        "reference": "Patient/4d82afdc-16a1-4f82-849f-10ed8bf9d9a0"
      }, {
        "reference": "Encounter/5aef411c-15fb-4ec4-a15b-f36dff3f0f40"
      }, {
        "reference": "Encounter/4e6f3fc7-9b32-491d-85db-9b3df28fb78a"
      }, {
        "reference": "Condition/dec9fd2e-0795-440e-95b3-21fe24a98f6f"
      }, {
        "reference": "Condition/cad1cdb7-4455-4838-a3fb-0fedd92769fc"
      }, {
        "reference": "Claim/6c2bf9d1-4963-4271-869f-dc9ceff95886"
      }, {
        "reference": "Claim/86824337-c085-439f-8b3a-a758724f7d74"
      }, {
        "reference": "Practitioner/fc6fc0aa-03a9-4430-a08d-edd8b1fb7e01"
      }, {
        "reference": "Organization/1dbd420b-75c4-43be-a290-f2d0922f5576"
      }, {
        "reference": "Coverage/056173c4-5acd-47fb-b297-f3963f2666b8"
      }, {
        "reference": "Location/9cd3b325-7a4d-4986-9749-f0919ff18f96"
      } ]
    },
    "request": {
      "method": "PUT",
      "url": "MeasureReport/32c4b62e-da68-444f-9ee4-fd4c3a3c54b8"
    }
  } ]
}