{
  "resourceType": "Bundle",
  "id": "61168b8798086b77ef9c5ec7",
  "type": "collection",
  "entry": [ {
    "fullUrl": "https://madie.cms.gov/Patient/15b275f0-8540-4c32-8ab6-29e535dcea64",
    "resource": {
      "resourceType": "Patient",
      "id": "15b275f0-8540-4c32-8ab6-29e535dcea64",
      "meta": {
        "profile": [ "http://hl7.org/fhir/us/qicore/StructureDefinition/qicore-patient" ]
      },
      "extension": [ {
        "url": "http://hl7.org/fhir/us/core/StructureDefinition/us-core-race",
        "extension": [ {
          "url": "ombCategory",
          "valueCoding": {
            "system": "urn:oid:2.16.840.1.113883.6.238",
            "code": "2106-3",
            "display": "White"
          }
        }, {
          "url": "text",
          "valueString": "White"
        } ]
      }, {
        "url": "http://hl7.org/fhir/us/core/StructureDefinition/us-core-ethnicity",
        "extension": [ {
          "url": "ombCategory",
          "valueCoding": {
            "system": "urn:oid:2.16.840.1.113883.6.238",
            "code": "2186-5",
            "display": "Not Hispanic or Latino",
            "userSelected": true
          }
        }, {
          "url": "text",
          "valueString": "Not Hispanic or Latino"
        } ]
      } ],
      "identifier": [ {
        "type": {
          "coding": [ {
            "system": "http://terminology.hl7.org/CodeSystem/v2-0203",
            "code": "MR"
          } ]
        },
        "system": "https://smarthealth.healthit.gov/",
        "value": "61168b8798086b77ef9c5ec7"
      } ],
      "active": true,
      "name": [ {
        "use": "usual",
        "family": "NUMERFail",
        "given": [ "NumerFailCommDone1HrB4EncEdge" ]
      } ],
      "gender": "female",
      "birthDate": "1923-03-24"
    }
  }, {
    "fullUrl": "https://madie.cms.gov/Communication/3ca375bc-5611-45d6-9ff9-4874e3966e75",
    "resource": {
      "resourceType": "Communication",
      "id": "3ca375bc-5611-45d6-9ff9-4874e3966e75",
      "meta": {
        "profile": [ "http://hl7.org/fhir/us/qicore/StructureDefinition/qicore-communication" ]
      },
      "extension": [ {
        "url": "http://hl7.org/fhir/us/qicore/StructureDefinition/qicore-recorded",
        "valueDateTime": "2014-02-12T08:00:00.000+00:00"
      } ],
      "status": "completed",
      "subject": {
        "reference": "Patient/15b275f0-8540-4c32-8ab6-29e535dcea64"
      },
      "topic": {
        "coding": [ {
          "system": "http://terminology.hl7.org/CodeSystem/communication-topic",
          "code": "progress-update",
          "display": "Progress Update"
        } ]
      },
      "encounter": {
        "reference": "Encounter/4c3acfd2-3651-400c-8827-16cd79ae2aa8"
      },
      "reasonCode": [ {
        "coding": [ {
          "system": "http://snomed.info/sct",
          "version": "http://snomed.info/sct/731000124108/version/202303",
          "code": "428341000124108"
        } ]
      } ]
    }
  }, {
    "fullUrl": "https://madie.cms.gov/Condition/39d99f2f-d7a9-468e-8cfa-4d8ec68da6e2",
    "resource": {
      "resourceType": "Condition",
      "id": "39d99f2f-d7a9-468e-8cfa-4d8ec68da6e2",
      "meta": {
        "profile": [ "http://hl7.org/fhir/us/qicore/StructureDefinition/qicore-condition-problems-health-concerns" ]
      },
      "clinicalStatus": {
        "coding": [ {
          "system": "http://terminology.hl7.org/CodeSystem/condition-clinical",
          "code": "active",
          "display": "active",
          "userSelected": true
        } ]
      },
      "category": [ {
        "coding": [ {
          "system": "http://terminology.hl7.org/CodeSystem/condition-category",
          "code": "problem-list-item",
          "display": "Problem List Item"
        } ]
      }, {
        "coding": [ {
          "system": "http://terminology.hl7.org/CodeSystem/condition-clinical",
          "code": "active",
          "display": "active",
          "userSelected": true
        } ]
      } ],
      "code": {
        "coding": [ {
          "system": "http://snomed.info/sct",
          "version": "http://snomed.info/sct/731000124108/version/20250301",
          "code": "314014002"
        } ]
      },
      "subject": {
        "reference": "Patient/15b275f0-8540-4c32-8ab6-29e535dcea64"
      },
      "onsetDateTime": "2026-12-16T13:30:00.000+00:00"
    }
  }, {
    "fullUrl": "https://madie.cms.gov/Observation/65592df9-af6b-4fe1-93ea-d3a6fcda4351",
    "resource": {
      "resourceType": "Observation",
      "id": "65592df9-af6b-4fe1-93ea-d3a6fcda4351",
      "meta": {
        "profile": [ "http://hl7.org/fhir/us/qicore/StructureDefinition/qicore-observation-clinical-result" ]
      },
      "status": "final",
      "category": [ {
        "coding": [ {
          "system": "http://snomed.info/sct",
          "version": "http://snomed.info/sct/731000124108/version/202303",
          "code": "113024001",
          "display": "Assessment and interpretation of higher cerebral function, cognitive testing (procedure)",
          "userSelected": true
        } ]
      }, {
        "coding": [ {
          "system": "http://terminology.hl7.org/CodeSystem/observation-category",
          "code": "survey"
        } ]
      } ],
      "code": {
        "coding": [ {
          "system": "http://loinc.org",
          "version": "2.73",
          "code": "32451-7"
        } ]
      },
      "subject": {
        "reference": "Patient/15b275f0-8540-4c32-8ab6-29e535dcea64"
      },
      "effectiveDateTime": "2026-12-16T14:33:00.000+00:00",
      "valueBoolean": true
    }
  }, {
    "fullUrl": "https://madie.cms.gov/Encounter/4c3acfd2-3651-400c-8827-16cd79ae2aa8",
    "resource": {
      "resourceType": "Encounter",
      "id": "4c3acfd2-3651-400c-8827-16cd79ae2aa8",
      "meta": {
        "profile": [ "http://hl7.org/fhir/us/qicore/StructureDefinition/qicore-encounter" ]
      },
      "status": "finished",
      "class": {
        "system": "http://terminology.hl7.org/CodeSystem/v3-ActCode",
        "code": "AMB"
      },
      "type": [ {
        "coding": [ {
          "system": "http://www.ama-assn.org/go/cpt",
          "version": "2023",
          "code": "99306"
        } ]
      } ],
      "subject": {
        "reference": "Patient/15b275f0-8540-4c32-8ab6-29e535dcea64"
      },
      "period": {
        "start": "2026-12-16T14:30:00.000+00:00",
        "end": "2026-12-16T15:30:00.000+00:00"
      },
      "length": {
        "value": 0.0,
        "unit": "days"
      }
    }
  }, {
    "fullUrl": "https://madie.cms.gov/Coverage/c0f6c657-c526-4ea6-9d24-319fed3af733",
    "resource": {
      "resourceType": "Coverage",
      "id": "c0f6c657-c526-4ea6-9d24-319fed3af733",
      "meta": {
        "profile": [ "http://hl7.org/fhir/us/qicore/StructureDefinition/qicore-coverage" ]
      },
      "status": "active",
      "subscriberId": "123456",
      "beneficiary": {
        "reference": "Patient/15b275f0-8540-4c32-8ab6-29e535dcea64"
      },
      "relationship": {
        "coding": [ {
          "system": "http://terminology.hl7.org/CodeSystem/subscriber-relationship",
          "code": "self",
          "display": "Self"
        } ]
      },
      "payor": [ {
        "reference": "Organization/490ef05a-ca1f-41a7-ae8f-8d09b4f29bac"
      } ]
    }
  }, {
    "fullUrl": "https://madie.cms.gov/Organization/490ef05a-ca1f-41a7-ae8f-8d09b4f29bac",
    "resource": {
      "resourceType": "Organization",
      "id": "490ef05a-ca1f-41a7-ae8f-8d09b4f29bac",
      "meta": {
        "profile": [ "http://hl7.org/fhir/us/qicore/StructureDefinition/qicore-organization" ]
      },
      "identifier": [ {
        "use": "temp",
        "system": "urn:oid:2.16.840.1.113883.4.4",
        "value": "21-3259825"
      } ],
      "active": true,
      "type": [ {
        "coding": [ {
          "system": "http://terminology.hl7.org/CodeSystem/organization-type",
          "code": "pay",
          "display": "Payer"
        } ]
      } ],
      "name": "Blue Cross Blue Shield of Texas",
      "telecom": [ {
        "system": "phone",
        "value": "(+1) 972-777-6900"
      } ],
      "address": [ {
        "use": "billing",
        "type": "postal",
        "line": [ "P.O. Box 660044" ],
        "city": "Dallas",
        "state": "TX",
        "postalCode": "75266-0044",
        "country": "USA"
      } ]
    }
  }, {
    "fullUrl": "https://madie.cms.gov/MeasureReport/c75930e7-7ce4-4a47-9739-e26ec28bc540",
    "resource": {
      "resourceType": "MeasureReport",
      "id": "c75930e7-7ce4-4a47-9739-e26ec28bc540",
      "meta": {
        "profile": [ "http://hl7.org/fhir/us/cqfmeasures/StructureDefinition/test-case-cqfm" ]
      },
      "contained": [ {
        "resourceType": "Parameters",
        "id": "c4c22240-5109-4112-9f91-b31db7ceb7f1-parameters",
        "parameter": [ {
          "name": "subject",
          "valueString": "15b275f0-8540-4c32-8ab6-29e535dcea64"
        } ]
      } ],
      "extension": [ {
        "url": "http://hl7.org/fhir/StructureDefinition/cqf-inputParameters",
        "valueReference": {
          "reference": "#c4c22240-5109-4112-9f91-b31db7ceb7f1-parameters"
        }
      }, {
        "url": "http://hl7.org/fhir/us/cqfmeasures/StructureDefinition/cqfm-testCaseDescription",
        "valueMarkdown": "Patient with communications done 1hr before start of encounter."
      } ],
      "modifierExtension": [ {
        "url": "http://hl7.org/fhir/us/cqfmeasures/StructureDefinition/cqfm-isTestCase",
        "valueBoolean": true
      } ],
      "status": "complete",
      "type": "individual",
      "measure": "https://madie.cms.gov/Measure/CMS142FHIRCommWithDrManagingDiab",
      "period": {
        "start": "2026-01-01",
        "end": "2026-12-31"
      },
      "group": [ {
        "id": "Group_1",
        "population": [ {
          "id": "InitialPopulation_1",
          "code": {
            "coding": [ {
              "system": "http://terminology.hl7.org/CodeSystem/measure-population",
              "code": "initial-population",
              "display": "Initial Population"
            } ]
          },
          "count": 1
        }, {
          "id": "Denominator_1",
          "code": {
            "coding": [ {
              "system": "http://terminology.hl7.org/CodeSystem/measure-population",
              "code": "denominator",
              "display": "Denominator"
            } ]
          },
          "count": 1
        }, {
          "id": "Numerator_1",
          "code": {
            "coding": [ {
              "system": "http://terminology.hl7.org/CodeSystem/measure-population",
              "code": "numerator",
              "display": "Numerator"
            } ]
          },
          "count": 0
        }, {
          "id": "DenominatorException_1",
          "code": {
            "coding": [ {
              "system": "http://terminology.hl7.org/CodeSystem/measure-population",
              "code": "denominator-exception",
              "display": "Denominator Exception"
            } ]
          },
          "count": 0
        } ],
        "measureScore": {
          "value": 1.0
        }
      } ],
      "evaluatedResource": [ {
        "reference": "Patient/15b275f0-8540-4c32-8ab6-29e535dcea64"
      }, {
        "reference": "Communication/3ca375bc-5611-45d6-9ff9-4874e3966e75"
      }, {
        "reference": "Condition/39d99f2f-d7a9-468e-8cfa-4d8ec68da6e2"
      }, {
        "reference": "Observation/65592df9-af6b-4fe1-93ea-d3a6fcda4351"
      }, {
        "reference": "Encounter/4c3acfd2-3651-400c-8827-16cd79ae2aa8"
      }, {
        "reference": "Coverage/c0f6c657-c526-4ea6-9d24-319fed3af733"
      }, {
        "reference": "Organization/490ef05a-ca1f-41a7-ae8f-8d09b4f29bac"
      } ]
    }
  } ]
}