{
  "resourceType": "Bundle",
  "id": "627a80a15a0d870123c7253c",
  "type": "transaction",
  "entry": [ {
    "fullUrl": "https://madie.cms.gov/Patient/6127705f-6f70-4134-9c87-1129389bea42",
    "resource": {
      "resourceType": "Patient",
      "id": "6127705f-6f70-4134-9c87-1129389bea42",
      "meta": {
        "profile": [ "http://hl7.org/fhir/us/qicore/StructureDefinition/qicore-patient" ]
      },
      "extension": [ {
        "url": "http://hl7.org/fhir/us/core/StructureDefinition/us-core-race",
        "extension": [ {
          "url": "ombCategory",
          "valueCoding": {
            "system": "urn:oid:2.16.840.1.113883.6.238",
            "code": "1002-5",
            "display": "American Indian or Alaska Native",
            "userSelected": true
          }
        }, {
          "url": "text",
          "valueString": "American Indian or Alaska Native"
        } ]
      }, {
        "url": "http://hl7.org/fhir/us/core/StructureDefinition/us-core-ethnicity",
        "extension": [ {
          "url": "ombCategory",
          "valueCoding": {
            "system": "urn:oid:2.16.840.1.113883.6.238",
            "code": "2135-2",
            "display": "Hispanic or Latino",
            "userSelected": true
          }
        }, {
          "url": "text",
          "valueString": "Hispanic or Latino"
        }, {
          "url": "detailed",
          "valueCoding": {
            "system": "urn:oid:2.16.840.1.113883.6.238",
            "code": "2182-4",
            "display": "Cuban"
          }
        } ]
      } ],
      "identifier": [ {
        "type": {
          "coding": [ {
            "system": "http://terminology.hl7.org/CodeSystem/v2-0203",
            "code": "MR"
          } ]
        },
        "system": "https://bonnie-fhir.healthit.gov/",
        "value": "627a80a15a0d870123c7253c"
      } ],
      "active": true,
      "name": [ {
        "use": "usual",
        "family": "DENOMPass",
        "given": [ "Age17InEDAge18DayOfIPAdmit" ]
      } ],
      "gender": "male",
      "birthDate": "2008-04-07"
    },
    "request": {
      "method": "PUT",
      "url": "Patient/6127705f-6f70-4134-9c87-1129389bea42"
    }
  }, {
    "fullUrl": "https://madie.cms.gov/Encounter/63aabd7b-1204-4f34-8059-dca186b3b675",
    "resource": {
      "resourceType": "Encounter",
      "id": "63aabd7b-1204-4f34-8059-dca186b3b675",
      "meta": {
        "profile": [ "http://hl7.org/fhir/us/qicore/StructureDefinition/qicore-encounter" ]
      },
      "status": "finished",
      "class": {
        "system": "http://terminology.hl7.org/CodeSystem/v3-ActCode",
        "code": "EMER",
        "display": "emergency"
      },
      "type": [ {
        "coding": [ {
          "system": "http://snomed.info/sct",
          "code": "4525004"
        } ]
      } ],
      "subject": {
        "reference": "Patient/6127705f-6f70-4134-9c87-1129389bea42"
      },
      "period": {
        "start": "2026-04-06T08:00:00.000+00:00",
        "end": "2026-04-07T08:15:00.000+00:00"
      }
    },
    "request": {
      "method": "PUT",
      "url": "Encounter/63aabd7b-1204-4f34-8059-dca186b3b675"
    }
  }, {
    "fullUrl": "https://madie.cms.gov/Encounter/da8790ac-1398-4638-929e-b766c593ea2b",
    "resource": {
      "resourceType": "Encounter",
      "id": "da8790ac-1398-4638-929e-b766c593ea2b",
      "meta": {
        "profile": [ "http://hl7.org/fhir/us/qicore/StructureDefinition/qicore-encounter" ]
      },
      "status": "finished",
      "class": {
        "system": "http://terminology.hl7.org/CodeSystem/v3-ActCode",
        "code": "IMP",
        "display": "inpatient encounter"
      },
      "type": [ {
        "coding": [ {
          "system": "http://snomed.info/sct",
          "code": "183452005"
        } ]
      } ],
      "subject": {
        "reference": "Patient/6127705f-6f70-4134-9c87-1129389bea42"
      },
      "period": {
        "start": "2026-04-07T09:00:00.000+00:00",
        "end": "2026-04-10T08:15:00.000+00:00"
      }
    },
    "request": {
      "method": "PUT",
      "url": "Encounter/da8790ac-1398-4638-929e-b766c593ea2b"
    }
  }, {
    "fullUrl": "https://madie.cms.gov/MedicationAdministration/dfd2011a-d1c8-4916-9c51-80e08ff8ab13",
    "resource": {
      "resourceType": "MedicationAdministration",
      "id": "dfd2011a-d1c8-4916-9c51-80e08ff8ab13",
      "meta": {
        "profile": [ "http://hl7.org/fhir/us/qicore/StructureDefinition/qicore-medicationadministration" ]
      },
      "status": "completed",
      "medicationCodeableConcept": {
        "coding": [ {
          "system": "http://www.nlm.nih.gov/research/umls/rxnorm",
          "code": "1010600"
        } ]
      },
      "subject": {
        "reference": "Patient/6127705f-6f70-4134-9c87-1129389bea42"
      },
      "effectivePeriod": {
        "start": "2026-04-07T08:00:00.000+00:00",
        "end": "2026-04-07T08:15:00.000+00:00"
      }
    },
    "request": {
      "method": "PUT",
      "url": "MedicationAdministration/dfd2011a-d1c8-4916-9c51-80e08ff8ab13"
    }
  }, {
    "fullUrl": "https://madie.cms.gov/MeasureReport/4ed8e91e-8ab5-4a8d-9aa9-227db0dc6f91",
    "resource": {
      "resourceType": "MeasureReport",
      "id": "4ed8e91e-8ab5-4a8d-9aa9-227db0dc6f91",
      "meta": {
        "profile": [ "http://hl7.org/fhir/us/cqfmeasures/StructureDefinition/test-case-cqfm" ]
      },
      "contained": [ {
        "resourceType": "Parameters",
        "id": "a5eb39af-dbcd-446f-98f8-165e290b09b1-parameters",
        "parameter": [ {
          "name": "subject",
          "valueString": "6127705f-6f70-4134-9c87-1129389bea42"
        } ]
      } ],
      "extension": [ {
        "url": "http://hl7.org/fhir/StructureDefinition/cqf-inputParameters",
        "valueReference": {
          "reference": "#a5eb39af-dbcd-446f-98f8-165e290b09b1-parameters"
        }
      }, {
        "url": "http://hl7.org/fhir/us/cqfmeasures/StructureDefinition/cqfm-testCaseDescription",
        "valueMarkdown": "Inpatient encounter where patient was 17 while in ED, turns 18 on day of IP admit. Meets denominator criteria of 18 when IP. "
      } ],
      "modifierExtension": [ {
        "url": "http://hl7.org/fhir/us/cqfmeasures/StructureDefinition/cqfm-isTestCase",
        "valueBoolean": true
      } ],
      "status": "complete",
      "type": "individual",
      "measure": "https://madie.cms.gov/Measure/CMS819FHIRHHORAE",
      "period": {
        "start": "2026-01-01",
        "end": "2026-12-31"
      },
      "group": [ {
        "id": "Group_1",
        "population": [ {
          "id": "InitialPopulation_1",
          "code": {
            "coding": [ {
              "system": "http://terminology.hl7.org/CodeSystem/measure-population",
              "code": "initial-population",
              "display": "Initial Population"
            } ]
          },
          "count": 1
        }, {
          "id": "Denominator_1",
          "code": {
            "coding": [ {
              "system": "http://terminology.hl7.org/CodeSystem/measure-population",
              "code": "denominator",
              "display": "Denominator"
            } ]
          },
          "count": 1
        }, {
          "id": "Numerator_1",
          "code": {
            "coding": [ {
              "system": "http://terminology.hl7.org/CodeSystem/measure-population",
              "code": "numerator",
              "display": "Numerator"
            } ]
          },
          "count": 0
        } ],
        "measureScore": {
          "value": 0.0
        }
      } ],
      "evaluatedResource": [ {
        "reference": "Patient/6127705f-6f70-4134-9c87-1129389bea42"
      }, {
        "reference": "Encounter/63aabd7b-1204-4f34-8059-dca186b3b675"
      }, {
        "reference": "Encounter/da8790ac-1398-4638-929e-b766c593ea2b"
      }, {
        "reference": "MedicationAdministration/dfd2011a-d1c8-4916-9c51-80e08ff8ab13"
      } ]
    },
    "request": {
      "method": "PUT",
      "url": "MeasureReport/4ed8e91e-8ab5-4a8d-9aa9-227db0dc6f91"
    }
  } ]
}