{
  "resourceType": "Bundle",
  "id": "633b3fa00968f80122503d15",
  "type": "transaction",
  "entry": [ {
    "fullUrl": "https://madie.cms.gov/Patient/f6d7f2da-f584-4f84-a6c6-f25f82bb9b3a",
    "resource": {
      "resourceType": "Patient",
      "id": "f6d7f2da-f584-4f84-a6c6-f25f82bb9b3a",
      "meta": {
        "profile": [ "http://hl7.org/fhir/us/qicore/StructureDefinition/qicore-patient" ]
      },
      "text": {
        "status": "generated",
        "div": "<div xmlns=\"http://www.w3.org/1999/xhtml\"><div class=\"hapiHeaderText\">DelProcRelDtTmEQOBSStart<b>IPPASS</b></div><table class=\"hapiPropertyTable\"><tbody><tr><td>Date of birth</td><td><span>31 January 2004</span></td></tr></tbody></table></div>"
      },
      "extension": [ {
        "url": "http://hl7.org/fhir/us/core/StructureDefinition/us-core-race",
        "extension": [ {
          "url": "ombCategory",
          "valueCoding": {
            "system": "urn:oid:2.16.840.1.113883.6.238",
            "code": "1002-5",
            "display": "American Indian or Alaska Native",
            "userSelected": true
          }
        }, {
          "url": "text",
          "valueString": "American Indian or Alaska Native"
        } ]
      }, {
        "url": "http://hl7.org/fhir/us/core/StructureDefinition/us-core-ethnicity",
        "extension": [ {
          "url": "ombCategory",
          "valueCoding": {
            "system": "urn:oid:2.16.840.1.113883.6.238",
            "code": "2135-2",
            "display": "Hispanic or Latino",
            "userSelected": true
          }
        }, {
          "url": "text",
          "valueString": "Hispanic or Latino"
        } ]
      } ],
      "identifier": [ {
        "type": {
          "coding": [ {
            "system": "http://terminology.hl7.org/CodeSystem/v2-0203",
            "code": "MR"
          } ]
        },
        "system": "https://bonnie-fhir.healthit.gov/",
        "value": "633b3fa00968f80122503d15"
      } ],
      "active": true,
      "name": [ {
        "use": "usual",
        "family": "IPPass",
        "given": [ "DelProcRelDtTmEQOBSStart" ]
      } ],
      "gender": "female",
      "birthDate": "2005-01-31"
    },
    "request": {
      "method": "PUT",
      "url": "Patient/f6d7f2da-f584-4f84-a6c6-f25f82bb9b3a"
    }
  }, {
    "fullUrl": "https://madie.cms.gov/Encounter/6ae1f662-4d02-4892-bf0c-3a6bcdbaed8c",
    "resource": {
      "resourceType": "Encounter",
      "id": "6ae1f662-4d02-4892-bf0c-3a6bcdbaed8c",
      "meta": {
        "profile": [ "http://hl7.org/fhir/us/qicore/StructureDefinition/qicore-encounter" ]
      },
      "status": "finished",
      "class": {
        "system": "http://terminology.hl7.org/CodeSystem/v3-ActCode",
        "code": "IMP",
        "display": "inpatient encounter"
      },
      "type": [ {
        "coding": [ {
          "system": "http://snomed.info/sct",
          "code": "183452005"
        } ]
      } ],
      "subject": {
        "reference": "Patient/f6d7f2da-f584-4f84-a6c6-f25f82bb9b3a"
      },
      "period": {
        "start": "2026-02-01T09:00:00.000+00:00",
        "end": "2026-02-05T08:15:00.000+00:00"
      }
    },
    "request": {
      "method": "PUT",
      "url": "Encounter/6ae1f662-4d02-4892-bf0c-3a6bcdbaed8c"
    }
  }, {
    "fullUrl": "https://madie.cms.gov/Encounter/76286d38-69f7-4eb9-b9a4-146fc994958b",
    "resource": {
      "resourceType": "Encounter",
      "id": "76286d38-69f7-4eb9-b9a4-146fc994958b",
      "meta": {
        "profile": [ "http://hl7.org/fhir/us/qicore/StructureDefinition/qicore-encounter" ]
      },
      "status": "finished",
      "class": {
        "system": "http://terminology.hl7.org/CodeSystem/v3-ActCode",
        "code": "IMP",
        "display": "inpatient encounter"
      },
      "type": [ {
        "coding": [ {
          "system": "http://snomed.info/sct",
          "code": "448951000124107"
        } ]
      } ],
      "subject": {
        "reference": "Patient/f6d7f2da-f584-4f84-a6c6-f25f82bb9b3a"
      },
      "period": {
        "start": "2026-02-01T08:00:00.000+00:00",
        "end": "2026-02-01T08:59:00.000+00:00"
      }
    },
    "request": {
      "method": "PUT",
      "url": "Encounter/76286d38-69f7-4eb9-b9a4-146fc994958b"
    }
  }, {
    "fullUrl": "https://madie.cms.gov/Encounter/9d026334-8291-453d-8b5b-975ebc727cd9",
    "resource": {
      "resourceType": "Encounter",
      "id": "9d026334-8291-453d-8b5b-975ebc727cd9",
      "meta": {
        "profile": [ "http://hl7.org/fhir/us/qicore/StructureDefinition/qicore-encounter" ]
      },
      "status": "finished",
      "class": {
        "system": "http://terminology.hl7.org/CodeSystem/v3-ActCode",
        "code": "IMP",
        "display": "inpatient encounter"
      },
      "type": [ {
        "coding": [ {
          "system": "http://snomed.info/sct",
          "code": "4525004"
        } ]
      } ],
      "subject": {
        "reference": "Patient/f6d7f2da-f584-4f84-a6c6-f25f82bb9b3a"
      },
      "period": {
        "start": "2026-02-01T07:00:00.000+00:00",
        "end": "2026-02-01T07:59:00.000+00:00"
      }
    },
    "request": {
      "method": "PUT",
      "url": "Encounter/9d026334-8291-453d-8b5b-975ebc727cd9"
    }
  }, {
    "fullUrl": "https://madie.cms.gov/Coverage/09055869-89d2-4138-8a51-302b216633e8",
    "resource": {
      "resourceType": "Coverage",
      "id": "09055869-89d2-4138-8a51-302b216633e8",
      "status": "active",
      "beneficiary": {
        "reference": "Patient/f6d7f2da-f584-4f84-a6c6-f25f82bb9b3a"
      },
      "period": {
        "start": "2005-01-31T01:00:00.000+00:00"
      },
      "payor": [ {
        "reference": "Organization/257f691e-5660-4ae1-93f2-eb2c96717074"
      } ]
    },
    "request": {
      "method": "PUT",
      "url": "Coverage/09055869-89d2-4138-8a51-302b216633e8"
    }
  }, {
    "fullUrl": "https://madie.cms.gov/Procedure/cee5c114-5ff2-42b4-be51-ee97c17c29af",
    "resource": {
      "resourceType": "Procedure",
      "id": "cee5c114-5ff2-42b4-be51-ee97c17c29af",
      "meta": {
        "profile": [ "http://hl7.org/fhir/us/qicore/StructureDefinition/qicore-procedure" ]
      },
      "extension": [ {
        "url": "http://hl7.org/fhir/us/qicore/StructureDefinition/qicore-recorded",
        "valueDateTime": "2014-04-05T13:35:00.000+00:00"
      } ],
      "status": "completed",
      "code": {
        "coding": [ {
          "system": "http://snomed.info/sct",
          "code": "10745001"
        } ]
      },
      "subject": {
        "reference": "Patient/f6d7f2da-f584-4f84-a6c6-f25f82bb9b3a"
      },
      "performedDateTime": "2026-02-01T08:00:00.000+00:00"
    },
    "request": {
      "method": "PUT",
      "url": "Procedure/cee5c114-5ff2-42b4-be51-ee97c17c29af"
    }
  }, {
    "fullUrl": "https://madie.cms.gov/Organization/257f691e-5660-4ae1-93f2-eb2c96717074",
    "resource": {
      "resourceType": "Organization",
      "id": "257f691e-5660-4ae1-93f2-eb2c96717074",
      "meta": {
        "profile": [ "http://hl7.org/fhir/us/qicore/StructureDefinition/qicore-organization" ]
      },
      "identifier": [ {
        "use": "temp",
        "system": "urn:oid:2.16.840.1.113883.4.4",
        "value": "21-3259825"
      } ],
      "active": true,
      "type": [ {
        "coding": [ {
          "system": "http://terminology.hl7.org/CodeSystem/organization-type",
          "code": "pay",
          "display": "Payer"
        } ]
      } ],
      "name": "Blue Cross Blue Shield of Texas",
      "telecom": [ {
        "system": "phone",
        "value": "(+1) 972-766-6900"
      } ],
      "address": [ {
        "use": "billing",
        "type": "postal",
        "line": [ "P.O. Box 660044" ],
        "city": "Dallas",
        "state": "TX",
        "postalCode": "75266-0044",
        "country": "USA"
      } ]
    },
    "request": {
      "method": "PUT",
      "url": "Organization/257f691e-5660-4ae1-93f2-eb2c96717074"
    }
  }, {
    "fullUrl": "https://madie.cms.gov/Practitioner/92f09f77-4141-4849-8f2d-49413a5d9459",
    "resource": {
      "resourceType": "Practitioner",
      "id": "92f09f77-4141-4849-8f2d-49413a5d9459",
      "identifier": [ {
        "system": "http://hl7.org/fhir/sid/us-npi",
        "value": "123456"
      } ],
      "name": [ {
        "family": "Evil",
        "prefix": [ "Dr" ]
      } ]
    },
    "request": {
      "method": "PUT",
      "url": "Practitioner/92f09f77-4141-4849-8f2d-49413a5d9459"
    }
  }, {
    "fullUrl": "https://madie.cms.gov/MeasureReport/2bd48174-ef21-4e0a-882e-6d420c940b8a",
    "resource": {
      "resourceType": "MeasureReport",
      "id": "2bd48174-ef21-4e0a-882e-6d420c940b8a",
      "meta": {
        "profile": [ "http://hl7.org/fhir/us/cqfmeasures/StructureDefinition/test-case-cqfm" ]
      },
      "contained": [ {
        "resourceType": "Parameters",
        "id": "6cf82931-324e-4d23-87c7-7bd0ed227d65-parameters",
        "parameter": [ {
          "name": "subject",
          "valueString": "f6d7f2da-f584-4f84-a6c6-f25f82bb9b3a"
        } ]
      } ],
      "extension": [ {
        "url": "http://hl7.org/fhir/StructureDefinition/cqf-inputParameters",
        "valueReference": {
          "reference": "#6cf82931-324e-4d23-87c7-7bd0ed227d65-parameters"
        }
      }, {
        "url": "http://hl7.org/fhir/us/cqfmeasures/StructureDefinition/cqfm-testCaseDescription",
        "valueMarkdown": "Delivery Procedure rel date/time = OBS start.  ED/OBS/IP all meet global hospitalization criteria.\n"
      } ],
      "modifierExtension": [ {
        "url": "http://hl7.org/fhir/us/cqfmeasures/StructureDefinition/cqfm-isTestCase",
        "valueBoolean": true
      } ],
      "status": "complete",
      "type": "individual",
      "measure": "https://madie.cms.gov/Measure/CMS1028FHIRPCSevereOBComps",
      "period": {
        "start": "2026-01-01",
        "end": "2026-12-31"
      },
      "group": [ {
        "id": "Group_1",
        "population": [ {
          "id": "InitialPopulation_1",
          "code": {
            "coding": [ {
              "system": "http://terminology.hl7.org/CodeSystem/measure-population",
              "code": "initial-population",
              "display": "Initial Population"
            } ]
          },
          "count": 1
        }, {
          "id": "Denominator_1",
          "code": {
            "coding": [ {
              "system": "http://terminology.hl7.org/CodeSystem/measure-population",
              "code": "denominator",
              "display": "Denominator"
            } ]
          },
          "count": 0
        }, {
          "id": "Numerator_1",
          "code": {
            "coding": [ {
              "system": "http://terminology.hl7.org/CodeSystem/measure-population",
              "code": "numerator",
              "display": "Numerator"
            } ]
          },
          "count": 0
        }, {
          "id": "NumeratorExclusion_1",
          "code": {
            "coding": [ {
              "system": "http://terminology.hl7.org/CodeSystem/measure-population",
              "code": "numerator-exclusion",
              "display": "Numerator Exclusion"
            } ]
          },
          "count": 0
        } ],
        "measureScore": {
          "value": 0.0
        }
      }, {
        "id": "Group_2",
        "population": [ {
          "id": "InitialPopulation_2",
          "code": {
            "coding": [ {
              "system": "http://terminology.hl7.org/CodeSystem/measure-population",
              "code": "initial-population",
              "display": "Initial Population"
            } ]
          },
          "count": 1
        }, {
          "id": "Denominator_2",
          "code": {
            "coding": [ {
              "system": "http://terminology.hl7.org/CodeSystem/measure-population",
              "code": "denominator",
              "display": "Denominator"
            } ]
          },
          "count": 0
        }, {
          "id": "Numerator_2",
          "code": {
            "coding": [ {
              "system": "http://terminology.hl7.org/CodeSystem/measure-population",
              "code": "numerator",
              "display": "Numerator"
            } ]
          },
          "count": 0
        }, {
          "id": "NumeratorExclusion_2",
          "code": {
            "coding": [ {
              "system": "http://terminology.hl7.org/CodeSystem/measure-population",
              "code": "numerator-exclusion",
              "display": "Numerator Exclusion"
            } ]
          },
          "count": 0
        } ],
        "measureScore": {
          "value": 0.0
        }
      } ],
      "evaluatedResource": [ {
        "reference": "Patient/f6d7f2da-f584-4f84-a6c6-f25f82bb9b3a"
      }, {
        "reference": "Encounter/6ae1f662-4d02-4892-bf0c-3a6bcdbaed8c"
      }, {
        "reference": "Encounter/76286d38-69f7-4eb9-b9a4-146fc994958b"
      }, {
        "reference": "Encounter/9d026334-8291-453d-8b5b-975ebc727cd9"
      }, {
        "reference": "Coverage/09055869-89d2-4138-8a51-302b216633e8"
      }, {
        "reference": "Procedure/cee5c114-5ff2-42b4-be51-ee97c17c29af"
      }, {
        "reference": "Organization/257f691e-5660-4ae1-93f2-eb2c96717074"
      }, {
        "reference": "Practitioner/92f09f77-4141-4849-8f2d-49413a5d9459"
      } ]
    },
    "request": {
      "method": "PUT",
      "url": "MeasureReport/2bd48174-ef21-4e0a-882e-6d420c940b8a"
    }
  } ]
}