{
  "resourceType": "Bundle",
  "id": "NUMERPass-MajorInjuryPOAandModInjNPOA",
  "type": "transaction",
  "entry": [ {
    "fullUrl": "https://madie.cms.gov/Claim/8bc4a168-8c4c-44c4-b35a-5224ea906356",
    "resource": {
      "resourceType": "Claim",
      "id": "8bc4a168-8c4c-44c4-b35a-5224ea906356",
      "meta": {
        "profile": [ "http://hl7.org/fhir/us/qicore/StructureDefinition/qicore-claim" ]
      },
      "status": "active",
      "type": {
        "coding": [ {
          "system": "http://terminology.hl7.org/CodeSystem/claim-type",
          "code": "institutional",
          "display": "Institutional"
        } ]
      },
      "use": "claim",
      "patient": {
        "reference": "Patient/e6383b7c-aa91-42f7-8dc8-693a8c7dcaf3"
      },
      "created": "2026-11-13",
      "provider": {
        "reference": "Practitioner/72acaba8-904e-4c31-8c56-42cbaec2e008"
      },
      "priority": {
        "coding": [ {
          "system": "http://terminology.hl7.org/CodeSystem/processpriority",
          "code": "normal"
        } ]
      },
      "diagnosis": [ {
        "sequence": 1,
        "diagnosisReference": {
          "reference": "Condition/7bb5f951-4c6b-4495-86f4-f873549fbb19"
        },
        "onAdmission": {
          "coding": [ {
            "system": "https://www.cms.gov/Medicare/Medicare-Fee-for-Service-Payment/HospitalAcqCond/Coding",
            "code": "N"
          } ]
        }
      } ],
      "insurance": [ {
        "sequence": 1,
        "focal": true,
        "coverage": {
          "reference": "Coverage/759e7b80-908f-4570-9c54-06f073677644"
        }
      } ],
      "item": [ {
        "sequence": 1,
        "diagnosisSequence": [ 1 ],
        "productOrService": {
          "coding": [ {
            "system": "http://terminology.hl7.org/CodeSystem/ex-USCLS",
            "code": "1101"
          } ]
        },
        "encounter": [ {
          "reference": "Encounter/6d4e4769-789c-4e9d-96b7-cb62b361b721"
        } ]
      } ]
    },
    "request": {
      "method": "PUT",
      "url": "Claim/8bc4a168-8c4c-44c4-b35a-5224ea906356"
    }
  }, {
    "fullUrl": "https://madie.cms.gov/Claim/9293dba3-7ac3-45a9-81ea-21d4d4c01030",
    "resource": {
      "resourceType": "Claim",
      "id": "9293dba3-7ac3-45a9-81ea-21d4d4c01030",
      "meta": {
        "profile": [ "http://hl7.org/fhir/us/qicore/StructureDefinition/qicore-claim" ]
      },
      "status": "active",
      "type": {
        "coding": [ {
          "system": "http://terminology.hl7.org/CodeSystem/claim-type",
          "code": "institutional",
          "display": "Institutional"
        } ]
      },
      "use": "claim",
      "patient": {
        "reference": "Patient/e6383b7c-aa91-42f7-8dc8-693a8c7dcaf3"
      },
      "created": "2026-11-13",
      "provider": {
        "reference": "Practitioner/72acaba8-904e-4c31-8c56-42cbaec2e008"
      },
      "priority": {
        "coding": [ {
          "system": "http://terminology.hl7.org/CodeSystem/processpriority",
          "code": "normal"
        } ]
      },
      "diagnosis": [ {
        "sequence": 1,
        "diagnosisReference": {
          "reference": "Condition/2978a1bc-c868-4638-b584-dab9bbb3180c"
        },
        "onAdmission": {
          "coding": [ {
            "system": "https://www.cms.gov/Medicare/Medicare-Fee-for-Service-Payment/HospitalAcqCond/Coding",
            "code": "W"
          } ]
        }
      } ],
      "insurance": [ {
        "sequence": 1,
        "focal": true,
        "coverage": {
          "reference": "Coverage/759e7b80-908f-4570-9c54-06f073677644"
        }
      } ],
      "item": [ {
        "sequence": 1,
        "diagnosisSequence": [ 1 ],
        "productOrService": {
          "coding": [ {
            "system": "http://terminology.hl7.org/CodeSystem/ex-USCLS",
            "code": "1101"
          } ]
        },
        "encounter": [ {
          "reference": "Encounter/6d4e4769-789c-4e9d-96b7-cb62b361b721"
        } ]
      } ]
    },
    "request": {
      "method": "PUT",
      "url": "Claim/9293dba3-7ac3-45a9-81ea-21d4d4c01030"
    }
  }, {
    "fullUrl": "https://madie.cms.gov/Claim/02238da3-b1b7-4914-8b0b-d2dfdcd2bc46",
    "resource": {
      "resourceType": "Claim",
      "id": "02238da3-b1b7-4914-8b0b-d2dfdcd2bc46",
      "meta": {
        "profile": [ "http://hl7.org/fhir/us/qicore/StructureDefinition/qicore-claim" ]
      },
      "status": "active",
      "type": {
        "coding": [ {
          "system": "http://terminology.hl7.org/CodeSystem/claim-type",
          "code": "institutional",
          "display": "Institutional"
        } ]
      },
      "use": "claim",
      "patient": {
        "reference": "Patient/e6383b7c-aa91-42f7-8dc8-693a8c7dcaf3"
      },
      "created": "2026-11-13",
      "provider": {
        "reference": "Practitioner/72acaba8-904e-4c31-8c56-42cbaec2e008"
      },
      "priority": {
        "coding": [ {
          "system": "http://terminology.hl7.org/CodeSystem/processpriority",
          "code": "normal"
        } ]
      },
      "diagnosis": [ {
        "sequence": 1,
        "diagnosisReference": {
          "reference": "Condition/ac85f38a-6568-47d4-b664-e4bf9e9933fd"
        },
        "onAdmission": {
          "coding": [ {
            "system": "https://www.cms.gov/Medicare/Medicare-Fee-for-Service-Payment/HospitalAcqCond/Coding",
            "code": "N"
          } ]
        }
      } ],
      "insurance": [ {
        "sequence": 1,
        "focal": true,
        "coverage": {
          "reference": "Coverage/759e7b80-908f-4570-9c54-06f073677644"
        }
      } ],
      "item": [ {
        "sequence": 1,
        "diagnosisSequence": [ 1 ],
        "productOrService": {
          "coding": [ {
            "system": "http://terminology.hl7.org/CodeSystem/ex-USCLS",
            "code": "1101"
          } ]
        },
        "encounter": [ {
          "reference": "Encounter/6d4e4769-789c-4e9d-96b7-cb62b361b721"
        } ]
      } ]
    },
    "request": {
      "method": "PUT",
      "url": "Claim/02238da3-b1b7-4914-8b0b-d2dfdcd2bc46"
    }
  }, {
    "fullUrl": "https://madie.cms.gov/Encounter/6d4e4769-789c-4e9d-96b7-cb62b361b721",
    "resource": {
      "resourceType": "Encounter",
      "id": "6d4e4769-789c-4e9d-96b7-cb62b361b721",
      "meta": {
        "profile": [ "http://hl7.org/fhir/us/qicore/StructureDefinition/qicore-encounter" ]
      },
      "status": "finished",
      "class": {
        "system": "http://terminology.hl7.org/CodeSystem/v3-ActCode",
        "code": "IMP",
        "display": "inpatient encounter"
      },
      "type": [ {
        "coding": [ {
          "system": "http://snomed.info/sct",
          "code": "183452005"
        } ]
      } ],
      "subject": {
        "reference": "Patient/e6383b7c-aa91-42f7-8dc8-693a8c7dcaf3"
      },
      "period": {
        "start": "2026-11-09T11:00:00.000Z",
        "end": "2026-11-13T08:15:00.000Z"
      },
      "reasonCode": [ {
        "coding": [ {
          "system": "http://hl7.org/fhir/sid/icd-10-cm",
          "code": "W01.0XXA"
        } ]
      } ],
      "reasonReference": [ {
        "reference": "Condition/ac85f38a-6568-47d4-b664-e4bf9e9933fd"
      }, {
        "reference": "Condition/2978a1bc-c868-4638-b584-dab9bbb3180c"
      }, {
        "reference": "Condition/7bb5f951-4c6b-4495-86f4-f873549fbb19"
      } ]
    },
    "request": {
      "method": "PUT",
      "url": "Encounter/6d4e4769-789c-4e9d-96b7-cb62b361b721"
    }
  }, {
    "fullUrl": "https://madie.cms.gov/Encounter/1bb32cb6-e862-48f9-96dd-1906e33d8654",
    "resource": {
      "resourceType": "Encounter",
      "id": "1bb32cb6-e862-48f9-96dd-1906e33d8654",
      "meta": {
        "profile": [ "http://hl7.org/fhir/us/qicore/StructureDefinition/qicore-encounter" ]
      },
      "status": "finished",
      "class": {
        "system": "http://terminology.hl7.org/CodeSystem/v3-ActCode",
        "code": "IMP",
        "display": "inpatient encounter"
      },
      "type": [ {
        "coding": [ {
          "system": "http://snomed.info/sct",
          "code": "4525004"
        } ]
      } ],
      "subject": {
        "reference": "Patient/e6383b7c-aa91-42f7-8dc8-693a8c7dcaf3"
      },
      "period": {
        "start": "2026-11-09T08:00:00.000Z",
        "end": "2026-11-09T10:15:00.000Z"
      }
    },
    "request": {
      "method": "PUT",
      "url": "Encounter/1bb32cb6-e862-48f9-96dd-1906e33d8654"
    }
  }, {
    "fullUrl": "https://madie.cms.gov/Condition/7bb5f951-4c6b-4495-86f4-f873549fbb19",
    "resource": {
      "resourceType": "Condition",
      "id": "7bb5f951-4c6b-4495-86f4-f873549fbb19",
      "meta": {
        "profile": [ "http://hl7.org/fhir/us/qicore/StructureDefinition/qicore-condition-encounter-diagnosis" ]
      },
      "clinicalStatus": {
        "coding": [ {
          "system": "http://terminology.hl7.org/CodeSystem/condition-clinical",
          "code": "active"
        } ]
      },
      "verificationStatus": {
        "coding": [ {
          "system": "http://terminology.hl7.org/CodeSystem/condition-ver-status",
          "code": "confirmed"
        } ]
      },
      "category": [ {
        "coding": [ {
          "system": "http://terminology.hl7.org/CodeSystem/condition-category",
          "code": "encounter-diagnosis",
          "display": "Encounter Diagnosis"
        } ]
      } ],
      "code": {
        "coding": [ {
          "system": "http://hl7.org/fhir/sid/icd-10-cm",
          "code": "S01.00XA"
        } ]
      },
      "subject": {
        "reference": "Patient/e6383b7c-aa91-42f7-8dc8-693a8c7dcaf3"
      },
      "encounter": {
        "reference": "Encounter/6d4e4769-789c-4e9d-96b7-cb62b361b721"
      }
    },
    "request": {
      "method": "PUT",
      "url": "Condition/7bb5f951-4c6b-4495-86f4-f873549fbb19"
    }
  }, {
    "fullUrl": "https://madie.cms.gov/Condition/2978a1bc-c868-4638-b584-dab9bbb3180c",
    "resource": {
      "resourceType": "Condition",
      "id": "2978a1bc-c868-4638-b584-dab9bbb3180c",
      "meta": {
        "profile": [ "http://hl7.org/fhir/us/qicore/StructureDefinition/qicore-condition" ]
      },
      "clinicalStatus": {
        "coding": [ {
          "system": "http://terminology.hl7.org/CodeSystem/condition-clinical",
          "code": "active"
        } ]
      },
      "verificationStatus": {
        "coding": [ {
          "system": "http://terminology.hl7.org/CodeSystem/condition-ver-status",
          "code": "confirmed"
        } ]
      },
      "category": [ {
        "coding": [ {
          "system": "http://terminology.hl7.org/CodeSystem/condition-category",
          "code": "encounter-diagnosis",
          "display": "Encounter Diagnosis"
        } ]
      } ],
      "code": {
        "coding": [ {
          "system": "http://hl7.org/fhir/sid/icd-10-cm",
          "code": "M80.061A"
        } ]
      },
      "subject": {
        "reference": "Patient/e6383b7c-aa91-42f7-8dc8-693a8c7dcaf3"
      },
      "encounter": {
        "reference": "Encounter/6d4e4769-789c-4e9d-96b7-cb62b361b721"
      }
    },
    "request": {
      "method": "PUT",
      "url": "Condition/2978a1bc-c868-4638-b584-dab9bbb3180c"
    }
  }, {
    "fullUrl": "https://madie.cms.gov/Condition/ac85f38a-6568-47d4-b664-e4bf9e9933fd",
    "resource": {
      "resourceType": "Condition",
      "id": "ac85f38a-6568-47d4-b664-e4bf9e9933fd",
      "meta": {
        "profile": [ "http://hl7.org/fhir/us/qicore/StructureDefinition/qicore-condition" ]
      },
      "clinicalStatus": {
        "coding": [ {
          "system": "http://terminology.hl7.org/CodeSystem/condition-clinical",
          "code": "active"
        } ]
      },
      "verificationStatus": {
        "coding": [ {
          "system": "http://terminology.hl7.org/CodeSystem/condition-ver-status",
          "code": "confirmed"
        } ]
      },
      "category": [ {
        "coding": [ {
          "system": "http://terminology.hl7.org/CodeSystem/condition-category",
          "code": "encounter-diagnosis",
          "display": "Encounter Diagnosis"
        } ]
      } ],
      "code": {
        "coding": [ {
          "system": "http://hl7.org/fhir/sid/icd-10-cm",
          "code": "W01.0XXA"
        } ]
      },
      "subject": {
        "reference": "Patient/e6383b7c-aa91-42f7-8dc8-693a8c7dcaf3"
      },
      "encounter": {
        "reference": "Encounter/6d4e4769-789c-4e9d-96b7-cb62b361b721"
      }
    },
    "request": {
      "method": "PUT",
      "url": "Condition/ac85f38a-6568-47d4-b664-e4bf9e9933fd"
    }
  }, {
    "fullUrl": "https://madie.cms.gov/Patient/e6383b7c-aa91-42f7-8dc8-693a8c7dcaf3",
    "resource": {
      "resourceType": "Patient",
      "id": "e6383b7c-aa91-42f7-8dc8-693a8c7dcaf3",
      "meta": {
        "profile": [ "http://hl7.org/fhir/us/qicore/StructureDefinition/qicore-patient" ]
      },
      "extension": [ {
        "url": "http://hl7.org/fhir/us/core/StructureDefinition/us-core-race",
        "extension": [ {
          "url": "ombCategory",
          "valueCoding": {
            "system": "urn:oid:2.16.840.1.113883.6.238",
            "code": "2028-9",
            "display": "Asian",
            "userSelected": true
          }
        }, {
          "url": "text",
          "valueString": "Asian"
        } ]
      }, {
        "url": "http://hl7.org/fhir/us/core/StructureDefinition/us-core-ethnicity",
        "extension": [ {
          "url": "ombCategory",
          "valueCoding": {
            "system": "urn:oid:2.16.840.1.113883.6.238",
            "code": "2186-5",
            "display": "Not Hispanic or Latino",
            "userSelected": true
          }
        }, {
          "url": "text",
          "valueString": "Not Hispanic or Latino"
        } ]
      } ],
      "identifier": [ {
        "type": {
          "coding": [ {
            "system": "http://terminology.hl7.org/CodeSystem/v2-0203",
            "code": "MR"
          } ]
        },
        "system": "https://bonnie-fhir.healthit.gov/",
        "value": "61152a3b98086b7a79cbd7c1"
      } ],
      "active": true,
      "name": [ {
        "use": "usual",
        "family": "NUMERPass",
        "given": [ "MajorInjuryPOAandModInjNPOA" ]
      } ],
      "gender": "male",
      "birthDate": "2000-09-09"
    },
    "request": {
      "method": "PUT",
      "url": "Patient/e6383b7c-aa91-42f7-8dc8-693a8c7dcaf3"
    }
  }, {
    "fullUrl": "https://madie.cms.gov/Practitioner/72acaba8-904e-4c31-8c56-42cbaec2e008",
    "resource": {
      "resourceType": "Practitioner",
      "id": "72acaba8-904e-4c31-8c56-42cbaec2e008",
      "meta": {
        "profile": [ "http://hl7.org/fhir/us/qicore/StructureDefinition/qicore-practitioner" ]
      },
      "identifier": [ {
        "system": "http://www.cms.gov/identifiers/pracitioners",
        "value": "P12345"
      } ],
      "name": [ {
        "use": "official",
        "family": "Smith",
        "given": [ "John" ]
      } ],
      "qualification": [ {
        "identifier": [ {
          "system": "http://hl7.org/fhir/sid/us-npi",
          "value": "1234567890"
        } ],
        "code": {
          "coding": [ {
            "system": "http://terminology.hl7.org/CodeSystem/v2-0203",
            "code": "MD",
            "display": "Medical License number"
          } ]
        }
      } ]
    },
    "request": {
      "method": "PUT",
      "url": "Practitioner/72acaba8-904e-4c31-8c56-42cbaec2e008"
    }
  }, {
    "fullUrl": "https://madie.cms.gov/Organization/04aca59a-6872-47a9-a2b0-5014eb11705c",
    "resource": {
      "resourceType": "Organization",
      "id": "04aca59a-6872-47a9-a2b0-5014eb11705c",
      "meta": {
        "profile": [ "http://hl7.org/fhir/us/qicore/StructureDefinition/qicore-organization" ]
      },
      "identifier": [ {
        "system": "http://cms.gov/insurance-ids",
        "value": "AET12345"
      } ],
      "active": true,
      "type": [ {
        "coding": [ {
          "system": "http://terminology.hl7.org/CodeSystem/organization-type",
          "code": "prov",
          "display": "Healthcare Provider"
        } ]
      } ],
      "name": "Aetna Insurance",
      "telecom": [ {
        "system": "phone",
        "value": "+1-800-123-4567"
      } ],
      "address": [ {
        "line": [ "123 Main Street" ],
        "city": "Cityville",
        "state": "CA",
        "postalCode": "12345",
        "country": "USA"
      } ]
    },
    "request": {
      "method": "PUT",
      "url": "Organization/04aca59a-6872-47a9-a2b0-5014eb11705c"
    }
  }, {
    "fullUrl": "https://madie.cms.gov/Coverage/759e7b80-908f-4570-9c54-06f073677644",
    "resource": {
      "resourceType": "Coverage",
      "id": "759e7b80-908f-4570-9c54-06f073677644",
      "meta": {
        "profile": [ "http://hl7.org/fhir/us/qicore/StructureDefinition/qicore-coverage" ]
      },
      "identifier": [ {
        "use": "official",
        "type": {
          "coding": [ {
            "system": "http://terminology.hl7.org/CodeSystem/v2-0203",
            "code": "MB"
          } ]
        },
        "system": "http://insuranceNumber.org/",
        "value": "123456789"
      } ],
      "status": "active",
      "beneficiary": {
        "reference": "Patient/e6383b7c-aa91-42f7-8dc8-693a8c7dcaf3"
      },
      "relationship": {
        "coding": [ {
          "system": "http://terminology.hl7.org/CodeSystem/subscriber-relationship",
          "code": "self",
          "display": "Self"
        } ]
      },
      "payor": [ {
        "reference": "Organization/04aca59a-6872-47a9-a2b0-5014eb11705c"
      } ]
    },
    "request": {
      "method": "PUT",
      "url": "Coverage/759e7b80-908f-4570-9c54-06f073677644"
    }
  }, {
    "fullUrl": "https://madie.cms.gov/Location/da887570-2cdf-4384-9e2e-3c4f3b35b3a3",
    "resource": {
      "resourceType": "Location",
      "id": "da887570-2cdf-4384-9e2e-3c4f3b35b3a3",
      "meta": {
        "profile": [ "http://hl7.org/fhir/us/qicore/StructureDefinition/qicore-location" ]
      },
      "status": "active",
      "name": "Hospital Operating Room/Suite",
      "mode": "instance",
      "type": [ {
        "coding": [ {
          "system": "https://www.cdc.gov/nhsn/cdaportal/terminology/codesystem/hsloc.html",
          "code": "1096-7"
        } ]
      } ]
    },
    "request": {
      "method": "PUT",
      "url": "Location/da887570-2cdf-4384-9e2e-3c4f3b35b3a3"
    }
  }, {
    "fullUrl": "https://madie.cms.gov/MeasureReport/4f8aa5d5-93df-4ae6-9187-a41f96326284",
    "resource": {
      "resourceType": "MeasureReport",
      "id": "4f8aa5d5-93df-4ae6-9187-a41f96326284",
      "meta": {
        "profile": [ "http://hl7.org/fhir/us/cqfmeasures/StructureDefinition/test-case-cqfm" ]
      },
      "contained": [ {
        "resourceType": "Parameters",
        "id": "a9803c06-80c3-4be8-919f-bd9aabc0e251-parameters",
        "parameter": [ {
          "name": "subject",
          "valueString": "e6383b7c-aa91-42f7-8dc8-693a8c7dcaf3"
        } ]
      } ],
      "extension": [ {
        "url": "http://hl7.org/fhir/StructureDefinition/cqf-inputParameters",
        "valueReference": {
          "reference": "#a9803c06-80c3-4be8-919f-bd9aabc0e251-parameters"
        }
      }, {
        "url": "http://hl7.org/fhir/us/cqfmeasures/StructureDefinition/cqfm-testCaseDescription",
        "valueMarkdown": "Encounter diag includes a major injury POA and another mod injury NPOA. Also includes a fall NPOA. Meets Numerator because having an injury POA should not remove them from potential of another injury NPOA from a fall NPOA that occurs during the enc."
      } ],
      "modifierExtension": [ {
        "url": "http://hl7.org/fhir/us/cqfmeasures/StructureDefinition/cqfm-isTestCase",
        "valueBoolean": true
      } ],
      "status": "complete",
      "type": "individual",
      "measure": "https://madie.cms.gov/Measure/CMS1017FHIRHHFI",
      "period": {
        "start": "2026-01-01",
        "end": "2026-12-31"
      },
      "group": [ {
        "id": "Group_1",
        "population": [ {
          "id": "InitialPopulation_1",
          "code": {
            "coding": [ {
              "system": "http://terminology.hl7.org/CodeSystem/measure-population",
              "code": "initial-population",
              "display": "Initial Population"
            } ]
          },
          "count": 1
        }, {
          "id": "Denominator_1",
          "code": {
            "coding": [ {
              "system": "http://terminology.hl7.org/CodeSystem/measure-population",
              "code": "denominator",
              "display": "Denominator"
            } ]
          },
          "count": 1
        }, {
          "id": "MeasureObservation_1_1_1",
          "code": {
            "coding": [ {
              "system": "http://terminology.hl7.org/CodeSystem/measure-population",
              "code": "measure-observation",
              "display": "Measure Observation"
            } ]
          },
          "count": 4
        }, {
          "id": "DenominatorExclusion_1",
          "code": {
            "coding": [ {
              "system": "http://terminology.hl7.org/CodeSystem/measure-population",
              "code": "denominator-exclusion",
              "display": "Denominator Exclusion"
            } ]
          },
          "count": 0
        }, {
          "id": "Numerator_1",
          "code": {
            "coding": [ {
              "system": "http://terminology.hl7.org/CodeSystem/measure-population",
              "code": "numerator",
              "display": "Numerator"
            } ]
          },
          "count": 1
        }, {
          "id": "MeasureObservation_1_2_1",
          "code": {
            "coding": [ {
              "system": "http://terminology.hl7.org/CodeSystem/measure-population",
              "code": "measure-observation",
              "display": "Measure Observation"
            } ]
          },
          "count": 1
        }, {
          "id": "NumeratorExclusion_1",
          "code": {
            "coding": [ {
              "system": "http://terminology.hl7.org/CodeSystem/measure-population",
              "code": "numerator-exclusion",
              "display": "Numerator Exclusion"
            } ]
          },
          "count": 0
        } ],
        "measureScore": {
          "value": 0.0
        }
      } ],
      "evaluatedResource": [ {
        "reference": "Claim/8bc4a168-8c4c-44c4-b35a-5224ea906356"
      }, {
        "reference": "Claim/9293dba3-7ac3-45a9-81ea-21d4d4c01030"
      }, {
        "reference": "Claim/02238da3-b1b7-4914-8b0b-d2dfdcd2bc46"
      }, {
        "reference": "Encounter/6d4e4769-789c-4e9d-96b7-cb62b361b721"
      }, {
        "reference": "Encounter/1bb32cb6-e862-48f9-96dd-1906e33d8654"
      }, {
        "reference": "Condition/7bb5f951-4c6b-4495-86f4-f873549fbb19"
      }, {
        "reference": "Condition/2978a1bc-c868-4638-b584-dab9bbb3180c"
      }, {
        "reference": "Condition/ac85f38a-6568-47d4-b664-e4bf9e9933fd"
      }, {
        "reference": "Patient/e6383b7c-aa91-42f7-8dc8-693a8c7dcaf3"
      }, {
        "reference": "Practitioner/72acaba8-904e-4c31-8c56-42cbaec2e008"
      }, {
        "reference": "Organization/04aca59a-6872-47a9-a2b0-5014eb11705c"
      }, {
        "reference": "Coverage/759e7b80-908f-4570-9c54-06f073677644"
      }, {
        "reference": "Location/da887570-2cdf-4384-9e2e-3c4f3b35b3a3"
      } ]
    },
    "request": {
      "method": "PUT",
      "url": "MeasureReport/4f8aa5d5-93df-4ae6-9187-a41f96326284"
    }
  } ]
}