{
  "resourceType": "Bundle",
  "id": "612e6ec602c62a011f2ef89e",
  "type": "transaction",
  "entry": [ {
    "fullUrl": "https://madie.cms.gov/Patient/3d1f8f54-c264-4641-acc1-62aa3dcaa42d",
    "resource": {
      "resourceType": "Patient",
      "id": "3d1f8f54-c264-4641-acc1-62aa3dcaa42d",
      "meta": {
        "profile": [ "http://hl7.org/fhir/us/qicore/StructureDefinition/qicore-patient" ]
      },
      "text": {
        "status": "generated",
        "div": "<div xmlns=\"http://www.w3.org/1999/xhtml\"><div class=\"hapiHeaderText\">CMOPerfDayB4Enc <b>DENEXFAIL </b></div><table class=\"hapiPropertyTable\"><tbody><tr><td>Identifier</td><td>988b4053b5293f0d618963ef8ca3e167</td></tr><tr><td>Date of birth</td><td><span>03 March 1974</span></td></tr></tbody></table></div>"
      },
      "extension": [ {
        "url": "http://hl7.org/fhir/us/core/StructureDefinition/us-core-race",
        "extension": [ {
          "url": "ombCategory",
          "valueCoding": {
            "system": "urn:oid:2.16.840.1.113883.6.238",
            "code": "1002-5",
            "display": "American Indian or Alaska Native",
            "userSelected": true
          }
        }, {
          "url": "text",
          "valueString": "American Indian or Alaska Native"
        } ]
      }, {
        "url": "http://hl7.org/fhir/us/core/StructureDefinition/us-core-ethnicity",
        "extension": [ {
          "url": "ombCategory",
          "valueCoding": {
            "system": "urn:oid:2.16.840.1.113883.6.238",
            "code": "2135-2",
            "display": "Hispanic or Latino",
            "userSelected": true
          }
        }, {
          "url": "text",
          "valueString": "Hispanic or Latino"
        } ]
      } ],
      "identifier": [ {
        "type": {
          "coding": [ {
            "system": "http://terminology.hl7.org/CodeSystem/v2-0203",
            "code": "MR"
          } ]
        },
        "system": "https://bonnie-fhir.healthit.gov/",
        "value": "612e6ec602c62a011f2ef89e"
      } ],
      "active": true,
      "name": [ {
        "use": "usual",
        "family": "DENEXFail",
        "given": [ "CMOPerfDayB4Enc" ]
      } ],
      "gender": "female",
      "birthDate": "1975-03-03"
    },
    "request": {
      "method": "PUT",
      "url": "Patient/3d1f8f54-c264-4641-acc1-62aa3dcaa42d"
    }
  }, {
    "fullUrl": "https://madie.cms.gov/Encounter/2341404f-7be7-4d7b-948d-67bb22ff4b41",
    "resource": {
      "resourceType": "Encounter",
      "id": "2341404f-7be7-4d7b-948d-67bb22ff4b41",
      "meta": {
        "profile": [ "http://hl7.org/fhir/us/qicore/StructureDefinition/qicore-encounter" ]
      },
      "status": "finished",
      "class": {
        "system": "http://terminology.hl7.org/CodeSystem/v3-ActCode",
        "code": "IMP",
        "display": "inpatient encounter"
      },
      "type": [ {
        "coding": [ {
          "system": "http://snomed.info/sct",
          "code": "8715000"
        } ]
      } ],
      "subject": {
        "reference": "Patient/3d1f8f54-c264-4641-acc1-62aa3dcaa42d"
      },
      "period": {
        "start": "2026-12-04T08:00:00.000+00:00",
        "end": "2026-12-30T08:15:00.000+00:00"
      },
      "length": {
        "value": 26.0,
        "unit": "days"
      },
      "location": [ {
        "location": {
          "reference": "Location/c2bd3791-b3bc-483f-9a29-313bc1c4c73c"
        },
        "period": {
          "start": "2026-12-06T08:00:00.000+00:00",
          "end": "2026-12-12T08:15:00.000+00:00"
        }
      } ]
    },
    "request": {
      "method": "PUT",
      "url": "Encounter/2341404f-7be7-4d7b-948d-67bb22ff4b41"
    }
  }, {
    "fullUrl": "https://madie.cms.gov/Procedure/0de57064-cba9-4db3-b790-3f72fdccf88e",
    "resource": {
      "resourceType": "Procedure",
      "id": "0de57064-cba9-4db3-b790-3f72fdccf88e",
      "meta": {
        "profile": [ "http://hl7.org/fhir/us/qicore/StructureDefinition/qicore-procedure" ]
      },
      "extension": [ {
        "url": "http://hl7.org/fhir/us/qicore/StructureDefinition/qicore-recorded",
        "valueDateTime": "2013-12-04T13:35:00.000+00:00"
      } ],
      "status": "completed",
      "code": {
        "coding": [ {
          "system": "http://snomed.info/sct",
          "code": "133918004"
        } ]
      },
      "subject": {
        "reference": "Patient/3d1f8f54-c264-4641-acc1-62aa3dcaa42d"
      },
      "performedPeriod": {
        "start": "2026-12-03T10:00:00.000+00:00"
      }
    },
    "request": {
      "method": "PUT",
      "url": "Procedure/0de57064-cba9-4db3-b790-3f72fdccf88e"
    }
  }, {
    "fullUrl": "https://madie.cms.gov/Coverage/4e34895f-e497-46ef-bc22-fd6d134b7eab",
    "resource": {
      "resourceType": "Coverage",
      "id": "4e34895f-e497-46ef-bc22-fd6d134b7eab",
      "status": "active",
      "beneficiary": {
        "reference": "Patient/3d1f8f54-c264-4641-acc1-62aa3dcaa42d"
      },
      "period": {
        "start": "1975-03-03T08:00:00.000+00:00"
      },
      "payor": [ {
        "reference": "Organization/89137e08-4715-4f78-bc65-982e7d3fd950"
      } ]
    },
    "request": {
      "method": "PUT",
      "url": "Coverage/4e34895f-e497-46ef-bc22-fd6d134b7eab"
    }
  }, {
    "fullUrl": "https://madie.cms.gov/Location/c2bd3791-b3bc-483f-9a29-313bc1c4c73c",
    "resource": {
      "resourceType": "Location",
      "id": "c2bd3791-b3bc-483f-9a29-313bc1c4c73c",
      "meta": {
        "profile": [ "http://hl7.org/fhir/us/qicore/StructureDefinition/qicore-location" ]
      },
      "identifier": [ {
        "use": "usual",
        "system": "http://exampleoflocation.com",
        "value": "B1-S.F2"
      } ],
      "name": "Medical Surgical East, first floor",
      "type": [ {
        "coding": [ {
          "system": "https://www.cdc.gov/nhsn/cdaportal/terminology/codesystem/hsloc.html",
          "code": "1025-6",
          "display": "Trauma Critical Care",
          "userSelected": true
        } ]
      } ]
    },
    "request": {
      "method": "PUT",
      "url": "Location/c2bd3791-b3bc-483f-9a29-313bc1c4c73c"
    }
  }, {
    "fullUrl": "https://madie.cms.gov/Organization/89137e08-4715-4f78-bc65-982e7d3fd950",
    "resource": {
      "resourceType": "Organization",
      "id": "89137e08-4715-4f78-bc65-982e7d3fd950",
      "meta": {
        "profile": [ "http://hl7.org/fhir/us/qicore/StructureDefinition/qicore-organization" ]
      },
      "identifier": [ {
        "use": "temp",
        "system": "urn:oid:2.16.840.1.113883.4.4",
        "value": "21-3259825"
      } ],
      "active": true,
      "type": [ {
        "coding": [ {
          "system": "http://terminology.hl7.org/CodeSystem/organization-type",
          "code": "pay",
          "display": "Payer"
        } ]
      } ],
      "name": "Blue Cross Blue Shield of Texas",
      "telecom": [ {
        "system": "phone",
        "value": "(+1) 972-766-6900"
      } ],
      "address": [ {
        "use": "billing",
        "type": "postal",
        "line": [ "P.O. Box 660044" ],
        "city": "Dallas",
        "state": "TX",
        "postalCode": "75266-0044",
        "country": "USA"
      } ]
    },
    "request": {
      "method": "PUT",
      "url": "Organization/89137e08-4715-4f78-bc65-982e7d3fd950"
    }
  }, {
    "fullUrl": "https://madie.cms.gov/Practitioner/4de1bac1-3026-4464-95a3-2068e75bc166",
    "resource": {
      "resourceType": "Practitioner",
      "id": "4de1bac1-3026-4464-95a3-2068e75bc166",
      "identifier": [ {
        "system": "http://hl7.org/fhir/sid/us-npi",
        "value": "123456"
      } ],
      "name": [ {
        "family": "Evil",
        "prefix": [ "Dr" ]
      } ]
    },
    "request": {
      "method": "PUT",
      "url": "Practitioner/4de1bac1-3026-4464-95a3-2068e75bc166"
    }
  }, {
    "fullUrl": "https://madie.cms.gov/MeasureReport/0383f75c-7338-4951-91ff-f37cf68a19c6",
    "resource": {
      "resourceType": "MeasureReport",
      "id": "0383f75c-7338-4951-91ff-f37cf68a19c6",
      "meta": {
        "profile": [ "http://hl7.org/fhir/us/cqfmeasures/StructureDefinition/test-case-cqfm" ]
      },
      "contained": [ {
        "resourceType": "Parameters",
        "id": "ca0bae37-7d2e-494a-a3ab-b07a378cac26-parameters",
        "parameter": [ {
          "name": "subject",
          "valueString": "3d1f8f54-c264-4641-acc1-62aa3dcaa42d"
        } ]
      } ],
      "extension": [ {
        "url": "http://hl7.org/fhir/StructureDefinition/cqf-inputParameters",
        "valueReference": {
          "reference": "#ca0bae37-7d2e-494a-a3ab-b07a378cac26-parameters"
        }
      }, {
        "url": "http://hl7.org/fhir/us/cqfmeasures/StructureDefinition/cqfm-testCaseDescription",
        "valueMarkdown": "comfort measures starts before IP encounter\n"
      } ],
      "modifierExtension": [ {
        "url": "http://hl7.org/fhir/us/cqfmeasures/StructureDefinition/cqfm-isTestCase",
        "valueBoolean": true
      } ],
      "status": "complete",
      "type": "individual",
      "measure": "https://madie.cms.gov/Measure/CMS190FHIRVTEProphylaxisICU",
      "period": {
        "start": "2026-01-01",
        "end": "2026-12-31"
      },
      "group": [ {
        "id": "Group_1",
        "population": [ {
          "id": "InitialPopulation_1",
          "code": {
            "coding": [ {
              "system": "http://terminology.hl7.org/CodeSystem/measure-population",
              "code": "initial-population",
              "display": "Initial Population"
            } ]
          },
          "count": 1
        }, {
          "id": "Denominator_1",
          "code": {
            "coding": [ {
              "system": "http://terminology.hl7.org/CodeSystem/measure-population",
              "code": "denominator",
              "display": "Denominator"
            } ]
          },
          "count": 1
        }, {
          "id": "DenominatorExclusion_1",
          "code": {
            "coding": [ {
              "system": "http://terminology.hl7.org/CodeSystem/measure-population",
              "code": "denominator-exclusion",
              "display": "Denominator Exclusion"
            } ]
          },
          "count": 0
        }, {
          "id": "Numerator_1",
          "code": {
            "coding": [ {
              "system": "http://terminology.hl7.org/CodeSystem/measure-population",
              "code": "numerator",
              "display": "Numerator"
            } ]
          },
          "count": 0
        }, {
          "id": "DenominatorException_1",
          "code": {
            "coding": [ {
              "system": "http://terminology.hl7.org/CodeSystem/measure-population",
              "code": "denominator-exception",
              "display": "Denominator Exception"
            } ]
          },
          "count": 0
        } ],
        "measureScore": {
          "value": 0.0
        }
      } ],
      "evaluatedResource": [ {
        "reference": "Patient/3d1f8f54-c264-4641-acc1-62aa3dcaa42d"
      }, {
        "reference": "Encounter/2341404f-7be7-4d7b-948d-67bb22ff4b41"
      }, {
        "reference": "Procedure/0de57064-cba9-4db3-b790-3f72fdccf88e"
      }, {
        "reference": "Coverage/4e34895f-e497-46ef-bc22-fd6d134b7eab"
      }, {
        "reference": "Location/c2bd3791-b3bc-483f-9a29-313bc1c4c73c"
      }, {
        "reference": "Organization/89137e08-4715-4f78-bc65-982e7d3fd950"
      }, {
        "reference": "Practitioner/4de1bac1-3026-4464-95a3-2068e75bc166"
      } ]
    },
    "request": {
      "method": "PUT",
      "url": "MeasureReport/0383f75c-7338-4951-91ff-f37cf68a19c6"
    }
  } ]
}