{
  "resourceType": "Bundle",
  "id": "610d3a53be3d5dcbc43d6777",
  "type": "collection",
  "entry": [ {
    "fullUrl": "https://madie.cms.gov/Patient/03069b40-7a8b-4dbe-9fa0-9cb01acf13d2",
    "resource": {
      "resourceType": "Patient",
      "id": "03069b40-7a8b-4dbe-9fa0-9cb01acf13d2",
      "meta": {
        "profile": [ "http://hl7.org/fhir/us/qicore/StructureDefinition/qicore-patient" ]
      },
      "extension": [ {
        "url": "http://hl7.org/fhir/us/core/StructureDefinition/us-core-race",
        "extension": [ {
          "url": "ombCategory",
          "valueCoding": {
            "system": "urn:oid:2.16.840.1.113883.6.238",
            "code": "2028-9",
            "display": "Asian",
            "userSelected": true
          }
        }, {
          "url": "text",
          "valueString": "Asian"
        } ]
      }, {
        "url": "http://hl7.org/fhir/us/core/StructureDefinition/us-core-ethnicity",
        "extension": [ {
          "url": "ombCategory",
          "valueCoding": {
            "system": "urn:oid:2.16.840.1.113883.6.238",
            "code": "2186-5",
            "display": "Not Hispanic or Latino",
            "userSelected": true
          }
        }, {
          "url": "text",
          "valueString": "Not Hispanic or Latino"
        } ]
      } ],
      "identifier": [ {
        "type": {
          "coding": [ {
            "system": "http://terminology.hl7.org/CodeSystem/v2-0203",
            "code": "MR"
          } ]
        },
        "system": "https://bonnie-fhir.healthit.gov/",
        "value": "610d3a53be3d5dcbc43d6777"
      } ],
      "name": [ {
        "family": "IPPass",
        "given": [ "DementiaDxStartsFirstDayofMPEdge" ]
      } ],
      "gender": "female",
      "birthDate": "1969-03-02"
    }
  }, {
    "fullUrl": "https://madie.cms.gov/Encounter/71fc3170-ee92-433b-8b87-45ec20b9a651",
    "resource": {
      "resourceType": "Encounter",
      "id": "71fc3170-ee92-433b-8b87-45ec20b9a651",
      "meta": {
        "profile": [ "http://hl7.org/fhir/us/qicore/StructureDefinition/qicore-encounter" ]
      },
      "status": "finished",
      "class": {
        "system": "http://terminology.hl7.org/CodeSystem/v3-ActCode",
        "code": "AMB",
        "display": "ambulatory",
        "userSelected": true
      },
      "type": [ {
        "coding": [ {
          "system": "http://snomed.info/sct",
          "version": "http://snomed.info/sct/731000124108/version/202303",
          "code": "185460008",
          "display": "Home visit request by patient (procedure)",
          "userSelected": true
        } ]
      } ],
      "subject": {
        "reference": "Patient/03069b40-7a8b-4dbe-9fa0-9cb01acf13d2"
      },
      "period": {
        "start": "2026-08-06T08:00:00.000+00:00",
        "end": "2026-08-10T08:15:00.000+00:00"
      }
    }
  }, {
    "fullUrl": "https://madie.cms.gov/Condition/fb3b8ff3-09b6-4201-8495-b0402a34d7c4",
    "resource": {
      "resourceType": "Condition",
      "id": "fb3b8ff3-09b6-4201-8495-b0402a34d7c4",
      "meta": {
        "profile": [ "http://hl7.org/fhir/us/qicore/StructureDefinition/qicore-condition-problems-health-concerns" ]
      },
      "clinicalStatus": {
        "coding": [ {
          "system": "http://terminology.hl7.org/CodeSystem/condition-clinical",
          "code": "inactive",
          "display": "inactive",
          "userSelected": true
        } ]
      },
      "category": [ {
        "coding": [ {
          "system": "http://terminology.hl7.org/CodeSystem/condition-category",
          "code": "problem-list-item",
          "display": "Problem List Item"
        } ]
      } ],
      "code": {
        "coding": [ {
          "system": "http://snomed.info/sct",
          "version": "http://snomed.info/sct/731000124108/version/20250301",
          "code": "10349009",
          "display": "Multi-infarct dementia with delirium (disorder)",
          "userSelected": true
        } ]
      },
      "subject": {
        "reference": "Patient/03069b40-7a8b-4dbe-9fa0-9cb01acf13d2"
      },
      "onsetDateTime": "2026-01-01T00:00:00.000+00:00",
      "abatementDateTime": "2027-01-01T00:00:00.000+00:00"
    }
  }, {
    "fullUrl": "https://madie.cms.gov/Encounter/3aa1fe2b-5045-4f30-9d77-d0cce64db5cd",
    "resource": {
      "resourceType": "Encounter",
      "id": "3aa1fe2b-5045-4f30-9d77-d0cce64db5cd",
      "meta": {
        "profile": [ "http://hl7.org/fhir/us/qicore/StructureDefinition/qicore-encounter" ]
      },
      "status": "finished",
      "class": {
        "system": "http://terminology.hl7.org/CodeSystem/v3-ActCode",
        "code": "AMB",
        "display": "ambulatory",
        "userSelected": true
      },
      "type": [ {
        "coding": [ {
          "system": "http://snomed.info/sct",
          "version": "http://snomed.info/sct/731000124108/version/202303",
          "code": "185316007",
          "display": "Indirect encounter (procedure)",
          "userSelected": true
        } ]
      } ],
      "subject": {
        "reference": "Patient/03069b40-7a8b-4dbe-9fa0-9cb01acf13d2"
      },
      "period": {
        "start": "2026-08-06T08:00:00.000+00:00",
        "end": "2026-08-10T08:15:00.000+00:00"
      },
      "diagnosis": [ {
        "condition": {
          "reference": "Condition/dementia-mental-degenerations-5d61"
        }
      } ]
    }
  }, {
    "fullUrl": "https://madie.cms.gov/Condition/5f4ee790-e1e6-4355-8c2d-04ec8cd62039",
    "resource": {
      "resourceType": "Condition",
      "id": "5f4ee790-e1e6-4355-8c2d-04ec8cd62039",
      "category": [ {
        "coding": [ {
          "system": "http://terminology.hl7.org/CodeSystem/condition-category",
          "code": "encounter-diagnosis",
          "display": "Encounter Diagnosis"
        } ]
      } ],
      "code": {
        "coding": [ {
          "system": "http://snomed.info/sct",
          "version": "http://snomed.info/sct/731000124108/version/20250301",
          "code": "10349009",
          "display": "Multi-infarct dementia with delirium (disorder)",
          "userSelected": true
        } ]
      },
      "subject": {
        "reference": "Patient/03069b40-7a8b-4dbe-9fa0-9cb01acf13d2"
      },
      "onsetPeriod": {
        "start": "2025-08-05T08:00:00.000+00:00",
        "end": "2025-08-11T08:15:00.000+00:00"
      }
    }
  }, {
    "fullUrl": "https://madie.cms.gov/Coverage/aa5af946-b08f-4375-a3ac-a4988ee7b5b6",
    "resource": {
      "resourceType": "Coverage",
      "id": "aa5af946-b08f-4375-a3ac-a4988ee7b5b6",
      "meta": {
        "profile": [ "http://hl7.org/fhir/us/qicore/StructureDefinition/qicore-coverage" ]
      },
      "status": "active",
      "subscriberId": "123456",
      "beneficiary": {
        "reference": "Patient/03069b40-7a8b-4dbe-9fa0-9cb01acf13d2"
      },
      "relationship": {
        "coding": [ {
          "system": "http://terminology.hl7.org/CodeSystem/subscriber-relationship",
          "code": "self"
        } ]
      },
      "period": {
        "start": "2016-05-23",
        "end": "2027-05-23"
      },
      "payor": [ {
        "reference": "Organization/352910e7-757c-4cf0-9e42-b092ae04ed81"
      } ]
    }
  }, {
    "fullUrl": "https://madie.cms.gov/Organization/352910e7-757c-4cf0-9e42-b092ae04ed81",
    "resource": {
      "resourceType": "Organization",
      "id": "352910e7-757c-4cf0-9e42-b092ae04ed81",
      "meta": {
        "profile": [ "http://hl7.org/fhir/us/qicore/StructureDefinition/qicore-organization" ]
      },
      "identifier": [ {
        "use": "temp",
        "system": "urn:oid:2.16.840.1.113883.4.4",
        "value": "21-3259825"
      } ],
      "active": true,
      "type": [ {
        "coding": [ {
          "system": "http://terminology.hl7.org/CodeSystem/organization-type",
          "code": "pay",
          "display": "Payer"
        } ]
      } ],
      "name": "Blue Cross Blue Shield of Texas",
      "telecom": [ {
        "system": "phone",
        "value": "(+1) 972-766-6900"
      } ],
      "address": [ {
        "use": "billing",
        "type": "postal",
        "line": [ "P.O. Box 660044" ],
        "city": "Dallas",
        "state": "TX",
        "postalCode": "75266-0044",
        "country": "USA"
      } ]
    }
  }, {
    "fullUrl": "https://madie.cms.gov/Practitioner/45f5b465-082a-403e-a431-694eefd05502",
    "resource": {
      "resourceType": "Practitioner",
      "id": "45f5b465-082a-403e-a431-694eefd05502",
      "identifier": [ {
        "system": "http://hl7.org/fhir/sid/us-npi",
        "value": "1689411712"
      } ],
      "name": [ {
        "family": "Evil",
        "prefix": [ "Dr" ]
      } ]
    }
  }, {
    "fullUrl": "https://madie.cms.gov/MeasureReport/ca49f4bc-7f5f-43d1-8c7b-3627d466c528",
    "resource": {
      "resourceType": "MeasureReport",
      "id": "ca49f4bc-7f5f-43d1-8c7b-3627d466c528",
      "meta": {
        "profile": [ "http://hl7.org/fhir/us/cqfmeasures/StructureDefinition/test-case-cqfm" ]
      },
      "contained": [ {
        "resourceType": "Parameters",
        "id": "57106f2e-940d-4552-b1e7-3400448f4796-parameters",
        "parameter": [ {
          "name": "subject",
          "valueString": "03069b40-7a8b-4dbe-9fa0-9cb01acf13d2"
        } ]
      } ],
      "extension": [ {
        "url": "http://hl7.org/fhir/StructureDefinition/cqf-inputParameters",
        "valueReference": {
          "reference": "#57106f2e-940d-4552-b1e7-3400448f4796-parameters"
        }
      }, {
        "url": "http://hl7.org/fhir/us/cqfmeasures/StructureDefinition/cqfm-testCaseDescription",
        "valueMarkdown": "Dementia Diagnosis begins exactly at start of MP with Home Visit and Patient Provider Interaction"
      } ],
      "modifierExtension": [ {
        "url": "http://hl7.org/fhir/us/cqfmeasures/StructureDefinition/cqfm-isTestCase",
        "valueBoolean": true
      } ],
      "status": "complete",
      "type": "individual",
      "measure": "https://madie.cms.gov/Measure/CMS149FHIRDementiaCognitiveAssess",
      "period": {
        "start": "2026-01-01",
        "end": "2026-12-31"
      },
      "group": [ {
        "id": "Group_1",
        "population": [ {
          "id": "InitialPopulation_1",
          "code": {
            "coding": [ {
              "system": "http://terminology.hl7.org/CodeSystem/measure-population",
              "code": "initial-population",
              "display": "Initial Population"
            } ]
          },
          "count": 1
        }, {
          "id": "Denominator_1",
          "code": {
            "coding": [ {
              "system": "http://terminology.hl7.org/CodeSystem/measure-population",
              "code": "denominator",
              "display": "Denominator"
            } ]
          },
          "count": 1
        }, {
          "id": "Numerator_1",
          "code": {
            "coding": [ {
              "system": "http://terminology.hl7.org/CodeSystem/measure-population",
              "code": "numerator",
              "display": "Numerator"
            } ]
          },
          "count": 0
        }, {
          "id": "DenominatorException_1",
          "code": {
            "coding": [ {
              "system": "http://terminology.hl7.org/CodeSystem/measure-population",
              "code": "denominator-exception",
              "display": "Denominator Exception"
            } ]
          },
          "count": 0
        } ],
        "measureScore": {
          "value": 1.0
        }
      } ],
      "evaluatedResource": [ {
        "reference": "Patient/03069b40-7a8b-4dbe-9fa0-9cb01acf13d2"
      }, {
        "reference": "Encounter/71fc3170-ee92-433b-8b87-45ec20b9a651"
      }, {
        "reference": "Condition/fb3b8ff3-09b6-4201-8495-b0402a34d7c4"
      }, {
        "reference": "Encounter/3aa1fe2b-5045-4f30-9d77-d0cce64db5cd"
      }, {
        "reference": "Condition/5f4ee790-e1e6-4355-8c2d-04ec8cd62039"
      }, {
        "reference": "Coverage/aa5af946-b08f-4375-a3ac-a4988ee7b5b6"
      }, {
        "reference": "Organization/352910e7-757c-4cf0-9e42-b092ae04ed81"
      }, {
        "reference": "Practitioner/45f5b465-082a-403e-a431-694eefd05502"
      } ]
    }
  } ]
}