{
  "resourceType": "Bundle",
  "id": "63487c2e0968f80122540176",
  "type": "transaction",
  "entry": [ {
    "fullUrl": "https://madie.cms.gov/Patient/67037280-6411-4f2c-a9d9-6d89da600887",
    "resource": {
      "resourceType": "Patient",
      "id": "67037280-6411-4f2c-a9d9-6d89da600887",
      "meta": {
        "profile": [ "http://hl7.org/fhir/us/qicore/StructureDefinition/qicore-patient" ]
      },
      "text": {
        "status": "generated",
        "div": "<div xmlns=\"http://www.w3.org/1999/xhtml\"><div class=\"hapiHeaderText\">AssessG0Pnull <b>DENFAIL </b></div><table class=\"hapiPropertyTable\"><tbody><tr><td>Identifier</td><td>b8dbe157da4a58e4e68c2785ca3a1f558369f025fbb700c089d37aa7791ee57b</td></tr><tr><td>Date of birth</td><td><span>14 February 1985</span></td></tr></tbody></table></div>"
      },
      "extension": [ {
        "url": "http://hl7.org/fhir/us/core/StructureDefinition/us-core-race",
        "extension": [ {
          "url": "ombCategory",
          "valueCoding": {
            "system": "urn:oid:2.16.840.1.113883.6.238",
            "code": "1002-5",
            "display": "American Indian or Alaska Native",
            "userSelected": true
          }
        }, {
          "url": "text",
          "valueString": "American Indian or Alaska Native"
        } ]
      }, {
        "url": "http://hl7.org/fhir/us/core/StructureDefinition/us-core-ethnicity",
        "extension": [ {
          "url": "ombCategory",
          "valueCoding": {
            "system": "urn:oid:2.16.840.1.113883.6.238",
            "code": "2135-2",
            "display": "Hispanic or Latino",
            "userSelected": true
          }
        }, {
          "url": "text",
          "valueString": "Hispanic or Latino"
        } ]
      } ],
      "identifier": [ {
        "type": {
          "coding": [ {
            "system": "http://terminology.hl7.org/CodeSystem/v2-0203",
            "code": "MR"
          } ]
        },
        "system": "https://bonnie-fhir.healthit.gov/",
        "value": "63487c2e0968f80122540176"
      } ],
      "active": true,
      "name": [ {
        "use": "usual",
        "family": "DENFail",
        "given": [ "AssessG0Pnull" ]
      } ],
      "gender": "female",
      "birthDate": "1986-02-14"
    },
    "request": {
      "method": "PUT",
      "url": "Patient/67037280-6411-4f2c-a9d9-6d89da600887"
    }
  }, {
    "fullUrl": "https://madie.cms.gov/Observation/6046b45a-820a-4053-b722-023490dd18f7",
    "resource": {
      "resourceType": "Observation",
      "id": "6046b45a-820a-4053-b722-023490dd18f7",
      "meta": {
        "profile": [ "http://hl7.org/fhir/us/qicore/StructureDefinition/qicore-simple-observation" ]
      },
      "status": "final",
      "category": [ {
        "coding": [ {
          "system": "http://terminology.hl7.org/CodeSystem/observation-category",
          "code": "exam",
          "display": "exam",
          "userSelected": true
        } ]
      } ],
      "code": {
        "coding": [ {
          "system": "http://loinc.org",
          "code": "11977-6"
        } ]
      },
      "subject": {
        "reference": "Patient/67037280-6411-4f2c-a9d9-6d89da600887"
      },
      "effectiveDateTime": "2026-03-08T09:00:00.000+00:00"
    },
    "request": {
      "method": "PUT",
      "url": "Observation/6046b45a-820a-4053-b722-023490dd18f7"
    }
  }, {
    "fullUrl": "https://madie.cms.gov/Observation/59b922a2-27df-4537-b05f-e41fade7aba2",
    "resource": {
      "resourceType": "Observation",
      "id": "59b922a2-27df-4537-b05f-e41fade7aba2",
      "meta": {
        "profile": [ "http://hl7.org/fhir/us/qicore/StructureDefinition/qicore-simple-observation" ]
      },
      "status": "final",
      "category": [ {
        "coding": [ {
          "system": "http://terminology.hl7.org/CodeSystem/observation-category",
          "code": "exam",
          "display": "exam",
          "userSelected": true
        } ]
      } ],
      "code": {
        "coding": [ {
          "system": "http://loinc.org",
          "code": "11996-6"
        } ]
      },
      "subject": {
        "reference": "Patient/67037280-6411-4f2c-a9d9-6d89da600887"
      },
      "effectiveDateTime": "2026-03-09T08:00:00.000+00:00",
      "valueInteger": 0
    },
    "request": {
      "method": "PUT",
      "url": "Observation/59b922a2-27df-4537-b05f-e41fade7aba2"
    }
  }, {
    "fullUrl": "https://madie.cms.gov/Observation/22a7ee52-3c34-4246-b17c-afa336f331f1",
    "resource": {
      "resourceType": "Observation",
      "id": "22a7ee52-3c34-4246-b17c-afa336f331f1",
      "meta": {
        "profile": [ "http://hl7.org/fhir/us/qicore/StructureDefinition/qicore-simple-observation" ]
      },
      "status": "final",
      "category": [ {
        "coding": [ {
          "system": "http://terminology.hl7.org/CodeSystem/observation-category",
          "code": "exam",
          "display": "exam",
          "userSelected": true
        } ]
      } ],
      "code": {
        "coding": [ {
          "system": "http://loinc.org",
          "code": "11884-4"
        } ]
      },
      "subject": {
        "reference": "Patient/67037280-6411-4f2c-a9d9-6d89da600887"
      },
      "effectiveDateTime": "2026-06-08T20:00:00.000+00:00",
      "valueQuantity": {
        "value": 37,
        "system": "http://unitsofmeasure.org",
        "code": "wk"
      }
    },
    "request": {
      "method": "PUT",
      "url": "Observation/22a7ee52-3c34-4246-b17c-afa336f331f1"
    }
  }, {
    "fullUrl": "https://madie.cms.gov/Observation/468dd2c1-2f5b-4321-9008-6f5c82f7b990",
    "resource": {
      "resourceType": "Observation",
      "id": "468dd2c1-2f5b-4321-9008-6f5c82f7b990",
      "meta": {
        "profile": [ "http://hl7.org/fhir/us/qicore/StructureDefinition/qicore-simple-observation" ]
      },
      "status": "final",
      "category": [ {
        "coding": [ {
          "system": "http://terminology.hl7.org/CodeSystem/observation-category",
          "code": "exam",
          "display": "exam",
          "userSelected": true
        } ]
      } ],
      "code": {
        "coding": [ {
          "system": "http://loinc.org",
          "code": "93857-1"
        } ]
      },
      "subject": {
        "reference": "Patient/67037280-6411-4f2c-a9d9-6d89da600887"
      },
      "effectiveDateTime": "2026-06-08T20:00:00.000+00:00",
      "valueDateTime": "2026-06-08T20:00:00.000+00:00"
    },
    "request": {
      "method": "PUT",
      "url": "Observation/468dd2c1-2f5b-4321-9008-6f5c82f7b990"
    }
  }, {
    "fullUrl": "https://madie.cms.gov/Encounter/41ade757-ab66-42b9-b69a-133d74790662",
    "resource": {
      "resourceType": "Encounter",
      "id": "41ade757-ab66-42b9-b69a-133d74790662",
      "meta": {
        "profile": [ "http://hl7.org/fhir/us/qicore/StructureDefinition/qicore-encounter" ]
      },
      "status": "finished",
      "class": {
        "system": "http://terminology.hl7.org/CodeSystem/v3-ActCode",
        "code": "IMP",
        "display": "inpatient encounter"
      },
      "type": [ {
        "coding": [ {
          "system": "http://snomed.info/sct",
          "code": "8715000"
        } ]
      } ],
      "subject": {
        "reference": "Patient/67037280-6411-4f2c-a9d9-6d89da600887"
      },
      "period": {
        "start": "2026-06-08T08:00:00.000+00:00",
        "end": "2026-06-10T08:15:00.000+00:00"
      },
      "length": {
        "value": 2,
        "unit": "days"
      },
      "reasonReference": [ {
        "reference": "Condition/delivery-of-singleton-f83c"
      } ]
    },
    "request": {
      "method": "PUT",
      "url": "Encounter/41ade757-ab66-42b9-b69a-133d74790662"
    }
  }, {
    "fullUrl": "https://madie.cms.gov/Procedure/7953473b-a95d-4c7b-acc8-d90a0d781caa",
    "resource": {
      "resourceType": "Procedure",
      "id": "7953473b-a95d-4c7b-acc8-d90a0d781caa",
      "meta": {
        "profile": [ "http://hl7.org/fhir/us/qicore/StructureDefinition/qicore-procedure" ]
      },
      "extension": [ {
        "url": "http://hl7.org/fhir/us/qicore/StructureDefinition/qicore-recorded",
        "valueDateTime": "2014-04-05T13:35:00.000+00:00"
      } ],
      "status": "completed",
      "code": {
        "coding": [ {
          "system": "http://www.cms.gov/Medicare/Coding/ICD10",
          "code": "10D00Z0"
        } ]
      },
      "subject": {
        "reference": "Patient/67037280-6411-4f2c-a9d9-6d89da600887"
      },
      "performedPeriod": {
        "start": "2026-06-08T20:00:00.000+00:00",
        "end": "2026-06-08T20:15:00.000+00:00"
      }
    },
    "request": {
      "method": "PUT",
      "url": "Procedure/7953473b-a95d-4c7b-acc8-d90a0d781caa"
    }
  }, {
    "fullUrl": "https://madie.cms.gov/Condition/b787aaac-a394-4536-b749-9dbb3da92403",
    "resource": {
      "resourceType": "Condition",
      "id": "b787aaac-a394-4536-b749-9dbb3da92403",
      "meta": {
        "profile": [ "http://hl7.org/fhir/us/qicore/StructureDefinition/qicore-condition-encounter-diagnosis" ]
      },
      "category": [ {
        "coding": [ {
          "system": "http://terminology.hl7.org/CodeSystem/condition-category",
          "code": "encounter-diagnosis",
          "display": "Encounter Diagnosis"
        } ]
      } ],
      "code": {
        "coding": [ {
          "system": "http://snomed.info/sct",
          "version": "2022-09",
          "code": "169826009",
          "display": "Single live birth from singleton pregnancy (finding)",
          "userSelected": true
        } ]
      },
      "subject": {
        "reference": "Patient/67037280-6411-4f2c-a9d9-6d89da600887"
      },
      "encounter": {
        "reference": "Encounter/41ade757-ab66-42b9-b69a-133d74790662"
      },
      "recordedDate": "2026-10-21T08:00:00.000+00:00"
    },
    "request": {
      "method": "PUT",
      "url": "Condition/b787aaac-a394-4536-b749-9dbb3da92403"
    }
  }, {
    "fullUrl": "https://madie.cms.gov/Coverage/a56c3a63-28ae-49b2-bcce-c5c96707f490",
    "resource": {
      "resourceType": "Coverage",
      "id": "a56c3a63-28ae-49b2-bcce-c5c96707f490",
      "meta": {
        "profile": [ "http://hl7.org/fhir/us/qicore/StructureDefinition/qicore-coverage" ]
      },
      "status": "active",
      "subscriberId": "523435",
      "beneficiary": {
        "reference": "Patient/67037280-6411-4f2c-a9d9-6d89da600887"
      },
      "relationship": {
        "coding": [ {
          "system": "http://terminology.hl7.org/CodeSystem/subscriber-relationship",
          "code": "self"
        } ]
      },
      "payor": [ {
        "reference": "Organization/aad0f900-93f1-47f5-a0b0-d1c68c41e6b0"
      } ]
    },
    "request": {
      "method": "PUT",
      "url": "Coverage/a56c3a63-28ae-49b2-bcce-c5c96707f490"
    }
  }, {
    "fullUrl": "https://madie.cms.gov/Organization/aad0f900-93f1-47f5-a0b0-d1c68c41e6b0",
    "resource": {
      "resourceType": "Organization",
      "id": "aad0f900-93f1-47f5-a0b0-d1c68c41e6b0",
      "meta": {
        "profile": [ "http://hl7.org/fhir/us/qicore/StructureDefinition/qicore-organization" ]
      },
      "identifier": [ {
        "use": "temp",
        "system": "urn:oid:2.16.840.1.113883.4.4",
        "value": "21-3259825"
      } ],
      "active": true,
      "type": [ {
        "coding": [ {
          "system": "http://terminology.hl7.org/CodeSystem/organization-type",
          "code": "pay",
          "display": "Payer"
        } ]
      } ],
      "name": "Blue Cross Blue Shield of Texas",
      "telecom": [ {
        "system": "phone",
        "value": "(+1) 972-766-6900"
      } ],
      "address": [ {
        "use": "billing",
        "type": "postal",
        "line": [ "P.O. Box 660044" ],
        "city": "Dallas",
        "state": "TX",
        "postalCode": "75266-0044",
        "country": "USA"
      } ]
    },
    "request": {
      "method": "PUT",
      "url": "Organization/aad0f900-93f1-47f5-a0b0-d1c68c41e6b0"
    }
  }, {
    "fullUrl": "https://madie.cms.gov/Condition/e5769c37-02fe-40aa-bebd-03755a344fd7",
    "resource": {
      "resourceType": "Condition",
      "id": "e5769c37-02fe-40aa-bebd-03755a344fd7",
      "meta": {
        "profile": [ "http://hl7.org/fhir/us/qicore/StructureDefinition/qicore-condition" ]
      },
      "category": [ {
        "coding": [ {
          "system": "http://terminology.hl7.org/CodeSystem/condition-category",
          "code": "encounter-diagnosis",
          "display": "Encounter Diagnosis"
        } ]
      } ],
      "code": {
        "coding": [ {
          "system": "http://snomed.info/sct",
          "code": "169826009",
          "display": "Single live birth (finding)"
        } ]
      },
      "subject": {
        "reference": "Patient/67037280-6411-4f2c-a9d9-6d89da600887"
      }
    },
    "request": {
      "method": "PUT",
      "url": "Condition/e5769c37-02fe-40aa-bebd-03755a344fd7"
    }
  }, {
    "fullUrl": "https://madie.cms.gov/Practitioner/362991f0-103c-45b9-aae8-4d0d348cd854",
    "resource": {
      "resourceType": "Practitioner",
      "id": "362991f0-103c-45b9-aae8-4d0d348cd854",
      "meta": {
        "profile": [ "http://hl7.org/fhir/us/qicore/StructureDefinition/qicore-practitioner" ]
      },
      "identifier": [ {
        "system": "http://hl7.org/fhir/sid/us-npi",
        "value": "1234567890"
      } ],
      "name": [ {
        "family": "Evil",
        "prefix": [ "Dr" ]
      } ]
    },
    "request": {
      "method": "PUT",
      "url": "Practitioner/362991f0-103c-45b9-aae8-4d0d348cd854"
    }
  }, {
    "fullUrl": "https://madie.cms.gov/MeasureReport/5e5aef6c-f7d8-42b0-b19f-1b1cc38ba54b",
    "resource": {
      "resourceType": "MeasureReport",
      "id": "5e5aef6c-f7d8-42b0-b19f-1b1cc38ba54b",
      "meta": {
        "profile": [ "http://hl7.org/fhir/us/cqfmeasures/StructureDefinition/test-case-cqfm" ]
      },
      "contained": [ {
        "resourceType": "Parameters",
        "id": "a07d93d9-cb02-45f9-835f-5b01a898798f-parameters",
        "parameter": [ {
          "name": "subject",
          "valueString": "67037280-6411-4f2c-a9d9-6d89da600887"
        } ]
      } ],
      "extension": [ {
        "url": "http://hl7.org/fhir/StructureDefinition/cqf-inputParameters",
        "valueReference": {
          "reference": "#a07d93d9-cb02-45f9-835f-5b01a898798f-parameters"
        }
      }, {
        "url": "http://hl7.org/fhir/us/cqfmeasures/StructureDefinition/cqfm-testCaseDescription",
        "valueMarkdown": "Passes IP,   Gravida 0 and Parity has no result \n"
      } ],
      "modifierExtension": [ {
        "url": "http://hl7.org/fhir/us/cqfmeasures/StructureDefinition/cqfm-isTestCase",
        "valueBoolean": true
      } ],
      "status": "complete",
      "type": "individual",
      "measure": "https://madie.cms.gov/Measure/CMS0334FHIRPCCesareanBirth",
      "period": {
        "start": "2026-01-01",
        "end": "2026-12-31"
      },
      "group": [ {
        "id": "Group_1",
        "population": [ {
          "id": "InitialPopulation_1",
          "code": {
            "coding": [ {
              "system": "http://terminology.hl7.org/CodeSystem/measure-population",
              "code": "initial-population",
              "display": "Initial Population"
            } ]
          },
          "count": 1
        }, {
          "id": "Denominator_1",
          "code": {
            "coding": [ {
              "system": "http://terminology.hl7.org/CodeSystem/measure-population",
              "code": "denominator",
              "display": "Denominator"
            } ]
          },
          "count": 0
        }, {
          "id": "DenominatorExclusion_1",
          "code": {
            "coding": [ {
              "system": "http://terminology.hl7.org/CodeSystem/measure-population",
              "code": "denominator-exclusion",
              "display": "Denominator Exclusion"
            } ]
          },
          "count": 0
        }, {
          "id": "Numerator_1",
          "code": {
            "coding": [ {
              "system": "http://terminology.hl7.org/CodeSystem/measure-population",
              "code": "numerator",
              "display": "Numerator"
            } ]
          },
          "count": 0
        } ],
        "measureScore": {
          "value": 0.0
        }
      } ],
      "evaluatedResource": [ {
        "reference": "Patient/67037280-6411-4f2c-a9d9-6d89da600887"
      }, {
        "reference": "Observation/6046b45a-820a-4053-b722-023490dd18f7"
      }, {
        "reference": "Observation/59b922a2-27df-4537-b05f-e41fade7aba2"
      }, {
        "reference": "Observation/22a7ee52-3c34-4246-b17c-afa336f331f1"
      }, {
        "reference": "Observation/468dd2c1-2f5b-4321-9008-6f5c82f7b990"
      }, {
        "reference": "Encounter/41ade757-ab66-42b9-b69a-133d74790662"
      }, {
        "reference": "Procedure/7953473b-a95d-4c7b-acc8-d90a0d781caa"
      }, {
        "reference": "Condition/b787aaac-a394-4536-b749-9dbb3da92403"
      }, {
        "reference": "Coverage/a56c3a63-28ae-49b2-bcce-c5c96707f490"
      }, {
        "reference": "Organization/aad0f900-93f1-47f5-a0b0-d1c68c41e6b0"
      }, {
        "reference": "Condition/e5769c37-02fe-40aa-bebd-03755a344fd7"
      }, {
        "reference": "Practitioner/362991f0-103c-45b9-aae8-4d0d348cd854"
      } ]
    },
    "request": {
      "method": "PUT",
      "url": "MeasureReport/5e5aef6c-f7d8-42b0-b19f-1b1cc38ba54b"
    }
  } ]
}