{
  "resourceType": "Bundle",
  "id": "657cbdc9b4f1f0343662347a",
  "type": "transaction",
  "entry": [ {
    "fullUrl": "https://madie.cms.gov/Patient/dbb0a2c9-509e-49e7-8f3d-822ea7f5aa65",
    "resource": {
      "resourceType": "Patient",
      "id": "dbb0a2c9-509e-49e7-8f3d-822ea7f5aa65",
      "meta": {
        "profile": [ "http://hl7.org/fhir/us/qicore/StructureDefinition/qicore-patient" ]
      },
      "extension": [ {
        "url": "http://hl7.org/fhir/us/core/StructureDefinition/us-core-race",
        "extension": [ {
          "url": "ombCategory",
          "valueCoding": {
            "system": "urn:oid:2.16.840.1.113883.6.238",
            "code": "2106-3",
            "display": "White",
            "userSelected": true
          }
        }, {
          "url": "text",
          "valueString": "White"
        } ]
      }, {
        "url": "http://hl7.org/fhir/us/core/StructureDefinition/us-core-ethnicity",
        "extension": [ {
          "url": "ombCategory",
          "valueCoding": {
            "system": "urn:oid:2.16.840.1.113883.6.238",
            "code": "2186-5",
            "display": "Not Hispanic or Latino",
            "userSelected": true
          }
        }, {
          "url": "text",
          "valueString": "Not Hispanic or Latino"
        } ]
      } ],
      "identifier": [ {
        "type": {
          "coding": [ {
            "system": "http://terminology.hl7.org/CodeSystem/v2-0203",
            "code": "MR"
          } ]
        },
        "system": "https://bonnie-fhir.healthit.gov/",
        "value": "657cbdc9b4f1f0343662347a"
      } ],
      "name": [ {
        "family": "MinimalPatientPass",
        "given": [ "MinimalPatient" ]
      } ],
      "gender": "female",
      "birthDate": "2008-01-01"
    },
    "request": {
      "method": "PUT",
      "url": "Patient/dbb0a2c9-509e-49e7-8f3d-822ea7f5aa65"
    }
  }, {
    "fullUrl": "https://madie.cms.gov/Encounter/94427f42-1428-4286-859b-28819ddb9f85",
    "resource": {
      "resourceType": "Encounter",
      "id": "94427f42-1428-4286-859b-28819ddb9f85",
      "meta": {
        "profile": [ "http://hl7.org/fhir/us/qicore/StructureDefinition/qicore-encounter" ]
      },
      "status": "finished",
      "class": {
        "system": "http://terminology.hl7.org/CodeSystem/v3-ActCode",
        "code": "ACUTE",
        "display": "inpatient acute"
      },
      "type": [ {
        "coding": [ {
          "system": "http://snomed.info/sct",
          "version": "2024",
          "code": "32485007",
          "display": "Hospital admission (procedure)",
          "userSelected": true
        } ]
      } ],
      "subject": {
        "reference": "Patient/dbb0a2c9-509e-49e7-8f3d-822ea7f5aa65"
      },
      "period": {
        "start": "2026-01-01T08:00:00.000+00:00",
        "end": "2026-01-02T09:15:00.000+00:00"
      }
    },
    "request": {
      "method": "PUT",
      "url": "Encounter/94427f42-1428-4286-859b-28819ddb9f85"
    }
  }, {
    "fullUrl": "https://madie.cms.gov/Location/d9fe4846-23d0-4a34-bab0-044ceffed166",
    "resource": {
      "resourceType": "Location",
      "id": "d9fe4846-23d0-4a34-bab0-044ceffed166",
      "meta": {
        "profile": [ "http://hl7.org/fhir/us/qicore/StructureDefinition/qicore-location" ]
      },
      "identifier": [ {
        "use": "usual",
        "system": "http://exampleoflocation.com",
        "value": "B1-S.F2"
      } ],
      "name": "Medical Surgical East, first floor",
      "type": [ {
        "coding": [ {
          "system": "https://www.cdc.gov/nhsn/cdaportal/terminology/codesystem/hsloc.html",
          "code": "1028-0",
          "display": "Medical Cardiac Critical Care",
          "userSelected": true
        } ]
      } ]
    },
    "request": {
      "method": "PUT",
      "url": "Location/d9fe4846-23d0-4a34-bab0-044ceffed166"
    }
  }, {
    "fullUrl": "https://madie.cms.gov/MedicationRequest/2f8f53d4-8209-4a00-987e-0aadfbee68db",
    "resource": {
      "resourceType": "MedicationRequest",
      "id": "2f8f53d4-8209-4a00-987e-0aadfbee68db",
      "meta": {
        "profile": [ "http://hl7.org/fhir/us/qicore/StructureDefinition/qicore-medicationrequest" ]
      },
      "status": "completed",
      "intent": "order",
      "medicationCodeableConcept": {
        "coding": [ {
          "system": "http://www.nlm.nih.gov/research/umls/rxnorm",
          "version": "06052023",
          "code": "1007184"
        } ]
      },
      "subject": {
        "reference": "Patient/dbb0a2c9-509e-49e7-8f3d-822ea7f5aa65"
      },
      "authoredOn": "2026-01-01T08:15:00.000+00:00",
      "requester": {
        "reference": "Practitioner/33d87640-6b2a-40b0-ab11-542478a88d5a"
      },
      "dosageInstruction": [ {
        "timing": {
          "repeat": {
            "boundsPeriod": {
              "start": "2025-01-01T08:15:00.000+00:00"
            }
          }
        }
      } ]
    },
    "request": {
      "method": "PUT",
      "url": "MedicationRequest/2f8f53d4-8209-4a00-987e-0aadfbee68db"
    }
  }, {
    "fullUrl": "https://madie.cms.gov/Coverage/ee45fcd7-431d-4d6a-8e75-447145e42e2b",
    "resource": {
      "resourceType": "Coverage",
      "id": "ee45fcd7-431d-4d6a-8e75-447145e42e2b",
      "meta": {
        "profile": [ "http://hl7.org/fhir/us/qicore/StructureDefinition/qicore-coverage" ]
      },
      "identifier": [ {
        "system": "http://benefitsinc.com/certificate",
        "value": "12345"
      } ],
      "status": "active",
      "type": {
        "coding": [ {
          "system": "https://nahdo.org/sopt",
          "version": "1.0.1",
          "code": "1",
          "display": "MEDICARE",
          "userSelected": true
        } ]
      },
      "subscriberId": "AB9876",
      "beneficiary": {
        "reference": "Patient/dbb0a2c9-509e-49e7-8f3d-822ea7f5aa65"
      },
      "relationship": {
        "coding": [ {
          "system": "http://terminology.hl7.org/CodeSystem/subscriber-relationship",
          "code": "self"
        } ]
      },
      "period": {
        "start": "2026-01-01T00:00:00.000+00:00",
        "end": "2027-03-26T08:15:00.000+00:00"
      },
      "payor": [ {
        "reference": "Organization/8b1bc41b-3b25-4e1f-8eeb-63aff3c4f786"
      } ]
    },
    "request": {
      "method": "PUT",
      "url": "Coverage/ee45fcd7-431d-4d6a-8e75-447145e42e2b"
    }
  }, {
    "fullUrl": "https://madie.cms.gov/Organization/8b1bc41b-3b25-4e1f-8eeb-63aff3c4f786",
    "resource": {
      "resourceType": "Organization",
      "id": "8b1bc41b-3b25-4e1f-8eeb-63aff3c4f786",
      "meta": {
        "profile": [ "http://hl7.org/fhir/us/qicore/StructureDefinition/qicore-organization" ]
      },
      "identifier": [ {
        "use": "temp",
        "system": "urn:oid:2.16.840.1.113883.4.4",
        "value": "21-3259825"
      } ],
      "active": true,
      "type": [ {
        "coding": [ {
          "system": "http://terminology.hl7.org/CodeSystem/organization-type",
          "code": "pay",
          "display": "Payer"
        } ]
      } ],
      "name": "Blue Cross Blue Shield of Texas",
      "telecom": [ {
        "system": "phone",
        "value": "(+1) 972-766-6900"
      } ],
      "address": [ {
        "use": "billing",
        "type": "postal",
        "line": [ "P.O. Box 660044" ],
        "city": "Dallas",
        "state": "TX",
        "postalCode": "75266-0044",
        "country": "USA"
      } ]
    },
    "request": {
      "method": "PUT",
      "url": "Organization/8b1bc41b-3b25-4e1f-8eeb-63aff3c4f786"
    }
  }, {
    "fullUrl": "https://madie.cms.gov/Practitioner/6338074a-a7c6-481a-97f3-8cd4b36458de",
    "resource": {
      "resourceType": "Practitioner",
      "id": "6338074a-a7c6-481a-97f3-8cd4b36458de",
      "meta": {
        "profile": [ "http://hl7.org/fhir/us/qicore/StructureDefinition/qicore-practitioner" ]
      },
      "identifier": [ {
        "system": "http://hl7.org/fhir/sid/us-npi",
        "value": "0723660813"
      } ],
      "name": [ {
        "family": "Evil",
        "prefix": [ "Dr" ]
      } ]
    },
    "request": {
      "method": "PUT",
      "url": "Practitioner/6338074a-a7c6-481a-97f3-8cd4b36458de"
    }
  }, {
    "fullUrl": "https://madie.cms.gov/MeasureReport/5ddf7a5b-bb58-4449-9c43-3f7dd319a84d",
    "resource": {
      "resourceType": "MeasureReport",
      "id": "5ddf7a5b-bb58-4449-9c43-3f7dd319a84d",
      "meta": {
        "profile": [ "http://hl7.org/fhir/us/cqfmeasures/StructureDefinition/test-case-cqfm" ]
      },
      "contained": [ {
        "resourceType": "Parameters",
        "id": "53d8687a-951b-4dba-a30b-233c3c0b3066-parameters",
        "parameter": [ {
          "name": "subject",
          "valueString": "dbb0a2c9-509e-49e7-8f3d-822ea7f5aa65"
        } ]
      } ],
      "extension": [ {
        "url": "http://hl7.org/fhir/StructureDefinition/cqf-inputParameters",
        "valueReference": {
          "reference": "#53d8687a-951b-4dba-a30b-233c3c0b3066-parameters"
        }
      }, {
        "url": "http://hl7.org/fhir/us/cqfmeasures/StructureDefinition/cqfm-testCaseDescription",
        "valueMarkdown": "Inpatient encounter with diabetic medication during MP with SDE minimal patient"
      } ],
      "modifierExtension": [ {
        "url": "http://hl7.org/fhir/us/cqfmeasures/StructureDefinition/cqfm-isTestCase",
        "valueBoolean": true
      } ],
      "status": "complete",
      "type": "individual",
      "measure": "https://madie.cms.gov/Measure/NHSNGlycemicControlHypoglycemiaInitialPopulation",
      "period": {
        "start": "2026-01-01",
        "end": "2026-12-31"
      },
      "group": [ {
        "id": "Group_1",
        "population": [ {
          "id": "InitialPopulation_1",
          "code": {
            "coding": [ {
              "system": "http://terminology.hl7.org/CodeSystem/measure-population",
              "code": "initial-population",
              "display": "Initial Population"
            } ]
          },
          "count": 1
        } ],
        "measureScore": {
          "value": 0.0
        }
      } ],
      "evaluatedResource": [ {
        "reference": "Patient/dbb0a2c9-509e-49e7-8f3d-822ea7f5aa65"
      }, {
        "reference": "Encounter/94427f42-1428-4286-859b-28819ddb9f85"
      }, {
        "reference": "Location/d9fe4846-23d0-4a34-bab0-044ceffed166"
      }, {
        "reference": "MedicationRequest/2f8f53d4-8209-4a00-987e-0aadfbee68db"
      }, {
        "reference": "Coverage/ee45fcd7-431d-4d6a-8e75-447145e42e2b"
      }, {
        "reference": "Organization/8b1bc41b-3b25-4e1f-8eeb-63aff3c4f786"
      }, {
        "reference": "Practitioner/6338074a-a7c6-481a-97f3-8cd4b36458de"
      } ]
    },
    "request": {
      "method": "PUT",
      "url": "MeasureReport/5ddf7a5b-bb58-4449-9c43-3f7dd319a84d"
    }
  } ]
}