{
  "resourceType": "Bundle",
  "id": "612e6ae502c62a011f2eba79",
  "type": "transaction",
  "entry": [ {
    "fullUrl": "https://madie.cms.gov/Patient/0ddb05b5-03af-4d2a-9d9c-0be8034d1ff4",
    "resource": {
      "resourceType": "Patient",
      "id": "0ddb05b5-03af-4d2a-9d9c-0be8034d1ff4",
      "meta": {
        "profile": [ "http://hl7.org/fhir/us/qicore/StructureDefinition/qicore-patient" ]
      },
      "text": {
        "status": "generated",
        "div": "<div xmlns=\"http://www.w3.org/1999/xhtml\"><div class=\"hapiHeaderText\">CMPerf_DuringObs_ObsLT1HrBFAdm <b>DENEXPASS </b></div><table class=\"hapiPropertyTable\"><tbody><tr><td>Identifier</td><td>32a3c1b5766063c719384b1023bfc3dfc1d8c92f7b9304cae9d3eaf406b0a696</td></tr><tr><td>Date of birth</td><td><span>02 January 1974</span></td></tr></tbody></table></div>"
      },
      "extension": [ {
        "url": "http://hl7.org/fhir/us/core/StructureDefinition/us-core-race",
        "extension": [ {
          "url": "ombCategory",
          "valueCoding": {
            "system": "urn:oid:2.16.840.1.113883.6.238",
            "code": "1002-5",
            "display": "American Indian or Alaska Native",
            "userSelected": true
          }
        }, {
          "url": "text",
          "valueString": "American Indian or Alaska Native"
        } ]
      }, {
        "url": "http://hl7.org/fhir/us/core/StructureDefinition/us-core-ethnicity",
        "extension": [ {
          "url": "ombCategory",
          "valueCoding": {
            "system": "urn:oid:2.16.840.1.113883.6.238",
            "code": "2135-2",
            "display": "Hispanic or Latino",
            "userSelected": true
          }
        }, {
          "url": "text",
          "valueString": "Hispanic or Latino"
        } ]
      } ],
      "identifier": [ {
        "type": {
          "coding": [ {
            "system": "http://terminology.hl7.org/CodeSystem/v2-0203",
            "code": "MR"
          } ]
        },
        "system": "https://bonnie-fhir.healthit.gov/",
        "value": "612e6ae502c62a011f2eba79"
      } ],
      "active": true,
      "name": [ {
        "use": "usual",
        "family": "DENEXPass",
        "given": [ "CMPerfDuringObsObsLT1HrBFAdm" ]
      } ],
      "gender": "male",
      "birthDate": "1975-01-02"
    },
    "request": {
      "method": "PUT",
      "url": "Patient/0ddb05b5-03af-4d2a-9d9c-0be8034d1ff4"
    }
  }, {
    "fullUrl": "https://madie.cms.gov/Encounter/05f03979-2e21-419a-b1c3-bbbc950f1fb8",
    "resource": {
      "resourceType": "Encounter",
      "id": "05f03979-2e21-419a-b1c3-bbbc950f1fb8",
      "meta": {
        "profile": [ "http://hl7.org/fhir/us/qicore/StructureDefinition/qicore-encounter" ]
      },
      "status": "finished",
      "class": {
        "system": "http://terminology.hl7.org/CodeSystem/v3-ActCode",
        "code": "EMER",
        "display": "emergency"
      },
      "type": [ {
        "coding": [ {
          "system": "http://snomed.info/sct",
          "code": "4525004"
        } ]
      } ],
      "subject": {
        "reference": "Patient/0ddb05b5-03af-4d2a-9d9c-0be8034d1ff4"
      },
      "period": {
        "start": "2026-10-31T04:00:00.000+00:00",
        "end": "2026-11-01T05:15:00.000+00:00"
      },
      "length": {
        "value": 1,
        "unit": "days"
      }
    },
    "request": {
      "method": "PUT",
      "url": "Encounter/05f03979-2e21-419a-b1c3-bbbc950f1fb8"
    }
  }, {
    "fullUrl": "https://madie.cms.gov/Encounter/e7044ba8-c26e-406e-8f9b-975b282cafe4",
    "resource": {
      "resourceType": "Encounter",
      "id": "e7044ba8-c26e-406e-8f9b-975b282cafe4",
      "meta": {
        "profile": [ "http://hl7.org/fhir/us/qicore/StructureDefinition/qicore-encounter" ]
      },
      "status": "finished",
      "class": {
        "system": "http://terminology.hl7.org/CodeSystem/v3-ActCode",
        "code": "IMP",
        "display": "inpatient encounter"
      },
      "type": [ {
        "coding": [ {
          "system": "http://snomed.info/sct",
          "code": "8715000"
        } ]
      } ],
      "subject": {
        "reference": "Patient/0ddb05b5-03af-4d2a-9d9c-0be8034d1ff4"
      },
      "period": {
        "start": "2026-11-01T08:00:00.000+00:00",
        "end": "2026-11-26T08:15:00.000+00:00"
      },
      "length": {
        "value": 25,
        "unit": "days"
      }
    },
    "request": {
      "method": "PUT",
      "url": "Encounter/e7044ba8-c26e-406e-8f9b-975b282cafe4"
    }
  }, {
    "fullUrl": "https://madie.cms.gov/Encounter/b3669c3e-4c93-410b-b644-d70ede45362f",
    "resource": {
      "resourceType": "Encounter",
      "id": "b3669c3e-4c93-410b-b644-d70ede45362f",
      "meta": {
        "profile": [ "http://hl7.org/fhir/us/qicore/StructureDefinition/qicore-encounter" ]
      },
      "status": "finished",
      "class": {
        "system": "http://terminology.hl7.org/CodeSystem/v3-ActCode",
        "code": "OBSENC",
        "display": "observation encounter"
      },
      "type": [ {
        "coding": [ {
          "system": "http://snomed.info/sct",
          "code": "448951000124107"
        } ]
      } ],
      "subject": {
        "reference": "Patient/0ddb05b5-03af-4d2a-9d9c-0be8034d1ff4"
      },
      "period": {
        "start": "2026-11-01T05:20:00.000+00:00",
        "end": "2026-11-01T07:30:00.000+00:00"
      }
    },
    "request": {
      "method": "PUT",
      "url": "Encounter/b3669c3e-4c93-410b-b644-d70ede45362f"
    }
  }, {
    "fullUrl": "https://madie.cms.gov/Procedure/956618ea-01ae-40e5-b572-a665e658452a",
    "resource": {
      "resourceType": "Procedure",
      "id": "956618ea-01ae-40e5-b572-a665e658452a",
      "meta": {
        "profile": [ "http://hl7.org/fhir/us/qicore/StructureDefinition/qicore-procedure" ]
      },
      "extension": [ {
        "url": "http://hl7.org/fhir/us/qicore/StructureDefinition/qicore-recorded",
        "valueDateTime": "2013-11-01T13:35:00.000+00:00"
      } ],
      "status": "completed",
      "code": {
        "coding": [ {
          "system": "http://snomed.info/sct",
          "code": "133918004"
        } ]
      },
      "subject": {
        "reference": "Patient/0ddb05b5-03af-4d2a-9d9c-0be8034d1ff4"
      },
      "performedPeriod": {
        "start": "2026-10-31T07:00:00.000+00:00"
      }
    },
    "request": {
      "method": "PUT",
      "url": "Procedure/956618ea-01ae-40e5-b572-a665e658452a"
    }
  }, {
    "fullUrl": "https://madie.cms.gov/Coverage/97bbb5d1-ed29-4710-a903-b3f9934d0343",
    "resource": {
      "resourceType": "Coverage",
      "id": "97bbb5d1-ed29-4710-a903-b3f9934d0343",
      "status": "active",
      "beneficiary": {
        "reference": "Patient/0ddb05b5-03af-4d2a-9d9c-0be8034d1ff4"
      },
      "period": {
        "start": "1975-01-02T08:00:00.000+00:00"
      },
      "payor": [ {
        "reference": "Organization/eec88309-a388-4e48-b015-42edf43ea6ed"
      } ]
    },
    "request": {
      "method": "PUT",
      "url": "Coverage/97bbb5d1-ed29-4710-a903-b3f9934d0343"
    }
  }, {
    "fullUrl": "https://madie.cms.gov/Organization/eec88309-a388-4e48-b015-42edf43ea6ed",
    "resource": {
      "resourceType": "Organization",
      "id": "eec88309-a388-4e48-b015-42edf43ea6ed",
      "meta": {
        "profile": [ "http://hl7.org/fhir/us/qicore/StructureDefinition/qicore-organization" ]
      },
      "identifier": [ {
        "use": "temp",
        "system": "urn:oid:2.16.840.1.113883.4.4",
        "value": "21-3259825"
      } ],
      "active": true,
      "type": [ {
        "coding": [ {
          "system": "http://terminology.hl7.org/CodeSystem/organization-type",
          "code": "pay",
          "display": "Payer"
        } ]
      } ],
      "name": "Blue Cross Blue Shield of Texas",
      "telecom": [ {
        "system": "phone",
        "value": "(+1) 972-766-6900"
      } ],
      "address": [ {
        "use": "billing",
        "type": "postal",
        "line": [ "P.O. Box 660044" ],
        "city": "Dallas",
        "state": "TX",
        "postalCode": "75266-0044",
        "country": "USA"
      } ]
    },
    "request": {
      "method": "PUT",
      "url": "Organization/eec88309-a388-4e48-b015-42edf43ea6ed"
    }
  }, {
    "fullUrl": "https://madie.cms.gov/Practitioner/d6ac8f38-ba04-4efa-8fc6-41e4805875f9",
    "resource": {
      "resourceType": "Practitioner",
      "id": "d6ac8f38-ba04-4efa-8fc6-41e4805875f9",
      "identifier": [ {
        "system": "http://hl7.org/fhir/sid/us-npi",
        "value": "123456"
      } ],
      "name": [ {
        "family": "Evil",
        "prefix": [ "Dr" ]
      } ]
    },
    "request": {
      "method": "PUT",
      "url": "Practitioner/d6ac8f38-ba04-4efa-8fc6-41e4805875f9"
    }
  }, {
    "fullUrl": "https://madie.cms.gov/MeasureReport/59e647d0-070e-48c4-a012-0aa62bae0968",
    "resource": {
      "resourceType": "MeasureReport",
      "id": "59e647d0-070e-48c4-a012-0aa62bae0968",
      "meta": {
        "profile": [ "http://hl7.org/fhir/us/cqfmeasures/StructureDefinition/test-case-cqfm" ]
      },
      "contained": [ {
        "resourceType": "Parameters",
        "id": "9d95b72c-1b18-40c7-af47-b389a2e76747-parameters",
        "parameter": [ {
          "name": "subject",
          "valueString": "0ddb05b5-03af-4d2a-9d9c-0be8034d1ff4"
        } ]
      } ],
      "extension": [ {
        "url": "http://hl7.org/fhir/StructureDefinition/cqf-inputParameters",
        "valueReference": {
          "reference": "#9d95b72c-1b18-40c7-af47-b389a2e76747-parameters"
        }
      }, {
        "url": "http://hl7.org/fhir/us/cqfmeasures/StructureDefinition/cqfm-testCaseDescription",
        "valueMarkdown": "comfort measures performed in Observation, and Obs < 1hr prior to Adm \n"
      } ],
      "modifierExtension": [ {
        "url": "http://hl7.org/fhir/us/cqfmeasures/StructureDefinition/cqfm-isTestCase",
        "valueBoolean": true
      } ],
      "status": "complete",
      "type": "individual",
      "measure": "https://madie.cms.gov/Measure/CMS108FHIRVTEProphylaxis",
      "period": {
        "start": "2026-01-01",
        "end": "2026-12-31"
      },
      "group": [ {
        "id": "Group_1",
        "population": [ {
          "id": "InitialPopulation_1",
          "code": {
            "coding": [ {
              "system": "http://terminology.hl7.org/CodeSystem/measure-population",
              "code": "initial-population",
              "display": "Initial Population"
            } ]
          },
          "count": 1
        }, {
          "id": "Denominator_1",
          "code": {
            "coding": [ {
              "system": "http://terminology.hl7.org/CodeSystem/measure-population",
              "code": "denominator",
              "display": "Denominator"
            } ]
          },
          "count": 1
        }, {
          "id": "DenominatorExclusion_1",
          "code": {
            "coding": [ {
              "system": "http://terminology.hl7.org/CodeSystem/measure-population",
              "code": "denominator-exclusion",
              "display": "Denominator Exclusion"
            } ]
          },
          "count": 1
        }, {
          "id": "Numerator_1",
          "code": {
            "coding": [ {
              "system": "http://terminology.hl7.org/CodeSystem/measure-population",
              "code": "numerator",
              "display": "Numerator"
            } ]
          },
          "count": 0
        } ],
        "measureScore": {
          "value": 0.0
        }
      } ],
      "evaluatedResource": [ {
        "reference": "Patient/0ddb05b5-03af-4d2a-9d9c-0be8034d1ff4"
      }, {
        "reference": "Encounter/05f03979-2e21-419a-b1c3-bbbc950f1fb8"
      }, {
        "reference": "Encounter/e7044ba8-c26e-406e-8f9b-975b282cafe4"
      }, {
        "reference": "Encounter/b3669c3e-4c93-410b-b644-d70ede45362f"
      }, {
        "reference": "Procedure/956618ea-01ae-40e5-b572-a665e658452a"
      }, {
        "reference": "Coverage/97bbb5d1-ed29-4710-a903-b3f9934d0343"
      }, {
        "reference": "Organization/eec88309-a388-4e48-b015-42edf43ea6ed"
      }, {
        "reference": "Practitioner/d6ac8f38-ba04-4efa-8fc6-41e4805875f9"
      } ]
    },
    "request": {
      "method": "PUT",
      "url": "MeasureReport/59e647d0-070e-48c4-a012-0aa62bae0968"
    }
  } ]
}