{
  "resourceType": "Bundle",
  "id": "tests-NUMERPass-1Enc2ResultsLT40UsedRelevantPeriod-bundle",
  "type": "transaction",
  "entry": [ {
    "fullUrl": "https://madie.cms.gov/Encounter/f95c8e3e-eb39-4e65-b20f-f6b45d388c94",
    "resource": {
      "resourceType": "Encounter",
      "id": "f95c8e3e-eb39-4e65-b20f-f6b45d388c94",
      "meta": {
        "profile": [ "http://hl7.org/fhir/us/qicore/StructureDefinition/qicore-encounter" ]
      },
      "status": "finished",
      "class": {
        "system": "http://terminology.hl7.org/CodeSystem/v3-ActCode",
        "code": "IMP",
        "display": "Inpatient encounter"
      },
      "type": [ {
        "coding": [ {
          "system": "http://snomed.info/sct",
          "code": "183452005",
          "display": "Emergency hospital admission (procedure)"
        } ]
      } ],
      "subject": {
        "reference": "Patient/deeb9e7e-4c29-45e6-a27e-1fc4f987f59f"
      },
      "period": {
        "start": "2026-01-03T08:00:00.000Z",
        "end": "2026-01-06T08:15:00.000Z"
      }
    },
    "request": {
      "method": "PUT",
      "url": "Encounter/f95c8e3e-eb39-4e65-b20f-f6b45d388c94"
    }
  }, {
    "fullUrl": "https://madie.cms.gov/MedicationAdministration/9ae8627e-24df-4935-86db-c1c565c404e9",
    "resource": {
      "resourceType": "MedicationAdministration",
      "id": "9ae8627e-24df-4935-86db-c1c565c404e9",
      "meta": {
        "profile": [ "http://hl7.org/fhir/us/qicore/StructureDefinition/qicore-medicationadministration" ]
      },
      "status": "completed",
      "medicationCodeableConcept": {
        "coding": [ {
          "system": "http://www.nlm.nih.gov/research/umls/rxnorm",
          "code": "1652239",
          "display": "3 ML insulin lispro 200 UNT/ML Pen Injector"
        } ]
      },
      "subject": {
        "reference": "Patient/deeb9e7e-4c29-45e6-a27e-1fc4f987f59f"
      },
      "effectivePeriod": {
        "start": "2026-01-04T08:00:00.000Z",
        "end": "2026-01-04T08:15:00.000Z"
      }
    },
    "request": {
      "method": "PUT",
      "url": "MedicationAdministration/9ae8627e-24df-4935-86db-c1c565c404e9"
    }
  }, {
    "fullUrl": "https://madie.cms.gov/Observation/e02daaea-ca35-45a2-82a8-228ca600739a",
    "resource": {
      "resourceType": "Observation",
      "id": "e02daaea-ca35-45a2-82a8-228ca600739a",
      "meta": {
        "profile": [ "http://hl7.org/fhir/us/qicore/StructureDefinition/qicore-observation-lab" ]
      },
      "status": "final",
      "category": [ {
        "coding": [ {
          "system": "http://terminology.hl7.org/CodeSystem/observation-category",
          "code": "laboratory",
          "display": "Laboratory"
        } ],
        "text": "Laboratory"
      } ],
      "code": {
        "coding": [ {
          "system": "http://loinc.org",
          "code": "1556-0",
          "display": "Fasting glucose [Mass/volume] in Capillary blood"
        } ]
      },
      "subject": {
        "reference": "Patient/deeb9e7e-4c29-45e6-a27e-1fc4f987f59f"
      },
      "effectivePeriod": {
        "start": "2026-01-04T10:06:00.000Z",
        "end": "2026-01-04T10:07:00.000Z"
      },
      "issued": "2026-01-04T10:06:00.000Z",
      "valueQuantity": {
        "value": 90,
        "unit": "mg/dL"
      }
    },
    "request": {
      "method": "PUT",
      "url": "Observation/e02daaea-ca35-45a2-82a8-228ca600739a"
    }
  }, {
    "fullUrl": "https://madie.cms.gov/Observation/00d4ccde-7f80-4344-b79d-157cdb242431",
    "resource": {
      "resourceType": "Observation",
      "id": "00d4ccde-7f80-4344-b79d-157cdb242431",
      "meta": {
        "profile": [ "http://hl7.org/fhir/us/qicore/StructureDefinition/qicore-observation-lab" ]
      },
      "status": "final",
      "category": [ {
        "coding": [ {
          "system": "http://terminology.hl7.org/CodeSystem/observation-category",
          "code": "laboratory",
          "display": "Laboratory"
        } ],
        "text": "Laboratory"
      } ],
      "code": {
        "coding": [ {
          "system": "http://loinc.org",
          "code": "1556-0",
          "display": "Fasting glucose [Mass/volume] in Capillary blood"
        } ]
      },
      "subject": {
        "reference": "Patient/deeb9e7e-4c29-45e6-a27e-1fc4f987f59f"
      },
      "effectivePeriod": {
        "start": "2026-01-04T11:45:00.000Z",
        "end": "2026-01-04T11:45:00.000Z"
      },
      "issued": "2026-01-04T11:45:00.000Z",
      "valueQuantity": {
        "value": 30,
        "unit": "mg/dL"
      }
    },
    "request": {
      "method": "PUT",
      "url": "Observation/00d4ccde-7f80-4344-b79d-157cdb242431"
    }
  }, {
    "fullUrl": "https://madie.cms.gov/Observation/efb5547e-6586-4abe-a0d3-d33af9118953",
    "resource": {
      "resourceType": "Observation",
      "id": "efb5547e-6586-4abe-a0d3-d33af9118953",
      "meta": {
        "profile": [ "http://hl7.org/fhir/us/qicore/StructureDefinition/qicore-observation-lab" ]
      },
      "status": "final",
      "category": [ {
        "coding": [ {
          "system": "http://terminology.hl7.org/CodeSystem/observation-category",
          "code": "laboratory",
          "display": "Laboratory"
        } ],
        "text": "Laboratory"
      } ],
      "code": {
        "coding": [ {
          "system": "http://loinc.org",
          "code": "1556-0",
          "display": "Fasting glucose [Mass/volume] in Capillary blood"
        } ]
      },
      "subject": {
        "reference": "Patient/deeb9e7e-4c29-45e6-a27e-1fc4f987f59f"
      },
      "effectivePeriod": {
        "start": "2026-01-04T10:00:00.000Z",
        "end": "2026-01-04T10:00:00.000Z"
      },
      "issued": "2026-01-04T10:00:00.000Z",
      "valueQuantity": {
        "value": 39,
        "unit": "mg/dL"
      }
    },
    "request": {
      "method": "PUT",
      "url": "Observation/efb5547e-6586-4abe-a0d3-d33af9118953"
    }
  }, {
    "fullUrl": "https://madie.cms.gov/Patient/deeb9e7e-4c29-45e6-a27e-1fc4f987f59f",
    "resource": {
      "resourceType": "Patient",
      "id": "deeb9e7e-4c29-45e6-a27e-1fc4f987f59f",
      "meta": {
        "profile": [ "http://hl7.org/fhir/us/qicore/StructureDefinition/qicore-patient" ]
      },
      "extension": [ {
        "url": "http://hl7.org/fhir/us/core/StructureDefinition/us-core-race",
        "extension": [ {
          "url": "ombCategory",
          "valueCoding": {
            "system": "urn:oid:2.16.840.1.113883.6.238",
            "code": "2106-3",
            "display": "White"
          }
        }, {
          "url": "text",
          "valueString": "White"
        } ]
      }, {
        "url": "http://hl7.org/fhir/us/core/StructureDefinition/us-core-ethnicity",
        "extension": [ {
          "url": "ombCategory",
          "valueCoding": {
            "system": "urn:oid:2.16.840.1.113883.6.238",
            "code": "2135-2",
            "display": "Hispanic or Latino"
          }
        }, {
          "url": "text",
          "valueString": "Hispanic or Latino"
        } ]
      }, {
        "url": "http://hl7.org/fhir/us/core/StructureDefinition/us-core-sex",
        "valueCode": "248153007"
      } ],
      "identifier": [ {
        "system": "http://hospital.smarthealthit.org",
        "value": "999999999"
      } ],
      "name": [ {
        "family": "CMSNUMERPass",
        "given": [ "1Enc2ResultsLT40" ]
      } ],
      "gender": "female",
      "birthDate": "2000-02-03"
    },
    "request": {
      "method": "PUT",
      "url": "Patient/deeb9e7e-4c29-45e6-a27e-1fc4f987f59f"
    }
  }, {
    "fullUrl": "https://madie.cms.gov/MeasureReport/b1c94333-dde5-43a9-90ce-1bd75bf1b358",
    "resource": {
      "resourceType": "MeasureReport",
      "id": "b1c94333-dde5-43a9-90ce-1bd75bf1b358",
      "meta": {
        "profile": [ "http://hl7.org/fhir/us/cqfmeasures/StructureDefinition/test-case-cqfm" ]
      },
      "contained": [ {
        "resourceType": "Parameters",
        "id": "6a9103ea-eb7e-48fd-be2c-810d905438cf-parameters",
        "parameter": [ {
          "name": "subject",
          "valueString": "deeb9e7e-4c29-45e6-a27e-1fc4f987f59f"
        } ]
      } ],
      "extension": [ {
        "url": "http://hl7.org/fhir/StructureDefinition/cqf-inputParameters",
        "valueReference": {
          "reference": "#6a9103ea-eb7e-48fd-be2c-810d905438cf-parameters"
        }
      }, {
        "url": "http://hl7.org/fhir/us/cqfmeasures/StructureDefinition/cqfm-testCaseDescription",
        "valueMarkdown": "Encounter with meds and 3 glucose labs. Two are <40, one is >80 but is not within 5 minutes of other labs. Meets num. = 1 harm. Used start of relevant period for lab test timings\n\n(CMS #22)"
      } ],
      "modifierExtension": [ {
        "url": "http://hl7.org/fhir/us/cqfmeasures/StructureDefinition/cqfm-isTestCase",
        "valueBoolean": true
      } ],
      "status": "complete",
      "type": "individual",
      "measure": "https://madie.cms.gov/Measure/NHSNGlycemicControlHypoglycemiaInitialPopulation",
      "period": {
        "start": "2026-01-01",
        "end": "2026-12-31"
      },
      "group": [ {
        "id": "Group_1",
        "population": [ {
          "id": "InitialPopulation_1",
          "code": {
            "coding": [ {
              "system": "http://terminology.hl7.org/CodeSystem/measure-population",
              "code": "initial-population",
              "display": "Initial Population"
            } ]
          },
          "count": 1
        } ],
        "measureScore": {
          "value": 0.0
        }
      } ],
      "evaluatedResource": [ {
        "reference": "Encounter/f95c8e3e-eb39-4e65-b20f-f6b45d388c94"
      }, {
        "reference": "MedicationAdministration/9ae8627e-24df-4935-86db-c1c565c404e9"
      }, {
        "reference": "Observation/e02daaea-ca35-45a2-82a8-228ca600739a"
      }, {
        "reference": "Observation/00d4ccde-7f80-4344-b79d-157cdb242431"
      }, {
        "reference": "Observation/efb5547e-6586-4abe-a0d3-d33af9118953"
      }, {
        "reference": "Patient/deeb9e7e-4c29-45e6-a27e-1fc4f987f59f"
      } ]
    },
    "request": {
      "method": "PUT",
      "url": "MeasureReport/b1c94333-dde5-43a9-90ce-1bd75bf1b358"
    }
  } ]
}