{
  "resourceType": "Bundle",
  "id": "c5b2c76c-cc6a-11ed-894b-325096b39f47",
  "type": "collection",
  "entry": [ {
    "fullUrl": "https://madie.cms.gov/Patient/623a7f40-c265-4e42-a5c5-6f54e20b19df",
    "resource": {
      "resourceType": "Patient",
      "id": "623a7f40-c265-4e42-a5c5-6f54e20b19df",
      "meta": {
        "profile": [ "http://hl7.org/fhir/us/qicore/StructureDefinition/qicore-patient" ]
      },
      "extension": [ {
        "url": "http://hl7.org/fhir/us/core/StructureDefinition/us-core-race",
        "extension": [ {
          "url": "ombCategory",
          "valueCoding": {
            "system": "urn:oid:2.16.840.1.113883.6.238",
            "code": "2054-5",
            "display": "Black or African American"
          }
        }, {
          "url": "text",
          "valueString": "Black or African American"
        } ]
      }, {
        "url": "http://hl7.org/fhir/us/core/StructureDefinition/us-core-ethnicity",
        "extension": [ {
          "url": "ombCategory",
          "valueCoding": {
            "system": "urn:oid:2.16.840.1.113883.6.238",
            "code": "2135-2",
            "display": "Hispanic or Latino",
            "userSelected": true
          }
        }, {
          "url": "text",
          "valueString": "Hispanic or Latino"
        } ]
      }, {
        "url": "http://hl7.org/fhir/us/core/StructureDefinition/us-core-sex",
        "valueCode": "248153007"
      } ],
      "identifier": [ {
        "type": {
          "coding": [ {
            "system": "http://terminology.hl7.org/CodeSystem/v2-0203",
            "code": "MR"
          } ]
        },
        "system": "https://GoodHealthCare.com",
        "value": "960082319426"
      } ],
      "name": [ {
        "family": "DENEXFail",
        "given": [ "UrinaryRetentionDxUnconfirmed" ]
      } ],
      "gender": "male",
      "birthDate": "1970-01-01"
    }
  }, {
    "fullUrl": "https://madie.cms.gov/Encounter/57292828-8491-4527-af24-603ad03f7a75",
    "resource": {
      "resourceType": "Encounter",
      "id": "57292828-8491-4527-af24-603ad03f7a75",
      "meta": {
        "profile": [ "http://hl7.org/fhir/us/qicore/StructureDefinition/qicore-encounter" ]
      },
      "status": "finished",
      "class": {
        "system": "http://terminology.hl7.org/CodeSystem/v3-ActCode",
        "code": "AMB",
        "display": "ambulatory"
      },
      "type": [ {
        "coding": [ {
          "system": "http://snomed.info/sct",
          "version": "http://snomed.info/sct/731000124108/version/20240301",
          "code": "185464004",
          "display": "Out of hours visit - not night visit (procedure)",
          "userSelected": false
        } ]
      } ],
      "subject": {
        "reference": "Patient/623a7f40-c265-4e42-a5c5-6f54e20b19df"
      },
      "period": {
        "start": "2026-05-01T08:00:00.000+00:00",
        "end": "2026-05-01T08:30:00.000+00:00"
      }
    }
  }, {
    "fullUrl": "https://madie.cms.gov/Condition/7c77f29a-b4ae-4320-8559-bbdd8f900026",
    "resource": {
      "resourceType": "Condition",
      "id": "7c77f29a-b4ae-4320-8559-bbdd8f900026",
      "meta": {
        "profile": [ "http://hl7.org/fhir/us/qicore/StructureDefinition/qicore-condition-encounter-diagnosis" ]
      },
      "clinicalStatus": {
        "coding": [ {
          "system": "http://terminology.hl7.org/CodeSystem/condition-clinical",
          "code": "active",
          "display": "active",
          "userSelected": true
        } ]
      },
      "verificationStatus": {
        "coding": [ {
          "system": "http://terminology.hl7.org/CodeSystem/condition-ver-status",
          "code": "confirmed",
          "display": "Confirmed",
          "userSelected": true
        } ]
      },
      "category": [ {
        "coding": [ {
          "system": "http://terminology.hl7.org/CodeSystem/condition-category",
          "code": "encounter-diagnosis",
          "display": "Encounter Diagnosis"
        } ]
      } ],
      "code": {
        "coding": [ {
          "system": "http://hl7.org/fhir/sid/icd-10-cm",
          "version": "2024",
          "code": "N40.1",
          "display": "Benign prostatic hyperplasia with lower urinary tract symptoms",
          "userSelected": true
        } ]
      },
      "subject": {
        "reference": "Patient/623a7f40-c265-4e42-a5c5-6f54e20b19df"
      },
      "onsetPeriod": {
        "start": "2025-12-14T15:00:00.000+00:00"
      }
    }
  }, {
    "fullUrl": "https://madie.cms.gov/Condition/537994b2-d156-42a3-a605-aaa6b6872044",
    "resource": {
      "resourceType": "Condition",
      "id": "537994b2-d156-42a3-a605-aaa6b6872044",
      "meta": {
        "profile": [ "http://hl7.org/fhir/us/qicore/StructureDefinition/qicore-condition-encounter-diagnosis" ]
      },
      "clinicalStatus": {
        "coding": [ {
          "system": "http://terminology.hl7.org/CodeSystem/condition-clinical",
          "code": "active",
          "display": "active",
          "userSelected": true
        } ]
      },
      "verificationStatus": {
        "coding": [ {
          "system": "http://terminology.hl7.org/CodeSystem/condition-ver-status",
          "code": "unconfirmed",
          "display": "Unconfirmed",
          "userSelected": true
        } ]
      },
      "category": [ {
        "coding": [ {
          "system": "http://terminology.hl7.org/CodeSystem/condition-category",
          "code": "encounter-diagnosis",
          "display": "Encounter Diagnosis"
        } ]
      } ],
      "code": {
        "coding": [ {
          "system": "http://snomed.info/sct",
          "version": "http://snomed.info/sct/731000124108/version/20250301",
          "code": "267064002",
          "display": "Retention of urine (disorder)",
          "userSelected": false
        } ]
      },
      "subject": {
        "reference": "Patient/623a7f40-c265-4e42-a5c5-6f54e20b19df"
      },
      "onsetPeriod": {
        "start": "2025-12-31T00:00:00.000+00:00"
      }
    }
  }, {
    "fullUrl": "https://madie.cms.gov/Observation/6dac5bf5-a342-45e0-a7f4-9cfb1aa8aca8",
    "resource": {
      "resourceType": "Observation",
      "id": "6dac5bf5-a342-45e0-a7f4-9cfb1aa8aca8",
      "meta": {
        "profile": [ "http://hl7.org/fhir/us/qicore/StructureDefinition/qicore-observation-screening-assessment" ]
      },
      "status": "final",
      "category": [ {
        "coding": [ {
          "system": "http://terminology.hl7.org/CodeSystem/observation-category",
          "code": "survey",
          "display": "Survey"
        } ]
      } ],
      "code": {
        "coding": [ {
          "system": "http://loinc.org",
          "version": "2.76",
          "code": "80976-4",
          "display": "International Prostate Symptom Score [IPSS]",
          "userSelected": true
        } ]
      },
      "subject": {
        "reference": "Patient/623a7f40-c265-4e42-a5c5-6f54e20b19df"
      },
      "effectiveDateTime": "2026-01-02T08:15:00.000+00:00",
      "valueInteger": 4
    }
  }, {
    "fullUrl": "https://madie.cms.gov/Observation/78e93a49-51c7-4e1c-8a4d-95e5f786b52f",
    "resource": {
      "resourceType": "Observation",
      "id": "78e93a49-51c7-4e1c-8a4d-95e5f786b52f",
      "meta": {
        "profile": [ "http://hl7.org/fhir/us/qicore/StructureDefinition/qicore-observation-screening-assessment" ]
      },
      "status": "final",
      "category": [ {
        "coding": [ {
          "system": "http://terminology.hl7.org/CodeSystem/observation-category",
          "code": "survey",
          "display": "Survey"
        } ]
      } ],
      "code": {
        "coding": [ {
          "system": "http://loinc.org",
          "version": "2.76",
          "code": "80976-4",
          "display": "International Prostate Symptom Score [IPSS]",
          "userSelected": true
        } ]
      },
      "subject": {
        "reference": "Patient/623a7f40-c265-4e42-a5c5-6f54e20b19df"
      },
      "effectiveDateTime": "2026-12-01T08:15:00.000+00:00",
      "valueInteger": 2
    }
  }, {
    "fullUrl": "https://madie.cms.gov/MeasureReport/b3c03547-ff08-42b4-991d-32ddcf44aea3",
    "resource": {
      "resourceType": "MeasureReport",
      "id": "b3c03547-ff08-42b4-991d-32ddcf44aea3",
      "meta": {
        "profile": [ "http://hl7.org/fhir/us/cqfmeasures/StructureDefinition/test-case-cqfm" ]
      },
      "contained": [ {
        "resourceType": "Parameters",
        "id": "31e51ae7-4e91-4b56-8e91-21738b93a518-parameters",
        "parameter": [ {
          "name": "subject",
          "valueString": "623a7f40-c265-4e42-a5c5-6f54e20b19df"
        } ]
      } ],
      "extension": [ {
        "url": "http://hl7.org/fhir/StructureDefinition/cqf-inputParameters",
        "valueReference": {
          "reference": "#31e51ae7-4e91-4b56-8e91-21738b93a518-parameters"
        }
      }, {
        "url": "http://hl7.org/fhir/us/cqfmeasures/StructureDefinition/cqfm-testCaseDescription",
        "valueMarkdown": "Patient meeting initial population and denominator criteria fails denominator exclusion despite having Urinary Retention Diagnosis because it is of unconfirmed status"
      } ],
      "modifierExtension": [ {
        "url": "http://hl7.org/fhir/us/cqfmeasures/StructureDefinition/cqfm-isTestCase",
        "valueBoolean": true
      } ],
      "status": "complete",
      "type": "individual",
      "measure": "https://madie.cms.gov/Measure/CMS771FHIRUrinarySymptomScoreBPH",
      "period": {
        "start": "2026-01-01",
        "end": "2026-12-31"
      },
      "group": [ {
        "id": "Group_1",
        "population": [ {
          "id": "InitialPopulation_1",
          "code": {
            "coding": [ {
              "system": "http://terminology.hl7.org/CodeSystem/measure-population",
              "code": "initial-population",
              "display": "Initial Population"
            } ]
          },
          "count": 1
        }, {
          "id": "Denominator_1",
          "code": {
            "coding": [ {
              "system": "http://terminology.hl7.org/CodeSystem/measure-population",
              "code": "denominator",
              "display": "Denominator"
            } ]
          },
          "count": 1
        }, {
          "id": "DenominatorExclusion_1",
          "code": {
            "coding": [ {
              "system": "http://terminology.hl7.org/CodeSystem/measure-population",
              "code": "denominator-exclusion",
              "display": "Denominator Exclusion"
            } ]
          },
          "count": 0
        }, {
          "id": "Numerator_1",
          "code": {
            "coding": [ {
              "system": "http://terminology.hl7.org/CodeSystem/measure-population",
              "code": "numerator",
              "display": "Numerator"
            } ]
          },
          "count": 0
        } ],
        "measureScore": {
          "value": 1.0
        }
      } ],
      "evaluatedResource": [ {
        "reference": "Patient/623a7f40-c265-4e42-a5c5-6f54e20b19df"
      }, {
        "reference": "Encounter/57292828-8491-4527-af24-603ad03f7a75"
      }, {
        "reference": "Condition/7c77f29a-b4ae-4320-8559-bbdd8f900026"
      }, {
        "reference": "Condition/537994b2-d156-42a3-a605-aaa6b6872044"
      }, {
        "reference": "Observation/6dac5bf5-a342-45e0-a7f4-9cfb1aa8aca8"
      }, {
        "reference": "Observation/78e93a49-51c7-4e1c-8a4d-95e5f786b52f"
      } ]
    }
  } ]
}