{
  "resourceType": "Bundle",
  "id": "62fa542b277378c78af6e2b9",
  "type": "transaction",
  "entry": [ {
    "fullUrl": "https://madie.cms.gov/Patient/8ca88661-f12a-4b24-98e8-93183e8e2472",
    "resource": {
      "resourceType": "Patient",
      "id": "8ca88661-f12a-4b24-98e8-93183e8e2472",
      "meta": {
        "profile": [ "http://hl7.org/fhir/us/qicore/StructureDefinition/qicore-patient" ]
      },
      "extension": [ {
        "url": "http://hl7.org/fhir/us/core/StructureDefinition/us-core-race",
        "extension": [ {
          "url": "ombCategory",
          "valueCoding": {
            "system": "urn:oid:2.16.840.1.113883.6.238",
            "code": "1002-5",
            "display": "American Indian or Alaska Native",
            "userSelected": true
          }
        }, {
          "url": "text",
          "valueString": "American Indian or Alaska Native"
        } ]
      }, {
        "url": "http://hl7.org/fhir/us/core/StructureDefinition/us-core-ethnicity",
        "extension": [ {
          "url": "ombCategory",
          "valueCoding": {
            "system": "urn:oid:2.16.840.1.113883.6.238",
            "code": "2135-2",
            "display": "Hispanic or Latino",
            "userSelected": true
          }
        }, {
          "url": "text",
          "valueString": "Hispanic or Latino"
        } ]
      }, {
        "url": "http://hl7.org/fhir/us/core/StructureDefinition/us-core-sex",
        "valueCode": "248152002"
      } ],
      "identifier": [ {
        "type": {
          "coding": [ {
            "system": "http://terminology.hl7.org/CodeSystem/v2-0203",
            "code": "MR"
          } ]
        },
        "system": "https://bonnie-fhir.healthit.gov/",
        "value": "62fa542b277378c78af6e2b9"
      } ],
      "name": [ {
        "family": "DENOMPass",
        "given": [ "Age20" ]
      } ],
      "gender": "female",
      "birthDate": "2006-11-01"
    },
    "request": {
      "method": "PUT",
      "url": "Patient/8ca88661-f12a-4b24-98e8-93183e8e2472"
    }
  }, {
    "fullUrl": "https://madie.cms.gov/Condition/1d8cb3df-a7e8-43cc-942d-f7b375eee847",
    "resource": {
      "resourceType": "Condition",
      "id": "1d8cb3df-a7e8-43cc-942d-f7b375eee847",
      "meta": {
        "profile": [ "http://hl7.org/fhir/us/qicore/StructureDefinition/qicore-condition-encounter-diagnosis" ]
      },
      "clinicalStatus": {
        "coding": [ {
          "system": "http://terminology.hl7.org/CodeSystem/condition-clinical",
          "code": "active",
          "display": "active",
          "userSelected": true
        } ]
      },
      "category": [ {
        "coding": [ {
          "system": "http://terminology.hl7.org/CodeSystem/condition-category",
          "code": "encounter-diagnosis",
          "display": "Encounter Diagnosis",
          "userSelected": true
        } ]
      } ],
      "code": {
        "coding": [ {
          "system": "http://snomed.info/sct",
          "version": "2021-09",
          "code": "102781000119107",
          "display": "Sensory neuropathy due to type 1 diabetes mellitus (disorder)",
          "userSelected": true
        } ]
      },
      "subject": {
        "reference": "Patient/8ca88661-f12a-4b24-98e8-93183e8e2472"
      },
      "onsetDateTime": "2022-02-22T03:00:00.000+00:00"
    },
    "request": {
      "method": "PUT",
      "url": "Condition/1d8cb3df-a7e8-43cc-942d-f7b375eee847"
    }
  }, {
    "fullUrl": "https://madie.cms.gov/Encounter/b80bd6ee-5fee-47a2-909c-e8f6a1c80a38",
    "resource": {
      "resourceType": "Encounter",
      "id": "b80bd6ee-5fee-47a2-909c-e8f6a1c80a38",
      "meta": {
        "profile": [ "http://hl7.org/fhir/us/qicore/StructureDefinition/qicore-encounter" ]
      },
      "status": "finished",
      "class": {
        "system": "http://terminology.hl7.org/CodeSystem/v3-ActCode",
        "code": "AMB",
        "display": "ambulatory",
        "userSelected": true
      },
      "type": [ {
        "coding": [ {
          "system": "http://snomed.info/sct",
          "version": "2021-09",
          "code": "185463005",
          "display": "Visit out of hours (procedure)",
          "userSelected": true
        } ]
      } ],
      "subject": {
        "reference": "Patient/8ca88661-f12a-4b24-98e8-93183e8e2472"
      },
      "period": {
        "start": "2026-08-15T08:00:00.000+00:00",
        "end": "2026-08-15T08:15:00.000+00:00"
      }
    },
    "request": {
      "method": "PUT",
      "url": "Encounter/b80bd6ee-5fee-47a2-909c-e8f6a1c80a38"
    }
  }, {
    "fullUrl": "https://madie.cms.gov/MeasureReport/3a5be592-629d-40dd-b45b-c11b47942cf2",
    "resource": {
      "resourceType": "MeasureReport",
      "id": "3a5be592-629d-40dd-b45b-c11b47942cf2",
      "meta": {
        "profile": [ "http://hl7.org/fhir/us/cqfmeasures/StructureDefinition/test-case-cqfm" ]
      },
      "contained": [ {
        "resourceType": "Parameters",
        "id": "10a58df9-a0c3-492d-9c37-0c7c566a5805-parameters",
        "parameter": [ {
          "name": "subject",
          "valueString": "8ca88661-f12a-4b24-98e8-93183e8e2472"
        } ]
      } ],
      "extension": [ {
        "url": "http://hl7.org/fhir/StructureDefinition/cqf-inputParameters",
        "valueReference": {
          "reference": "#10a58df9-a0c3-492d-9c37-0c7c566a5805-parameters"
        }
      }, {
        "url": "http://hl7.org/fhir/us/cqfmeasures/StructureDefinition/cqfm-testCaseDescription",
        "valueMarkdown": "This patient is 20 years old with active diabetes and a qualifying encounter. This case tests the IPP criteria."
      } ],
      "modifierExtension": [ {
        "url": "http://hl7.org/fhir/us/cqfmeasures/StructureDefinition/cqfm-isTestCase",
        "valueBoolean": true
      } ],
      "status": "complete",
      "type": "individual",
      "measure": "https://madie.cms.gov/Measure/CMS951FHIRKidneyHealthEval",
      "period": {
        "start": "2026-01-01",
        "end": "2026-12-31"
      },
      "group": [ {
        "id": "Group_1",
        "population": [ {
          "id": "InitialPopulation_1",
          "code": {
            "coding": [ {
              "system": "http://terminology.hl7.org/CodeSystem/measure-population",
              "code": "initial-population",
              "display": "Initial Population"
            } ]
          },
          "count": 1
        }, {
          "id": "Denominator_1",
          "code": {
            "coding": [ {
              "system": "http://terminology.hl7.org/CodeSystem/measure-population",
              "code": "denominator",
              "display": "Denominator"
            } ]
          },
          "count": 1
        }, {
          "id": "DenominatorExclusion_1",
          "code": {
            "coding": [ {
              "system": "http://terminology.hl7.org/CodeSystem/measure-population",
              "code": "denominator-exclusion",
              "display": "Denominator Exclusion"
            } ]
          },
          "count": 0
        }, {
          "id": "Numerator_1",
          "code": {
            "coding": [ {
              "system": "http://terminology.hl7.org/CodeSystem/measure-population",
              "code": "numerator",
              "display": "Numerator"
            } ]
          },
          "count": 0
        } ],
        "measureScore": {
          "value": 1.0
        }
      } ],
      "evaluatedResource": [ {
        "reference": "Patient/8ca88661-f12a-4b24-98e8-93183e8e2472"
      }, {
        "reference": "Condition/1d8cb3df-a7e8-43cc-942d-f7b375eee847"
      }, {
        "reference": "Encounter/b80bd6ee-5fee-47a2-909c-e8f6a1c80a38"
      } ]
    },
    "request": {
      "method": "PUT",
      "url": "MeasureReport/3a5be592-629d-40dd-b45b-c11b47942cf2"
    }
  } ]
}