{
  "resourceType": "Bundle",
  "id": "62c880ec0111a60120dc21fa",
  "type": "transaction",
  "entry": [ {
    "fullUrl": "https://madie.cms.gov/Patient/837cc0e4-cc26-48cd-9d34-232d7fbcd056",
    "resource": {
      "resourceType": "Patient",
      "id": "837cc0e4-cc26-48cd-9d34-232d7fbcd056",
      "meta": {
        "profile": [ "http://hl7.org/fhir/us/qicore/StructureDefinition/qicore-patient" ]
      },
      "extension": [ {
        "url": "http://hl7.org/fhir/us/core/StructureDefinition/us-core-race",
        "extension": [ {
          "url": "ombCategory",
          "valueCoding": {
            "system": "urn:oid:2.16.840.1.113883.6.238",
            "code": "2076-8",
            "display": "Native Hawaiian or Other Pacific Islander"
          }
        }, {
          "url": "text",
          "valueString": "Native Hawaiian or Other Pacific Islander"
        } ]
      }, {
        "url": "http://hl7.org/fhir/us/core/StructureDefinition/us-core-ethnicity",
        "extension": [ {
          "url": "ombCategory",
          "valueCoding": {
            "system": "urn:oid:2.16.840.1.113883.6.238",
            "code": "2186-5",
            "display": "Not Hispanic or Latino"
          }
        }, {
          "url": "text",
          "valueString": "Not Hispanic or Latino"
        } ]
      } ],
      "identifier": [ {
        "type": {
          "coding": [ {
            "system": "http://terminology.hl7.org/CodeSystem/v2-0203",
            "code": "MR"
          } ]
        },
        "system": "https://bonnie-fhir.healthit.gov/",
        "value": "62c880ec0111a60120dc21fa"
      } ],
      "active": true,
      "name": [ {
        "use": "usual",
        "family": "IPPPassPop1",
        "given": [ "Chemo30DaysBeforeAnd30DaysAfterEnc" ]
      } ],
      "gender": "female",
      "birthDate": "1938-05-13"
    },
    "request": {
      "method": "PUT",
      "url": "Patient/837cc0e4-cc26-48cd-9d34-232d7fbcd056"
    }
  }, {
    "fullUrl": "https://madie.cms.gov/Condition/81d26943-8c4c-4318-aaf7-03808f76435a",
    "resource": {
      "resourceType": "Condition",
      "id": "81d26943-8c4c-4318-aaf7-03808f76435a",
      "meta": {
        "profile": [ "http://hl7.org/fhir/us/qicore/StructureDefinition/qicore-condition-problems-health-concerns" ]
      },
      "clinicalStatus": {
        "coding": [ {
          "system": "http://terminology.hl7.org/CodeSystem/condition-clinical",
          "code": "active",
          "display": "Active"
        } ]
      },
      "verificationStatus": {
        "coding": [ {
          "system": "http://terminology.hl7.org/CodeSystem/condition-ver-status",
          "code": "confirmed",
          "display": "Confirmed"
        } ]
      },
      "category": [ {
        "coding": [ {
          "system": "http://terminology.hl7.org/CodeSystem/condition-category",
          "code": "problem-list-item",
          "display": "Problem List Item"
        } ]
      } ],
      "code": {
        "coding": [ {
          "system": "http://hl7.org/fhir/sid/icd-10-cm",
          "code": "C00.0"
        } ]
      },
      "subject": {
        "reference": "Patient/837cc0e4-cc26-48cd-9d34-232d7fbcd056"
      },
      "onsetDateTime": "2024-05-01T13:30:00.000+00:00"
    },
    "request": {
      "method": "PUT",
      "url": "Condition/81d26943-8c4c-4318-aaf7-03808f76435a"
    }
  }, {
    "fullUrl": "https://madie.cms.gov/Encounter/21deae06-d007-4837-a3b8-15d2ca3110b6",
    "resource": {
      "resourceType": "Encounter",
      "id": "21deae06-d007-4837-a3b8-15d2ca3110b6",
      "meta": {
        "profile": [ "http://hl7.org/fhir/us/qicore/StructureDefinition/qicore-encounter" ]
      },
      "status": "finished",
      "class": {
        "system": "http://terminology.hl7.org/CodeSystem/v3-ActCode",
        "code": "AMB",
        "display": "ambulatory",
        "userSelected": true
      },
      "type": [ {
        "coding": [ {
          "system": "http://www.ama-assn.org/go/cpt",
          "code": "99204"
        } ]
      } ],
      "subject": {
        "reference": "Patient/837cc0e4-cc26-48cd-9d34-232d7fbcd056"
      },
      "period": {
        "start": "2026-01-01T14:00:00.000+00:00",
        "end": "2026-01-01T15:00:00.000+00:00"
      }
    },
    "request": {
      "method": "PUT",
      "url": "Encounter/21deae06-d007-4837-a3b8-15d2ca3110b6"
    }
  }, {
    "fullUrl": "https://madie.cms.gov/Coverage/80a1ec37-26d2-436b-b997-05f93bb04106",
    "resource": {
      "resourceType": "Coverage",
      "id": "80a1ec37-26d2-436b-b997-05f93bb04106",
      "meta": {
        "profile": [ "http://hl7.org/fhir/us/qicore/StructureDefinition/qicore-coverage" ]
      },
      "status": "active",
      "beneficiary": {
        "reference": "Patient/837cc0e4-cc26-48cd-9d34-232d7fbcd056"
      },
      "period": {
        "start": "1938-05-13T08:00:00.000+00:00"
      },
      "payor": [ {
        "reference": "Organization/ccb37654-66a9-4e46-a54c-b677ed5965d7"
      } ]
    },
    "request": {
      "method": "PUT",
      "url": "Coverage/80a1ec37-26d2-436b-b997-05f93bb04106"
    }
  }, {
    "fullUrl": "https://madie.cms.gov/Procedure/d898aa4e-1e7b-4cdb-be02-cbe0c6234952",
    "resource": {
      "resourceType": "Procedure",
      "id": "d898aa4e-1e7b-4cdb-be02-cbe0c6234952",
      "meta": {
        "profile": [ "http://hl7.org/fhir/us/qicore/StructureDefinition/qicore-procedure" ]
      },
      "extension": [ {
        "url": "http://hl7.org/fhir/us/qicore/StructureDefinition/qicore-recorded",
        "valueDateTime": "2024-12-02T12:35:00.000+00:00"
      } ],
      "status": "completed",
      "code": {
        "coding": [ {
          "system": "http://snomed.info/sct",
          "code": "169396008"
        } ]
      },
      "subject": {
        "reference": "Patient/837cc0e4-cc26-48cd-9d34-232d7fbcd056"
      },
      "performedPeriod": {
        "start": "2025-12-02T08:00:00.000+00:00",
        "end": "2025-12-02T08:15:00.000+00:00"
      }
    },
    "request": {
      "method": "PUT",
      "url": "Procedure/d898aa4e-1e7b-4cdb-be02-cbe0c6234952"
    }
  }, {
    "fullUrl": "https://madie.cms.gov/Procedure/0a9ad408-8b85-4c20-8974-c6f5ee8b649b",
    "resource": {
      "resourceType": "Procedure",
      "id": "0a9ad408-8b85-4c20-8974-c6f5ee8b649b",
      "meta": {
        "profile": [ "http://hl7.org/fhir/us/qicore/StructureDefinition/qicore-procedure" ]
      },
      "extension": [ {
        "url": "http://hl7.org/fhir/us/qicore/StructureDefinition/qicore-recorded",
        "valueDateTime": "2026-01-31T12:35:00.000+00:00"
      } ],
      "status": "completed",
      "code": {
        "coding": [ {
          "system": "http://snomed.info/sct",
          "code": "169396008"
        } ]
      },
      "subject": {
        "reference": "Patient/837cc0e4-cc26-48cd-9d34-232d7fbcd056"
      },
      "performedDateTime": "2026-01-31T08:00:00.000+00:00"
    },
    "request": {
      "method": "PUT",
      "url": "Procedure/0a9ad408-8b85-4c20-8974-c6f5ee8b649b"
    }
  }, {
    "fullUrl": "https://madie.cms.gov/Organization/ccb37654-66a9-4e46-a54c-b677ed5965d7",
    "resource": {
      "resourceType": "Organization",
      "id": "ccb37654-66a9-4e46-a54c-b677ed5965d7",
      "meta": {
        "profile": [ "http://hl7.org/fhir/us/qicore/StructureDefinition/qicore-organization" ]
      },
      "identifier": [ {
        "use": "temp",
        "system": "urn:oid:2.16.840.1.113883.4.4",
        "value": "21-3259825"
      } ],
      "active": true,
      "type": [ {
        "coding": [ {
          "system": "http://terminology.hl7.org/CodeSystem/organization-type",
          "code": "pay",
          "display": "Payer"
        } ]
      } ],
      "name": "Blue Cross Blue Shield of Texas",
      "telecom": [ {
        "system": "phone",
        "value": "(+1) 972-766-6900"
      } ],
      "address": [ {
        "use": "billing",
        "type": "postal",
        "line": [ "P.O. Box 660044" ],
        "city": "Dallas",
        "state": "TX",
        "postalCode": "75266-0044",
        "country": "USA"
      } ]
    },
    "request": {
      "method": "PUT",
      "url": "Organization/ccb37654-66a9-4e46-a54c-b677ed5965d7"
    }
  }, {
    "fullUrl": "https://madie.cms.gov/Practitioner/c5ca0f48-4f9c-40fc-86a3-abcb30a12134",
    "resource": {
      "resourceType": "Practitioner",
      "id": "c5ca0f48-4f9c-40fc-86a3-abcb30a12134",
      "meta": {
        "profile": [ "http://hl7.org/fhir/us/qicore/StructureDefinition/qicore-practitioner" ]
      },
      "identifier": [ {
        "system": "http://hl7.org/fhir/sid/us-npi",
        "value": "1234567890"
      } ],
      "name": [ {
        "family": "Evil",
        "prefix": [ "Dr" ]
      } ]
    },
    "request": {
      "method": "PUT",
      "url": "Practitioner/c5ca0f48-4f9c-40fc-86a3-abcb30a12134"
    }
  }, {
    "fullUrl": "https://madie.cms.gov/MeasureReport/8156684d-e121-4d37-81b6-58a35429e39e",
    "resource": {
      "resourceType": "MeasureReport",
      "id": "8156684d-e121-4d37-81b6-58a35429e39e",
      "meta": {
        "profile": [ "http://hl7.org/fhir/us/cqfmeasures/StructureDefinition/test-case-cqfm" ]
      },
      "contained": [ {
        "resourceType": "Parameters",
        "id": "9bc2705e-e177-4b6c-adca-2d5d02b1e165-parameters",
        "parameter": [ {
          "name": "subject",
          "valueString": "837cc0e4-cc26-48cd-9d34-232d7fbcd056"
        } ]
      } ],
      "extension": [ {
        "url": "http://hl7.org/fhir/StructureDefinition/cqf-inputParameters",
        "valueReference": {
          "reference": "#9bc2705e-e177-4b6c-adca-2d5d02b1e165-parameters"
        }
      }, {
        "url": "http://hl7.org/fhir/us/cqfmeasures/StructureDefinition/cqfm-testCaseDescription",
        "valueMarkdown": "Patient with cancer diagnosis that overlaps the office visit during measurement period. Chemotherapy received 30 days before office visit and another chemo 30 days after the office visit. \n"
      } ],
      "modifierExtension": [ {
        "url": "http://hl7.org/fhir/us/cqfmeasures/StructureDefinition/cqfm-isTestCase",
        "valueBoolean": true
      } ],
      "status": "complete",
      "type": "individual",
      "measure": "https://madie.cms.gov/Measure/CMS157FHIRPainIntensityQuantified",
      "period": {
        "start": "2026-01-01",
        "end": "2026-12-31"
      },
      "group": [ {
        "id": "Group_1",
        "population": [ {
          "id": "InitialPopulation_1",
          "code": {
            "coding": [ {
              "system": "http://terminology.hl7.org/CodeSystem/measure-population",
              "code": "initial-population",
              "display": "Initial Population"
            } ]
          },
          "count": 1
        }, {
          "id": "Denominator_1",
          "code": {
            "coding": [ {
              "system": "http://terminology.hl7.org/CodeSystem/measure-population",
              "code": "denominator",
              "display": "Denominator"
            } ]
          },
          "count": 1
        }, {
          "id": "Numerator_1",
          "code": {
            "coding": [ {
              "system": "http://terminology.hl7.org/CodeSystem/measure-population",
              "code": "numerator",
              "display": "Numerator"
            } ]
          },
          "count": 0
        } ],
        "measureScore": {
          "value": 0.0
        }
      }, {
        "id": "Group_2",
        "population": [ {
          "id": "InitialPopulation_2",
          "code": {
            "coding": [ {
              "system": "http://terminology.hl7.org/CodeSystem/measure-population",
              "code": "initial-population",
              "display": "Initial Population"
            } ]
          },
          "count": 0
        }, {
          "id": "Denominator_2",
          "code": {
            "coding": [ {
              "system": "http://terminology.hl7.org/CodeSystem/measure-population",
              "code": "denominator",
              "display": "Denominator"
            } ]
          },
          "count": 0
        }, {
          "id": "Numerator_2",
          "code": {
            "coding": [ {
              "system": "http://terminology.hl7.org/CodeSystem/measure-population",
              "code": "numerator",
              "display": "Numerator"
            } ]
          },
          "count": 0
        } ],
        "measureScore": {
          "value": 0.0
        }
      } ],
      "evaluatedResource": [ {
        "reference": "Patient/837cc0e4-cc26-48cd-9d34-232d7fbcd056"
      }, {
        "reference": "Condition/81d26943-8c4c-4318-aaf7-03808f76435a"
      }, {
        "reference": "Encounter/21deae06-d007-4837-a3b8-15d2ca3110b6"
      }, {
        "reference": "Coverage/80a1ec37-26d2-436b-b997-05f93bb04106"
      }, {
        "reference": "Procedure/d898aa4e-1e7b-4cdb-be02-cbe0c6234952"
      }, {
        "reference": "Procedure/0a9ad408-8b85-4c20-8974-c6f5ee8b649b"
      }, {
        "reference": "Organization/ccb37654-66a9-4e46-a54c-b677ed5965d7"
      }, {
        "reference": "Practitioner/c5ca0f48-4f9c-40fc-86a3-abcb30a12134"
      } ]
    },
    "request": {
      "method": "PUT",
      "url": "MeasureReport/8156684d-e121-4d37-81b6-58a35429e39e"
    }
  } ]
}