{
  "resourceType": "Bundle",
  "id": "tests-DENOMPass-RiskVariableASAClass-bundle",
  "type": "transaction",
  "entry": [ {
    "fullUrl": "https://madie.cms.gov/Encounter/711d935d-9421-4486-bb4d-58f27f252479",
    "resource": {
      "resourceType": "Encounter",
      "id": "711d935d-9421-4486-bb4d-58f27f252479",
      "meta": {
        "profile": [ "http://hl7.org/fhir/us/qicore/StructureDefinition/qicore-encounter" ]
      },
      "status": "finished",
      "class": {
        "system": "http://terminology.hl7.org/CodeSystem/v3-ActCode",
        "code": "IMP",
        "display": "inpatient encounter"
      },
      "type": [ {
        "coding": [ {
          "system": "http://snomed.info/sct",
          "code": "112689000",
          "display": "Hospital admission, elective, with complete pre-admission work-up"
        } ],
        "text": "Hospital admission, elective, with complete pre-admission work-up"
      } ],
      "priority": {
        "coding": [ {
          "system": "http://snomed.info/sct",
          "code": "103390000"
        } ]
      },
      "subject": {
        "reference": "Patient/7797d382-90bf-4c6b-96f5-c16acd721899"
      },
      "period": {
        "start": "2026-04-10T08:00:00.000+00:00",
        "end": "2026-04-14T08:15:00.000+00:00"
      },
      "diagnosis": [ {
        "condition": {
          "reference": "Procedure/1ae3d0ed-bafd-4bbf-9227-6ff92d4456f5"
        },
        "rank": 1
      } ]
    },
    "request": {
      "method": "PUT",
      "url": "Encounter/711d935d-9421-4486-bb4d-58f27f252479"
    }
  }, {
    "fullUrl": "https://madie.cms.gov/Observation/5583b563-73bc-44ca-a205-bda9335161d3",
    "resource": {
      "resourceType": "Observation",
      "id": "5583b563-73bc-44ca-a205-bda9335161d3",
      "meta": {
        "profile": [ "http://hl7.org/fhir/us/qicore/StructureDefinition/qicore-observation-screening-assessment" ]
      },
      "status": "final",
      "category": [ {
        "coding": [ {
          "system": "http://terminology.hl7.org/CodeSystem/observation-category",
          "code": "exam",
          "display": "Exam"
        } ],
        "text": "Exam"
      } ],
      "code": {
        "coding": [ {
          "system": "http://loinc.org",
          "code": "97816-3",
          "display": "American society of anesthesiologists morbidity state"
        } ],
        "text": "American society of anesthesiologists morbidity state"
      },
      "subject": {
        "reference": "Patient/7797d382-90bf-4c6b-96f5-c16acd721899"
      },
      "encounter": {
        "reference": "Encounter/711d935d-9421-4486-bb4d-58f27f252479"
      },
      "effectiveDateTime": "2026-04-11T08:00:00.000+00:00",
      "valueCodeableConcept": {
        "coding": [ {
          "system": "http://snomed.info/sct",
          "code": "413499007",
          "display": "American Society of Anesthesiologists physical status class 5 (finding)"
        } ],
        "text": "American Society of Anesthesiologists physical status class 5 (finding)"
      }
    },
    "request": {
      "method": "PUT",
      "url": "Observation/5583b563-73bc-44ca-a205-bda9335161d3"
    }
  }, {
    "fullUrl": "https://madie.cms.gov/Patient/7797d382-90bf-4c6b-96f5-c16acd721899",
    "resource": {
      "resourceType": "Patient",
      "id": "7797d382-90bf-4c6b-96f5-c16acd721899",
      "meta": {
        "profile": [ "http://hl7.org/fhir/us/qicore/StructureDefinition/qicore-patient" ]
      },
      "extension": [ {
        "url": "http://hl7.org/fhir/us/core/StructureDefinition/us-core-race",
        "extension": [ {
          "url": "ombCategory",
          "valueCoding": {
            "system": "urn:oid:2.16.840.1.113883.6.238",
            "code": "2054-5",
            "display": "Black or African American",
            "userSelected": true
          }
        }, {
          "url": "text",
          "valueString": "Black or African American"
        } ]
      }, {
        "url": "http://hl7.org/fhir/us/core/StructureDefinition/us-core-ethnicity",
        "extension": [ {
          "url": "ombCategory",
          "valueCoding": {
            "system": "urn:oid:2.16.840.1.113883.6.238",
            "code": "2186-5",
            "display": "Not Hispanic or Latino",
            "userSelected": true
          }
        }, {
          "url": "text",
          "valueString": "Not Hispanic or Latino"
        } ]
      } ],
      "identifier": [ {
        "type": {
          "coding": [ {
            "system": "http://terminology.hl7.org/CodeSystem/v2-0203",
            "code": "MR"
          } ]
        },
        "system": "https://bonnie-fhir.healthit.gov/",
        "value": "61152a3b98086b7a79cbd7c1"
      } ],
      "active": true,
      "name": [ {
        "use": "usual",
        "family": "DENOMPass",
        "given": [ "RiskVariableASAClass" ]
      } ],
      "gender": "female",
      "birthDate": "1966-07-12"
    },
    "request": {
      "method": "PUT",
      "url": "Patient/7797d382-90bf-4c6b-96f5-c16acd721899"
    }
  }, {
    "fullUrl": "https://madie.cms.gov/Procedure/1ae3d0ed-bafd-4bbf-9227-6ff92d4456f5",
    "resource": {
      "resourceType": "Procedure",
      "id": "1ae3d0ed-bafd-4bbf-9227-6ff92d4456f5",
      "meta": {
        "profile": [ "http://hl7.org/fhir/us/qicore/StructureDefinition/qicore-procedure" ]
      },
      "extension": [ {
        "url": "http://hl7.org/fhir/us/qicore/StructureDefinition/qicore-recorded",
        "valueDateTime": "2026-04-11T10:30:00.000+00:00"
      } ],
      "status": "completed",
      "category": {
        "coding": [ {
          "system": "http://snomed.info/sct",
          "code": "18286008",
          "display": "General or neuraxial anesthesia"
        } ]
      },
      "code": {
        "coding": [ {
          "system": "http://snomed.info/sct",
          "code": "112943005",
          "display": "Epidural injection of anesthetic substance, diagnostic, caudal, continuous"
        } ]
      },
      "subject": {
        "reference": "Patient/7797d382-90bf-4c6b-96f5-c16acd721899"
      },
      "performedPeriod": {
        "start": "2026-04-11T08:00:00.000+00:00",
        "end": "2026-04-11T10:15:00.000+00:00"
      }
    },
    "request": {
      "method": "PUT",
      "url": "Procedure/1ae3d0ed-bafd-4bbf-9227-6ff92d4456f5"
    }
  }, {
    "fullUrl": "https://madie.cms.gov/MeasureReport/d28e512d-2675-4140-8bb3-a9d3ac4732f2",
    "resource": {
      "resourceType": "MeasureReport",
      "id": "d28e512d-2675-4140-8bb3-a9d3ac4732f2",
      "meta": {
        "profile": [ "http://hl7.org/fhir/us/cqfmeasures/StructureDefinition/test-case-cqfm" ]
      },
      "contained": [ {
        "resourceType": "Parameters",
        "id": "e62ee7e0-b576-4b4e-924e-4dcae3f83fe7-parameters",
        "parameter": [ {
          "name": "subject",
          "valueString": "7797d382-90bf-4c6b-96f5-c16acd721899"
        } ]
      } ],
      "extension": [ {
        "url": "http://hl7.org/fhir/StructureDefinition/cqf-inputParameters",
        "valueReference": {
          "reference": "#e62ee7e0-b576-4b4e-924e-4dcae3f83fe7-parameters"
        }
      }, {
        "url": "http://hl7.org/fhir/us/cqfmeasures/StructureDefinition/cqfm-testCaseDescription",
        "valueMarkdown": "Elective hospitalization with procedure (general anesthesia) within first 3 days of encounter. Meets IPP/Denom. Risk Variable Encounter Procedures populated "
      } ],
      "modifierExtension": [ {
        "url": "http://hl7.org/fhir/us/cqfmeasures/StructureDefinition/cqfm-isTestCase",
        "valueBoolean": true
      } ],
      "status": "complete",
      "type": "individual",
      "measure": "https://madie.cms.gov/Measure/CMS1218FHIRHHRF",
      "period": {
        "start": "2026-01-01",
        "end": "2026-12-31"
      },
      "group": [ {
        "id": "Group_1",
        "population": [ {
          "id": "InitialPopulation_1",
          "code": {
            "coding": [ {
              "system": "http://terminology.hl7.org/CodeSystem/measure-population",
              "code": "initial-population",
              "display": "Initial Population"
            } ]
          },
          "count": 1
        }, {
          "id": "Denominator_1",
          "code": {
            "coding": [ {
              "system": "http://terminology.hl7.org/CodeSystem/measure-population",
              "code": "denominator",
              "display": "Denominator"
            } ]
          },
          "count": 1
        }, {
          "id": "DenominatorExclusion_1",
          "code": {
            "coding": [ {
              "system": "http://terminology.hl7.org/CodeSystem/measure-population",
              "code": "denominator-exclusion",
              "display": "Denominator Exclusion"
            } ]
          },
          "count": 0
        }, {
          "id": "Numerator_1",
          "code": {
            "coding": [ {
              "system": "http://terminology.hl7.org/CodeSystem/measure-population",
              "code": "numerator",
              "display": "Numerator"
            } ]
          },
          "count": 0
        } ],
        "measureScore": {
          "value": 0.0
        }
      } ],
      "evaluatedResource": [ {
        "reference": "Encounter/711d935d-9421-4486-bb4d-58f27f252479"
      }, {
        "reference": "Observation/5583b563-73bc-44ca-a205-bda9335161d3"
      }, {
        "reference": "Patient/7797d382-90bf-4c6b-96f5-c16acd721899"
      }, {
        "reference": "Procedure/1ae3d0ed-bafd-4bbf-9227-6ff92d4456f5"
      } ]
    },
    "request": {
      "method": "PUT",
      "url": "MeasureReport/d28e512d-2675-4140-8bb3-a9d3ac4732f2"
    }
  } ]
}