{
  "resourceType": "Bundle",
  "id": "63487c300968f801225401c5",
  "type": "transaction",
  "entry": [ {
    "fullUrl": "https://madie.cms.gov/Patient/a8a9f09f-168b-4548-b18a-cb65f30fdb24",
    "resource": {
      "resourceType": "Patient",
      "id": "a8a9f09f-168b-4548-b18a-cb65f30fdb24",
      "meta": {
        "profile": [ "http://hl7.org/fhir/us/qicore/StructureDefinition/qicore-patient" ]
      },
      "text": {
        "status": "generated",
        "div": "<div xmlns=\"http://www.w3.org/1999/xhtml\"><div class=\"hapiHeaderText\">AssessTimeOfDelivResultEQDelivEncEnd <b>DENPASS </b></div><table class=\"hapiPropertyTable\"><tbody><tr><td>Identifier</td><td>71189d70ba3427612f2a418107466ed1652ec9a0e76c1b9c30a1691a1d91b34c</td></tr><tr><td>Date of birth</td><td><span>14 February 1985</span></td></tr></tbody></table></div>"
      },
      "extension": [ {
        "url": "http://hl7.org/fhir/us/core/StructureDefinition/us-core-race",
        "extension": [ {
          "url": "ombCategory",
          "valueCoding": {
            "system": "urn:oid:2.16.840.1.113883.6.238",
            "code": "1002-5",
            "display": "American Indian or Alaska Native",
            "userSelected": true
          }
        }, {
          "url": "text",
          "valueString": "American Indian or Alaska Native"
        } ]
      }, {
        "url": "http://hl7.org/fhir/us/core/StructureDefinition/us-core-ethnicity",
        "extension": [ {
          "url": "ombCategory",
          "valueCoding": {
            "system": "urn:oid:2.16.840.1.113883.6.238",
            "code": "2135-2",
            "display": "Hispanic or Latino",
            "userSelected": true
          }
        }, {
          "url": "text",
          "valueString": "Hispanic or Latino"
        } ]
      } ],
      "identifier": [ {
        "type": {
          "coding": [ {
            "system": "http://terminology.hl7.org/CodeSystem/v2-0203",
            "code": "MR"
          } ]
        },
        "system": "https://bonnie-fhir.healthit.gov/",
        "value": "63487c300968f801225401c5"
      } ],
      "active": true,
      "name": [ {
        "use": "usual",
        "family": "DENPass",
        "given": [ "AssessTimeOfDelivResultEQDelivEncEnd" ]
      } ],
      "gender": "female",
      "birthDate": "1998-02-14"
    },
    "request": {
      "method": "PUT",
      "url": "Patient/a8a9f09f-168b-4548-b18a-cb65f30fdb24"
    }
  }, {
    "fullUrl": "https://madie.cms.gov/Observation/ca9451e6-d5a7-4ad7-9083-842132f4149c",
    "resource": {
      "resourceType": "Observation",
      "id": "ca9451e6-d5a7-4ad7-9083-842132f4149c",
      "meta": {
        "profile": [ "http://hl7.org/fhir/us/qicore/StructureDefinition/qicore-simple-observation" ]
      },
      "status": "final",
      "category": [ {
        "coding": [ {
          "system": "http://terminology.hl7.org/CodeSystem/observation-category",
          "code": "exam",
          "display": "exam",
          "userSelected": true
        } ]
      } ],
      "code": {
        "coding": [ {
          "system": "http://loinc.org",
          "code": "11996-6"
        } ]
      },
      "subject": {
        "reference": "Patient/a8a9f09f-168b-4548-b18a-cb65f30fdb24"
      },
      "effectiveDateTime": "2026-03-09T08:00:00.000+00:00",
      "valueInteger": 1
    },
    "request": {
      "method": "PUT",
      "url": "Observation/ca9451e6-d5a7-4ad7-9083-842132f4149c"
    }
  }, {
    "fullUrl": "https://madie.cms.gov/Observation/b300f3e6-4b79-4348-837a-0ba5ca369d70",
    "resource": {
      "resourceType": "Observation",
      "id": "b300f3e6-4b79-4348-837a-0ba5ca369d70",
      "meta": {
        "profile": [ "http://hl7.org/fhir/us/qicore/StructureDefinition/qicore-simple-observation" ]
      },
      "status": "final",
      "category": [ {
        "coding": [ {
          "system": "http://terminology.hl7.org/CodeSystem/observation-category",
          "code": "exam",
          "display": "exam",
          "userSelected": true
        } ]
      } ],
      "code": {
        "coding": [ {
          "system": "http://loinc.org",
          "code": "11884-4"
        } ]
      },
      "subject": {
        "reference": "Patient/a8a9f09f-168b-4548-b18a-cb65f30fdb24"
      },
      "effectiveDateTime": "2026-11-30T08:00:00.000+00:00",
      "valueQuantity": {
        "value": 40,
        "system": "http://unitsofmeasure.org",
        "code": "wk"
      }
    },
    "request": {
      "method": "PUT",
      "url": "Observation/b300f3e6-4b79-4348-837a-0ba5ca369d70"
    }
  }, {
    "fullUrl": "https://madie.cms.gov/Observation/2d667623-27f6-4970-b5c7-7f6bfa1f4354",
    "resource": {
      "resourceType": "Observation",
      "id": "2d667623-27f6-4970-b5c7-7f6bfa1f4354",
      "meta": {
        "profile": [ "http://hl7.org/fhir/us/qicore/StructureDefinition/qicore-simple-observation" ]
      },
      "status": "final",
      "category": [ {
        "coding": [ {
          "system": "http://terminology.hl7.org/CodeSystem/observation-category",
          "code": "exam",
          "display": "exam",
          "userSelected": true
        } ]
      } ],
      "code": {
        "coding": [ {
          "system": "http://loinc.org",
          "code": "93857-1"
        } ]
      },
      "subject": {
        "reference": "Patient/a8a9f09f-168b-4548-b18a-cb65f30fdb24"
      },
      "effectiveDateTime": "2026-11-28T21:30:00.000+00:00",
      "valueDateTime": "2026-11-30T08:15:00.000+00:00"
    },
    "request": {
      "method": "PUT",
      "url": "Observation/2d667623-27f6-4970-b5c7-7f6bfa1f4354"
    }
  }, {
    "fullUrl": "https://madie.cms.gov/Encounter/e2e9dfc4-be31-40ee-9616-18f2a1eade74",
    "resource": {
      "resourceType": "Encounter",
      "id": "e2e9dfc4-be31-40ee-9616-18f2a1eade74",
      "meta": {
        "profile": [ "http://hl7.org/fhir/us/qicore/StructureDefinition/qicore-encounter" ]
      },
      "status": "finished",
      "class": {
        "system": "http://terminology.hl7.org/CodeSystem/v3-ActCode",
        "code": "IMP",
        "display": "inpatient encounter"
      },
      "type": [ {
        "coding": [ {
          "system": "http://snomed.info/sct",
          "code": "8715000"
        } ]
      } ],
      "subject": {
        "reference": "Patient/a8a9f09f-168b-4548-b18a-cb65f30fdb24"
      },
      "period": {
        "start": "2026-11-28T08:00:00.000+00:00",
        "end": "2026-11-30T08:15:00.000+00:00"
      },
      "length": {
        "value": 2,
        "unit": "days"
      },
      "reasonReference": [ {
        "reference": "Condition/e03b2ae3-4cc7-4aeb-bf4f-5e10515a5e4b"
      } ]
    },
    "request": {
      "method": "PUT",
      "url": "Encounter/e2e9dfc4-be31-40ee-9616-18f2a1eade74"
    }
  }, {
    "fullUrl": "https://madie.cms.gov/Procedure/d8175aaf-bd9c-410f-b7cc-fd8fba77d5c4",
    "resource": {
      "resourceType": "Procedure",
      "id": "d8175aaf-bd9c-410f-b7cc-fd8fba77d5c4",
      "meta": {
        "profile": [ "http://hl7.org/fhir/us/qicore/StructureDefinition/qicore-procedure" ]
      },
      "extension": [ {
        "url": "http://hl7.org/fhir/us/qicore/StructureDefinition/qicore-recorded",
        "valueDateTime": "2014-04-05T13:35:00.000+00:00"
      } ],
      "status": "completed",
      "code": {
        "coding": [ {
          "system": "http://snomed.info/sct",
          "code": "22633006"
        } ]
      },
      "subject": {
        "reference": "Patient/a8a9f09f-168b-4548-b18a-cb65f30fdb24"
      },
      "performedPeriod": {
        "start": "2026-11-28T20:00:00.000+00:00",
        "end": "2026-11-28T20:15:00.000+00:00"
      }
    },
    "request": {
      "method": "PUT",
      "url": "Procedure/d8175aaf-bd9c-410f-b7cc-fd8fba77d5c4"
    }
  }, {
    "fullUrl": "https://madie.cms.gov/Condition/e03b2ae3-4cc7-4aeb-bf4f-5e10515a5e4b",
    "resource": {
      "resourceType": "Condition",
      "id": "e03b2ae3-4cc7-4aeb-bf4f-5e10515a5e4b",
      "meta": {
        "profile": [ "http://hl7.org/fhir/us/qicore/StructureDefinition/qicore-condition-encounter-diagnosis" ]
      },
      "category": [ {
        "coding": [ {
          "system": "http://terminology.hl7.org/CodeSystem/condition-category",
          "code": "encounter-diagnosis",
          "display": "Encounter Diagnosis"
        } ]
      } ],
      "code": {
        "coding": [ {
          "system": "http://snomed.info/sct",
          "version": "2022-09",
          "code": "169826009",
          "display": "Single live birth from singleton pregnancy (finding)",
          "userSelected": true
        } ]
      },
      "subject": {
        "reference": "Patient/a8a9f09f-168b-4548-b18a-cb65f30fdb24"
      },
      "encounter": {
        "reference": "Encounter/e2e9dfc4-be31-40ee-9616-18f2a1eade74"
      },
      "recordedDate": "2026-10-20T08:00:00.000+00:00"
    },
    "request": {
      "method": "PUT",
      "url": "Condition/e03b2ae3-4cc7-4aeb-bf4f-5e10515a5e4b"
    }
  }, {
    "fullUrl": "https://madie.cms.gov/Coverage/093ab60f-6f1e-451c-befa-1c45fec4e7c4",
    "resource": {
      "resourceType": "Coverage",
      "id": "093ab60f-6f1e-451c-befa-1c45fec4e7c4",
      "meta": {
        "profile": [ "http://hl7.org/fhir/us/qicore/StructureDefinition/qicore-coverage" ]
      },
      "status": "active",
      "subscriberId": "523435",
      "beneficiary": {
        "reference": "Patient/a8a9f09f-168b-4548-b18a-cb65f30fdb24"
      },
      "relationship": {
        "coding": [ {
          "system": "http://terminology.hl7.org/CodeSystem/subscriber-relationship",
          "code": "self"
        } ]
      },
      "payor": [ {
        "reference": "Organization/f270ba39-02f0-48af-bc9a-5ee3fdf40223"
      } ]
    },
    "request": {
      "method": "PUT",
      "url": "Coverage/093ab60f-6f1e-451c-befa-1c45fec4e7c4"
    }
  }, {
    "fullUrl": "https://madie.cms.gov/Organization/f270ba39-02f0-48af-bc9a-5ee3fdf40223",
    "resource": {
      "resourceType": "Organization",
      "id": "f270ba39-02f0-48af-bc9a-5ee3fdf40223",
      "meta": {
        "profile": [ "http://hl7.org/fhir/us/qicore/StructureDefinition/qicore-organization" ]
      },
      "identifier": [ {
        "use": "temp",
        "system": "urn:oid:2.16.840.1.113883.4.4",
        "value": "21-3259825"
      } ],
      "active": true,
      "type": [ {
        "coding": [ {
          "system": "http://terminology.hl7.org/CodeSystem/organization-type",
          "code": "pay",
          "display": "Payer"
        } ]
      } ],
      "name": "Blue Cross Blue Shield of Texas",
      "telecom": [ {
        "system": "phone",
        "value": "(+1) 972-766-6900"
      } ],
      "address": [ {
        "use": "billing",
        "type": "postal",
        "line": [ "P.O. Box 660044" ],
        "city": "Dallas",
        "state": "TX",
        "postalCode": "75266-0044",
        "country": "USA"
      } ]
    },
    "request": {
      "method": "PUT",
      "url": "Organization/f270ba39-02f0-48af-bc9a-5ee3fdf40223"
    }
  }, {
    "fullUrl": "https://madie.cms.gov/Practitioner/2429c67c-ab2e-4d39-945d-62b8180e1265",
    "resource": {
      "resourceType": "Practitioner",
      "id": "2429c67c-ab2e-4d39-945d-62b8180e1265",
      "meta": {
        "profile": [ "http://hl7.org/fhir/us/qicore/StructureDefinition/qicore-practitioner" ]
      },
      "identifier": [ {
        "system": "http://hl7.org/fhir/sid/us-npi",
        "value": "1234567890"
      } ],
      "name": [ {
        "family": "Evil",
        "prefix": [ "Dr" ]
      } ]
    },
    "request": {
      "method": "PUT",
      "url": "Practitioner/2429c67c-ab2e-4d39-945d-62b8180e1265"
    }
  }, {
    "fullUrl": "https://madie.cms.gov/MeasureReport/bb2c024d-a19b-4466-9a43-5ae252b0175b",
    "resource": {
      "resourceType": "MeasureReport",
      "id": "bb2c024d-a19b-4466-9a43-5ae252b0175b",
      "meta": {
        "profile": [ "http://hl7.org/fhir/us/cqfmeasures/StructureDefinition/test-case-cqfm" ]
      },
      "contained": [ {
        "resourceType": "Parameters",
        "id": "1e34423d-352d-442c-b8f9-5fc5a1fdc0fa-parameters",
        "parameter": [ {
          "name": "subject",
          "valueString": "a8a9f09f-168b-4548-b18a-cb65f30fdb24"
        } ]
      } ],
      "extension": [ {
        "url": "http://hl7.org/fhir/StructureDefinition/cqf-inputParameters",
        "valueReference": {
          "reference": "#1e34423d-352d-442c-b8f9-5fc5a1fdc0fa-parameters"
        }
      }, {
        "url": "http://hl7.org/fhir/us/cqfmeasures/StructureDefinition/cqfm-testCaseDescription",
        "valueMarkdown": "Passes IP, Passes DENOM but fails NUM; Gravida 1(auth 42 weeks)  and EGA 40 weeks;  Proc is not Cesarean Birth. LastTimeOfDelivery result equals Delivery Encounter EndTime.   \n"
      } ],
      "modifierExtension": [ {
        "url": "http://hl7.org/fhir/us/cqfmeasures/StructureDefinition/cqfm-isTestCase",
        "valueBoolean": true
      } ],
      "status": "complete",
      "type": "individual",
      "measure": "https://madie.cms.gov/Measure/CMS0334FHIRPCCesareanBirth",
      "period": {
        "start": "2026-01-01",
        "end": "2026-12-31"
      },
      "group": [ {
        "id": "Group_1",
        "population": [ {
          "id": "InitialPopulation_1",
          "code": {
            "coding": [ {
              "system": "http://terminology.hl7.org/CodeSystem/measure-population",
              "code": "initial-population",
              "display": "Initial Population"
            } ]
          },
          "count": 1
        }, {
          "id": "Denominator_1",
          "code": {
            "coding": [ {
              "system": "http://terminology.hl7.org/CodeSystem/measure-population",
              "code": "denominator",
              "display": "Denominator"
            } ]
          },
          "count": 1
        }, {
          "id": "DenominatorExclusion_1",
          "code": {
            "coding": [ {
              "system": "http://terminology.hl7.org/CodeSystem/measure-population",
              "code": "denominator-exclusion",
              "display": "Denominator Exclusion"
            } ]
          },
          "count": 0
        }, {
          "id": "Numerator_1",
          "code": {
            "coding": [ {
              "system": "http://terminology.hl7.org/CodeSystem/measure-population",
              "code": "numerator",
              "display": "Numerator"
            } ]
          },
          "count": 0
        } ],
        "measureScore": {
          "value": 0.0
        }
      } ],
      "evaluatedResource": [ {
        "reference": "Patient/a8a9f09f-168b-4548-b18a-cb65f30fdb24"
      }, {
        "reference": "Observation/ca9451e6-d5a7-4ad7-9083-842132f4149c"
      }, {
        "reference": "Observation/b300f3e6-4b79-4348-837a-0ba5ca369d70"
      }, {
        "reference": "Observation/2d667623-27f6-4970-b5c7-7f6bfa1f4354"
      }, {
        "reference": "Encounter/e2e9dfc4-be31-40ee-9616-18f2a1eade74"
      }, {
        "reference": "Procedure/d8175aaf-bd9c-410f-b7cc-fd8fba77d5c4"
      }, {
        "reference": "Condition/e03b2ae3-4cc7-4aeb-bf4f-5e10515a5e4b"
      }, {
        "reference": "Coverage/093ab60f-6f1e-451c-befa-1c45fec4e7c4"
      }, {
        "reference": "Organization/f270ba39-02f0-48af-bc9a-5ee3fdf40223"
      }, {
        "reference": "Practitioner/2429c67c-ab2e-4d39-945d-62b8180e1265"
      } ]
    },
    "request": {
      "method": "PUT",
      "url": "MeasureReport/bb2c024d-a19b-4466-9a43-5ae252b0175b"
    }
  } ]
}