{
  "resourceType": "Bundle",
  "id": "63487c2f0968f801225401b1",
  "type": "transaction",
  "entry": [ {
    "fullUrl": "https://madie.cms.gov/Patient/9983f017-9b43-427d-8d0d-6bbe958a22df",
    "resource": {
      "resourceType": "Patient",
      "id": "9983f017-9b43-427d-8d0d-6bbe958a22df",
      "meta": {
        "profile": [ "http://hl7.org/fhir/us/qicore/StructureDefinition/qicore-patient" ]
      },
      "text": {
        "status": "generated",
        "div": "<div xmlns=\"http://www.w3.org/1999/xhtml\"><div class=\"hapiHeaderText\">AssessGAIsNull <b>DENOMFail</b></div><table class=\"hapiPropertyTable\"><tbody><tr><td>Identifier</td><td>5a43feb5ef6790325ae6e24fa7ff46c3f575969de203fb850fa7ba5a88d0a779</td></tr><tr><td>Date of birth</td><td><span>14 February 1985</span></td></tr></tbody></table></div>"
      },
      "extension": [ {
        "url": "http://hl7.org/fhir/us/core/StructureDefinition/us-core-race",
        "extension": [ {
          "url": "ombCategory",
          "valueCoding": {
            "system": "urn:oid:2.16.840.1.113883.6.238",
            "code": "1002-5",
            "display": "American Indian or Alaska Native",
            "userSelected": true
          }
        }, {
          "url": "text",
          "valueString": "American Indian or Alaska Native"
        } ]
      }, {
        "url": "http://hl7.org/fhir/us/core/StructureDefinition/us-core-ethnicity",
        "extension": [ {
          "url": "ombCategory",
          "valueCoding": {
            "system": "urn:oid:2.16.840.1.113883.6.238",
            "code": "2135-2",
            "display": "Hispanic or Latino",
            "userSelected": true
          }
        }, {
          "url": "text",
          "valueString": "Hispanic or Latino"
        } ]
      } ],
      "identifier": [ {
        "type": {
          "coding": [ {
            "system": "http://terminology.hl7.org/CodeSystem/v2-0203",
            "code": "MR"
          } ]
        },
        "system": "https://bonnie-fhir.healthit.gov/",
        "value": "63487c2f0968f801225401b1"
      } ],
      "active": true,
      "name": [ {
        "use": "usual",
        "family": "DENOMFail",
        "given": [ "AssessGAIsNull" ]
      } ],
      "gender": "female",
      "birthDate": "1998-02-14"
    },
    "request": {
      "method": "PUT",
      "url": "Patient/9983f017-9b43-427d-8d0d-6bbe958a22df"
    }
  }, {
    "fullUrl": "https://madie.cms.gov/Observation/d8b719b1-b62d-4cc5-868e-3ba322e8b0b3",
    "resource": {
      "resourceType": "Observation",
      "id": "d8b719b1-b62d-4cc5-868e-3ba322e8b0b3",
      "meta": {
        "profile": [ "http://hl7.org/fhir/us/qicore/StructureDefinition/qicore-simple-observation" ]
      },
      "status": "final",
      "category": [ {
        "coding": [ {
          "system": "http://terminology.hl7.org/CodeSystem/observation-category",
          "code": "exam",
          "display": "exam",
          "userSelected": true
        } ]
      } ],
      "code": {
        "coding": [ {
          "system": "http://loinc.org",
          "code": "11996-6"
        } ]
      },
      "subject": {
        "reference": "Patient/9983f017-9b43-427d-8d0d-6bbe958a22df"
      },
      "effectiveDateTime": "2026-06-08T08:00:00.000+00:00",
      "valueInteger": 1
    },
    "request": {
      "method": "PUT",
      "url": "Observation/d8b719b1-b62d-4cc5-868e-3ba322e8b0b3"
    }
  }, {
    "fullUrl": "https://madie.cms.gov/Observation/47755a61-457c-407e-985c-876d97cc8880",
    "resource": {
      "resourceType": "Observation",
      "id": "47755a61-457c-407e-985c-876d97cc8880",
      "meta": {
        "profile": [ "http://hl7.org/fhir/us/qicore/StructureDefinition/qicore-simple-observation" ]
      },
      "status": "final",
      "category": [ {
        "coding": [ {
          "system": "http://terminology.hl7.org/CodeSystem/observation-category",
          "code": "exam",
          "display": "exam",
          "userSelected": true
        } ]
      } ],
      "code": {
        "coding": [ {
          "system": "http://loinc.org",
          "code": "11884-4"
        } ]
      },
      "subject": {
        "reference": "Patient/9983f017-9b43-427d-8d0d-6bbe958a22df"
      },
      "effectiveDateTime": "2026-06-08T09:00:00.000+00:00"
    },
    "request": {
      "method": "PUT",
      "url": "Observation/47755a61-457c-407e-985c-876d97cc8880"
    }
  }, {
    "fullUrl": "https://madie.cms.gov/Observation/4c775245-2e05-4d2a-a88a-cef00e017ca4",
    "resource": {
      "resourceType": "Observation",
      "id": "4c775245-2e05-4d2a-a88a-cef00e017ca4",
      "meta": {
        "profile": [ "http://hl7.org/fhir/us/qicore/StructureDefinition/qicore-simple-observation" ]
      },
      "status": "final",
      "category": [ {
        "coding": [ {
          "system": "http://terminology.hl7.org/CodeSystem/observation-category",
          "code": "exam",
          "display": "exam",
          "userSelected": true
        } ]
      } ],
      "code": {
        "coding": [ {
          "system": "http://loinc.org",
          "code": "93857-1"
        } ]
      },
      "subject": {
        "reference": "Patient/9983f017-9b43-427d-8d0d-6bbe958a22df"
      },
      "effectiveDateTime": "2026-06-08T09:15:00.000+00:00",
      "valueDateTime": "2026-06-08T09:15:00.000+00:00"
    },
    "request": {
      "method": "PUT",
      "url": "Observation/4c775245-2e05-4d2a-a88a-cef00e017ca4"
    }
  }, {
    "fullUrl": "https://madie.cms.gov/Encounter/07c87c44-5346-49e6-aba5-af1271298ce0",
    "resource": {
      "resourceType": "Encounter",
      "id": "07c87c44-5346-49e6-aba5-af1271298ce0",
      "meta": {
        "profile": [ "http://hl7.org/fhir/us/qicore/StructureDefinition/qicore-encounter" ]
      },
      "status": "finished",
      "class": {
        "system": "http://terminology.hl7.org/CodeSystem/v3-ActCode",
        "code": "IMP",
        "display": "inpatient encounter"
      },
      "type": [ {
        "coding": [ {
          "system": "http://snomed.info/sct",
          "code": "183452005"
        } ]
      } ],
      "subject": {
        "reference": "Patient/9983f017-9b43-427d-8d0d-6bbe958a22df"
      },
      "period": {
        "start": "2026-06-08T08:00:00.000+00:00",
        "end": "2026-06-10T08:15:00.000+00:00"
      },
      "length": {
        "value": 2,
        "unit": "days"
      },
      "reasonReference": [ {
        "reference": "Condition/f7f8b0e6-1cc2-4330-b3d3-a7818d834bba"
      } ]
    },
    "request": {
      "method": "PUT",
      "url": "Encounter/07c87c44-5346-49e6-aba5-af1271298ce0"
    }
  }, {
    "fullUrl": "https://madie.cms.gov/Procedure/6e50c466-936b-4f8b-8613-5e48e96bd85b",
    "resource": {
      "resourceType": "Procedure",
      "id": "6e50c466-936b-4f8b-8613-5e48e96bd85b",
      "meta": {
        "profile": [ "http://hl7.org/fhir/us/qicore/StructureDefinition/qicore-procedure" ]
      },
      "extension": [ {
        "url": "http://hl7.org/fhir/us/qicore/StructureDefinition/qicore-recorded",
        "valueDateTime": "2014-04-05T13:35:00.000+00:00"
      } ],
      "status": "completed",
      "code": {
        "coding": [ {
          "system": "http://www.cms.gov/Medicare/Coding/ICD10",
          "code": "10D00Z0"
        } ]
      },
      "subject": {
        "reference": "Patient/9983f017-9b43-427d-8d0d-6bbe958a22df"
      },
      "performedPeriod": {
        "start": "2026-06-08T08:00:00.000+00:00",
        "end": "2026-06-08T09:15:00.000+00:00"
      }
    },
    "request": {
      "method": "PUT",
      "url": "Procedure/6e50c466-936b-4f8b-8613-5e48e96bd85b"
    }
  }, {
    "fullUrl": "https://madie.cms.gov/Condition/f7f8b0e6-1cc2-4330-b3d3-a7818d834bba",
    "resource": {
      "resourceType": "Condition",
      "id": "f7f8b0e6-1cc2-4330-b3d3-a7818d834bba",
      "meta": {
        "profile": [ "http://hl7.org/fhir/us/qicore/StructureDefinition/qicore-condition-encounter-diagnosis" ]
      },
      "category": [ {
        "coding": [ {
          "system": "http://terminology.hl7.org/CodeSystem/condition-category",
          "code": "encounter-diagnosis",
          "display": "Encounter Diagnosis"
        } ]
      } ],
      "code": {
        "coding": [ {
          "system": "http://snomed.info/sct",
          "version": "2022-09",
          "code": "169826009",
          "display": "Single live birth from singleton pregnancy (finding)",
          "userSelected": true
        } ]
      },
      "subject": {
        "reference": "Patient/9983f017-9b43-427d-8d0d-6bbe958a22df"
      },
      "encounter": {
        "reference": "Encounter/07c87c44-5346-49e6-aba5-af1271298ce0"
      },
      "recordedDate": "2026-10-21T08:00:00.000+00:00"
    },
    "request": {
      "method": "PUT",
      "url": "Condition/f7f8b0e6-1cc2-4330-b3d3-a7818d834bba"
    }
  }, {
    "fullUrl": "https://madie.cms.gov/Coverage/0cdf32ee-48a5-4e0c-8354-cfec98dc1325",
    "resource": {
      "resourceType": "Coverage",
      "id": "0cdf32ee-48a5-4e0c-8354-cfec98dc1325",
      "meta": {
        "profile": [ "http://hl7.org/fhir/us/qicore/StructureDefinition/qicore-coverage" ]
      },
      "status": "active",
      "subscriberId": "523435",
      "beneficiary": {
        "reference": "Patient/9983f017-9b43-427d-8d0d-6bbe958a22df"
      },
      "relationship": {
        "coding": [ {
          "system": "http://terminology.hl7.org/CodeSystem/subscriber-relationship",
          "code": "self"
        } ]
      },
      "payor": [ {
        "reference": "Organization/f62c3872-4288-4543-8f3c-06c72d05a5ec"
      } ]
    },
    "request": {
      "method": "PUT",
      "url": "Coverage/0cdf32ee-48a5-4e0c-8354-cfec98dc1325"
    }
  }, {
    "fullUrl": "https://madie.cms.gov/Organization/f62c3872-4288-4543-8f3c-06c72d05a5ec",
    "resource": {
      "resourceType": "Organization",
      "id": "f62c3872-4288-4543-8f3c-06c72d05a5ec",
      "meta": {
        "profile": [ "http://hl7.org/fhir/us/qicore/StructureDefinition/qicore-organization" ]
      },
      "identifier": [ {
        "use": "temp",
        "system": "urn:oid:2.16.840.1.113883.4.4",
        "value": "21-3259825"
      } ],
      "active": true,
      "type": [ {
        "coding": [ {
          "system": "http://terminology.hl7.org/CodeSystem/organization-type",
          "code": "pay",
          "display": "Payer"
        } ]
      } ],
      "name": "Blue Cross Blue Shield of Texas",
      "telecom": [ {
        "system": "phone",
        "value": "(+1) 972-766-6900"
      } ],
      "address": [ {
        "use": "billing",
        "type": "postal",
        "line": [ "P.O. Box 660044" ],
        "city": "Dallas",
        "state": "TX",
        "postalCode": "75266-0044",
        "country": "USA"
      } ]
    },
    "request": {
      "method": "PUT",
      "url": "Organization/f62c3872-4288-4543-8f3c-06c72d05a5ec"
    }
  }, {
    "fullUrl": "https://madie.cms.gov/Practitioner/d93f427d-ee69-40a8-a261-0baa97810dae",
    "resource": {
      "resourceType": "Practitioner",
      "id": "d93f427d-ee69-40a8-a261-0baa97810dae",
      "meta": {
        "profile": [ "http://hl7.org/fhir/us/qicore/StructureDefinition/qicore-practitioner" ]
      },
      "identifier": [ {
        "system": "http://hl7.org/fhir/sid/us-npi",
        "value": "1234567890"
      } ],
      "name": [ {
        "family": "Evil",
        "prefix": [ "Dr" ]
      } ]
    },
    "request": {
      "method": "PUT",
      "url": "Practitioner/d93f427d-ee69-40a8-a261-0baa97810dae"
    }
  }, {
    "fullUrl": "https://madie.cms.gov/MeasureReport/bb5fde91-91e0-4412-8cd2-a190675aaa52",
    "resource": {
      "resourceType": "MeasureReport",
      "id": "bb5fde91-91e0-4412-8cd2-a190675aaa52",
      "meta": {
        "profile": [ "http://hl7.org/fhir/us/cqfmeasures/StructureDefinition/test-case-cqfm" ]
      },
      "contained": [ {
        "resourceType": "Parameters",
        "id": "114825ea-c2a9-457f-8cf7-9d01b4c1ee70-parameters",
        "parameter": [ {
          "name": "subject",
          "valueString": "9983f017-9b43-427d-8d0d-6bbe958a22df"
        } ]
      } ],
      "extension": [ {
        "url": "http://hl7.org/fhir/StructureDefinition/cqf-inputParameters",
        "valueReference": {
          "reference": "#114825ea-c2a9-457f-8cf7-9d01b4c1ee70-parameters"
        }
      }, {
        "url": "http://hl7.org/fhir/us/cqfmeasures/StructureDefinition/cqfm-testCaseDescription",
        "valueMarkdown": "Passes: IP, Fails DENOM,  encounter dx of delivery of singleton, gravida, EGA @ 38 weeks  GA is NULL \n"
      } ],
      "modifierExtension": [ {
        "url": "http://hl7.org/fhir/us/cqfmeasures/StructureDefinition/cqfm-isTestCase",
        "valueBoolean": true
      } ],
      "status": "complete",
      "type": "individual",
      "measure": "https://madie.cms.gov/Measure/CMS0334FHIRPCCesareanBirth",
      "period": {
        "start": "2026-01-01",
        "end": "2026-12-31"
      },
      "group": [ {
        "id": "Group_1",
        "population": [ {
          "id": "InitialPopulation_1",
          "code": {
            "coding": [ {
              "system": "http://terminology.hl7.org/CodeSystem/measure-population",
              "code": "initial-population",
              "display": "Initial Population"
            } ]
          },
          "count": 1
        }, {
          "id": "Denominator_1",
          "code": {
            "coding": [ {
              "system": "http://terminology.hl7.org/CodeSystem/measure-population",
              "code": "denominator",
              "display": "Denominator"
            } ]
          },
          "count": 0
        }, {
          "id": "DenominatorExclusion_1",
          "code": {
            "coding": [ {
              "system": "http://terminology.hl7.org/CodeSystem/measure-population",
              "code": "denominator-exclusion",
              "display": "Denominator Exclusion"
            } ]
          },
          "count": 0
        }, {
          "id": "Numerator_1",
          "code": {
            "coding": [ {
              "system": "http://terminology.hl7.org/CodeSystem/measure-population",
              "code": "numerator",
              "display": "Numerator"
            } ]
          },
          "count": 0
        } ],
        "measureScore": {
          "value": 0.0
        }
      } ],
      "evaluatedResource": [ {
        "reference": "Patient/9983f017-9b43-427d-8d0d-6bbe958a22df"
      }, {
        "reference": "Observation/d8b719b1-b62d-4cc5-868e-3ba322e8b0b3"
      }, {
        "reference": "Observation/47755a61-457c-407e-985c-876d97cc8880"
      }, {
        "reference": "Observation/4c775245-2e05-4d2a-a88a-cef00e017ca4"
      }, {
        "reference": "Encounter/07c87c44-5346-49e6-aba5-af1271298ce0"
      }, {
        "reference": "Procedure/6e50c466-936b-4f8b-8613-5e48e96bd85b"
      }, {
        "reference": "Condition/f7f8b0e6-1cc2-4330-b3d3-a7818d834bba"
      }, {
        "reference": "Coverage/0cdf32ee-48a5-4e0c-8354-cfec98dc1325"
      }, {
        "reference": "Organization/f62c3872-4288-4543-8f3c-06c72d05a5ec"
      }, {
        "reference": "Practitioner/d93f427d-ee69-40a8-a261-0baa97810dae"
      } ]
    },
    "request": {
      "method": "PUT",
      "url": "MeasureReport/bb5fde91-91e0-4412-8cd2-a190675aaa52"
    }
  } ]
}