{
  "resourceType": "Bundle",
  "id": "612e6f7f02c62a011f2f2077",
  "type": "transaction",
  "entry": [ {
    "fullUrl": "https://madie.cms.gov/Patient/324eb2e7-2beb-4c84-88ff-bdf9fa5d8171",
    "resource": {
      "resourceType": "Patient",
      "id": "324eb2e7-2beb-4c84-88ff-bdf9fa5d8171",
      "meta": {
        "profile": [ "http://hl7.org/fhir/us/qicore/StructureDefinition/qicore-patient" ]
      },
      "text": {
        "status": "generated",
        "div": "<div xmlns=\"http://www.w3.org/1999/xhtml\"><div class=\"hapiHeaderText\">MARiv1DayAfterAnesProc1DayAFICUAdm <b>NUMERPASS </b></div><table class=\"hapiPropertyTable\"><tbody><tr><td>Identifier</td><td>64846eeef3495268258129327974b438</td></tr><tr><td>Date of birth</td><td><span>03 March 1974</span></td></tr></tbody></table></div>"
      },
      "extension": [ {
        "url": "http://hl7.org/fhir/us/core/StructureDefinition/us-core-race",
        "extension": [ {
          "url": "ombCategory",
          "valueCoding": {
            "system": "urn:oid:2.16.840.1.113883.6.238",
            "code": "1002-5",
            "display": "American Indian or Alaska Native",
            "userSelected": true
          }
        }, {
          "url": "text",
          "valueString": "American Indian or Alaska Native"
        } ]
      }, {
        "url": "http://hl7.org/fhir/us/core/StructureDefinition/us-core-ethnicity",
        "extension": [ {
          "url": "ombCategory",
          "valueCoding": {
            "system": "urn:oid:2.16.840.1.113883.6.238",
            "code": "2135-2",
            "display": "Hispanic or Latino",
            "userSelected": true
          }
        }, {
          "url": "text",
          "valueString": "Hispanic or Latino"
        } ]
      } ],
      "identifier": [ {
        "type": {
          "coding": [ {
            "system": "http://terminology.hl7.org/CodeSystem/v2-0203",
            "code": "MR"
          } ]
        },
        "system": "https://bonnie-fhir.healthit.gov/",
        "value": "612e6f7f02c62a011f2f2077"
      } ],
      "active": true,
      "name": [ {
        "use": "usual",
        "family": "NUMERPass",
        "given": [ "MARiv1DayAfterAnesProc1DayAFICUAdm" ]
      } ],
      "gender": "female",
      "birthDate": "1975-03-03"
    },
    "request": {
      "method": "PUT",
      "url": "Patient/324eb2e7-2beb-4c84-88ff-bdf9fa5d8171"
    }
  }, {
    "fullUrl": "https://madie.cms.gov/Encounter/e47c2185-dc22-46d0-99bf-315f112d95e6",
    "resource": {
      "resourceType": "Encounter",
      "id": "e47c2185-dc22-46d0-99bf-315f112d95e6",
      "meta": {
        "profile": [ "http://hl7.org/fhir/us/qicore/StructureDefinition/qicore-encounter" ]
      },
      "status": "finished",
      "class": {
        "system": "http://terminology.hl7.org/CodeSystem/v3-ActCode",
        "code": "IMP",
        "display": "inpatient encounter"
      },
      "type": [ {
        "coding": [ {
          "system": "http://snomed.info/sct",
          "code": "8715000"
        } ]
      } ],
      "subject": {
        "reference": "Patient/324eb2e7-2beb-4c84-88ff-bdf9fa5d8171"
      },
      "period": {
        "start": "2026-12-04T08:00:00.000+00:00",
        "end": "2026-12-30T08:15:00.000+00:00"
      },
      "length": {
        "value": 26.0,
        "unit": "days"
      },
      "location": [ {
        "location": {
          "reference": "Location/feff20ab-24e6-4e32-8dc5-7ccc81c35fd0"
        },
        "period": {
          "start": "2026-12-06T09:00:00.000+00:00",
          "end": "2026-12-12T08:15:00.000+00:00"
        }
      } ]
    },
    "request": {
      "method": "PUT",
      "url": "Encounter/e47c2185-dc22-46d0-99bf-315f112d95e6"
    }
  }, {
    "fullUrl": "https://madie.cms.gov/Coverage/05076b41-2806-477d-8d7f-255265483cb5",
    "resource": {
      "resourceType": "Coverage",
      "id": "05076b41-2806-477d-8d7f-255265483cb5",
      "status": "active",
      "beneficiary": {
        "reference": "Patient/324eb2e7-2beb-4c84-88ff-bdf9fa5d8171"
      },
      "period": {
        "start": "1975-03-03T08:00:00.000+00:00"
      },
      "payor": [ {
        "reference": "Organization/1b29ac37-2a54-4721-a8a4-b34dbd6a9492"
      } ]
    },
    "request": {
      "method": "PUT",
      "url": "Coverage/05076b41-2806-477d-8d7f-255265483cb5"
    }
  }, {
    "fullUrl": "https://madie.cms.gov/MedicationAdministration/2ded5183-307c-4ad5-b902-30d7c9a9ffa9",
    "resource": {
      "resourceType": "MedicationAdministration",
      "id": "2ded5183-307c-4ad5-b902-30d7c9a9ffa9",
      "meta": {
        "profile": [ "http://hl7.org/fhir/us/qicore/StructureDefinition/qicore-medicationadministration" ]
      },
      "status": "completed",
      "medicationCodeableConcept": {
        "coding": [ {
          "system": "http://www.nlm.nih.gov/research/umls/rxnorm",
          "code": "1114198"
        } ]
      },
      "subject": {
        "reference": "Patient/324eb2e7-2beb-4c84-88ff-bdf9fa5d8171"
      },
      "effectivePeriod": {
        "start": "2026-12-08T11:30:00.000+00:00"
      }
    },
    "request": {
      "method": "PUT",
      "url": "MedicationAdministration/2ded5183-307c-4ad5-b902-30d7c9a9ffa9"
    }
  }, {
    "fullUrl": "https://madie.cms.gov/Procedure/2276b2e1-b93d-478d-8603-f07f25b2265d",
    "resource": {
      "resourceType": "Procedure",
      "id": "2276b2e1-b93d-478d-8603-f07f25b2265d",
      "meta": {
        "profile": [ "http://hl7.org/fhir/us/qicore/StructureDefinition/qicore-procedure" ]
      },
      "extension": [ {
        "url": "http://hl7.org/fhir/us/qicore/StructureDefinition/qicore-recorded",
        "valueDateTime": "2013-12-07T13:35:00.000+00:00"
      } ],
      "status": "completed",
      "code": {
        "coding": [ {
          "system": "http://www.icd10data.com/icd10pcs",
          "code": "3E030FZ"
        }, {
          "system": "http://snomed.info/sct",
          "code": "18946005"
        } ]
      },
      "subject": {
        "reference": "Patient/324eb2e7-2beb-4c84-88ff-bdf9fa5d8171"
      },
      "performedPeriod": {
        "start": "2026-12-07T11:00:00.000+00:00",
        "end": "2026-12-07T11:15:00.000+00:00"
      }
    },
    "request": {
      "method": "PUT",
      "url": "Procedure/2276b2e1-b93d-478d-8603-f07f25b2265d"
    }
  }, {
    "fullUrl": "https://madie.cms.gov/Location/feff20ab-24e6-4e32-8dc5-7ccc81c35fd0",
    "resource": {
      "resourceType": "Location",
      "id": "feff20ab-24e6-4e32-8dc5-7ccc81c35fd0",
      "meta": {
        "profile": [ "http://hl7.org/fhir/us/qicore/StructureDefinition/qicore-location" ]
      },
      "identifier": [ {
        "use": "usual",
        "system": "http://exampleoflocation.com",
        "value": "B1-S.F2"
      } ],
      "name": "Medical Surgical East, first floor",
      "type": [ {
        "coding": [ {
          "system": "https://www.cdc.gov/nhsn/cdaportal/terminology/codesystem/hsloc.html",
          "code": "1025-6",
          "display": "Trauma Critical Care",
          "userSelected": true
        } ]
      } ]
    },
    "request": {
      "method": "PUT",
      "url": "Location/feff20ab-24e6-4e32-8dc5-7ccc81c35fd0"
    }
  }, {
    "fullUrl": "https://madie.cms.gov/Organization/1b29ac37-2a54-4721-a8a4-b34dbd6a9492",
    "resource": {
      "resourceType": "Organization",
      "id": "1b29ac37-2a54-4721-a8a4-b34dbd6a9492",
      "meta": {
        "profile": [ "http://hl7.org/fhir/us/qicore/StructureDefinition/qicore-organization" ]
      },
      "identifier": [ {
        "use": "temp",
        "system": "urn:oid:2.16.840.1.113883.4.4",
        "value": "21-3259825"
      } ],
      "active": true,
      "type": [ {
        "coding": [ {
          "system": "http://terminology.hl7.org/CodeSystem/organization-type",
          "code": "pay",
          "display": "Payer"
        } ]
      } ],
      "name": "Blue Cross Blue Shield of Texas",
      "telecom": [ {
        "system": "phone",
        "value": "(+1) 972-766-6900"
      } ],
      "address": [ {
        "use": "billing",
        "type": "postal",
        "line": [ "P.O. Box 660044" ],
        "city": "Dallas",
        "state": "TX",
        "postalCode": "75266-0044",
        "country": "USA"
      } ]
    },
    "request": {
      "method": "PUT",
      "url": "Organization/1b29ac37-2a54-4721-a8a4-b34dbd6a9492"
    }
  }, {
    "fullUrl": "https://madie.cms.gov/Practitioner/d1b560f1-a04e-4797-a33c-129258f17527",
    "resource": {
      "resourceType": "Practitioner",
      "id": "d1b560f1-a04e-4797-a33c-129258f17527",
      "identifier": [ {
        "system": "http://hl7.org/fhir/sid/us-npi",
        "value": "123456"
      } ],
      "name": [ {
        "family": "Evil",
        "prefix": [ "Dr" ]
      } ]
    },
    "request": {
      "method": "PUT",
      "url": "Practitioner/d1b560f1-a04e-4797-a33c-129258f17527"
    }
  }, {
    "fullUrl": "https://madie.cms.gov/MeasureReport/ff6a106b-e96e-4175-a4d5-45b60c9a988e",
    "resource": {
      "resourceType": "MeasureReport",
      "id": "ff6a106b-e96e-4175-a4d5-45b60c9a988e",
      "meta": {
        "profile": [ "http://hl7.org/fhir/us/cqfmeasures/StructureDefinition/test-case-cqfm" ]
      },
      "contained": [ {
        "resourceType": "Parameters",
        "id": "c6b2345e-e32e-457f-86a4-df621a654f4a-parameters",
        "parameter": [ {
          "name": "subject",
          "valueString": "324eb2e7-2beb-4c84-88ff-bdf9fa5d8171"
        } ]
      } ],
      "extension": [ {
        "url": "http://hl7.org/fhir/StructureDefinition/cqf-inputParameters",
        "valueReference": {
          "reference": "#c6b2345e-e32e-457f-86a4-df621a654f4a-parameters"
        }
      }, {
        "url": "http://hl7.org/fhir/us/cqfmeasures/StructureDefinition/cqfm-testCaseDescription",
        "valueMarkdown": "Rivaroxaban for VTE Prophylaxis administered 1 day after neuraxial anesthesia which procedure ends 1 day after ICU Adm date\n"
      } ],
      "modifierExtension": [ {
        "url": "http://hl7.org/fhir/us/cqfmeasures/StructureDefinition/cqfm-isTestCase",
        "valueBoolean": true
      } ],
      "status": "complete",
      "type": "individual",
      "measure": "https://madie.cms.gov/Measure/CMS190FHIRVTEProphylaxisICU",
      "period": {
        "start": "2026-01-01",
        "end": "2026-12-31"
      },
      "group": [ {
        "id": "Group_1",
        "population": [ {
          "id": "InitialPopulation_1",
          "code": {
            "coding": [ {
              "system": "http://terminology.hl7.org/CodeSystem/measure-population",
              "code": "initial-population",
              "display": "Initial Population"
            } ]
          },
          "count": 1
        }, {
          "id": "Denominator_1",
          "code": {
            "coding": [ {
              "system": "http://terminology.hl7.org/CodeSystem/measure-population",
              "code": "denominator",
              "display": "Denominator"
            } ]
          },
          "count": 1
        }, {
          "id": "DenominatorExclusion_1",
          "code": {
            "coding": [ {
              "system": "http://terminology.hl7.org/CodeSystem/measure-population",
              "code": "denominator-exclusion",
              "display": "Denominator Exclusion"
            } ]
          },
          "count": 0
        }, {
          "id": "Numerator_1",
          "code": {
            "coding": [ {
              "system": "http://terminology.hl7.org/CodeSystem/measure-population",
              "code": "numerator",
              "display": "Numerator"
            } ]
          },
          "count": 1
        }, {
          "id": "DenominatorException_1",
          "code": {
            "coding": [ {
              "system": "http://terminology.hl7.org/CodeSystem/measure-population",
              "code": "denominator-exception",
              "display": "Denominator Exception"
            } ]
          },
          "count": 0
        } ],
        "measureScore": {
          "value": 0.0
        }
      } ],
      "evaluatedResource": [ {
        "reference": "Patient/324eb2e7-2beb-4c84-88ff-bdf9fa5d8171"
      }, {
        "reference": "Encounter/e47c2185-dc22-46d0-99bf-315f112d95e6"
      }, {
        "reference": "Coverage/05076b41-2806-477d-8d7f-255265483cb5"
      }, {
        "reference": "MedicationAdministration/2ded5183-307c-4ad5-b902-30d7c9a9ffa9"
      }, {
        "reference": "Procedure/2276b2e1-b93d-478d-8603-f07f25b2265d"
      }, {
        "reference": "Location/feff20ab-24e6-4e32-8dc5-7ccc81c35fd0"
      }, {
        "reference": "Organization/1b29ac37-2a54-4721-a8a4-b34dbd6a9492"
      }, {
        "reference": "Practitioner/d1b560f1-a04e-4797-a33c-129258f17527"
      } ]
    },
    "request": {
      "method": "PUT",
      "url": "MeasureReport/ff6a106b-e96e-4175-a4d5-45b60c9a988e"
    }
  } ]
}