{
  "resourceType": "Bundle",
  "id": "649b3dcbdcffa388af1bfc66",
  "type": "collection",
  "entry": [ {
    "fullUrl": "https://madie.cms.gov/Patient/75fec959-d869-4377-a181-73985bd33787",
    "resource": {
      "resourceType": "Patient",
      "id": "75fec959-d869-4377-a181-73985bd33787",
      "meta": {
        "profile": [ "http://hl7.org/fhir/us/qicore/StructureDefinition/qicore-patient" ]
      },
      "extension": [ {
        "url": "http://hl7.org/fhir/us/core/StructureDefinition/us-core-race",
        "extension": [ {
          "url": "ombCategory",
          "valueCoding": {
            "system": "urn:oid:2.16.840.1.113883.6.238",
            "code": "2054-5",
            "display": "Black or African American",
            "userSelected": true
          }
        }, {
          "url": "text",
          "valueString": "Black or African American"
        } ]
      }, {
        "url": "http://hl7.org/fhir/us/core/StructureDefinition/us-core-ethnicity",
        "extension": [ {
          "url": "ombCategory",
          "valueCoding": {
            "system": "urn:oid:2.16.840.1.113883.6.238",
            "code": "2186-5",
            "display": "Not Hispanic or Latino",
            "userSelected": true
          }
        }, {
          "url": "text",
          "valueString": "Not Hispanic or Latino"
        } ]
      } ],
      "identifier": [ {
        "type": {
          "coding": [ {
            "system": "http://terminology.hl7.org/CodeSystem/v2-0203",
            "code": "MR"
          } ]
        },
        "system": "https://bonnie-fhir.healthit.gov/",
        "value": "649b3dcbdcffa388af1bfc66"
      } ],
      "name": [ {
        "family": "IPFail",
        "given": [ "EncOnDec31BeforeMP" ]
      } ],
      "gender": "female",
      "birthDate": "2001-02-04"
    }
  }, {
    "fullUrl": "https://madie.cms.gov/Condition/7173d8a8-8b99-4947-b02c-305c304940d9",
    "resource": {
      "resourceType": "Condition",
      "id": "7173d8a8-8b99-4947-b02c-305c304940d9",
      "meta": {
        "profile": [ "http://hl7.org/fhir/us/qicore/StructureDefinition/qicore-condition-problems-health-concerns" ]
      },
      "category": [ {
        "coding": [ {
          "system": "http://terminology.hl7.org/CodeSystem/condition-category",
          "code": "problem-list-item",
          "display": "Problem List Item"
        } ]
      } ],
      "code": {
        "coding": [ {
          "system": "http://hl7.org/fhir/sid/icd-9-cm",
          "version": "2013",
          "code": "042",
          "display": "Human immunodeficiency virus [HIV] disease",
          "userSelected": true
        }, {
          "system": "http://snomed.info/sct",
          "version": "http://snomed.info/sct/731000124108/version/20250301",
          "code": "165816005",
          "userSelected": true
        } ]
      },
      "subject": {
        "reference": "Patient/75fec959-d869-4377-a181-73985bd33787"
      },
      "onsetDateTime": "2018-09-28T08:00:00.000+00:00",
      "recordedDate": "2018-09-28T08:00:00.000+00:00"
    }
  }, {
    "fullUrl": "https://madie.cms.gov/Encounter/5a5bbe07-70ce-4f3c-bfe0-73591b043772",
    "resource": {
      "resourceType": "Encounter",
      "id": "5a5bbe07-70ce-4f3c-bfe0-73591b043772",
      "meta": {
        "profile": [ "http://hl7.org/fhir/us/qicore/StructureDefinition/qicore-encounter" ]
      },
      "status": "finished",
      "class": {
        "system": "http://terminology.hl7.org/CodeSystem/v3-ActCode",
        "code": "AMB",
        "display": "ambulatory"
      },
      "type": [ {
        "coding": [ {
          "system": "http://www.ama-assn.org/go/cpt",
          "version": "2023",
          "code": "99385",
          "display": "Initial comprehensive preventive medicine evaluation and management of an individual including an age and gender appropriate history, examination, counseling/anticipatory guidance/risk factor reduction interventions, and the ordering of laboratory/diagnostic procedures, new patient; 18-39 years",
          "userSelected": true
        } ]
      } ],
      "subject": {
        "reference": "Patient/75fec959-d869-4377-a181-73985bd33787"
      },
      "period": {
        "start": "2024-12-31T23:22:00.000+00:00",
        "end": "2024-12-31T23:59:00.000+00:00"
      }
    }
  }, {
    "fullUrl": "https://madie.cms.gov/Coverage/d693bbac-d2bf-4d0d-8c62-5f08042b7fbe",
    "resource": {
      "resourceType": "Coverage",
      "id": "d693bbac-d2bf-4d0d-8c62-5f08042b7fbe",
      "meta": {
        "profile": [ "http://hl7.org/fhir/us/qicore/StructureDefinition/qicore-coverage" ]
      },
      "status": "active",
      "subscriberId": "123456",
      "beneficiary": {
        "reference": "Patient/75fec959-d869-4377-a181-73985bd33787"
      },
      "relationship": {
        "coding": [ {
          "system": "http://terminology.hl7.org/CodeSystem/subscriber-relationship",
          "code": "self",
          "display": "Self"
        } ]
      },
      "payor": [ {
        "reference": "Organization/7db24ef0-d9a3-4999-816b-bd5a65cf840f"
      } ]
    }
  }, {
    "fullUrl": "https://madie.cms.gov/Organization/7db24ef0-d9a3-4999-816b-bd5a65cf840f",
    "resource": {
      "resourceType": "Organization",
      "id": "7db24ef0-d9a3-4999-816b-bd5a65cf840f",
      "meta": {
        "profile": [ "http://hl7.org/fhir/us/qicore/StructureDefinition/qicore-organization" ]
      },
      "identifier": [ {
        "use": "temp",
        "system": "urn:oid:2.16.840.1.113883.4.4",
        "value": "21-3259825"
      } ],
      "active": true,
      "type": [ {
        "coding": [ {
          "system": "http://terminology.hl7.org/CodeSystem/organization-type",
          "code": "pay",
          "display": "Payer"
        } ]
      } ],
      "name": "Blue Cross Blue Shield of Texas",
      "telecom": [ {
        "system": "phone",
        "value": "(+1) 972-766-6900"
      } ],
      "address": [ {
        "use": "billing",
        "type": "postal",
        "line": [ "P.O. Box 660044" ],
        "city": "Dallas",
        "state": "TX",
        "postalCode": "75266-0044",
        "country": "USA"
      } ]
    }
  }, {
    "fullUrl": "https://madie.cms.gov/Practitioner/260604ab-28e4-4087-9a3b-1dd664741f01",
    "resource": {
      "resourceType": "Practitioner",
      "id": "260604ab-28e4-4087-9a3b-1dd664741f01",
      "meta": {
        "profile": [ "http://hl7.org/fhir/us/qicore/StructureDefinition/qicore-practitioner" ]
      },
      "identifier": [ {
        "system": "http://hl7.org/fhir/sid/us-npi",
        "value": "1689411712"
      } ],
      "name": [ {
        "family": "Evil",
        "prefix": [ "Dr" ]
      } ]
    }
  }, {
    "fullUrl": "https://madie.cms.gov/MeasureReport/c4eeb9bc-b7ed-4ba3-8c0c-2d218b154426",
    "resource": {
      "resourceType": "MeasureReport",
      "id": "c4eeb9bc-b7ed-4ba3-8c0c-2d218b154426",
      "meta": {
        "profile": [ "http://hl7.org/fhir/us/cqfmeasures/StructureDefinition/test-case-cqfm" ]
      },
      "contained": [ {
        "resourceType": "Parameters",
        "id": "43634021-f593-4de1-a104-84a36f11abf8-parameters",
        "parameter": [ {
          "name": "subject",
          "valueString": "75fec959-d869-4377-a181-73985bd33787"
        } ]
      } ],
      "extension": [ {
        "url": "http://hl7.org/fhir/StructureDefinition/cqf-inputParameters",
        "valueReference": {
          "reference": "#43634021-f593-4de1-a104-84a36f11abf8-parameters"
        }
      }, {
        "url": "http://hl7.org/fhir/us/cqfmeasures/StructureDefinition/cqfm-testCaseDescription",
        "valueMarkdown": "Patient is over 13 years old and has an encounter on Dec 31 before the MP"
      } ],
      "modifierExtension": [ {
        "url": "http://hl7.org/fhir/us/cqfmeasures/StructureDefinition/cqfm-isTestCase",
        "valueBoolean": true
      } ],
      "status": "complete",
      "type": "individual",
      "measure": "https://madie.cms.gov/Measure/CMS1188FHIRHIVSTITesting",
      "period": {
        "start": "2026-01-01",
        "end": "2026-12-31"
      },
      "group": [ {
        "id": "Group_1",
        "population": [ {
          "id": "InitialPopulation_1",
          "code": {
            "coding": [ {
              "system": "http://terminology.hl7.org/CodeSystem/measure-population",
              "code": "initial-population",
              "display": "Initial Population"
            } ]
          },
          "count": 0
        }, {
          "id": "Denominator_1",
          "code": {
            "coding": [ {
              "system": "http://terminology.hl7.org/CodeSystem/measure-population",
              "code": "denominator",
              "display": "Denominator"
            } ]
          },
          "count": 0
        }, {
          "id": "Numerator_1",
          "code": {
            "coding": [ {
              "system": "http://terminology.hl7.org/CodeSystem/measure-population",
              "code": "numerator",
              "display": "Numerator"
            } ]
          },
          "count": 0
        } ],
        "measureScore": {
          "value": 1.0
        }
      } ],
      "evaluatedResource": [ {
        "reference": "Patient/75fec959-d869-4377-a181-73985bd33787"
      }, {
        "reference": "Condition/7173d8a8-8b99-4947-b02c-305c304940d9"
      }, {
        "reference": "Encounter/5a5bbe07-70ce-4f3c-bfe0-73591b043772"
      }, {
        "reference": "Coverage/d693bbac-d2bf-4d0d-8c62-5f08042b7fbe"
      }, {
        "reference": "Organization/7db24ef0-d9a3-4999-816b-bd5a65cf840f"
      }, {
        "reference": "Practitioner/260604ab-28e4-4087-9a3b-1dd664741f01"
      } ]
    }
  } ]
}