{
  "resourceType": "Bundle",
  "id": "6129133a02c62a011f2e6844",
  "type": "transaction",
  "entry": [ {
    "fullUrl": "https://madie.cms.gov/Patient/34d3361c-95b3-43bf-a2a8-380914e06acb",
    "resource": {
      "resourceType": "Patient",
      "id": "34d3361c-95b3-43bf-a2a8-380914e06acb",
      "meta": {
        "profile": [ "http://hl7.org/fhir/us/qicore/StructureDefinition/qicore-patient" ]
      },
      "text": {
        "status": "generated",
        "div": "<div xmlns=\"http://www.w3.org/1999/xhtml\"><div class=\"hapiHeaderText\">CMOdurObs_NoEDObs&lt;1hrBFEnc <b>DENEXPASS </b></div><table class=\"hapiPropertyTable\"><tbody><tr><td>Identifier</td><td>5a7e040e256dded60537a54bf9421da8</td></tr><tr><td>Date of birth</td><td><span>21 August 1994</span></td></tr></tbody></table></div>"
      },
      "extension": [ {
        "url": "http://hl7.org/fhir/us/core/StructureDefinition/us-core-race",
        "extension": [ {
          "url": "ombCategory",
          "valueCoding": {
            "system": "urn:oid:2.16.840.1.113883.6.238",
            "code": "1002-5",
            "display": "American Indian or Alaska Native",
            "userSelected": true
          }
        }, {
          "url": "text",
          "valueString": "American Indian or Alaska Native"
        } ]
      }, {
        "url": "http://hl7.org/fhir/us/core/StructureDefinition/us-core-ethnicity",
        "extension": [ {
          "url": "ombCategory",
          "valueCoding": {
            "system": "urn:oid:2.16.840.1.113883.6.238",
            "code": "2135-2",
            "display": "Hispanic or Latino",
            "userSelected": true
          }
        }, {
          "url": "text",
          "valueString": "Hispanic or Latino"
        } ]
      } ],
      "identifier": [ {
        "type": {
          "coding": [ {
            "system": "http://terminology.hl7.org/CodeSystem/v2-0203",
            "code": "MR"
          } ]
        },
        "system": "https://bonnie-fhir.healthit.gov/",
        "value": "6129133a02c62a011f2e6844"
      } ],
      "active": true,
      "name": [ {
        "use": "usual",
        "family": "DENEXPass",
        "given": [ "CMOdurObsNoEDObslt1hrBFEnc" ]
      } ],
      "gender": "male",
      "birthDate": "1995-08-21"
    },
    "request": {
      "method": "PUT",
      "url": "Patient/34d3361c-95b3-43bf-a2a8-380914e06acb"
    }
  }, {
    "fullUrl": "https://madie.cms.gov/Encounter/44f7c081-6dd7-4926-b272-653096eada91",
    "resource": {
      "resourceType": "Encounter",
      "id": "44f7c081-6dd7-4926-b272-653096eada91",
      "meta": {
        "profile": [ "http://hl7.org/fhir/us/qicore/StructureDefinition/qicore-encounter" ]
      },
      "status": "finished",
      "class": {
        "system": "http://terminology.hl7.org/CodeSystem/v3-ActCode",
        "code": "OBSENC",
        "display": "observation encounter",
        "userSelected": true
      },
      "type": [ {
        "coding": [ {
          "system": "http://snomed.info/sct",
          "code": "448951000124107"
        } ]
      } ],
      "subject": {
        "reference": "Patient/34d3361c-95b3-43bf-a2a8-380914e06acb"
      },
      "period": {
        "start": "2026-10-10T07:30:00.000+00:00",
        "end": "2026-10-10T08:00:00.000+00:00"
      },
      "length": {
        "value": 0,
        "unit": "days"
      }
    },
    "request": {
      "method": "PUT",
      "url": "Encounter/44f7c081-6dd7-4926-b272-653096eada91"
    }
  }, {
    "fullUrl": "https://madie.cms.gov/Encounter/4a34622b-5239-4786-8503-db3429b43358",
    "resource": {
      "resourceType": "Encounter",
      "id": "4a34622b-5239-4786-8503-db3429b43358",
      "meta": {
        "profile": [ "http://hl7.org/fhir/us/qicore/StructureDefinition/qicore-encounter" ]
      },
      "status": "finished",
      "class": {
        "system": "http://terminology.hl7.org/CodeSystem/v3-ActCode",
        "code": "IMP",
        "display": "inpatient encounter",
        "userSelected": true
      },
      "type": [ {
        "coding": [ {
          "system": "http://snomed.info/sct",
          "code": "32485007"
        } ]
      } ],
      "subject": {
        "reference": "Patient/34d3361c-95b3-43bf-a2a8-380914e06acb"
      },
      "period": {
        "start": "2026-10-10T08:01:00.000+00:00",
        "end": "2026-10-12T10:30:00.000+00:00"
      },
      "length": {
        "value": 2,
        "unit": "days"
      },
      "diagnosis": [ {
        "condition": {
          "reference": "Condition/c0b7c3b6-bf33-4668-8cb3-1b814c3abcbf"
        },
        "use": {
          "coding": [ {
            "system": "http://terminology.hl7.org/CodeSystem/diagnosis-role",
            "code": "billing",
            "display": "Billing"
          } ]
        },
        "rank": 1
      } ]
    },
    "request": {
      "method": "PUT",
      "url": "Encounter/4a34622b-5239-4786-8503-db3429b43358"
    }
  }, {
    "fullUrl": "https://madie.cms.gov/ServiceRequest/23c83f5c-e9a9-4b7b-8a8b-c9117c2bd27e",
    "resource": {
      "resourceType": "ServiceRequest",
      "id": "23c83f5c-e9a9-4b7b-8a8b-c9117c2bd27e",
      "meta": {
        "profile": [ "http://hl7.org/fhir/us/qicore/StructureDefinition/qicore-servicerequest" ]
      },
      "status": "active",
      "intent": "order",
      "code": {
        "coding": [ {
          "system": "http://snomed.info/sct",
          "code": "133918004"
        } ]
      },
      "subject": {
        "reference": "Patient/34d3361c-95b3-43bf-a2a8-380914e06acb"
      },
      "authoredOn": "2026-10-10T07:30:00.000+00:00"
    },
    "request": {
      "method": "PUT",
      "url": "ServiceRequest/23c83f5c-e9a9-4b7b-8a8b-c9117c2bd27e"
    }
  }, {
    "fullUrl": "https://madie.cms.gov/Condition/c0b7c3b6-bf33-4668-8cb3-1b814c3abcbf",
    "resource": {
      "resourceType": "Condition",
      "id": "c0b7c3b6-bf33-4668-8cb3-1b814c3abcbf",
      "meta": {
        "profile": [ "http://hl7.org/fhir/us/qicore/StructureDefinition/qicore-condition" ]
      },
      "clinicalStatus": {
        "coding": [ {
          "system": "http://terminology.hl7.org/CodeSystem/condition-clinical",
          "code": "active"
        } ]
      },
      "verificationStatus": {
        "coding": [ {
          "system": "http://terminology.hl7.org/CodeSystem/condition-ver-status",
          "code": "confirmed"
        } ]
      },
      "category": [ {
        "coding": [ {
          "system": "http://terminology.hl7.org/CodeSystem/condition-category",
          "code": "encounter-diagnosis",
          "display": "Encounter Diagnosis"
        } ]
      } ],
      "code": {
        "coding": [ {
          "system": "http://snomed.info/sct",
          "version": "2020-09",
          "code": "111297002",
          "display": "Nonparalytic stroke (disorder)",
          "userSelected": true
        } ]
      },
      "subject": {
        "reference": "Patient/34d3361c-95b3-43bf-a2a8-380914e06acb"
      },
      "recordedDate": "2026-07-15T08:00:00.000+00:00"
    },
    "request": {
      "method": "PUT",
      "url": "Condition/c0b7c3b6-bf33-4668-8cb3-1b814c3abcbf"
    }
  }, {
    "fullUrl": "https://madie.cms.gov/claim/5ca62962b8484628b8de1ec5",
    "resource": {
      "resourceType": "Claim",
      "id": "5ca62962b8484628b8de1ec5",
      "meta": {
        "profile": [ "http://hl7.org/fhir/us/qicore/StructureDefinition/qicore-claim" ]
      },
      "status": "active",
      "type": {
        "coding": [ {
          "system": "http://terminology.hl7.org/CodeSystem/claim-type",
          "code": "institutional"
        } ]
      },
      "use": "claim",
      "patient": {
        "reference": "Patient/d170a0a8-b5ad-4303-b6df-e304dd5f92ad"
      },
      "created": "2026-12-01",
      "provider": {
        "reference": "Practitioner/practitioner-123456"
      },
      "priority": {
        "coding": [ {
          "system": "http://terminology.hl7.org/CodeSystem/processpriority",
          "code": "normal"
        } ]
      },
      "diagnosis": [ {
        "sequence": 1,
        "diagnosisCodeableConcept": {
          "coding": [ {
            "system": "http://hl7.org/fhir/sid/icd-10-cm",
            "code": "I63.00"
          } ]
        },
        "type": [ {
          "coding": [ {
            "system": "http://terminology.hl7.org/CodeSystem/ex-diagnosistype",
            "code": "principal"
          } ]
        } ]
      } ],
      "insurance": [ {
        "sequence": 1,
        "focal": true,
        "coverage": {
          "reference": "Coverage/5fa041661c76ba66d9959367"
        }
      } ],
      "item": [ {
        "sequence": 1,
        "diagnosisSequence": [ 1 ],
        "productOrService": {
          "coding": [ {
            "system": "http://terminology.hl7.org/CodeSystem/ex-USCLS",
            "code": "99555"
          } ]
        },
        "encounter": [ {
          "reference": "Encounter/4a34622b-5239-4786-8503-db3429b43358"
        } ]
      } ]
    },
    "request": {
      "method": "PUT",
      "url": "Claim/5ca62962b8484628b8de1ec5"
    }
  }, {
    "fullUrl": "https://madie.cms.gov/Coverage/bda58053-2b58-4af4-8adc-ec3727ef665c",
    "resource": {
      "resourceType": "Coverage",
      "id": "bda58053-2b58-4af4-8adc-ec3727ef665c",
      "meta": {
        "profile": [ "http://hl7.org/fhir/us/qicore/StructureDefinition/qicore-coverage" ]
      },
      "status": "active",
      "beneficiary": {
        "reference": "Patient/34d3361c-95b3-43bf-a2a8-380914e06acb"
      },
      "payor": [ {
        "reference": "Organization/73fb08ea-8dd9-40fc-942e-413181403fcf"
      } ]
    },
    "request": {
      "method": "PUT",
      "url": "Coverage/bda58053-2b58-4af4-8adc-ec3727ef665c"
    }
  }, {
    "fullUrl": "https://madie.cms.gov/Organization/73fb08ea-8dd9-40fc-942e-413181403fcf",
    "resource": {
      "resourceType": "Organization",
      "id": "73fb08ea-8dd9-40fc-942e-413181403fcf",
      "meta": {
        "profile": [ "http://hl7.org/fhir/us/qicore/StructureDefinition/qicore-organization" ]
      },
      "identifier": [ {
        "use": "temp",
        "system": "urn:oid:2.16.840.1.113883.4.4",
        "value": "21-3259825"
      } ],
      "active": true,
      "type": [ {
        "coding": [ {
          "system": "http://terminology.hl7.org/CodeSystem/organization-type",
          "code": "pay",
          "display": "Payer"
        } ]
      } ],
      "name": "Blue Cross Blue Shield of Texas",
      "telecom": [ {
        "system": "phone",
        "value": "(+1) 972-766-6900"
      } ],
      "address": [ {
        "use": "billing",
        "type": "postal",
        "line": [ "P.O. Box 660044" ],
        "city": "Dallas",
        "state": "TX",
        "postalCode": "75266-0044",
        "country": "USA"
      } ]
    },
    "request": {
      "method": "PUT",
      "url": "Organization/73fb08ea-8dd9-40fc-942e-413181403fcf"
    }
  }, {
    "fullUrl": "https://madie.cms.gov/MeasureReport/6dfb5ce2-4bf9-490d-9474-7f94a03cfe96",
    "resource": {
      "resourceType": "MeasureReport",
      "id": "6dfb5ce2-4bf9-490d-9474-7f94a03cfe96",
      "meta": {
        "profile": [ "http://hl7.org/fhir/us/cqfmeasures/StructureDefinition/test-case-cqfm" ]
      },
      "contained": [ {
        "resourceType": "Parameters",
        "id": "469ee928-31ce-4371-875b-67bfe50124e2-parameters",
        "parameter": [ {
          "name": "subject",
          "valueString": "34d3361c-95b3-43bf-a2a8-380914e06acb"
        } ]
      } ],
      "extension": [ {
        "url": "http://hl7.org/fhir/StructureDefinition/cqf-inputParameters",
        "valueReference": {
          "reference": "#469ee928-31ce-4371-875b-67bfe50124e2-parameters"
        }
      }, {
        "url": "http://hl7.org/fhir/us/cqfmeasures/StructureDefinition/cqfm-testCaseDescription",
        "valueMarkdown": "Patient receives CMO during observation. No ED. Obs ends 1 min before inpatient encounter start. Testing day of operator with HospitalizationWithObservation function."
      } ],
      "modifierExtension": [ {
        "url": "http://hl7.org/fhir/us/cqfmeasures/StructureDefinition/cqfm-isTestCase",
        "valueBoolean": true
      } ],
      "status": "complete",
      "type": "individual",
      "measure": "https://madie.cms.gov/Measure/CMS104FHIRSTKDCAntithrombotic",
      "period": {
        "start": "2026-01-01",
        "end": "2026-12-31"
      },
      "group": [ {
        "id": "Group_1",
        "population": [ {
          "id": "InitialPopulation_1",
          "code": {
            "coding": [ {
              "system": "http://terminology.hl7.org/CodeSystem/measure-population",
              "code": "initial-population",
              "display": "Initial Population"
            } ]
          },
          "count": 1
        }, {
          "id": "Denominator_1",
          "code": {
            "coding": [ {
              "system": "http://terminology.hl7.org/CodeSystem/measure-population",
              "code": "denominator",
              "display": "Denominator"
            } ]
          },
          "count": 1
        }, {
          "id": "DenominatorExclusion_1",
          "code": {
            "coding": [ {
              "system": "http://terminology.hl7.org/CodeSystem/measure-population",
              "code": "denominator-exclusion",
              "display": "Denominator Exclusion"
            } ]
          },
          "count": 1
        }, {
          "id": "Numerator_1",
          "code": {
            "coding": [ {
              "system": "http://terminology.hl7.org/CodeSystem/measure-population",
              "code": "numerator",
              "display": "Numerator"
            } ]
          },
          "count": 0
        }, {
          "id": "DenominatorException_1",
          "code": {
            "coding": [ {
              "system": "http://terminology.hl7.org/CodeSystem/measure-population",
              "code": "denominator-exception",
              "display": "Denominator Exception"
            } ]
          },
          "count": 0
        } ],
        "measureScore": {
          "value": 0.0
        }
      } ],
      "evaluatedResource": [ {
        "reference": "Patient/34d3361c-95b3-43bf-a2a8-380914e06acb"
      }, {
        "reference": "Encounter/44f7c081-6dd7-4926-b272-653096eada91"
      }, {
        "reference": "Encounter/4a34622b-5239-4786-8503-db3429b43358"
      }, {
        "reference": "ServiceRequest/23c83f5c-e9a9-4b7b-8a8b-c9117c2bd27e"
      }, {
        "reference": "Condition/c0b7c3b6-bf33-4668-8cb3-1b814c3abcbf"
      }, {
        "reference": "Claim/5ca62962b8484628b8de1ec5"
      }, {
        "reference": "Coverage/bda58053-2b58-4af4-8adc-ec3727ef665c"
      }, {
        "reference": "Organization/73fb08ea-8dd9-40fc-942e-413181403fcf"
      } ]
    },
    "request": {
      "method": "PUT",
      "url": "MeasureReport/6dfb5ce2-4bf9-490d-9474-7f94a03cfe96"
    }
  } ]
}