{
  "resourceType": "Bundle",
  "id": "633b3f9f0968f80122503cdb",
  "type": "transaction",
  "entry": [ {
    "fullUrl": "https://madie.cms.gov/Patient/ed3ea9d2-94e4-4e67-b382-18147df9bac7",
    "resource": {
      "resourceType": "Patient",
      "id": "ed3ea9d2-94e4-4e67-b382-18147df9bac7",
      "meta": {
        "profile": [ "http://hl7.org/fhir/us/qicore/StructureDefinition/qicore-patient" ]
      },
      "text": {
        "status": "generated",
        "div": "<div xmlns=\"http://www.w3.org/1999/xhtml\"><div class=\"hapiHeaderText\">BldTxDtTime1MinAftMidnightDayOfEDOBTriageHosp<b>NUMFail </b></div><table class=\"hapiPropertyTable\"><tbody><tr><td>Date of birth</td><td><span>01 February 2004</span></td></tr></tbody></table></div>"
      },
      "extension": [ {
        "url": "http://hl7.org/fhir/us/core/StructureDefinition/us-core-race",
        "extension": [ {
          "url": "ombCategory",
          "valueCoding": {
            "system": "urn:oid:2.16.840.1.113883.6.238",
            "code": "1002-5",
            "display": "American Indian or Alaska Native",
            "userSelected": true
          }
        }, {
          "url": "text",
          "valueString": "American Indian or Alaska Native"
        } ]
      }, {
        "url": "http://hl7.org/fhir/us/core/StructureDefinition/us-core-ethnicity",
        "extension": [ {
          "url": "ombCategory",
          "valueCoding": {
            "system": "urn:oid:2.16.840.1.113883.6.238",
            "code": "2135-2",
            "display": "Hispanic or Latino",
            "userSelected": true
          }
        }, {
          "url": "text",
          "valueString": "Hispanic or Latino"
        } ]
      } ],
      "identifier": [ {
        "type": {
          "coding": [ {
            "system": "http://terminology.hl7.org/CodeSystem/v2-0203",
            "code": "MR"
          } ]
        },
        "system": "https://bonnie-fhir.healthit.gov/",
        "value": "633b3f9f0968f80122503cdb"
      } ],
      "active": true,
      "name": [ {
        "use": "usual",
        "family": "NUMFail",
        "given": [ "BldTxDtTime1MinAftMidnightDayOfEDOBTriageHosp" ]
      } ],
      "gender": "female",
      "birthDate": "2005-02-01"
    },
    "request": {
      "method": "PUT",
      "url": "Patient/ed3ea9d2-94e4-4e67-b382-18147df9bac7"
    }
  }, {
    "fullUrl": "https://madie.cms.gov/Observation/b2cef258-723f-4916-aa5d-41f47cc053f3",
    "resource": {
      "resourceType": "Observation",
      "id": "b2cef258-723f-4916-aa5d-41f47cc053f3",
      "meta": {
        "profile": [ "http://hl7.org/fhir/us/qicore/StructureDefinition/qicore-simple-observation" ]
      },
      "status": "final",
      "category": [ {
        "coding": [ {
          "system": "http://terminology.hl7.org/CodeSystem/observation-category",
          "code": "exam",
          "display": "exam",
          "userSelected": true
        } ]
      } ],
      "code": {
        "coding": [ {
          "system": "http://loinc.org",
          "code": "93857-1"
        } ]
      },
      "subject": {
        "reference": "Patient/ed3ea9d2-94e4-4e67-b382-18147df9bac7"
      },
      "effectiveDateTime": "2026-02-01T08:00:00.000+00:00",
      "performer": [ {
        "reference": "Organization/example1",
        "display": "Hendricks Country Hospital"
      } ],
      "valueDateTime": "2026-02-01T08:00:00.000+00:00"
    },
    "request": {
      "method": "PUT",
      "url": "Observation/b2cef258-723f-4916-aa5d-41f47cc053f3"
    }
  }, {
    "fullUrl": "https://madie.cms.gov/Observation/edb05fbe-a075-4886-b219-108d14e890a8",
    "resource": {
      "resourceType": "Observation",
      "id": "edb05fbe-a075-4886-b219-108d14e890a8",
      "meta": {
        "profile": [ "http://hl7.org/fhir/us/qicore/StructureDefinition/qicore-simple-observation" ]
      },
      "status": "final",
      "category": [ {
        "coding": [ {
          "system": "http://terminology.hl7.org/CodeSystem/observation-category",
          "code": "exam",
          "display": "exam",
          "userSelected": true
        } ]
      } ],
      "code": {
        "coding": [ {
          "system": "http://loinc.org",
          "code": "11884-4"
        } ]
      },
      "subject": {
        "reference": "Patient/ed3ea9d2-94e4-4e67-b382-18147df9bac7"
      },
      "effectiveDateTime": "2026-02-01T08:00:00.000+00:00",
      "performer": [ {
        "reference": "Organization/example1",
        "display": "Hendricks Country Hospital"
      } ],
      "valueQuantity": {
        "value": 20,
        "system": "http://unitsofmeasure.org",
        "code": "wk"
      }
    },
    "request": {
      "method": "PUT",
      "url": "Observation/edb05fbe-a075-4886-b219-108d14e890a8"
    }
  }, {
    "fullUrl": "https://madie.cms.gov/Observation/3b5385e9-0acc-42b5-8d0c-286dc81a178e",
    "resource": {
      "resourceType": "Observation",
      "id": "3b5385e9-0acc-42b5-8d0c-286dc81a178e",
      "meta": {
        "profile": [ "http://hl7.org/fhir/us/qicore/StructureDefinition/qicore-simple-observation" ]
      },
      "status": "final",
      "category": [ {
        "coding": [ {
          "system": "http://terminology.hl7.org/CodeSystem/observation-category",
          "code": "exam",
          "display": "exam",
          "userSelected": true
        } ]
      } ],
      "code": {
        "coding": [ {
          "system": "http://loinc.org",
          "code": "11884-4"
        } ]
      },
      "subject": {
        "reference": "Patient/ed3ea9d2-94e4-4e67-b382-18147df9bac7"
      },
      "effectiveDateTime": "2026-02-01T08:01:00.000+00:00",
      "performer": [ {
        "reference": "Organization/example1",
        "display": "Hendricks Country Hospital"
      } ]
    },
    "request": {
      "method": "PUT",
      "url": "Observation/3b5385e9-0acc-42b5-8d0c-286dc81a178e"
    }
  }, {
    "fullUrl": "https://madie.cms.gov/Encounter/1a77c39c-0968-406a-99c1-d4a758d0f39c",
    "resource": {
      "resourceType": "Encounter",
      "id": "1a77c39c-0968-406a-99c1-d4a758d0f39c",
      "meta": {
        "profile": [ "http://hl7.org/fhir/us/qicore/StructureDefinition/qicore-encounter" ]
      },
      "status": "finished",
      "class": {
        "system": "http://terminology.hl7.org/CodeSystem/v3-ActCode",
        "code": "IMP",
        "display": "inpatient encounter"
      },
      "type": [ {
        "coding": [ {
          "system": "http://snomed.info/sct",
          "code": "183452005"
        } ]
      } ],
      "subject": {
        "reference": "Patient/ed3ea9d2-94e4-4e67-b382-18147df9bac7"
      },
      "period": {
        "start": "2026-02-01T08:00:00.000+00:00",
        "end": "2026-02-05T08:15:00.000+00:00"
      }
    },
    "request": {
      "method": "PUT",
      "url": "Encounter/1a77c39c-0968-406a-99c1-d4a758d0f39c"
    }
  }, {
    "fullUrl": "https://madie.cms.gov/Coverage/9e8535a1-2b55-47b4-bc72-02698c8cfdf8",
    "resource": {
      "resourceType": "Coverage",
      "id": "9e8535a1-2b55-47b4-bc72-02698c8cfdf8",
      "status": "active",
      "subscriberId": "523435",
      "beneficiary": {
        "reference": "Patient/ed3ea9d2-94e4-4e67-b382-18147df9bac7"
      },
      "relationship": {
        "coding": [ {
          "system": "http://terminology.hl7.org/CodeSystem/subscriber-relationship",
          "code": "self"
        } ]
      },
      "period": {
        "start": "2005-02-01T08:00:00.000+00:00"
      },
      "payor": [ {
        "reference": "Organization/172002c6-802b-43eb-b5e0-bad859f8e265"
      } ]
    },
    "request": {
      "method": "PUT",
      "url": "Coverage/9e8535a1-2b55-47b4-bc72-02698c8cfdf8"
    }
  }, {
    "fullUrl": "https://madie.cms.gov/Procedure/6954e054-c2b2-4aa1-9e76-df87d4a3d3a3",
    "resource": {
      "resourceType": "Procedure",
      "id": "6954e054-c2b2-4aa1-9e76-df87d4a3d3a3",
      "meta": {
        "profile": [ "http://hl7.org/fhir/us/qicore/StructureDefinition/qicore-procedure" ]
      },
      "extension": [ {
        "url": "http://hl7.org/fhir/us/qicore/StructureDefinition/qicore-recorded",
        "valueDateTime": "2014-04-05T13:35:00.000+00:00"
      } ],
      "status": "completed",
      "code": {
        "coding": [ {
          "system": "http://snomed.info/sct",
          "code": "10745001"
        } ]
      },
      "subject": {
        "reference": "Patient/ed3ea9d2-94e4-4e67-b382-18147df9bac7"
      },
      "performedPeriod": {
        "start": "2026-02-01T08:00:00.000+00:00",
        "end": "2026-02-05T08:15:00.000+00:00"
      }
    },
    "request": {
      "method": "PUT",
      "url": "Procedure/6954e054-c2b2-4aa1-9e76-df87d4a3d3a3"
    }
  }, {
    "fullUrl": "https://madie.cms.gov/Procedure/611b5cc0-2eab-4472-aa7e-088f41e6c547",
    "resource": {
      "resourceType": "Procedure",
      "id": "611b5cc0-2eab-4472-aa7e-088f41e6c547",
      "meta": {
        "profile": [ "http://hl7.org/fhir/us/qicore/StructureDefinition/qicore-procedure" ]
      },
      "extension": [ {
        "url": "http://hl7.org/fhir/us/qicore/StructureDefinition/qicore-recorded",
        "valueDateTime": "2026-02-01T04:01:00.000+00:00"
      } ],
      "status": "completed",
      "code": {
        "coding": [ {
          "system": "http://snomed.info/sct",
          "code": "11397000"
        } ]
      },
      "subject": {
        "reference": "Patient/ed3ea9d2-94e4-4e67-b382-18147df9bac7"
      },
      "performedPeriod": {
        "start": "2026-02-01T00:01:00.000+00:00",
        "end": "2026-02-01T01:15:00.000+00:00"
      }
    },
    "request": {
      "method": "PUT",
      "url": "Procedure/611b5cc0-2eab-4472-aa7e-088f41e6c547"
    }
  }, {
    "fullUrl": "https://madie.cms.gov/Organization/172002c6-802b-43eb-b5e0-bad859f8e265",
    "resource": {
      "resourceType": "Organization",
      "id": "172002c6-802b-43eb-b5e0-bad859f8e265",
      "meta": {
        "profile": [ "http://hl7.org/fhir/us/qicore/StructureDefinition/qicore-organization" ]
      },
      "identifier": [ {
        "use": "temp",
        "system": "urn:oid:2.16.840.1.113883.4.4",
        "value": "21-3259825"
      } ],
      "active": true,
      "type": [ {
        "coding": [ {
          "system": "http://terminology.hl7.org/CodeSystem/organization-type",
          "code": "pay",
          "display": "Payer"
        } ]
      } ],
      "name": "Blue Cross Blue Shield of Texas",
      "telecom": [ {
        "system": "phone",
        "value": "(+1) 972-766-6900"
      } ],
      "address": [ {
        "use": "billing",
        "type": "postal",
        "line": [ "P.O. Box 660044" ],
        "city": "Dallas",
        "state": "TX",
        "postalCode": "75266-0044",
        "country": "USA"
      } ]
    },
    "request": {
      "method": "PUT",
      "url": "Organization/172002c6-802b-43eb-b5e0-bad859f8e265"
    }
  }, {
    "fullUrl": "https://madie.cms.gov/Practitioner/55699724-97bb-4977-ba88-cc3dc6dfb578",
    "resource": {
      "resourceType": "Practitioner",
      "id": "55699724-97bb-4977-ba88-cc3dc6dfb578",
      "meta": {
        "profile": [ "http://hl7.org/fhir/us/qicore/StructureDefinition/qicore-practitioner" ]
      },
      "identifier": [ {
        "system": "http://hl7.org/fhir/sid/us-npi",
        "value": "9999999896"
      } ],
      "name": [ {
        "family": "Evil",
        "prefix": [ "Dr" ]
      } ]
    },
    "request": {
      "method": "PUT",
      "url": "Practitioner/55699724-97bb-4977-ba88-cc3dc6dfb578"
    }
  }, {
    "fullUrl": "https://madie.cms.gov/MeasureReport/d26d67f2-fab3-4c59-8fe5-b58363a5fb35",
    "resource": {
      "resourceType": "MeasureReport",
      "id": "d26d67f2-fab3-4c59-8fe5-b58363a5fb35",
      "meta": {
        "profile": [ "http://hl7.org/fhir/us/cqfmeasures/StructureDefinition/test-case-cqfm" ]
      },
      "contained": [ {
        "resourceType": "Parameters",
        "id": "13f819bc-66be-4675-9495-accad913ce81-parameters",
        "parameter": [ {
          "name": "subject",
          "valueString": "ed3ea9d2-94e4-4e67-b382-18147df9bac7"
        } ]
      } ],
      "extension": [ {
        "url": "http://hl7.org/fhir/StructureDefinition/cqf-inputParameters",
        "valueReference": {
          "reference": "#13f819bc-66be-4675-9495-accad913ce81-parameters"
        }
      }, {
        "url": "http://hl7.org/fhir/us/cqfmeasures/StructureDefinition/cqfm-testCaseDescription",
        "valueMarkdown": "Blood Transfusion Relevant Date Time 1 Minute after midnight day of encounter begin\n"
      } ],
      "modifierExtension": [ {
        "url": "http://hl7.org/fhir/us/cqfmeasures/StructureDefinition/cqfm-isTestCase",
        "valueBoolean": true
      } ],
      "status": "complete",
      "type": "individual",
      "measure": "https://madie.cms.gov/Measure/CMS1028FHIRPCSevereOBComps",
      "period": {
        "start": "2026-01-01",
        "end": "2026-12-31"
      },
      "group": [ {
        "id": "Group_1",
        "population": [ {
          "id": "InitialPopulation_1",
          "code": {
            "coding": [ {
              "system": "http://terminology.hl7.org/CodeSystem/measure-population",
              "code": "initial-population",
              "display": "Initial Population"
            } ]
          },
          "count": 1
        }, {
          "id": "Denominator_1",
          "code": {
            "coding": [ {
              "system": "http://terminology.hl7.org/CodeSystem/measure-population",
              "code": "denominator",
              "display": "Denominator"
            } ]
          },
          "count": 1
        }, {
          "id": "Numerator_1",
          "code": {
            "coding": [ {
              "system": "http://terminology.hl7.org/CodeSystem/measure-population",
              "code": "numerator",
              "display": "Numerator"
            } ]
          },
          "count": 0
        }, {
          "id": "NumeratorExclusion_1",
          "code": {
            "coding": [ {
              "system": "http://terminology.hl7.org/CodeSystem/measure-population",
              "code": "numerator-exclusion",
              "display": "Numerator Exclusion"
            } ]
          },
          "count": 0
        } ],
        "measureScore": {
          "value": 0.0
        }
      }, {
        "id": "Group_2",
        "population": [ {
          "id": "InitialPopulation_2",
          "code": {
            "coding": [ {
              "system": "http://terminology.hl7.org/CodeSystem/measure-population",
              "code": "initial-population",
              "display": "Initial Population"
            } ]
          },
          "count": 1
        }, {
          "id": "Denominator_2",
          "code": {
            "coding": [ {
              "system": "http://terminology.hl7.org/CodeSystem/measure-population",
              "code": "denominator",
              "display": "Denominator"
            } ]
          },
          "count": 1
        }, {
          "id": "Numerator_2",
          "code": {
            "coding": [ {
              "system": "http://terminology.hl7.org/CodeSystem/measure-population",
              "code": "numerator",
              "display": "Numerator"
            } ]
          },
          "count": 0
        }, {
          "id": "NumeratorExclusion_2",
          "code": {
            "coding": [ {
              "system": "http://terminology.hl7.org/CodeSystem/measure-population",
              "code": "numerator-exclusion",
              "display": "Numerator Exclusion"
            } ]
          },
          "count": 0
        } ],
        "measureScore": {
          "value": 0.0
        }
      } ],
      "evaluatedResource": [ {
        "reference": "Patient/ed3ea9d2-94e4-4e67-b382-18147df9bac7"
      }, {
        "reference": "Observation/b2cef258-723f-4916-aa5d-41f47cc053f3"
      }, {
        "reference": "Observation/edb05fbe-a075-4886-b219-108d14e890a8"
      }, {
        "reference": "Observation/3b5385e9-0acc-42b5-8d0c-286dc81a178e"
      }, {
        "reference": "Encounter/1a77c39c-0968-406a-99c1-d4a758d0f39c"
      }, {
        "reference": "Coverage/9e8535a1-2b55-47b4-bc72-02698c8cfdf8"
      }, {
        "reference": "Procedure/6954e054-c2b2-4aa1-9e76-df87d4a3d3a3"
      }, {
        "reference": "Procedure/611b5cc0-2eab-4472-aa7e-088f41e6c547"
      }, {
        "reference": "Organization/172002c6-802b-43eb-b5e0-bad859f8e265"
      }, {
        "reference": "Practitioner/55699724-97bb-4977-ba88-cc3dc6dfb578"
      } ]
    },
    "request": {
      "method": "PUT",
      "url": "MeasureReport/d26d67f2-fab3-4c59-8fe5-b58363a5fb35"
    }
  } ]
}