{
  "resourceType": "Bundle",
  "id": "6129131902c62a011f2e5b40",
  "type": "transaction",
  "entry": [ {
    "fullUrl": "https://madie.cms.gov/Patient/591c23ea-1ddd-4800-9203-4b6946979818",
    "resource": {
      "resourceType": "Patient",
      "id": "591c23ea-1ddd-4800-9203-4b6946979818",
      "meta": {
        "profile": [ "http://hl7.org/fhir/us/qicore/StructureDefinition/qicore-patient" ]
      },
      "text": {
        "status": "generated",
        "div": "<div xmlns=\"http://www.w3.org/1999/xhtml\"><div class=\"hapiHeaderText\">MedDscPatRsnDTimeEQEncStartTime <b>DENEXCEPPASS </b></div><table class=\"hapiPropertyTable\"><tbody><tr><td>Identifier</td><td>f27996c6545ea958dc5266f6c01bdf6c</td></tr><tr><td>Date of birth</td><td><span>21 August 1994</span></td></tr></tbody></table></div>"
      },
      "extension": [ {
        "url": "http://hl7.org/fhir/us/core/StructureDefinition/us-core-race",
        "extension": [ {
          "url": "ombCategory",
          "valueCoding": {
            "system": "urn:oid:2.16.840.1.113883.6.238",
            "code": "1002-5",
            "display": "American Indian or Alaska Native",
            "userSelected": true
          }
        }, {
          "url": "text",
          "valueString": "American Indian or Alaska Native"
        } ]
      }, {
        "url": "http://hl7.org/fhir/us/core/StructureDefinition/us-core-ethnicity",
        "extension": [ {
          "url": "ombCategory",
          "valueCoding": {
            "system": "urn:oid:2.16.840.1.113883.6.238",
            "code": "2135-2",
            "display": "Hispanic or Latino",
            "userSelected": true
          }
        }, {
          "url": "text",
          "valueString": "Hispanic or Latino"
        } ]
      } ],
      "identifier": [ {
        "type": {
          "coding": [ {
            "system": "http://terminology.hl7.org/CodeSystem/v2-0203",
            "code": "MR"
          } ]
        },
        "system": "https://bonnie-fhir.healthit.gov/",
        "value": "6129131902c62a011f2e5b40"
      } ],
      "active": true,
      "name": [ {
        "use": "usual",
        "family": "DENEXCEPPass",
        "given": [ "MedDscPatRsnDTimeEQEncStartTime" ]
      } ],
      "gender": "male",
      "birthDate": "1995-08-21"
    },
    "request": {
      "method": "PUT",
      "url": "Patient/591c23ea-1ddd-4800-9203-4b6946979818"
    }
  }, {
    "fullUrl": "https://madie.cms.gov/Encounter/c534f709-3d61-40af-9bba-754a908a673d",
    "resource": {
      "resourceType": "Encounter",
      "id": "c534f709-3d61-40af-9bba-754a908a673d",
      "meta": {
        "profile": [ "http://hl7.org/fhir/us/qicore/StructureDefinition/qicore-encounter" ]
      },
      "status": "finished",
      "class": {
        "system": "http://terminology.hl7.org/CodeSystem/v3-ActCode",
        "code": "IMP",
        "display": "inpatient encounter",
        "userSelected": true
      },
      "type": [ {
        "coding": [ {
          "system": "http://snomed.info/sct",
          "code": "32485007"
        } ]
      } ],
      "subject": {
        "reference": "Patient/591c23ea-1ddd-4800-9203-4b6946979818"
      },
      "period": {
        "start": "2026-10-10T09:30:00.000+00:00",
        "end": "2026-10-12T10:30:00.000+00:00"
      },
      "length": {
        "value": 2,
        "unit": "days"
      },
      "diagnosis": [ {
        "condition": {
          "reference": "Condition/132c019a-c3ae-4140-a46d-ff24fc8ddbdc"
        },
        "use": {
          "coding": [ {
            "system": "http://terminology.hl7.org/CodeSystem/diagnosis-role",
            "code": "billing",
            "display": "Billing"
          } ]
        },
        "rank": 1
      } ]
    },
    "request": {
      "method": "PUT",
      "url": "Encounter/c534f709-3d61-40af-9bba-754a908a673d"
    }
  }, {
    "fullUrl": "https://madie.cms.gov/claim/5ca62962b8484628b8de1ec5",
    "resource": {
      "resourceType": "Claim",
      "id": "5ca62962b8484628b8de1ec5",
      "meta": {
        "profile": [ "http://hl7.org/fhir/us/qicore/StructureDefinition/qicore-claim" ]
      },
      "status": "active",
      "type": {
        "coding": [ {
          "system": "http://terminology.hl7.org/CodeSystem/claim-type",
          "code": "institutional"
        } ]
      },
      "use": "claim",
      "patient": {
        "reference": "Patient/d170a0a8-b5ad-4303-b6df-e304dd5f92ad"
      },
      "created": "2026-12-01",
      "provider": {
        "reference": "Practitioner/practitioner-123456"
      },
      "priority": {
        "coding": [ {
          "system": "http://terminology.hl7.org/CodeSystem/processpriority",
          "code": "normal"
        } ]
      },
      "diagnosis": [ {
        "sequence": 1,
        "diagnosisCodeableConcept": {
          "coding": [ {
            "system": "http://hl7.org/fhir/sid/icd-10-cm",
            "code": "I63.00"
          } ]
        },
        "type": [ {
          "coding": [ {
            "system": "http://terminology.hl7.org/CodeSystem/ex-diagnosistype",
            "code": "principal"
          } ]
        } ]
      } ],
      "insurance": [ {
        "sequence": 1,
        "focal": true,
        "coverage": {
          "reference": "Coverage/5fa041661c76ba66d9959367"
        }
      } ],
      "item": [ {
        "sequence": 1,
        "diagnosisSequence": [ 1 ],
        "productOrService": {
          "coding": [ {
            "system": "http://terminology.hl7.org/CodeSystem/ex-USCLS",
            "code": "99555"
          } ]
        },
        "encounter": [ {
          "reference": "Encounter/c534f709-3d61-40af-9bba-754a908a673d"
        } ]
      } ]
    },
    "request": {
      "method": "PUT",
      "url": "Claim/5ca62962b8484628b8de1ec5"
    }
  }, {
    "fullUrl": "https://madie.cms.gov/MedicationRequest/cd2421f1-4067-407e-93cc-8f7f0dd57b34",
    "resource": {
      "resourceType": "MedicationRequest",
      "id": "cd2421f1-4067-407e-93cc-8f7f0dd57b34",
      "meta": {
        "profile": [ "http://hl7.org/fhir/us/qicore/StructureDefinition/qicore-medicationnotrequested" ]
      },
      "extension": [ {
        "url": "http://hl7.org/fhir/us/qicore/StructureDefinition/qicore-medicationnotrequested",
        "valueCodeableConcept": {
          "coding": [ {
            "system": "http://www.nlm.nih.gov/research/umls/rxnorm",
            "code": "1037045",
            "display": "dabigatran etexilate 150 MG Oral Capsule",
            "userSelected": true
          } ]
        }
      } ],
      "status": "completed",
      "intent": "order",
      "category": [ {
        "coding": [ {
          "system": "http://terminology.hl7.org/CodeSystem/medicationrequest-category",
          "code": "community"
        } ]
      } ],
      "doNotPerform": true,
      "medicationCodeableConcept": {
        "coding": [ {
          "system": "http://www.nlm.nih.gov/research/umls/rxnorm",
          "code": "1037045",
          "display": "dabigatran etexilate 150 MG Oral Capsule",
          "userSelected": true
        } ]
      },
      "subject": {
        "reference": "Patient/591c23ea-1ddd-4800-9203-4b6946979818"
      },
      "authoredOn": "2026-10-10T09:30:00.000+00:00",
      "requester": {
        "reference": "Practitioner/example"
      },
      "reasonCode": [ {
        "coding": [ {
          "system": "http://snomed.info/sct",
          "code": "443390004",
          "display": "Refused"
        } ]
      } ]
    },
    "request": {
      "method": "PUT",
      "url": "MedicationRequest/cd2421f1-4067-407e-93cc-8f7f0dd57b34"
    }
  }, {
    "fullUrl": "https://madie.cms.gov/Condition/132c019a-c3ae-4140-a46d-ff24fc8ddbdc",
    "resource": {
      "resourceType": "Condition",
      "id": "132c019a-c3ae-4140-a46d-ff24fc8ddbdc",
      "meta": {
        "profile": [ "http://hl7.org/fhir/us/qicore/StructureDefinition/qicore-condition" ]
      },
      "clinicalStatus": {
        "coding": [ {
          "system": "http://terminology.hl7.org/CodeSystem/condition-clinical",
          "code": "active"
        } ]
      },
      "verificationStatus": {
        "coding": [ {
          "system": "http://terminology.hl7.org/CodeSystem/condition-ver-status",
          "code": "confirmed"
        } ]
      },
      "category": [ {
        "coding": [ {
          "system": "http://terminology.hl7.org/CodeSystem/condition-category",
          "code": "encounter-diagnosis",
          "display": "Encounter Diagnosis"
        } ]
      } ],
      "code": {
        "coding": [ {
          "system": "http://snomed.info/sct",
          "version": "2020-09",
          "code": "111297002",
          "display": "Nonparalytic stroke (disorder)",
          "userSelected": true
        } ]
      },
      "subject": {
        "reference": "Patient/591c23ea-1ddd-4800-9203-4b6946979818"
      },
      "recordedDate": "2026-07-13T08:00:00.000+00:00"
    },
    "request": {
      "method": "PUT",
      "url": "Condition/132c019a-c3ae-4140-a46d-ff24fc8ddbdc"
    }
  }, {
    "fullUrl": "https://madie.cms.gov/Coverage/1e229eee-c899-4065-94a5-5aaa858ce612",
    "resource": {
      "resourceType": "Coverage",
      "id": "1e229eee-c899-4065-94a5-5aaa858ce612",
      "meta": {
        "profile": [ "http://hl7.org/fhir/us/qicore/StructureDefinition/qicore-coverage" ]
      },
      "status": "active",
      "beneficiary": {
        "reference": "Patient/591c23ea-1ddd-4800-9203-4b6946979818"
      },
      "payor": [ {
        "reference": "Organization/9b4ec914-f7ec-4558-a78d-d2e5c45d83f9"
      } ]
    },
    "request": {
      "method": "PUT",
      "url": "Coverage/1e229eee-c899-4065-94a5-5aaa858ce612"
    }
  }, {
    "fullUrl": "https://madie.cms.gov/Organization/9b4ec914-f7ec-4558-a78d-d2e5c45d83f9",
    "resource": {
      "resourceType": "Organization",
      "id": "9b4ec914-f7ec-4558-a78d-d2e5c45d83f9",
      "meta": {
        "profile": [ "http://hl7.org/fhir/us/qicore/StructureDefinition/qicore-organization" ]
      },
      "identifier": [ {
        "use": "temp",
        "system": "urn:oid:2.16.840.1.113883.4.4",
        "value": "21-3259825"
      } ],
      "active": true,
      "type": [ {
        "coding": [ {
          "system": "http://terminology.hl7.org/CodeSystem/organization-type",
          "code": "pay",
          "display": "Payer"
        } ]
      } ],
      "name": "Blue Cross Blue Shield of Texas",
      "telecom": [ {
        "system": "phone",
        "value": "(+1) 972-766-6900"
      } ],
      "address": [ {
        "use": "billing",
        "type": "postal",
        "line": [ "P.O. Box 660044" ],
        "city": "Dallas",
        "state": "TX",
        "postalCode": "75266-0044",
        "country": "USA"
      } ]
    },
    "request": {
      "method": "PUT",
      "url": "Organization/9b4ec914-f7ec-4558-a78d-d2e5c45d83f9"
    }
  }, {
    "fullUrl": "https://madie.cms.gov/MeasureReport/a871588f-5c88-44ce-890e-ccac41059f64",
    "resource": {
      "resourceType": "MeasureReport",
      "id": "a871588f-5c88-44ce-890e-ccac41059f64",
      "meta": {
        "profile": [ "http://hl7.org/fhir/us/cqfmeasures/StructureDefinition/test-case-cqfm" ]
      },
      "contained": [ {
        "resourceType": "Parameters",
        "id": "ccf058cf-7757-448e-b495-b77c17d5d7f1-parameters",
        "parameter": [ {
          "name": "subject",
          "valueString": "591c23ea-1ddd-4800-9203-4b6946979818"
        } ]
      } ],
      "extension": [ {
        "url": "http://hl7.org/fhir/StructureDefinition/cqf-inputParameters",
        "valueReference": {
          "reference": "#ccf058cf-7757-448e-b495-b77c17d5d7f1-parameters"
        }
      }, {
        "url": "http://hl7.org/fhir/us/cqfmeasures/StructureDefinition/cqfm-testCaseDescription",
        "valueMarkdown": "Patient does not get antithrombotic medication due to patient refusal during IP encounter. This case tests the timing boundary for den exception criteria, refusal at start of encounter. \n"
      } ],
      "modifierExtension": [ {
        "url": "http://hl7.org/fhir/us/cqfmeasures/StructureDefinition/cqfm-isTestCase",
        "valueBoolean": true
      } ],
      "status": "complete",
      "type": "individual",
      "measure": "https://madie.cms.gov/Measure/CMS104FHIRSTKDCAntithrombotic",
      "period": {
        "start": "2026-01-01",
        "end": "2026-12-31"
      },
      "group": [ {
        "id": "Group_1",
        "population": [ {
          "id": "InitialPopulation_1",
          "code": {
            "coding": [ {
              "system": "http://terminology.hl7.org/CodeSystem/measure-population",
              "code": "initial-population",
              "display": "Initial Population"
            } ]
          },
          "count": 1
        }, {
          "id": "Denominator_1",
          "code": {
            "coding": [ {
              "system": "http://terminology.hl7.org/CodeSystem/measure-population",
              "code": "denominator",
              "display": "Denominator"
            } ]
          },
          "count": 1
        }, {
          "id": "DenominatorExclusion_1",
          "code": {
            "coding": [ {
              "system": "http://terminology.hl7.org/CodeSystem/measure-population",
              "code": "denominator-exclusion",
              "display": "Denominator Exclusion"
            } ]
          },
          "count": 0
        }, {
          "id": "Numerator_1",
          "code": {
            "coding": [ {
              "system": "http://terminology.hl7.org/CodeSystem/measure-population",
              "code": "numerator",
              "display": "Numerator"
            } ]
          },
          "count": 0
        }, {
          "id": "DenominatorException_1",
          "code": {
            "coding": [ {
              "system": "http://terminology.hl7.org/CodeSystem/measure-population",
              "code": "denominator-exception",
              "display": "Denominator Exception"
            } ]
          },
          "count": 1
        } ],
        "measureScore": {
          "value": 0.0
        }
      } ],
      "evaluatedResource": [ {
        "reference": "Patient/591c23ea-1ddd-4800-9203-4b6946979818"
      }, {
        "reference": "Encounter/c534f709-3d61-40af-9bba-754a908a673d"
      }, {
        "reference": "Claim/5ca62962b8484628b8de1ec5"
      }, {
        "reference": "MedicationRequest/cd2421f1-4067-407e-93cc-8f7f0dd57b34"
      }, {
        "reference": "Condition/132c019a-c3ae-4140-a46d-ff24fc8ddbdc"
      }, {
        "reference": "Coverage/1e229eee-c899-4065-94a5-5aaa858ce612"
      }, {
        "reference": "Organization/9b4ec914-f7ec-4558-a78d-d2e5c45d83f9"
      } ]
    },
    "request": {
      "method": "PUT",
      "url": "MeasureReport/a871588f-5c88-44ce-890e-ccac41059f64"
    }
  } ]
}