{
  "resourceType": "Bundle",
  "id": "NUMERPass-GroupCounseling",
  "type": "transaction",
  "entry": [ {
    "fullUrl": "https://madie.cms.gov/Patient/b3ffefb2-2f7c-4f32-8983-e1881247c0d6",
    "resource": {
      "resourceType": "Patient",
      "id": "b3ffefb2-2f7c-4f32-8983-e1881247c0d6",
      "meta": {
        "profile": [ "http://hl7.org/fhir/us/qicore/StructureDefinition/qicore-patient" ]
      },
      "extension": [ {
        "url": "http://hl7.org/fhir/us/core/StructureDefinition/us-core-race",
        "extension": [ {
          "url": "ombCategory",
          "valueCoding": {
            "system": "urn:oid:2.16.840.1.113883.6.238",
            "code": "2028-9",
            "display": "Asian",
            "userSelected": true
          }
        }, {
          "url": "text",
          "valueString": "Asian"
        } ]
      }, {
        "url": "http://hl7.org/fhir/us/core/StructureDefinition/us-core-ethnicity",
        "extension": [ {
          "url": "ombCategory",
          "valueCoding": {
            "system": "urn:oid:2.16.840.1.113883.6.238",
            "code": "2135-2",
            "display": "Hispanic or Latino",
            "userSelected": true
          }
        }, {
          "url": "text",
          "valueString": "Hispanic or Latino"
        } ]
      } ],
      "identifier": [ {
        "type": {
          "coding": [ {
            "system": "http://terminology.hl7.org/CodeSystem/v2-0203",
            "code": "MR"
          } ]
        },
        "system": "http://hospital.smarthealthit.org",
        "value": "999999995"
      } ],
      "name": [ {
        "family": "Bertha",
        "given": [ "Betty" ]
      } ],
      "gender": "female",
      "birthDate": "2016-12-31"
    },
    "request": {
      "method": "PUT",
      "url": "Patient/b3ffefb2-2f7c-4f32-8983-e1881247c0d6"
    }
  }, {
    "fullUrl": "https://madie.cms.gov/Encounter/ec44a6e1-57d9-40f8-a1f1-7c841439ee19",
    "resource": {
      "resourceType": "Encounter",
      "id": "ec44a6e1-57d9-40f8-a1f1-7c841439ee19",
      "meta": {
        "profile": [ "http://hl7.org/fhir/us/qicore/StructureDefinition/qicore-encounter" ]
      },
      "status": "finished",
      "class": {
        "system": "http://terminology.hl7.org/CodeSystem/v3-ActCode",
        "code": "AMB",
        "display": "ambulatory"
      },
      "type": [ {
        "coding": [ {
          "system": "http://snomed.info/sct",
          "code": "185464004",
          "display": "Out of hours visit - not night visit (procedure)"
        } ]
      } ],
      "subject": {
        "reference": "Patient/b3ffefb2-2f7c-4f32-8983-e1881247c0d6"
      },
      "period": {
        "start": "2026-01-01T00:00:00.000+00:00",
        "end": "2026-01-01T01:00:00.000+00:00"
      }
    },
    "request": {
      "method": "PUT",
      "url": "Encounter/ec44a6e1-57d9-40f8-a1f1-7c841439ee19"
    }
  }, {
    "fullUrl": "https://madie.cms.gov/MedicationRequest/2d3b4e4d-f252-4402-a50f-7f95d22a1191",
    "resource": {
      "resourceType": "MedicationRequest",
      "id": "2d3b4e4d-f252-4402-a50f-7f95d22a1191",
      "meta": {
        "profile": [ "http://hl7.org/fhir/us/qicore/StructureDefinition/qicore-medicationrequest" ]
      },
      "status": "completed",
      "intent": "order",
      "medicationCodeableConcept": {
        "coding": [ {
          "system": "http://www.nlm.nih.gov/research/umls/rxnorm",
          "code": "884173",
          "display": "clonidine hydrochloride 0.1 MG Oral Tablet"
        } ]
      },
      "subject": {
        "reference": "Patient/b3ffefb2-2f7c-4f32-8983-e1881247c0d6"
      },
      "authoredOn": "2026-01-01T00:00:00.000+00:00",
      "requester": {
        "reference": "Practitioner/example"
      },
      "dosageInstruction": [ {
        "timing": {
          "repeat": {
            "boundsPeriod": {
              "start": "2026-01-01T00:00:00.000+00:00",
              "end": "2026-03-31T23:59:59.000+00:00"
            }
          }
        }
      } ],
      "dispenseRequest": {
        "expectedSupplyDuration": {
          "value": 90,
          "system": "http://unitsofmeasure.org",
          "code": "d"
        }
      }
    },
    "request": {
      "method": "PUT",
      "url": "MedicationRequest/2d3b4e4d-f252-4402-a50f-7f95d22a1191"
    }
  }, {
    "fullUrl": "https://madie.cms.gov/Encounter/b0488755-4981-4110-8c48-638256f02e2a",
    "resource": {
      "resourceType": "Encounter",
      "id": "b0488755-4981-4110-8c48-638256f02e2a",
      "meta": {
        "profile": [ "http://hl7.org/fhir/us/qicore/StructureDefinition/qicore-encounter" ]
      },
      "status": "finished",
      "class": {
        "system": "http://terminology.hl7.org/CodeSystem/v3-ActCode",
        "code": "AMB",
        "display": "ambulatory"
      },
      "type": [ {
        "coding": [ {
          "system": "http://www.ama-assn.org/go/cpt",
          "code": "99412",
          "display": "Preventive medicine counseling and/or risk factor reduction intervention(s) provided to individuals in a group setting (separate procedure); approximately 60 minutes"
        } ]
      } ],
      "subject": {
        "reference": "Patient/b3ffefb2-2f7c-4f32-8983-e1881247c0d6"
      },
      "period": {
        "start": "2026-01-31T00:00:00.000+00:00",
        "end": "2026-01-31T01:00:00.000+00:00"
      }
    },
    "request": {
      "method": "PUT",
      "url": "Encounter/b0488755-4981-4110-8c48-638256f02e2a"
    }
  }, {
    "fullUrl": "https://madie.cms.gov/MeasureReport/14b1ab90-d877-4b14-a3ed-f74dfccf7fc1",
    "resource": {
      "resourceType": "MeasureReport",
      "id": "14b1ab90-d877-4b14-a3ed-f74dfccf7fc1",
      "meta": {
        "profile": [ "http://hl7.org/fhir/us/cqfmeasures/StructureDefinition/test-case-cqfm" ]
      },
      "contained": [ {
        "resourceType": "Parameters",
        "id": "ad7cd9f7-3db7-4b71-873e-f7c8ba000b6b-parameters",
        "parameter": [ {
          "name": "subject",
          "valueString": "b3ffefb2-2f7c-4f32-8983-e1881247c0d6"
        } ]
      } ],
      "extension": [ {
        "url": "http://hl7.org/fhir/StructureDefinition/cqf-inputParameters",
        "valueReference": {
          "reference": "#ad7cd9f7-3db7-4b71-873e-f7c8ba000b6b-parameters"
        }
      }, {
        "url": "http://hl7.org/fhir/us/cqfmeasures/StructureDefinition/cqfm-testCaseDescription",
        "valueMarkdown": "Qualifying numerator encounter is preventative care group counseling"
      } ],
      "modifierExtension": [ {
        "url": "http://hl7.org/fhir/us/cqfmeasures/StructureDefinition/cqfm-isTestCase",
        "valueBoolean": true
      } ],
      "status": "complete",
      "type": "individual",
      "measure": "https://madie.cms.gov/Measure/CMS136FHIRChildADHDMedFollowUp",
      "period": {
        "start": "2026-01-01",
        "end": "2026-12-31"
      },
      "group": [ {
        "id": "Group_1",
        "population": [ {
          "id": "InitialPopulation_1",
          "code": {
            "coding": [ {
              "system": "http://terminology.hl7.org/CodeSystem/measure-population",
              "code": "initial-population",
              "display": "Initial Population"
            } ]
          },
          "count": 1
        }, {
          "id": "Denominator_1",
          "code": {
            "coding": [ {
              "system": "http://terminology.hl7.org/CodeSystem/measure-population",
              "code": "denominator",
              "display": "Denominator"
            } ]
          },
          "count": 1
        }, {
          "id": "DenominatorExclusion_1",
          "code": {
            "coding": [ {
              "system": "http://terminology.hl7.org/CodeSystem/measure-population",
              "code": "denominator-exclusion",
              "display": "Denominator Exclusion"
            } ]
          },
          "count": 0
        }, {
          "id": "Numerator_1",
          "code": {
            "coding": [ {
              "system": "http://terminology.hl7.org/CodeSystem/measure-population",
              "code": "numerator",
              "display": "Numerator"
            } ]
          },
          "count": 1
        } ],
        "measureScore": {
          "value": 1.0
        }
      }, {
        "id": "Group_2",
        "population": [ {
          "id": "InitialPopulation_2",
          "code": {
            "coding": [ {
              "system": "http://terminology.hl7.org/CodeSystem/measure-population",
              "code": "initial-population",
              "display": "Initial Population"
            } ]
          },
          "count": 0
        }, {
          "id": "Denominator_2",
          "code": {
            "coding": [ {
              "system": "http://terminology.hl7.org/CodeSystem/measure-population",
              "code": "denominator",
              "display": "Denominator"
            } ]
          },
          "count": 0
        }, {
          "id": "DenominatorExclusion_2",
          "code": {
            "coding": [ {
              "system": "http://terminology.hl7.org/CodeSystem/measure-population",
              "code": "denominator-exclusion",
              "display": "Denominator Exclusion"
            } ]
          },
          "count": 0
        }, {
          "id": "Numerator_2",
          "code": {
            "coding": [ {
              "system": "http://terminology.hl7.org/CodeSystem/measure-population",
              "code": "numerator",
              "display": "Numerator"
            } ]
          },
          "count": 0
        } ],
        "measureScore": {
          "value": 1.0
        }
      } ],
      "evaluatedResource": [ {
        "reference": "Patient/b3ffefb2-2f7c-4f32-8983-e1881247c0d6"
      }, {
        "reference": "Encounter/ec44a6e1-57d9-40f8-a1f1-7c841439ee19"
      }, {
        "reference": "MedicationRequest/2d3b4e4d-f252-4402-a50f-7f95d22a1191"
      }, {
        "reference": "Encounter/b0488755-4981-4110-8c48-638256f02e2a"
      } ]
    },
    "request": {
      "method": "PUT",
      "url": "MeasureReport/14b1ab90-d877-4b14-a3ed-f74dfccf7fc1"
    }
  } ]
}