{
  "resourceType": "Bundle",
  "id": "63487c2d0968f80122540158",
  "type": "transaction",
  "entry": [ {
    "fullUrl": "https://madie.cms.gov/Patient/f78258b8-777e-41b3-888c-0f22f70bbe35",
    "resource": {
      "resourceType": "Patient",
      "id": "f78258b8-777e-41b3-888c-0f22f70bbe35",
      "meta": {
        "profile": [ "http://hl7.org/fhir/us/qicore/StructureDefinition/qicore-patient" ]
      },
      "text": {
        "status": "generated",
        "div": "<div xmlns=\"http://www.w3.org/1999/xhtml\"><div class=\"hapiHeaderText\">AssessPreTerm0Term0RelDateLT42wkB4TimeOfDeliv <b>DENPASS </b></div><table class=\"hapiPropertyTable\"><tbody><tr><td>Identifier</td><td>31dd119079cfd5a4816f532ca8b3c6d0faf1e7c5fc379938019c4901872a0135</td></tr><tr><td>Date of birth</td><td><span>14 February 1985</span></td></tr></tbody></table></div>"
      },
      "extension": [ {
        "url": "http://hl7.org/fhir/us/core/StructureDefinition/us-core-race",
        "extension": [ {
          "url": "ombCategory",
          "valueCoding": {
            "system": "urn:oid:2.16.840.1.113883.6.238",
            "code": "1002-5",
            "display": "American Indian or Alaska Native",
            "userSelected": true
          }
        }, {
          "url": "text",
          "valueString": "American Indian or Alaska Native"
        } ]
      }, {
        "url": "http://hl7.org/fhir/us/core/StructureDefinition/us-core-ethnicity",
        "extension": [ {
          "url": "ombCategory",
          "valueCoding": {
            "system": "urn:oid:2.16.840.1.113883.6.238",
            "code": "2135-2",
            "display": "Hispanic or Latino",
            "userSelected": true
          }
        }, {
          "url": "text",
          "valueString": "Hispanic or Latino"
        } ]
      } ],
      "identifier": [ {
        "type": {
          "coding": [ {
            "system": "http://terminology.hl7.org/CodeSystem/v2-0203",
            "code": "MR"
          } ]
        },
        "system": "https://bonnie-fhir.healthit.gov/",
        "value": "63487c2d0968f80122540158"
      } ],
      "active": true,
      "name": [ {
        "use": "usual",
        "family": "DENPass",
        "given": [ "AssessPreTerm0Term0RelDateLT42wkB4TimeOfDeliv" ]
      } ],
      "gender": "female",
      "birthDate": "1998-02-14"
    },
    "request": {
      "method": "PUT",
      "url": "Patient/f78258b8-777e-41b3-888c-0f22f70bbe35"
    }
  }, {
    "fullUrl": "https://madie.cms.gov/Observation/e752ed4b-48e7-46c7-95ce-2aa8a4dab07c",
    "resource": {
      "resourceType": "Observation",
      "id": "e752ed4b-48e7-46c7-95ce-2aa8a4dab07c",
      "meta": {
        "profile": [ "http://hl7.org/fhir/us/qicore/StructureDefinition/qicore-simple-observation" ]
      },
      "status": "final",
      "category": [ {
        "coding": [ {
          "system": "http://terminology.hl7.org/CodeSystem/observation-category",
          "code": "exam",
          "display": "exam",
          "userSelected": true
        } ]
      } ],
      "code": {
        "coding": [ {
          "system": "http://loinc.org",
          "code": "11637-6"
        } ]
      },
      "subject": {
        "reference": "Patient/f78258b8-777e-41b3-888c-0f22f70bbe35"
      },
      "effectiveDateTime": "2025-09-19T09:00:00.000+00:00",
      "valueInteger": 0
    },
    "request": {
      "method": "PUT",
      "url": "Observation/e752ed4b-48e7-46c7-95ce-2aa8a4dab07c"
    }
  }, {
    "fullUrl": "https://madie.cms.gov/Observation/21bfc782-1d95-424e-9ef1-cbf2b40b8732",
    "resource": {
      "resourceType": "Observation",
      "id": "21bfc782-1d95-424e-9ef1-cbf2b40b8732",
      "meta": {
        "profile": [ "http://hl7.org/fhir/us/qicore/StructureDefinition/qicore-simple-observation" ]
      },
      "status": "final",
      "category": [ {
        "coding": [ {
          "system": "http://terminology.hl7.org/CodeSystem/observation-category",
          "code": "exam",
          "display": "exam",
          "userSelected": true
        } ]
      } ],
      "code": {
        "coding": [ {
          "system": "http://loinc.org",
          "code": "11639-2"
        } ]
      },
      "subject": {
        "reference": "Patient/f78258b8-777e-41b3-888c-0f22f70bbe35"
      },
      "effectiveDateTime": "2025-09-19T09:00:00.000+00:00",
      "valueInteger": 0
    },
    "request": {
      "method": "PUT",
      "url": "Observation/21bfc782-1d95-424e-9ef1-cbf2b40b8732"
    }
  }, {
    "fullUrl": "https://madie.cms.gov/Observation/10ecb8f4-031c-447b-8501-b666482cf0e2",
    "resource": {
      "resourceType": "Observation",
      "id": "10ecb8f4-031c-447b-8501-b666482cf0e2",
      "meta": {
        "profile": [ "http://hl7.org/fhir/us/qicore/StructureDefinition/qicore-simple-observation" ]
      },
      "status": "final",
      "category": [ {
        "coding": [ {
          "system": "http://terminology.hl7.org/CodeSystem/observation-category",
          "code": "exam",
          "display": "exam",
          "userSelected": true
        } ]
      } ],
      "code": {
        "coding": [ {
          "system": "http://loinc.org",
          "code": "11884-4"
        } ]
      },
      "subject": {
        "reference": "Patient/f78258b8-777e-41b3-888c-0f22f70bbe35"
      },
      "effectiveDateTime": "2026-06-08T20:00:00.000+00:00",
      "valueQuantity": {
        "value": 37,
        "system": "http://unitsofmeasure.org",
        "code": "wk"
      }
    },
    "request": {
      "method": "PUT",
      "url": "Observation/10ecb8f4-031c-447b-8501-b666482cf0e2"
    }
  }, {
    "fullUrl": "https://madie.cms.gov/Observation/8d97514d-f9c1-46ae-a8af-4c5ffc4c4bb4",
    "resource": {
      "resourceType": "Observation",
      "id": "8d97514d-f9c1-46ae-a8af-4c5ffc4c4bb4",
      "meta": {
        "profile": [ "http://hl7.org/fhir/us/qicore/StructureDefinition/qicore-simple-observation" ]
      },
      "status": "final",
      "category": [ {
        "coding": [ {
          "system": "http://terminology.hl7.org/CodeSystem/observation-category",
          "code": "exam",
          "display": "exam",
          "userSelected": true
        } ]
      } ],
      "code": {
        "coding": [ {
          "system": "http://loinc.org",
          "code": "93857-1"
        } ]
      },
      "subject": {
        "reference": "Patient/f78258b8-777e-41b3-888c-0f22f70bbe35"
      },
      "effectiveDateTime": "2026-06-08T20:00:00.000+00:00",
      "valueDateTime": "2026-06-08T20:00:00.000+00:00"
    },
    "request": {
      "method": "PUT",
      "url": "Observation/8d97514d-f9c1-46ae-a8af-4c5ffc4c4bb4"
    }
  }, {
    "fullUrl": "https://madie.cms.gov/Encounter/b5becded-c36e-4798-a33d-2fdcbd92e0e1",
    "resource": {
      "resourceType": "Encounter",
      "id": "b5becded-c36e-4798-a33d-2fdcbd92e0e1",
      "meta": {
        "profile": [ "http://hl7.org/fhir/us/qicore/StructureDefinition/qicore-encounter" ]
      },
      "status": "finished",
      "class": {
        "system": "http://terminology.hl7.org/CodeSystem/v3-ActCode",
        "code": "IMP",
        "display": "inpatient encounter"
      },
      "type": [ {
        "coding": [ {
          "system": "http://snomed.info/sct",
          "code": "8715000"
        } ]
      } ],
      "subject": {
        "reference": "Patient/f78258b8-777e-41b3-888c-0f22f70bbe35"
      },
      "period": {
        "start": "2026-06-08T08:00:00.000+00:00",
        "end": "2026-06-10T08:15:00.000+00:00"
      },
      "length": {
        "value": 2,
        "unit": "days"
      },
      "reasonReference": [ {
        "reference": "Condition/37063351-858f-4d9d-aa02-6b244eed4609"
      } ]
    },
    "request": {
      "method": "PUT",
      "url": "Encounter/b5becded-c36e-4798-a33d-2fdcbd92e0e1"
    }
  }, {
    "fullUrl": "https://madie.cms.gov/Procedure/5f6eda9a-f2c9-4f09-a0cf-d55177dc5131",
    "resource": {
      "resourceType": "Procedure",
      "id": "5f6eda9a-f2c9-4f09-a0cf-d55177dc5131",
      "meta": {
        "profile": [ "http://hl7.org/fhir/us/qicore/StructureDefinition/qicore-procedure" ]
      },
      "extension": [ {
        "url": "http://hl7.org/fhir/us/qicore/StructureDefinition/qicore-recorded",
        "valueDateTime": "2014-04-05T13:35:00.000+00:00"
      } ],
      "status": "completed",
      "code": {
        "coding": [ {
          "system": "http://www.cms.gov/Medicare/Coding/ICD10",
          "code": "10D00Z0"
        }, {
          "system": "http://snomed.info/sct",
          "code": "4504004"
        } ]
      },
      "subject": {
        "reference": "Patient/f78258b8-777e-41b3-888c-0f22f70bbe35"
      },
      "performedPeriod": {
        "start": "2026-06-08T20:00:00.000+00:00",
        "end": "2026-06-08T20:15:00.000+00:00"
      }
    },
    "request": {
      "method": "PUT",
      "url": "Procedure/5f6eda9a-f2c9-4f09-a0cf-d55177dc5131"
    }
  }, {
    "fullUrl": "https://madie.cms.gov/Condition/37063351-858f-4d9d-aa02-6b244eed4609",
    "resource": {
      "resourceType": "Condition",
      "id": "37063351-858f-4d9d-aa02-6b244eed4609",
      "meta": {
        "profile": [ "http://hl7.org/fhir/us/qicore/StructureDefinition/qicore-condition-encounter-diagnosis" ]
      },
      "category": [ {
        "coding": [ {
          "system": "http://terminology.hl7.org/CodeSystem/condition-category",
          "code": "encounter-diagnosis",
          "display": "Encounter Diagnosis"
        } ]
      } ],
      "code": {
        "coding": [ {
          "system": "http://snomed.info/sct",
          "version": "2022-09",
          "code": "169826009",
          "display": "Single live birth from singleton pregnancy (finding)",
          "userSelected": true
        } ]
      },
      "subject": {
        "reference": "Patient/f78258b8-777e-41b3-888c-0f22f70bbe35"
      },
      "encounter": {
        "reference": "Encounter/b5becded-c36e-4798-a33d-2fdcbd92e0e1"
      },
      "recordedDate": "2026-10-20T08:00:00.000+00:00"
    },
    "request": {
      "method": "PUT",
      "url": "Condition/37063351-858f-4d9d-aa02-6b244eed4609"
    }
  }, {
    "fullUrl": "https://madie.cms.gov/Coverage/8f86bc61-651a-403b-bd1b-2f98aa48b217",
    "resource": {
      "resourceType": "Coverage",
      "id": "8f86bc61-651a-403b-bd1b-2f98aa48b217",
      "meta": {
        "profile": [ "http://hl7.org/fhir/us/qicore/StructureDefinition/qicore-coverage" ]
      },
      "status": "active",
      "subscriberId": "523435",
      "beneficiary": {
        "reference": "Patient/f78258b8-777e-41b3-888c-0f22f70bbe35"
      },
      "relationship": {
        "coding": [ {
          "system": "http://terminology.hl7.org/CodeSystem/subscriber-relationship",
          "code": "self"
        } ]
      },
      "payor": [ {
        "reference": "Organization/200da4db-312a-4521-b6fc-80dc72f675f6"
      } ]
    },
    "request": {
      "method": "PUT",
      "url": "Coverage/8f86bc61-651a-403b-bd1b-2f98aa48b217"
    }
  }, {
    "fullUrl": "https://madie.cms.gov/Organization/200da4db-312a-4521-b6fc-80dc72f675f6",
    "resource": {
      "resourceType": "Organization",
      "id": "200da4db-312a-4521-b6fc-80dc72f675f6",
      "meta": {
        "profile": [ "http://hl7.org/fhir/us/qicore/StructureDefinition/qicore-organization" ]
      },
      "identifier": [ {
        "use": "temp",
        "system": "urn:oid:2.16.840.1.113883.4.4",
        "value": "21-3259825"
      } ],
      "active": true,
      "type": [ {
        "coding": [ {
          "system": "http://terminology.hl7.org/CodeSystem/organization-type",
          "code": "pay",
          "display": "Payer"
        } ]
      } ],
      "name": "Blue Cross Blue Shield of Texas",
      "telecom": [ {
        "system": "phone",
        "value": "(+1) 972-766-6900"
      } ],
      "address": [ {
        "use": "billing",
        "type": "postal",
        "line": [ "P.O. Box 660044" ],
        "city": "Dallas",
        "state": "TX",
        "postalCode": "75266-0044",
        "country": "USA"
      } ]
    },
    "request": {
      "method": "PUT",
      "url": "Organization/200da4db-312a-4521-b6fc-80dc72f675f6"
    }
  }, {
    "fullUrl": "https://madie.cms.gov/Practitioner/6c210d8f-60b0-4324-9939-7d89b30ddb39",
    "resource": {
      "resourceType": "Practitioner",
      "id": "6c210d8f-60b0-4324-9939-7d89b30ddb39",
      "meta": {
        "profile": [ "http://hl7.org/fhir/us/qicore/StructureDefinition/qicore-practitioner" ]
      },
      "identifier": [ {
        "system": "http://hl7.org/fhir/sid/us-npi",
        "value": "1234567890"
      } ],
      "name": [ {
        "family": "Evil",
        "prefix": [ "Dr" ]
      } ]
    },
    "request": {
      "method": "PUT",
      "url": "Practitioner/6c210d8f-60b0-4324-9939-7d89b30ddb39"
    }
  }, {
    "fullUrl": "https://madie.cms.gov/MeasureReport/97832a9e-d95c-41b5-b534-75e9c74def79",
    "resource": {
      "resourceType": "MeasureReport",
      "id": "97832a9e-d95c-41b5-b534-75e9c74def79",
      "meta": {
        "profile": [ "http://hl7.org/fhir/us/cqfmeasures/StructureDefinition/test-case-cqfm" ]
      },
      "contained": [ {
        "resourceType": "Parameters",
        "id": "70577c1f-4176-4498-9846-96499edf9e59-parameters",
        "parameter": [ {
          "name": "subject",
          "valueString": "f78258b8-777e-41b3-888c-0f22f70bbe35"
        } ]
      } ],
      "extension": [ {
        "url": "http://hl7.org/fhir/StructureDefinition/cqf-inputParameters",
        "valueReference": {
          "reference": "#70577c1f-4176-4498-9846-96499edf9e59-parameters"
        }
      }, {
        "url": "http://hl7.org/fhir/us/cqfmeasures/StructureDefinition/cqfm-testCaseDescription",
        "valueMarkdown": "\"Preterm Births=0, Rel Dt/Time < 42weeks prior to asse delivery date/time\nTerm Newborn=0, Rel Dt/Time < 42weeks prior to asse delivery date/time\"\n"
      } ],
      "modifierExtension": [ {
        "url": "http://hl7.org/fhir/us/cqfmeasures/StructureDefinition/cqfm-isTestCase",
        "valueBoolean": true
      } ],
      "status": "complete",
      "type": "individual",
      "measure": "https://madie.cms.gov/Measure/CMS0334FHIRPCCesareanBirth",
      "period": {
        "start": "2026-01-01",
        "end": "2026-12-31"
      },
      "group": [ {
        "id": "Group_1",
        "population": [ {
          "id": "InitialPopulation_1",
          "code": {
            "coding": [ {
              "system": "http://terminology.hl7.org/CodeSystem/measure-population",
              "code": "initial-population",
              "display": "Initial Population"
            } ]
          },
          "count": 1
        }, {
          "id": "Denominator_1",
          "code": {
            "coding": [ {
              "system": "http://terminology.hl7.org/CodeSystem/measure-population",
              "code": "denominator",
              "display": "Denominator"
            } ]
          },
          "count": 1
        }, {
          "id": "DenominatorExclusion_1",
          "code": {
            "coding": [ {
              "system": "http://terminology.hl7.org/CodeSystem/measure-population",
              "code": "denominator-exclusion",
              "display": "Denominator Exclusion"
            } ]
          },
          "count": 0
        }, {
          "id": "Numerator_1",
          "code": {
            "coding": [ {
              "system": "http://terminology.hl7.org/CodeSystem/measure-population",
              "code": "numerator",
              "display": "Numerator"
            } ]
          },
          "count": 1
        } ],
        "measureScore": {
          "value": 0.0
        }
      } ],
      "evaluatedResource": [ {
        "reference": "Patient/f78258b8-777e-41b3-888c-0f22f70bbe35"
      }, {
        "reference": "Observation/e752ed4b-48e7-46c7-95ce-2aa8a4dab07c"
      }, {
        "reference": "Observation/21bfc782-1d95-424e-9ef1-cbf2b40b8732"
      }, {
        "reference": "Observation/10ecb8f4-031c-447b-8501-b666482cf0e2"
      }, {
        "reference": "Observation/8d97514d-f9c1-46ae-a8af-4c5ffc4c4bb4"
      }, {
        "reference": "Encounter/b5becded-c36e-4798-a33d-2fdcbd92e0e1"
      }, {
        "reference": "Procedure/5f6eda9a-f2c9-4f09-a0cf-d55177dc5131"
      }, {
        "reference": "Condition/37063351-858f-4d9d-aa02-6b244eed4609"
      }, {
        "reference": "Coverage/8f86bc61-651a-403b-bd1b-2f98aa48b217"
      }, {
        "reference": "Organization/200da4db-312a-4521-b6fc-80dc72f675f6"
      }, {
        "reference": "Practitioner/6c210d8f-60b0-4324-9939-7d89b30ddb39"
      } ]
    },
    "request": {
      "method": "PUT",
      "url": "MeasureReport/97832a9e-d95c-41b5-b534-75e9c74def79"
    }
  } ]
}