{
  "resourceType": "Bundle",
  "id": "633c9d030968f8012250fc8e",
  "type": "transaction",
  "entry": [ {
    "fullUrl": "https://madie.cms.gov/Patient/fb49e13d-3b13-46ae-8862-59033137e1b8",
    "resource": {
      "resourceType": "Patient",
      "id": "fb49e13d-3b13-46ae-8862-59033137e1b8",
      "meta": {
        "profile": [ "http://hl7.org/fhir/us/qicore/StructureDefinition/qicore-patient" ]
      },
      "text": {
        "status": "generated",
        "div": "<div xmlns=\"http://www.w3.org/1999/xhtml\"><div class=\"hapiHeaderText\">MedRsnStartTmLTEncAdmTm <b>DENEXCEPFAIL </b></div><table class=\"hapiPropertyTable\"><tbody><tr><td>Identifier</td><td>8a884ee78cd24d8c9b5a7d8bd151cd79</td></tr><tr><td>Date of birth</td><td><span>23 May 1954</span></td></tr></tbody></table></div>"
      },
      "extension": [ {
        "url": "http://hl7.org/fhir/us/core/StructureDefinition/us-core-race",
        "extension": [ {
          "url": "ombCategory",
          "valueCoding": {
            "system": "urn:oid:2.16.840.1.113883.6.238",
            "code": "1002-5",
            "display": "American Indian or Alaska Native",
            "userSelected": true
          }
        }, {
          "url": "text",
          "valueString": "American Indian or Alaska Native"
        } ]
      }, {
        "url": "http://hl7.org/fhir/us/core/StructureDefinition/us-core-ethnicity",
        "extension": [ {
          "url": "ombCategory",
          "valueCoding": {
            "system": "urn:oid:2.16.840.1.113883.6.238",
            "code": "2135-2",
            "display": "Hispanic or Latino",
            "userSelected": true
          }
        }, {
          "url": "text",
          "valueString": "Hispanic or Latino"
        } ]
      } ],
      "identifier": [ {
        "type": {
          "coding": [ {
            "system": "http://terminology.hl7.org/CodeSystem/v2-0203",
            "code": "MR"
          } ]
        },
        "system": "https://bonnie-fhir.healthit.gov/",
        "value": "633c9d030968f8012250fc8e"
      } ],
      "active": true,
      "name": [ {
        "use": "usual",
        "family": "DENEXCEPFail",
        "given": [ "MedRsnStartTmLTEncAdmTm" ]
      } ],
      "gender": "female",
      "birthDate": "1955-05-23"
    },
    "request": {
      "method": "PUT",
      "url": "Patient/fb49e13d-3b13-46ae-8862-59033137e1b8"
    }
  }, {
    "fullUrl": "https://madie.cms.gov/Encounter/e6afcaaa-72d0-46e4-9647-756b80e72052",
    "resource": {
      "resourceType": "Encounter",
      "id": "e6afcaaa-72d0-46e4-9647-756b80e72052",
      "meta": {
        "profile": [ "http://hl7.org/fhir/us/qicore/StructureDefinition/qicore-encounter" ]
      },
      "status": "finished",
      "class": {
        "system": "http://terminology.hl7.org/CodeSystem/v3-ActCode",
        "code": "IMP",
        "display": "inpatient encounter"
      },
      "type": [ {
        "coding": [ {
          "system": "http://snomed.info/sct",
          "code": "32485007"
        } ]
      } ],
      "subject": {
        "reference": "Patient/fb49e13d-3b13-46ae-8862-59033137e1b8"
      },
      "period": {
        "start": "2026-11-20T07:16:00.000+00:00",
        "end": "2026-11-22T08:15:00.000+00:00"
      },
      "length": {
        "value": 2,
        "unit": "days"
      },
      "reasonReference": [ {
        "reference": "Condition/c61bbcda-0e3a-48e7-874b-090cd14a9488"
      } ]
    },
    "request": {
      "method": "PUT",
      "url": "Encounter/e6afcaaa-72d0-46e4-9647-756b80e72052"
    }
  }, {
    "fullUrl": "https://madie.cms.gov/MedicationRequest/ff570259-91af-4bcc-bafe-7f9d8b380ce5",
    "resource": {
      "resourceType": "MedicationRequest",
      "id": "ff570259-91af-4bcc-bafe-7f9d8b380ce5",
      "meta": {
        "profile": [ "http://hl7.org/fhir/us/qicore/StructureDefinition/qicore-medicationnotrequested" ]
      },
      "status": "completed",
      "intent": "order",
      "category": [ {
        "coding": [ {
          "system": "http://terminology.hl7.org/CodeSystem/medicationrequest-category",
          "code": "community"
        } ]
      } ],
      "doNotPerform": true,
      "medicationCodeableConcept": {
        "coding": [ {
          "system": "http://www.nlm.nih.gov/research/umls/rxnorm",
          "code": "1037045"
        } ]
      },
      "subject": {
        "reference": "Patient/fb49e13d-3b13-46ae-8862-59033137e1b8"
      },
      "authoredOn": "2026-11-20T07:15:00.000+00:00",
      "requester": {
        "reference": "Practitioner/example"
      },
      "reasonCode": [ {
        "coding": [ {
          "system": "http://snomed.info/sct",
          "code": "183932001"
        } ]
      } ]
    },
    "request": {
      "method": "PUT",
      "url": "MedicationRequest/ff570259-91af-4bcc-bafe-7f9d8b380ce5"
    }
  }, {
    "fullUrl": "https://madie.cms.gov/Task/632c51d6-cc05-4db0-8bed-c33af7617400",
    "resource": {
      "resourceType": "Task",
      "id": "632c51d6-cc05-4db0-8bed-c33af7617400",
      "meta": {
        "profile": [ "http://hl7.org/fhir/us/qicore/StructureDefinition/qicore-taskrejected" ]
      },
      "status": "rejected",
      "statusReason": {
        "coding": [ {
          "system": "http://snomed.info/sct",
          "code": "183932001",
          "userSelected": true
        } ]
      },
      "code": {
        "coding": [ {
          "system": "http://hl7.org/fhir/CodeSystem/task-code",
          "code": "fulfill"
        } ]
      },
      "focus": {
        "reference": "MedicationRequest/ff570259-91af-4bcc-bafe-7f9d8b380ce5"
      },
      "executionPeriod": {
        "start": "2026-11-20T07:15:00.000+00:00",
        "end": "2026-11-22T08:15:00.000+00:00"
      }
    },
    "request": {
      "method": "PUT",
      "url": "Task/632c51d6-cc05-4db0-8bed-c33af7617400"
    }
  }, {
    "fullUrl": "https://madie.cms.gov/claim/5ca62962b8484628b8de1ec5",
    "resource": {
      "resourceType": "Claim",
      "id": "5ca62962b8484628b8de1ec5",
      "meta": {
        "profile": [ "http://hl7.org/fhir/us/qicore/StructureDefinition/qicore-claim" ]
      },
      "status": "active",
      "type": {
        "coding": [ {
          "system": "http://terminology.hl7.org/CodeSystem/claim-type",
          "code": "institutional"
        } ]
      },
      "use": "claim",
      "patient": {
        "reference": "Patient/d170a0a8-b5ad-4303-b6df-e304dd5f92ad"
      },
      "created": "2026-12-01",
      "provider": {
        "reference": "Practitioner/practitioner-123456"
      },
      "priority": {
        "coding": [ {
          "system": "http://terminology.hl7.org/CodeSystem/processpriority",
          "code": "normal"
        } ]
      },
      "diagnosis": [ {
        "sequence": 1,
        "diagnosisCodeableConcept": {
          "coding": [ {
            "system": "http://hl7.org/fhir/sid/icd-10-cm",
            "code": "I63.00"
          } ]
        },
        "type": [ {
          "coding": [ {
            "system": "http://terminology.hl7.org/CodeSystem/ex-diagnosistype",
            "code": "principal"
          } ]
        } ]
      } ],
      "insurance": [ {
        "sequence": 1,
        "focal": true,
        "coverage": {
          "reference": "Coverage/5fa041661c76ba66d9959367"
        }
      } ],
      "item": [ {
        "sequence": 1,
        "diagnosisSequence": [ 1 ],
        "productOrService": {
          "coding": [ {
            "system": "http://terminology.hl7.org/CodeSystem/ex-USCLS",
            "code": "99555"
          } ]
        },
        "encounter": [ {
          "reference": "Encounter/e6afcaaa-72d0-46e4-9647-756b80e72052"
        } ]
      } ]
    },
    "request": {
      "method": "PUT",
      "url": "Claim/5ca62962b8484628b8de1ec5"
    }
  }, {
    "fullUrl": "https://madie.cms.gov/Coverage/cca945e0-287a-49a0-bc5f-fd2757984d89",
    "resource": {
      "resourceType": "Coverage",
      "id": "cca945e0-287a-49a0-bc5f-fd2757984d89",
      "meta": {
        "profile": [ "http://hl7.org/fhir/us/qicore/StructureDefinition/qicore-coverage" ]
      },
      "status": "active",
      "subscriberId": "523435",
      "beneficiary": {
        "reference": "Patient/162a5913-9989-42f2-8d6a-ae460e245e4c"
      },
      "relationship": {
        "coding": [ {
          "system": "http://terminology.hl7.org/CodeSystem/subscriber-relationship",
          "code": "self"
        } ]
      },
      "payor": [ {
        "reference": "Organization/661c6458-5cd8-4304-8acb-6d707cef5846"
      } ]
    },
    "request": {
      "method": "PUT",
      "url": "Coverage/cca945e0-287a-49a0-bc5f-fd2757984d89"
    }
  }, {
    "fullUrl": "https://madie.cms.gov/Procedure/a139ad12-c1bb-4e38-a14e-885beeaf48f4",
    "resource": {
      "resourceType": "Procedure",
      "id": "a139ad12-c1bb-4e38-a14e-885beeaf48f4",
      "meta": {
        "profile": [ "http://hl7.org/fhir/us/qicore/StructureDefinition/qicore-procedure" ]
      },
      "extension": [ {
        "url": "http://hl7.org/fhir/us/qicore/StructureDefinition/qicore-recorded",
        "valueDateTime": "2014-04-05T13:35:00.000+00:00"
      } ],
      "status": "completed",
      "code": {
        "coding": [ {
          "system": "http://www.cms.gov/Medicare/Coding/ICD10",
          "code": "02560ZZ"
        }, {
          "system": "http://snomed.info/sct",
          "code": "175095005"
        } ]
      },
      "subject": {
        "reference": "Patient/fb49e13d-3b13-46ae-8862-59033137e1b8"
      },
      "performedPeriod": {
        "start": "2026-11-20T07:15:00.000+00:00",
        "end": "2026-11-20T07:16:00.000+00:00"
      }
    },
    "request": {
      "method": "PUT",
      "url": "Procedure/a139ad12-c1bb-4e38-a14e-885beeaf48f4"
    }
  }, {
    "fullUrl": "https://madie.cms.gov/Condition/c61bbcda-0e3a-48e7-874b-090cd14a9488",
    "resource": {
      "resourceType": "Condition",
      "id": "c61bbcda-0e3a-48e7-874b-090cd14a9488",
      "meta": {
        "profile": [ "http://hl7.org/fhir/us/qicore/StructureDefinition/qicore-condition" ]
      },
      "clinicalStatus": {
        "coding": [ {
          "system": "http://terminology.hl7.org/CodeSystem/condition-clinical",
          "code": "active"
        } ]
      },
      "verificationStatus": {
        "coding": [ {
          "system": "http://terminology.hl7.org/CodeSystem/condition-ver-status",
          "code": "confirmed"
        } ]
      },
      "category": [ {
        "coding": [ {
          "system": "http://terminology.hl7.org/CodeSystem/condition-category",
          "code": "encounter-diagnosis",
          "display": "Encounter Diagnosis"
        } ]
      } ],
      "code": {
        "coding": [ {
          "system": "http://snomed.info/sct",
          "version": "2021-09",
          "code": "111297002",
          "display": "Nonparalytic stroke (disorder)",
          "userSelected": true
        } ]
      },
      "subject": {
        "reference": "Patient/fb49e13d-3b13-46ae-8862-59033137e1b8"
      },
      "recordedDate": "2026-10-13T08:00:00.000+00:00"
    },
    "request": {
      "method": "PUT",
      "url": "Condition/c61bbcda-0e3a-48e7-874b-090cd14a9488"
    }
  }, {
    "fullUrl": "https://madie.cms.gov/Organization/661c6458-5cd8-4304-8acb-6d707cef5846",
    "resource": {
      "resourceType": "Organization",
      "id": "661c6458-5cd8-4304-8acb-6d707cef5846",
      "meta": {
        "profile": [ "http://hl7.org/fhir/us/qicore/StructureDefinition/qicore-organization" ]
      },
      "identifier": [ {
        "use": "temp",
        "system": "urn:oid:2.16.840.1.113883.4.4",
        "value": "21-3259825"
      } ],
      "active": true,
      "type": [ {
        "coding": [ {
          "system": "http://terminology.hl7.org/CodeSystem/organization-type",
          "code": "pay",
          "display": "Payer"
        } ]
      } ],
      "name": "Blue Cross Blue Shield of Texas",
      "telecom": [ {
        "system": "phone",
        "value": "(+1) 972-766-6900"
      } ],
      "address": [ {
        "use": "billing",
        "type": "postal",
        "line": [ "P.O. Box 660044" ],
        "city": "Dallas",
        "state": "TX",
        "postalCode": "75266-0044",
        "country": "USA"
      } ]
    },
    "request": {
      "method": "PUT",
      "url": "Organization/661c6458-5cd8-4304-8acb-6d707cef5846"
    }
  }, {
    "fullUrl": "https://madie.cms.gov/MeasureReport/5b93f326-c429-4270-869c-0848f9bfffce",
    "resource": {
      "resourceType": "MeasureReport",
      "id": "5b93f326-c429-4270-869c-0848f9bfffce",
      "meta": {
        "profile": [ "http://hl7.org/fhir/us/cqfmeasures/StructureDefinition/test-case-cqfm" ]
      },
      "contained": [ {
        "resourceType": "Parameters",
        "id": "ae7e5bb1-5bb8-42a6-955c-005a8f6cf68b-parameters",
        "parameter": [ {
          "name": "subject",
          "valueString": "fb49e13d-3b13-46ae-8862-59033137e1b8"
        } ]
      } ],
      "extension": [ {
        "url": "http://hl7.org/fhir/StructureDefinition/cqf-inputParameters",
        "valueReference": {
          "reference": "#ae7e5bb1-5bb8-42a6-955c-005a8f6cf68b-parameters"
        }
      }, {
        "url": "http://hl7.org/fhir/us/cqfmeasures/StructureDefinition/cqfm-testCaseDescription",
        "valueMarkdown": "Patient did not receive anticoagulant on dc due to medical reason, but start date is before start of OccurA\n"
      } ],
      "modifierExtension": [ {
        "url": "http://hl7.org/fhir/us/cqfmeasures/StructureDefinition/cqfm-isTestCase",
        "valueBoolean": true
      } ],
      "status": "complete",
      "type": "individual",
      "measure": "https://madie.cms.gov/Measure/CMS71FHIRSTKAnticoagAFFlutter",
      "period": {
        "start": "2026-01-01",
        "end": "2026-12-31"
      },
      "group": [ {
        "id": "Group_1",
        "population": [ {
          "id": "InitialPopulation_1",
          "code": {
            "coding": [ {
              "system": "http://terminology.hl7.org/CodeSystem/measure-population",
              "code": "initial-population",
              "display": "Initial Population"
            } ]
          },
          "count": 1
        }, {
          "id": "Denominator_1",
          "code": {
            "coding": [ {
              "system": "http://terminology.hl7.org/CodeSystem/measure-population",
              "code": "denominator",
              "display": "Denominator"
            } ]
          },
          "count": 1
        }, {
          "id": "DenominatorExclusion_1",
          "code": {
            "coding": [ {
              "system": "http://terminology.hl7.org/CodeSystem/measure-population",
              "code": "denominator-exclusion",
              "display": "Denominator Exclusion"
            } ]
          },
          "count": 0
        }, {
          "id": "Numerator_1",
          "code": {
            "coding": [ {
              "system": "http://terminology.hl7.org/CodeSystem/measure-population",
              "code": "numerator",
              "display": "Numerator"
            } ]
          },
          "count": 0
        }, {
          "id": "DenominatorException_1",
          "code": {
            "coding": [ {
              "system": "http://terminology.hl7.org/CodeSystem/measure-population",
              "code": "denominator-exception",
              "display": "Denominator Exception"
            } ]
          },
          "count": 0
        } ],
        "measureScore": {
          "value": 0.0
        }
      } ],
      "evaluatedResource": [ {
        "reference": "Patient/fb49e13d-3b13-46ae-8862-59033137e1b8"
      }, {
        "reference": "Encounter/e6afcaaa-72d0-46e4-9647-756b80e72052"
      }, {
        "reference": "MedicationRequest/ff570259-91af-4bcc-bafe-7f9d8b380ce5"
      }, {
        "reference": "Task/632c51d6-cc05-4db0-8bed-c33af7617400"
      }, {
        "reference": "Claim/5ca62962b8484628b8de1ec5"
      }, {
        "reference": "Coverage/cca945e0-287a-49a0-bc5f-fd2757984d89"
      }, {
        "reference": "Procedure/a139ad12-c1bb-4e38-a14e-885beeaf48f4"
      }, {
        "reference": "Condition/c61bbcda-0e3a-48e7-874b-090cd14a9488"
      }, {
        "reference": "Organization/661c6458-5cd8-4304-8acb-6d707cef5846"
      } ]
    },
    "request": {
      "method": "PUT",
      "url": "MeasureReport/5b93f326-c429-4270-869c-0848f9bfffce"
    }
  } ]
}