{
  "resourceType": "Bundle",
  "id": "6129134d02c62a011f2e7130",
  "type": "transaction",
  "entry": [ {
    "fullUrl": "https://madie.cms.gov/Patient/0852e05c-94f3-4467-ad2c-255ffc5050e9",
    "resource": {
      "resourceType": "Patient",
      "id": "0852e05c-94f3-4467-ad2c-255ffc5050e9",
      "meta": {
        "profile": [ "http://hl7.org/fhir/us/qicore/StructureDefinition/qicore-patient" ]
      },
      "text": {
        "status": "generated",
        "div": "<div xmlns=\"http://www.w3.org/1999/xhtml\"><div class=\"hapiHeaderText\">CMOdurED_ED&lt;1hrObs&lt;1hrBFEnc <b>DENEXPASS </b></div><table class=\"hapiPropertyTable\"><tbody><tr><td>Identifier</td><td>9f33229f87c10a35f78ce016aca297879ccda928800ebb32cb3005131188e0c3</td></tr><tr><td>Date of birth</td><td><span>21 August 1994</span></td></tr></tbody></table></div>"
      },
      "extension": [ {
        "url": "http://hl7.org/fhir/us/core/StructureDefinition/us-core-race",
        "extension": [ {
          "url": "ombCategory",
          "valueCoding": {
            "system": "urn:oid:2.16.840.1.113883.6.238",
            "code": "1002-5",
            "display": "American Indian or Alaska Native",
            "userSelected": true
          }
        }, {
          "url": "text",
          "valueString": "American Indian or Alaska Native"
        } ]
      }, {
        "url": "http://hl7.org/fhir/us/core/StructureDefinition/us-core-ethnicity",
        "extension": [ {
          "url": "ombCategory",
          "valueCoding": {
            "system": "urn:oid:2.16.840.1.113883.6.238",
            "code": "2135-2",
            "display": "Hispanic or Latino",
            "userSelected": true
          }
        }, {
          "url": "text",
          "valueString": "Hispanic or Latino"
        } ]
      } ],
      "identifier": [ {
        "type": {
          "coding": [ {
            "system": "http://terminology.hl7.org/CodeSystem/v2-0203",
            "code": "MR"
          } ]
        },
        "system": "https://bonnie-fhir.healthit.gov/",
        "value": "6129134d02c62a011f2e7130"
      } ],
      "active": true,
      "name": [ {
        "use": "usual",
        "family": "DENEXPass",
        "given": [ "CMOdurED_ED<1hrObs<1hrBFEnc" ]
      } ],
      "gender": "male",
      "birthDate": "1995-08-21"
    },
    "request": {
      "method": "PUT",
      "url": "Patient/0852e05c-94f3-4467-ad2c-255ffc5050e9"
    }
  }, {
    "fullUrl": "https://madie.cms.gov/Encounter/c80967e8-90ee-4c9a-85c2-9e78cbd2e0d2",
    "resource": {
      "resourceType": "Encounter",
      "id": "c80967e8-90ee-4c9a-85c2-9e78cbd2e0d2",
      "meta": {
        "profile": [ "http://hl7.org/fhir/us/qicore/StructureDefinition/qicore-encounter" ]
      },
      "status": "finished",
      "class": {
        "system": "http://terminology.hl7.org/CodeSystem/v3-ActCode",
        "code": "EMER",
        "display": "emergency",
        "userSelected": true
      },
      "type": [ {
        "coding": [ {
          "system": "http://snomed.info/sct",
          "code": "4525004"
        } ]
      } ],
      "subject": {
        "reference": "Patient/0852e05c-94f3-4467-ad2c-255ffc5050e9"
      },
      "period": {
        "start": "2026-10-10T09:30:00.000+00:00",
        "end": "2026-10-10T10:30:00.000+00:00"
      },
      "length": {
        "value": 0,
        "unit": "days"
      }
    },
    "request": {
      "method": "PUT",
      "url": "Encounter/c80967e8-90ee-4c9a-85c2-9e78cbd2e0d2"
    }
  }, {
    "fullUrl": "https://madie.cms.gov/Encounter/366e745e-4065-4b5e-9140-47f51ce5d3ff",
    "resource": {
      "resourceType": "Encounter",
      "id": "366e745e-4065-4b5e-9140-47f51ce5d3ff",
      "meta": {
        "profile": [ "http://hl7.org/fhir/us/qicore/StructureDefinition/qicore-encounter" ]
      },
      "status": "finished",
      "class": {
        "system": "http://terminology.hl7.org/CodeSystem/v3-ActCode",
        "code": "OBSENC",
        "display": "observation encounter",
        "userSelected": true
      },
      "type": [ {
        "coding": [ {
          "system": "http://snomed.info/sct",
          "code": "448851000124103"
        } ]
      } ],
      "subject": {
        "reference": "Patient/0852e05c-94f3-4467-ad2c-255ffc5050e9"
      },
      "period": {
        "start": "2026-10-10T10:31:00.000+00:00",
        "end": "2026-10-10T10:35:00.000+00:00"
      },
      "length": {
        "value": 0,
        "unit": "days"
      }
    },
    "request": {
      "method": "PUT",
      "url": "Encounter/366e745e-4065-4b5e-9140-47f51ce5d3ff"
    }
  }, {
    "fullUrl": "https://madie.cms.gov/Encounter/0cf7de79-53a6-45cd-914a-3ae6fca7e1b8",
    "resource": {
      "resourceType": "Encounter",
      "id": "0cf7de79-53a6-45cd-914a-3ae6fca7e1b8",
      "meta": {
        "profile": [ "http://hl7.org/fhir/us/qicore/StructureDefinition/qicore-encounter" ]
      },
      "status": "finished",
      "class": {
        "system": "http://terminology.hl7.org/CodeSystem/v3-ActCode",
        "code": "IMP",
        "display": "inpatient encounter",
        "userSelected": true
      },
      "type": [ {
        "coding": [ {
          "system": "http://snomed.info/sct",
          "code": "32485007"
        } ]
      } ],
      "subject": {
        "reference": "Patient/0852e05c-94f3-4467-ad2c-255ffc5050e9"
      },
      "period": {
        "start": "2026-10-10T11:36:00.000+00:00",
        "end": "2026-10-12T11:30:00.000+00:00"
      },
      "length": {
        "value": 2,
        "unit": "days"
      },
      "diagnosis": [ {
        "condition": {
          "reference": "Condition/410065a9-71d5-45a7-b796-20ff494b75f2"
        },
        "use": {
          "coding": [ {
            "system": "http://terminology.hl7.org/CodeSystem/diagnosis-role",
            "code": "billing",
            "display": "Billing"
          } ]
        },
        "rank": 1
      } ]
    },
    "request": {
      "method": "PUT",
      "url": "Encounter/0cf7de79-53a6-45cd-914a-3ae6fca7e1b8"
    }
  }, {
    "fullUrl": "https://madie.cms.gov/ServiceRequest/4935fed3-7738-4284-bcc2-1c8397730633",
    "resource": {
      "resourceType": "ServiceRequest",
      "id": "4935fed3-7738-4284-bcc2-1c8397730633",
      "meta": {
        "profile": [ "http://hl7.org/fhir/us/qicore/StructureDefinition/qicore-servicerequest" ]
      },
      "status": "active",
      "intent": "order",
      "code": {
        "coding": [ {
          "system": "http://snomed.info/sct",
          "code": "133918004"
        } ]
      },
      "subject": {
        "reference": "Patient/0852e05c-94f3-4467-ad2c-255ffc5050e9"
      },
      "authoredOn": "2026-10-10T09:30:00.000+00:00"
    },
    "request": {
      "method": "PUT",
      "url": "ServiceRequest/4935fed3-7738-4284-bcc2-1c8397730633"
    }
  }, {
    "fullUrl": "https://madie.cms.gov/Condition/410065a9-71d5-45a7-b796-20ff494b75f2",
    "resource": {
      "resourceType": "Condition",
      "id": "410065a9-71d5-45a7-b796-20ff494b75f2",
      "meta": {
        "profile": [ "http://hl7.org/fhir/us/qicore/StructureDefinition/qicore-condition" ]
      },
      "clinicalStatus": {
        "coding": [ {
          "system": "http://terminology.hl7.org/CodeSystem/condition-clinical",
          "code": "active"
        } ]
      },
      "verificationStatus": {
        "coding": [ {
          "system": "http://terminology.hl7.org/CodeSystem/condition-ver-status",
          "code": "confirmed"
        } ]
      },
      "category": [ {
        "coding": [ {
          "system": "http://terminology.hl7.org/CodeSystem/condition-category",
          "code": "encounter-diagnosis",
          "display": "Encounter Diagnosis"
        } ]
      } ],
      "code": {
        "coding": [ {
          "system": "http://snomed.info/sct",
          "version": "2020-09",
          "code": "111297002",
          "display": "Nonparalytic stroke (disorder)",
          "userSelected": true
        } ]
      },
      "subject": {
        "reference": "Patient/0852e05c-94f3-4467-ad2c-255ffc5050e9"
      },
      "recordedDate": "2026-07-14T08:00:00.000+00:00"
    },
    "request": {
      "method": "PUT",
      "url": "Condition/410065a9-71d5-45a7-b796-20ff494b75f2"
    }
  }, {
    "fullUrl": "https://madie.cms.gov/claim/5ca62962b8484628b8de1ec5",
    "resource": {
      "resourceType": "Claim",
      "id": "5ca62962b8484628b8de1ec5",
      "meta": {
        "profile": [ "http://hl7.org/fhir/us/qicore/StructureDefinition/qicore-claim" ]
      },
      "status": "active",
      "type": {
        "coding": [ {
          "system": "http://terminology.hl7.org/CodeSystem/claim-type",
          "code": "institutional"
        } ]
      },
      "use": "claim",
      "patient": {
        "reference": "Patient/d170a0a8-b5ad-4303-b6df-e304dd5f92ad"
      },
      "created": "2026-12-01",
      "provider": {
        "reference": "Practitioner/practitioner-123456"
      },
      "priority": {
        "coding": [ {
          "system": "http://terminology.hl7.org/CodeSystem/processpriority",
          "code": "normal"
        } ]
      },
      "diagnosis": [ {
        "sequence": 1,
        "diagnosisCodeableConcept": {
          "coding": [ {
            "system": "http://hl7.org/fhir/sid/icd-10-cm",
            "code": "I63.00"
          } ]
        },
        "type": [ {
          "coding": [ {
            "system": "http://terminology.hl7.org/CodeSystem/ex-diagnosistype",
            "code": "principal"
          } ]
        } ]
      } ],
      "insurance": [ {
        "sequence": 1,
        "focal": true,
        "coverage": {
          "reference": "Coverage/5fa041661c76ba66d9959367"
        }
      } ],
      "item": [ {
        "sequence": 1,
        "diagnosisSequence": [ 1 ],
        "productOrService": {
          "coding": [ {
            "system": "http://terminology.hl7.org/CodeSystem/ex-USCLS",
            "code": "99555"
          } ]
        },
        "encounter": [ {
          "reference": "Encounter/0cf7de79-53a6-45cd-914a-3ae6fca7e1b8"
        } ]
      } ]
    },
    "request": {
      "method": "PUT",
      "url": "Claim/5ca62962b8484628b8de1ec5"
    }
  }, {
    "fullUrl": "https://madie.cms.gov/Coverage/b36e7b6e-bcde-41f6-8211-9afbb0322331",
    "resource": {
      "resourceType": "Coverage",
      "id": "b36e7b6e-bcde-41f6-8211-9afbb0322331",
      "meta": {
        "profile": [ "http://hl7.org/fhir/us/qicore/StructureDefinition/qicore-coverage" ]
      },
      "status": "active",
      "beneficiary": {
        "reference": "Patient/0852e05c-94f3-4467-ad2c-255ffc5050e9"
      },
      "payor": [ {
        "reference": "Organization/e5384215-1d94-470f-85b1-f3ad233fe4cd"
      } ]
    },
    "request": {
      "method": "PUT",
      "url": "Coverage/b36e7b6e-bcde-41f6-8211-9afbb0322331"
    }
  }, {
    "fullUrl": "https://madie.cms.gov/Organization/e5384215-1d94-470f-85b1-f3ad233fe4cd",
    "resource": {
      "resourceType": "Organization",
      "id": "e5384215-1d94-470f-85b1-f3ad233fe4cd",
      "meta": {
        "profile": [ "http://hl7.org/fhir/us/qicore/StructureDefinition/qicore-organization" ]
      },
      "identifier": [ {
        "use": "temp",
        "system": "urn:oid:2.16.840.1.113883.4.4",
        "value": "21-3259825"
      } ],
      "active": true,
      "type": [ {
        "coding": [ {
          "system": "http://terminology.hl7.org/CodeSystem/organization-type",
          "code": "pay",
          "display": "Payer"
        } ]
      } ],
      "name": "Blue Cross Blue Shield of Texas",
      "telecom": [ {
        "system": "phone",
        "value": "(+1) 972-766-6900"
      } ],
      "address": [ {
        "use": "billing",
        "type": "postal",
        "line": [ "P.O. Box 660044" ],
        "city": "Dallas",
        "state": "TX",
        "postalCode": "75266-0044",
        "country": "USA"
      } ]
    },
    "request": {
      "method": "PUT",
      "url": "Organization/e5384215-1d94-470f-85b1-f3ad233fe4cd"
    }
  }, {
    "fullUrl": "https://madie.cms.gov/MeasureReport/dd7b714a-edfb-4cf0-a4ad-5b294a9b33bd",
    "resource": {
      "resourceType": "MeasureReport",
      "id": "dd7b714a-edfb-4cf0-a4ad-5b294a9b33bd",
      "meta": {
        "profile": [ "http://hl7.org/fhir/us/cqfmeasures/StructureDefinition/test-case-cqfm" ]
      },
      "contained": [ {
        "resourceType": "Parameters",
        "id": "5d678b0c-02b9-4026-b3d0-c741f978b3f4-parameters",
        "parameter": [ {
          "name": "subject",
          "valueString": "0852e05c-94f3-4467-ad2c-255ffc5050e9"
        } ]
      } ],
      "extension": [ {
        "url": "http://hl7.org/fhir/StructureDefinition/cqf-inputParameters",
        "valueReference": {
          "reference": "#5d678b0c-02b9-4026-b3d0-c741f978b3f4-parameters"
        }
      }, {
        "url": "http://hl7.org/fhir/us/cqfmeasures/StructureDefinition/cqfm-testCaseDescription",
        "valueMarkdown": "Patient receives CMO during ED. ED ends 1 minute before Obs. Obs ends 61 min before inpatient encounter start.  Testing day of operator with HospitalizationWithObservation function."
      } ],
      "modifierExtension": [ {
        "url": "http://hl7.org/fhir/us/cqfmeasures/StructureDefinition/cqfm-isTestCase",
        "valueBoolean": true
      } ],
      "status": "complete",
      "type": "individual",
      "measure": "https://madie.cms.gov/Measure/CMS104FHIRSTKDCAntithrombotic",
      "period": {
        "start": "2026-01-01",
        "end": "2026-12-31"
      },
      "group": [ {
        "id": "Group_1",
        "population": [ {
          "id": "InitialPopulation_1",
          "code": {
            "coding": [ {
              "system": "http://terminology.hl7.org/CodeSystem/measure-population",
              "code": "initial-population",
              "display": "Initial Population"
            } ]
          },
          "count": 1
        }, {
          "id": "Denominator_1",
          "code": {
            "coding": [ {
              "system": "http://terminology.hl7.org/CodeSystem/measure-population",
              "code": "denominator",
              "display": "Denominator"
            } ]
          },
          "count": 1
        }, {
          "id": "DenominatorExclusion_1",
          "code": {
            "coding": [ {
              "system": "http://terminology.hl7.org/CodeSystem/measure-population",
              "code": "denominator-exclusion",
              "display": "Denominator Exclusion"
            } ]
          },
          "count": 0
        }, {
          "id": "Numerator_1",
          "code": {
            "coding": [ {
              "system": "http://terminology.hl7.org/CodeSystem/measure-population",
              "code": "numerator",
              "display": "Numerator"
            } ]
          },
          "count": 0
        }, {
          "id": "DenominatorException_1",
          "code": {
            "coding": [ {
              "system": "http://terminology.hl7.org/CodeSystem/measure-population",
              "code": "denominator-exception",
              "display": "Denominator Exception"
            } ]
          },
          "count": 0
        } ],
        "measureScore": {
          "value": 0.0
        }
      } ],
      "evaluatedResource": [ {
        "reference": "Patient/0852e05c-94f3-4467-ad2c-255ffc5050e9"
      }, {
        "reference": "Encounter/c80967e8-90ee-4c9a-85c2-9e78cbd2e0d2"
      }, {
        "reference": "Encounter/366e745e-4065-4b5e-9140-47f51ce5d3ff"
      }, {
        "reference": "Encounter/0cf7de79-53a6-45cd-914a-3ae6fca7e1b8"
      }, {
        "reference": "ServiceRequest/4935fed3-7738-4284-bcc2-1c8397730633"
      }, {
        "reference": "Condition/410065a9-71d5-45a7-b796-20ff494b75f2"
      }, {
        "reference": "Claim/5ca62962b8484628b8de1ec5"
      }, {
        "reference": "Coverage/b36e7b6e-bcde-41f6-8211-9afbb0322331"
      }, {
        "reference": "Organization/e5384215-1d94-470f-85b1-f3ad233fe4cd"
      } ]
    },
    "request": {
      "method": "PUT",
      "url": "MeasureReport/dd7b714a-edfb-4cf0-a4ad-5b294a9b33bd"
    }
  } ]
}