{
  "resourceType": "Bundle",
  "id": "62c880ec0111a60120dc21f8",
  "type": "transaction",
  "entry": [ {
    "fullUrl": "https://madie.cms.gov/Patient/77e4bd8b-a8d2-4aa4-8ff8-f746bd8f4e9d",
    "resource": {
      "resourceType": "Patient",
      "id": "77e4bd8b-a8d2-4aa4-8ff8-f746bd8f4e9d",
      "meta": {
        "profile": [ "http://hl7.org/fhir/us/qicore/StructureDefinition/qicore-patient" ]
      },
      "extension": [ {
        "url": "http://hl7.org/fhir/us/core/StructureDefinition/us-core-race",
        "extension": [ {
          "url": "ombCategory",
          "valueCoding": {
            "system": "urn:oid:2.16.840.1.113883.6.238",
            "code": "1002-5",
            "display": "American Indian or Alaska Native",
            "userSelected": true
          }
        }, {
          "url": "text",
          "valueString": "American Indian or Alaska Native"
        } ]
      }, {
        "url": "http://hl7.org/fhir/us/core/StructureDefinition/us-core-ethnicity",
        "extension": [ {
          "url": "ombCategory",
          "valueCoding": {
            "system": "urn:oid:2.16.840.1.113883.6.238",
            "code": "2135-2",
            "display": "Hispanic or Latino",
            "userSelected": true
          }
        }, {
          "url": "text",
          "valueString": "Hispanic or Latino"
        } ]
      } ],
      "identifier": [ {
        "type": {
          "coding": [ {
            "system": "http://terminology.hl7.org/CodeSystem/v2-0203",
            "code": "MR"
          } ]
        },
        "system": "https://bonnie-fhir.healthit.gov/",
        "value": "62c880ec0111a60120dc21f8"
      } ],
      "active": true,
      "name": [ {
        "use": "usual",
        "family": "NUMERPassPop2",
        "given": [ "PainAssessDuringRadTx" ]
      } ],
      "gender": "female",
      "birthDate": "1933-05-13"
    },
    "request": {
      "method": "PUT",
      "url": "Patient/77e4bd8b-a8d2-4aa4-8ff8-f746bd8f4e9d"
    }
  }, {
    "fullUrl": "https://madie.cms.gov/Observation/ed6fbf2c-4d56-4a8b-b9d2-daf9a3d06b38",
    "resource": {
      "resourceType": "Observation",
      "id": "ed6fbf2c-4d56-4a8b-b9d2-daf9a3d06b38",
      "meta": {
        "profile": [ "http://hl7.org/fhir/us/qicore/StructureDefinition/qicore-observation-screening-assessment" ]
      },
      "status": "final",
      "category": [ {
        "coding": [ {
          "system": "http://terminology.hl7.org/CodeSystem/observation-category",
          "code": "survey",
          "display": "Survey"
        } ],
        "text": "Survey"
      } ],
      "code": {
        "coding": [ {
          "system": "http://loinc.org",
          "code": "38208-5",
          "display": "Pain severity - Reported"
        } ],
        "text": "Pain severity - Reported"
      },
      "subject": {
        "reference": "Patient/77e4bd8b-a8d2-4aa4-8ff8-f746bd8f4e9d"
      },
      "effectiveDateTime": "2026-08-30T15:00:00.000+00:00",
      "valueInteger": 5
    },
    "request": {
      "method": "PUT",
      "url": "Observation/ed6fbf2c-4d56-4a8b-b9d2-daf9a3d06b38"
    }
  }, {
    "fullUrl": "https://madie.cms.gov/Condition/7f64d8e0-8acd-44b6-861a-f02f9511ffaa",
    "resource": {
      "resourceType": "Condition",
      "id": "7f64d8e0-8acd-44b6-861a-f02f9511ffaa",
      "meta": {
        "profile": [ "http://hl7.org/fhir/us/qicore/StructureDefinition/qicore-condition-problems-health-concerns" ]
      },
      "clinicalStatus": {
        "coding": [ {
          "system": "http://terminology.hl7.org/CodeSystem/condition-clinical",
          "code": "active",
          "display": "active",
          "userSelected": true
        } ]
      },
      "verificationStatus": {
        "coding": [ {
          "system": "http://terminology.hl7.org/CodeSystem/condition-ver-status",
          "code": "confirmed",
          "display": "Confirmed"
        } ]
      },
      "category": [ {
        "coding": [ {
          "system": "http://terminology.hl7.org/CodeSystem/condition-category",
          "code": "problem-list-item",
          "display": "Problem List Item"
        } ]
      } ],
      "code": {
        "coding": [ {
          "system": "http://snomed.info/sct",
          "code": "107691000119101"
        } ]
      },
      "subject": {
        "reference": "Patient/77e4bd8b-a8d2-4aa4-8ff8-f746bd8f4e9d"
      },
      "onsetDateTime": "2024-11-01T12:45:00.000+00:00"
    },
    "request": {
      "method": "PUT",
      "url": "Condition/7f64d8e0-8acd-44b6-861a-f02f9511ffaa"
    }
  }, {
    "fullUrl": "https://madie.cms.gov/Coverage/94fee4a5-778e-4d82-b379-9cb3385ce65a",
    "resource": {
      "resourceType": "Coverage",
      "id": "94fee4a5-778e-4d82-b379-9cb3385ce65a",
      "meta": {
        "profile": [ "http://hl7.org/fhir/us/qicore/StructureDefinition/qicore-coverage" ]
      },
      "status": "active",
      "beneficiary": {
        "reference": "Patient/77e4bd8b-a8d2-4aa4-8ff8-f746bd8f4e9d"
      },
      "period": {
        "start": "1976-04-25T08:00:00.000+00:00"
      },
      "payor": [ {
        "reference": "Organization/76bdc4bf-1f63-4dc6-83cd-54932840d2e8"
      } ]
    },
    "request": {
      "method": "PUT",
      "url": "Coverage/94fee4a5-778e-4d82-b379-9cb3385ce65a"
    }
  }, {
    "fullUrl": "https://madie.cms.gov/Encounter/4c9a0b8b-d0d3-4ae2-8aae-71de46ca6281",
    "resource": {
      "resourceType": "Encounter",
      "id": "4c9a0b8b-d0d3-4ae2-8aae-71de46ca6281",
      "meta": {
        "profile": [ "http://hl7.org/fhir/us/qicore/StructureDefinition/qicore-encounter" ]
      },
      "status": "finished",
      "class": {
        "system": "http://terminology.hl7.org/CodeSystem/v3-ActCode",
        "code": "AMB",
        "display": "ambulatory",
        "userSelected": true
      },
      "type": [ {
        "coding": [ {
          "system": "http://www.ama-assn.org/go/cpt",
          "version": "2023",
          "code": "77427",
          "display": "Radiation treatment management, 5 treatments",
          "userSelected": true
        } ]
      } ],
      "subject": {
        "reference": "Patient/77e4bd8b-a8d2-4aa4-8ff8-f746bd8f4e9d"
      },
      "period": {
        "start": "2026-08-30T14:00:00.000+00:00",
        "end": "2026-08-30T16:00:00.000+00:00"
      }
    },
    "request": {
      "method": "PUT",
      "url": "Encounter/4c9a0b8b-d0d3-4ae2-8aae-71de46ca6281"
    }
  }, {
    "fullUrl": "https://madie.cms.gov/Organization/76bdc4bf-1f63-4dc6-83cd-54932840d2e8",
    "resource": {
      "resourceType": "Organization",
      "id": "76bdc4bf-1f63-4dc6-83cd-54932840d2e8",
      "meta": {
        "profile": [ "http://hl7.org/fhir/us/qicore/StructureDefinition/qicore-organization" ]
      },
      "identifier": [ {
        "use": "temp",
        "system": "urn:oid:2.16.840.1.113883.4.4",
        "value": "21-3259825"
      } ],
      "active": true,
      "type": [ {
        "coding": [ {
          "system": "http://terminology.hl7.org/CodeSystem/organization-type",
          "code": "pay",
          "display": "Payer"
        } ]
      } ],
      "name": "Blue Cross Blue Shield of Texas",
      "telecom": [ {
        "system": "phone",
        "value": "(+1) 972-766-6900"
      } ],
      "address": [ {
        "use": "billing",
        "type": "postal",
        "line": [ "P.O. Box 660044" ],
        "city": "Dallas",
        "state": "TX",
        "postalCode": "75266-0044",
        "country": "USA"
      } ]
    },
    "request": {
      "method": "PUT",
      "url": "Organization/76bdc4bf-1f63-4dc6-83cd-54932840d2e8"
    }
  }, {
    "fullUrl": "https://madie.cms.gov/Practitioner/f0018522-2d86-4521-b5a7-f4003d724f51",
    "resource": {
      "resourceType": "Practitioner",
      "id": "f0018522-2d86-4521-b5a7-f4003d724f51",
      "meta": {
        "profile": [ "http://hl7.org/fhir/us/qicore/StructureDefinition/qicore-practitioner" ]
      },
      "identifier": [ {
        "system": "http://hl7.org/fhir/sid/us-npi",
        "value": "1234567890"
      } ],
      "name": [ {
        "family": "Evil",
        "prefix": [ "Dr" ]
      } ]
    },
    "request": {
      "method": "PUT",
      "url": "Practitioner/f0018522-2d86-4521-b5a7-f4003d724f51"
    }
  }, {
    "fullUrl": "https://madie.cms.gov/MeasureReport/9224045f-6e42-4a12-910b-b7164edd1456",
    "resource": {
      "resourceType": "MeasureReport",
      "id": "9224045f-6e42-4a12-910b-b7164edd1456",
      "meta": {
        "profile": [ "http://hl7.org/fhir/us/cqfmeasures/StructureDefinition/test-case-cqfm" ]
      },
      "contained": [ {
        "resourceType": "Parameters",
        "id": "017f87ad-d430-4488-a564-2abd646f0c5f-parameters",
        "parameter": [ {
          "name": "subject",
          "valueString": "77e4bd8b-a8d2-4aa4-8ff8-f746bd8f4e9d"
        } ]
      } ],
      "extension": [ {
        "url": "http://hl7.org/fhir/StructureDefinition/cqf-inputParameters",
        "valueReference": {
          "reference": "#017f87ad-d430-4488-a564-2abd646f0c5f-parameters"
        }
      }, {
        "url": "http://hl7.org/fhir/us/cqfmeasures/StructureDefinition/cqfm-testCaseDescription",
        "valueMarkdown": "Patient with cancer diagnosis that overlaps radiation treatment management during measurement period. Pain intensity assessment was performed during radiation treatment management encounter. 1 episode of care.\n"
      } ],
      "modifierExtension": [ {
        "url": "http://hl7.org/fhir/us/cqfmeasures/StructureDefinition/cqfm-isTestCase",
        "valueBoolean": true
      } ],
      "status": "complete",
      "type": "individual",
      "measure": "https://madie.cms.gov/Measure/CMS157FHIRPainIntensityQuantified",
      "period": {
        "start": "2026-01-01",
        "end": "2026-12-31"
      },
      "group": [ {
        "id": "Group_1",
        "population": [ {
          "id": "InitialPopulation_1",
          "code": {
            "coding": [ {
              "system": "http://terminology.hl7.org/CodeSystem/measure-population",
              "code": "initial-population",
              "display": "Initial Population"
            } ]
          },
          "count": 0
        }, {
          "id": "Denominator_1",
          "code": {
            "coding": [ {
              "system": "http://terminology.hl7.org/CodeSystem/measure-population",
              "code": "denominator",
              "display": "Denominator"
            } ]
          },
          "count": 0
        }, {
          "id": "Numerator_1",
          "code": {
            "coding": [ {
              "system": "http://terminology.hl7.org/CodeSystem/measure-population",
              "code": "numerator",
              "display": "Numerator"
            } ]
          },
          "count": 0
        } ],
        "measureScore": {
          "value": 0.0
        }
      }, {
        "id": "Group_2",
        "population": [ {
          "id": "InitialPopulation_2",
          "code": {
            "coding": [ {
              "system": "http://terminology.hl7.org/CodeSystem/measure-population",
              "code": "initial-population",
              "display": "Initial Population"
            } ]
          },
          "count": 1
        }, {
          "id": "Denominator_2",
          "code": {
            "coding": [ {
              "system": "http://terminology.hl7.org/CodeSystem/measure-population",
              "code": "denominator",
              "display": "Denominator"
            } ]
          },
          "count": 1
        }, {
          "id": "Numerator_2",
          "code": {
            "coding": [ {
              "system": "http://terminology.hl7.org/CodeSystem/measure-population",
              "code": "numerator",
              "display": "Numerator"
            } ]
          },
          "count": 1
        } ],
        "measureScore": {
          "value": 0.0
        }
      } ],
      "evaluatedResource": [ {
        "reference": "Patient/77e4bd8b-a8d2-4aa4-8ff8-f746bd8f4e9d"
      }, {
        "reference": "Observation/ed6fbf2c-4d56-4a8b-b9d2-daf9a3d06b38"
      }, {
        "reference": "Condition/7f64d8e0-8acd-44b6-861a-f02f9511ffaa"
      }, {
        "reference": "Coverage/94fee4a5-778e-4d82-b379-9cb3385ce65a"
      }, {
        "reference": "Encounter/4c9a0b8b-d0d3-4ae2-8aae-71de46ca6281"
      }, {
        "reference": "Organization/76bdc4bf-1f63-4dc6-83cd-54932840d2e8"
      }, {
        "reference": "Practitioner/f0018522-2d86-4521-b5a7-f4003d724f51"
      } ]
    },
    "request": {
      "method": "PUT",
      "url": "MeasureReport/9224045f-6e42-4a12-910b-b7164edd1456"
    }
  } ]
}