{
  "resourceType": "Bundle",
  "id": "64998475cea95c34d9e57750",
  "type": "collection",
  "entry": [ {
    "fullUrl": "https://madie.cms.gov/Patient/564678c9-1495-4cfe-9b68-2fcedb80fd9b",
    "resource": {
      "resourceType": "Patient",
      "id": "564678c9-1495-4cfe-9b68-2fcedb80fd9b",
      "meta": {
        "profile": [ "http://hl7.org/fhir/us/qicore/StructureDefinition/qicore-patient" ]
      },
      "extension": [ {
        "url": "http://hl7.org/fhir/us/core/StructureDefinition/us-core-race",
        "extension": [ {
          "url": "ombCategory",
          "valueCoding": {
            "system": "urn:oid:2.16.840.1.113883.6.238",
            "code": "2106-3",
            "display": "White"
          }
        }, {
          "url": "text",
          "valueString": "White"
        } ]
      }, {
        "url": "http://hl7.org/fhir/us/core/StructureDefinition/us-core-ethnicity",
        "extension": [ {
          "url": "ombCategory",
          "valueCoding": {
            "system": "urn:oid:2.16.840.1.113883.6.238",
            "code": "2186-5",
            "display": "Not Hispanic or Latino",
            "userSelected": true
          }
        }, {
          "url": "text",
          "valueString": "Not Hispanic or Latino"
        } ]
      } ],
      "identifier": [ {
        "type": {
          "coding": [ {
            "system": "http://terminology.hl7.org/CodeSystem/v2-0203",
            "code": "MR"
          } ]
        },
        "system": "https://bonnie-fhir.healthit.gov/",
        "value": "64998475cea95c34d9e57750"
      } ],
      "name": [ {
        "family": "NumFail",
        "given": [ "NoVLTests" ]
      } ],
      "gender": "male",
      "birthDate": "1989-08-08"
    }
  }, {
    "fullUrl": "https://madie.cms.gov/Condition/d7eecdbb-28bd-4440-bd10-cb4164d91cbe",
    "resource": {
      "resourceType": "Condition",
      "id": "d7eecdbb-28bd-4440-bd10-cb4164d91cbe",
      "meta": {
        "profile": [ "http://hl7.org/fhir/us/qicore/StructureDefinition/qicore-condition-problems-health-concerns" ]
      },
      "clinicalStatus": {
        "coding": [ {
          "system": "http://terminology.hl7.org/CodeSystem/condition-clinical",
          "code": "active",
          "display": "active",
          "userSelected": true
        } ]
      },
      "category": [ {
        "coding": [ {
          "system": "http://terminology.hl7.org/CodeSystem/condition-category",
          "code": "problem-list-item",
          "display": "Problem List Item"
        } ]
      } ],
      "code": {
        "coding": [ {
          "system": "http://hl7.org/fhir/sid/icd-10-cm",
          "code": "B20",
          "userSelected": true
        } ]
      },
      "subject": {
        "reference": "Patient/564678c9-1495-4cfe-9b68-2fcedb80fd9b"
      },
      "onsetDateTime": "2024-01-01T08:00:00.000+00:00",
      "recordedDate": "2024-01-01T08:00:00.000+00:00"
    }
  }, {
    "fullUrl": "https://madie.cms.gov/Encounter/e8ba5780-ecf8-47e8-9f93-d68b0a3d5264",
    "resource": {
      "resourceType": "Encounter",
      "id": "e8ba5780-ecf8-47e8-9f93-d68b0a3d5264",
      "meta": {
        "profile": [ "http://hl7.org/fhir/us/qicore/StructureDefinition/qicore-encounter" ]
      },
      "status": "finished",
      "class": {
        "system": "http://terminology.hl7.org/CodeSystem/v3-ActCode",
        "code": "AMB",
        "display": "ambulatory"
      },
      "type": [ {
        "coding": [ {
          "system": "http://www.ama-assn.org/go/cpt",
          "version": "2023",
          "code": "99391",
          "display": "Periodic comprehensive preventive medicine reevaluation and management of an individual including an age and gender appropriate history, examination, counseling/anticipatory guidance/risk factor reduction interventions, and the ordering of laboratory/diagnostic procedures, established patient; infant (age younger than 1 year)",
          "userSelected": true
        } ]
      } ],
      "subject": {
        "reference": "Patient/564678c9-1495-4cfe-9b68-2fcedb80fd9b"
      },
      "period": {
        "start": "2026-01-01T08:00:00.000+00:00",
        "end": "2026-01-01T08:23:00.000+00:00"
      }
    }
  }, {
    "fullUrl": "https://madie.cms.gov/Coverage/30ed4281-9cb4-46d7-90d1-609f327b2260",
    "resource": {
      "resourceType": "Coverage",
      "id": "30ed4281-9cb4-46d7-90d1-609f327b2260",
      "meta": {
        "profile": [ "http://hl7.org/fhir/us/qicore/StructureDefinition/qicore-coverage" ]
      },
      "status": "active",
      "subscriberId": "123456",
      "beneficiary": {
        "reference": "Patient/564678c9-1495-4cfe-9b68-2fcedb80fd9b"
      },
      "relationship": {
        "coding": [ {
          "system": "http://terminology.hl7.org/CodeSystem/subscriber-relationship",
          "code": "self",
          "display": "Self"
        } ]
      },
      "payor": [ {
        "reference": "Organization/cce7ad84-d3d2-4b73-b67b-148346119b67"
      } ]
    }
  }, {
    "fullUrl": "https://madie.cms.gov/Organization/cce7ad84-d3d2-4b73-b67b-148346119b67",
    "resource": {
      "resourceType": "Organization",
      "id": "cce7ad84-d3d2-4b73-b67b-148346119b67",
      "meta": {
        "profile": [ "http://hl7.org/fhir/us/qicore/StructureDefinition/qicore-organization" ]
      },
      "identifier": [ {
        "use": "temp",
        "system": "urn:oid:2.16.840.1.113883.4.4",
        "value": "21-3259825"
      } ],
      "active": true,
      "type": [ {
        "coding": [ {
          "system": "http://terminology.hl7.org/CodeSystem/organization-type",
          "code": "pay",
          "display": "Payer"
        } ]
      } ],
      "name": "Blue Cross Blue Shield of Texas",
      "telecom": [ {
        "system": "phone",
        "value": "(+1) 972-766-6900"
      } ],
      "address": [ {
        "use": "billing",
        "type": "postal",
        "line": [ "P.O. Box 660044" ],
        "city": "Dallas",
        "state": "TX",
        "postalCode": "75266-0044",
        "country": "USA"
      } ]
    }
  }, {
    "fullUrl": "https://madie.cms.gov/Practitioner/1235edca-c3bf-43ba-9b96-1b4928882cb5",
    "resource": {
      "resourceType": "Practitioner",
      "id": "1235edca-c3bf-43ba-9b96-1b4928882cb5",
      "meta": {
        "profile": [ "http://hl7.org/fhir/us/qicore/StructureDefinition/qicore-practitioner" ]
      },
      "identifier": [ {
        "system": "http://hl7.org/fhir/sid/us-npi",
        "value": "1689411712"
      } ],
      "name": [ {
        "family": "Evil",
        "prefix": [ "Dr" ]
      } ]
    }
  }, {
    "fullUrl": "https://madie.cms.gov/MeasureReport/a2315178-2d0b-4207-a2e3-70ea484e90ff",
    "resource": {
      "resourceType": "MeasureReport",
      "id": "a2315178-2d0b-4207-a2e3-70ea484e90ff",
      "meta": {
        "profile": [ "http://hl7.org/fhir/us/cqfmeasures/StructureDefinition/test-case-cqfm" ]
      },
      "contained": [ {
        "resourceType": "Parameters",
        "id": "f0c0f1b2-b0d1-4fed-8521-cbfee46e5a5f-parameters",
        "parameter": [ {
          "name": "subject",
          "valueString": "564678c9-1495-4cfe-9b68-2fcedb80fd9b"
        } ]
      } ],
      "extension": [ {
        "url": "http://hl7.org/fhir/StructureDefinition/cqf-inputParameters",
        "valueReference": {
          "reference": "#f0c0f1b2-b0d1-4fed-8521-cbfee46e5a5f-parameters"
        }
      }, {
        "url": "http://hl7.org/fhir/us/cqfmeasures/StructureDefinition/cqfm-testCaseDescription",
        "valueMarkdown": "Patient with HIV diagnosis on Jan 1 years before MP with an encounter on Jan 1 of MP - NO viral load tests during MP"
      } ],
      "modifierExtension": [ {
        "url": "http://hl7.org/fhir/us/cqfmeasures/StructureDefinition/cqfm-isTestCase",
        "valueBoolean": true
      } ],
      "status": "complete",
      "type": "individual",
      "measure": "https://madie.cms.gov/Measure/CMS314FHIRHIVViralSuppression",
      "period": {
        "start": "2026-01-01",
        "end": "2026-12-31"
      },
      "group": [ {
        "id": "Group_1",
        "population": [ {
          "id": "InitialPopulation_1",
          "code": {
            "coding": [ {
              "system": "http://terminology.hl7.org/CodeSystem/measure-population",
              "code": "initial-population",
              "display": "Initial Population"
            } ]
          },
          "count": 1
        }, {
          "id": "Denominator_1",
          "code": {
            "coding": [ {
              "system": "http://terminology.hl7.org/CodeSystem/measure-population",
              "code": "denominator",
              "display": "Denominator"
            } ]
          },
          "count": 1
        }, {
          "id": "Numerator_1",
          "code": {
            "coding": [ {
              "system": "http://terminology.hl7.org/CodeSystem/measure-population",
              "code": "numerator",
              "display": "Numerator"
            } ]
          },
          "count": 0
        } ],
        "measureScore": {
          "value": 1.0
        }
      } ],
      "evaluatedResource": [ {
        "reference": "Patient/564678c9-1495-4cfe-9b68-2fcedb80fd9b"
      }, {
        "reference": "Condition/d7eecdbb-28bd-4440-bd10-cb4164d91cbe"
      }, {
        "reference": "Encounter/e8ba5780-ecf8-47e8-9f93-d68b0a3d5264"
      }, {
        "reference": "Coverage/30ed4281-9cb4-46d7-90d1-609f327b2260"
      }, {
        "reference": "Organization/cce7ad84-d3d2-4b73-b67b-148346119b67"
      }, {
        "reference": "Practitioner/1235edca-c3bf-43ba-9b96-1b4928882cb5"
      } ]
    }
  } ]
}