{
  "resourceType": "Bundle",
  "id": "617ad5101e8170ac98fce634",
  "type": "transaction",
  "entry": [ {
    "fullUrl": "https://madie.cms.gov/Patient/8484e45d-18e0-4742-8b55-8abc877c6a04",
    "resource": {
      "resourceType": "Patient",
      "id": "8484e45d-18e0-4742-8b55-8abc877c6a04",
      "meta": {
        "profile": [ "http://hl7.org/fhir/us/qicore/StructureDefinition/qicore-patient" ]
      },
      "extension": [ {
        "url": "http://hl7.org/fhir/us/core/StructureDefinition/us-core-race",
        "extension": [ {
          "url": "ombCategory",
          "valueCoding": {
            "system": "urn:oid:2.16.840.1.113883.6.238",
            "code": "2076-8",
            "display": "Native Hawaiian or Other Pacific Islander",
            "userSelected": true
          }
        }, {
          "url": "text",
          "valueString": "Native Hawaiian or Other Pacific Islander"
        } ]
      }, {
        "url": "http://hl7.org/fhir/us/core/StructureDefinition/us-core-ethnicity",
        "extension": [ {
          "url": "ombCategory",
          "valueCoding": {
            "system": "urn:oid:2.16.840.1.113883.6.238",
            "code": "2186-5",
            "display": "Not Hispanic or Latino",
            "userSelected": true
          }
        }, {
          "url": "text",
          "valueString": "Not Hispanic or Latino"
        } ]
      }, {
        "url": "http://hl7.org/fhir/us/core/StructureDefinition/us-core-sex",
        "valueCode": "248152002"
      } ],
      "identifier": [ {
        "type": {
          "coding": [ {
            "system": "http://terminology.hl7.org/CodeSystem/v2-0203",
            "code": "MR"
          } ]
        },
        "system": "https://bonnie-fhir.healthit.gov/",
        "value": "617ad5101e8170ac98fce634"
      } ],
      "name": [ {
        "family": "IPFail",
        "given": [ "Age18DuringEDSecondCalendarDay" ]
      } ],
      "gender": "female",
      "birthDate": "2008-10-10"
    },
    "request": {
      "method": "PUT",
      "url": "Patient/8484e45d-18e0-4742-8b55-8abc877c6a04"
    }
  }, {
    "fullUrl": "https://madie.cms.gov/Encounter/e5de516a-d670-4ca3-85f4-fcafe5d4dd4b",
    "resource": {
      "resourceType": "Encounter",
      "id": "e5de516a-d670-4ca3-85f4-fcafe5d4dd4b",
      "meta": {
        "profile": [ "http://hl7.org/fhir/us/qicore/StructureDefinition/qicore-encounter" ]
      },
      "status": "finished",
      "class": {
        "system": "http://terminology.hl7.org/CodeSystem/v3-ActCode",
        "code": "EMER",
        "display": "emergency",
        "userSelected": true
      },
      "type": [ {
        "coding": [ {
          "system": "http://snomed.info/sct",
          "version": "2020-09",
          "code": "4525004",
          "display": "Emergency department patient visit (procedure)",
          "userSelected": true
        } ]
      } ],
      "subject": {
        "reference": "Patient/8484e45d-18e0-4742-8b55-8abc877c6a04"
      },
      "period": {
        "start": "2026-10-09T08:05:00.000+00:00",
        "end": "2026-10-10T07:15:00.000+00:00"
      },
      "reasonReference": [ {
        "reference": "Condition/99d9309b-8d2d-4c74-8fd8-13af4f0f2000"
      } ]
    },
    "request": {
      "method": "PUT",
      "url": "Encounter/e5de516a-d670-4ca3-85f4-fcafe5d4dd4b"
    }
  }, {
    "fullUrl": "https://madie.cms.gov/Condition/99d9309b-8d2d-4c74-8fd8-13af4f0f2000",
    "resource": {
      "resourceType": "Condition",
      "id": "99d9309b-8d2d-4c74-8fd8-13af4f0f2000",
      "meta": {
        "profile": [ "http://hl7.org/fhir/us/qicore/StructureDefinition/qicore-condition-encounter-diagnosis" ]
      },
      "clinicalStatus": {
        "coding": [ {
          "system": "http://terminology.hl7.org/CodeSystem/condition-clinical",
          "code": "active",
          "display": "active",
          "userSelected": true
        } ]
      },
      "category": [ {
        "coding": [ {
          "system": "http://terminology.hl7.org/CodeSystem/condition-category",
          "code": "encounter-diagnosis",
          "display": "Encounter Diagnosis",
          "userSelected": true
        } ]
      } ],
      "code": {
        "coding": [ {
          "system": "http://snomed.info/sct",
          "version": "2020-09",
          "code": "401303003",
          "display": "Acute ST segment elevation myocardial infarction (disorder)",
          "userSelected": true
        } ]
      },
      "subject": {
        "reference": "Patient/8484e45d-18e0-4742-8b55-8abc877c6a04"
      },
      "encounter": {
        "reference": "Encounter/e5de516a-d670-4ca3-85f4-fcafe5d4dd4b"
      },
      "recordedDate": "2026-10-28T08:00:00.000+00:00"
    },
    "request": {
      "method": "PUT",
      "url": "Condition/99d9309b-8d2d-4c74-8fd8-13af4f0f2000"
    }
  }, {
    "fullUrl": "https://madie.cms.gov/MeasureReport/cc02e5fa-ccb5-4f3c-8ca1-29718d8dfb8a",
    "resource": {
      "resourceType": "MeasureReport",
      "id": "cc02e5fa-ccb5-4f3c-8ca1-29718d8dfb8a",
      "meta": {
        "profile": [ "http://hl7.org/fhir/us/cqfmeasures/StructureDefinition/test-case-cqfm" ]
      },
      "contained": [ {
        "resourceType": "Parameters",
        "id": "c30b4748-5c3b-4c91-b6a0-2b757af1ce36-parameters",
        "parameter": [ {
          "name": "subject",
          "valueString": "8484e45d-18e0-4742-8b55-8abc877c6a04"
        } ]
      } ],
      "extension": [ {
        "url": "http://hl7.org/fhir/StructureDefinition/cqf-inputParameters",
        "valueReference": {
          "reference": "#c30b4748-5c3b-4c91-b6a0-2b757af1ce36-parameters"
        }
      }, {
        "url": "http://hl7.org/fhir/us/cqfmeasures/StructureDefinition/cqfm-testCaseDescription",
        "valueMarkdown": "Patient turns 18 years during the ED encounter, but it is the second calendar day of the ED stay"
      } ],
      "modifierExtension": [ {
        "url": "http://hl7.org/fhir/us/cqfmeasures/StructureDefinition/cqfm-isTestCase",
        "valueBoolean": true
      } ],
      "status": "complete",
      "type": "individual",
      "measure": "https://madie.cms.gov/Measure/CMS996FHIRAptTxforSTEMI",
      "period": {
        "start": "2026-01-01",
        "end": "2026-12-31"
      },
      "group": [ {
        "id": "Group_1",
        "population": [ {
          "id": "InitialPopulation_1",
          "code": {
            "coding": [ {
              "system": "http://terminology.hl7.org/CodeSystem/measure-population",
              "code": "initial-population",
              "display": "Initial Population"
            } ]
          },
          "count": 0
        }, {
          "id": "Denominator_1",
          "code": {
            "coding": [ {
              "system": "http://terminology.hl7.org/CodeSystem/measure-population",
              "code": "denominator",
              "display": "Denominator"
            } ]
          },
          "count": 0
        }, {
          "id": "DenominatorExclusion_1",
          "code": {
            "coding": [ {
              "system": "http://terminology.hl7.org/CodeSystem/measure-population",
              "code": "denominator-exclusion",
              "display": "Denominator Exclusion"
            } ]
          },
          "count": 0
        }, {
          "id": "Numerator_1",
          "code": {
            "coding": [ {
              "system": "http://terminology.hl7.org/CodeSystem/measure-population",
              "code": "numerator",
              "display": "Numerator"
            } ]
          },
          "count": 0
        }, {
          "id": "DenominatorException_1",
          "code": {
            "coding": [ {
              "system": "http://terminology.hl7.org/CodeSystem/measure-population",
              "code": "denominator-exception",
              "display": "Denominator Exception"
            } ]
          },
          "count": 0
        } ],
        "measureScore": {
          "value": 0.0
        }
      } ],
      "evaluatedResource": [ {
        "reference": "Patient/8484e45d-18e0-4742-8b55-8abc877c6a04"
      }, {
        "reference": "Encounter/e5de516a-d670-4ca3-85f4-fcafe5d4dd4b"
      }, {
        "reference": "Condition/99d9309b-8d2d-4c74-8fd8-13af4f0f2000"
      } ]
    },
    "request": {
      "method": "PUT",
      "url": "MeasureReport/cc02e5fa-ccb5-4f3c-8ca1-29718d8dfb8a"
    }
  } ]
}