{
  "resourceType": "Bundle",
  "id": "tests-25a4e31a-832c-4337-9a8e-8a0a6dfb189d-bundle",
  "type": "transaction",
  "entry": [ {
    "fullUrl": "https://madie.cms.gov/Procedure/6b6b20a2-8582-4067-9a5e-4012613e0838",
    "resource": {
      "resourceType": "Procedure",
      "id": "6b6b20a2-8582-4067-9a5e-4012613e0838",
      "meta": {
        "profile": [ "http://hl7.org/fhir/us/qicore/StructureDefinition/qicore-procedure" ]
      },
      "extension": [ {
        "url": "http://hl7.org/fhir/us/qicore/StructureDefinition/qicore-recorded",
        "valueDateTime": "2026-04-11T10:20:00.000+00:00"
      } ],
      "status": "completed",
      "category": {
        "coding": [ {
          "system": "http://snomed.info/sct",
          "code": "18286008",
          "display": "General or neuraxial anesthesia"
        } ]
      },
      "code": {
        "coding": [ {
          "system": "http://snomed.info/sct",
          "code": "112943005",
          "display": "Epidural injection of anesthetic substance, diagnostic, caudal, continuous"
        } ]
      },
      "subject": {
        "reference": "Patient/25a4e31a-832c-4337-9a8e-8a0a6dfb189d"
      },
      "performedPeriod": {
        "start": "2026-04-11T08:00:00.000+00:00",
        "end": "2026-04-11T10:15:00.000+00:00"
      }
    },
    "request": {
      "method": "PUT",
      "url": "Procedure/6b6b20a2-8582-4067-9a5e-4012613e0838"
    }
  }, {
    "fullUrl": "https://madie.cms.gov/Encounter/df446e04-b2e5-493b-8c3a-f2d5492ef9c2",
    "resource": {
      "resourceType": "Encounter",
      "id": "df446e04-b2e5-493b-8c3a-f2d5492ef9c2",
      "meta": {
        "profile": [ "http://hl7.org/fhir/us/qicore/StructureDefinition/qicore-encounter" ]
      },
      "status": "finished",
      "class": {
        "system": "http://terminology.hl7.org/CodeSystem/v3-ActCode",
        "code": "IMP",
        "display": "inpatient encounter"
      },
      "type": [ {
        "coding": [ {
          "system": "http://snomed.info/sct",
          "code": "112689000",
          "display": "Hospital admission, elective, with complete pre-admission work-up"
        } ],
        "text": "Hospital admission, elective, with complete pre-admission work-up"
      } ],
      "priority": {
        "coding": [ {
          "system": "http://snomed.info/sct",
          "code": "103390000"
        } ]
      },
      "subject": {
        "reference": "Patient/25a4e31a-832c-4337-9a8e-8a0a6dfb189d"
      },
      "period": {
        "start": "2026-04-10T08:00:00.000+00:00",
        "end": "2026-04-14T08:15:00.000+00:00"
      },
      "reasonCode": [ {
        "coding": [ {
          "system": "http://hl7.org/fhir/sid/icd-10-cm",
          "version": "2024",
          "code": "F01.C3",
          "display": "Vascular dementia, severe, with mood disturbance"
        } ]
      } ],
      "diagnosis": [ {
        "condition": {
          "reference": "Condition/7ed9aab8-9f82-491d-99e1-e12f3b3e8cd7"
        }
      } ]
    },
    "request": {
      "method": "PUT",
      "url": "Encounter/df446e04-b2e5-493b-8c3a-f2d5492ef9c2"
    }
  }, {
    "fullUrl": "https://madie.cms.gov/Patient/25a4e31a-832c-4337-9a8e-8a0a6dfb189d",
    "resource": {
      "resourceType": "Patient",
      "id": "25a4e31a-832c-4337-9a8e-8a0a6dfb189d",
      "meta": {
        "profile": [ "http://hl7.org/fhir/us/qicore/StructureDefinition/qicore-patient" ]
      },
      "extension": [ {
        "url": "http://hl7.org/fhir/us/core/StructureDefinition/us-core-race",
        "extension": [ {
          "url": "ombCategory",
          "valueCoding": {
            "system": "urn:oid:2.16.840.1.113883.6.238",
            "code": "2054-5",
            "display": "Black or African American",
            "userSelected": true
          }
        }, {
          "url": "text",
          "valueString": "Black or African American"
        } ]
      }, {
        "url": "http://hl7.org/fhir/us/core/StructureDefinition/us-core-ethnicity",
        "extension": [ {
          "url": "ombCategory",
          "valueCoding": {
            "system": "urn:oid:2.16.840.1.113883.6.238",
            "code": "2186-5",
            "display": "Not Hispanic or Latino",
            "userSelected": true
          }
        }, {
          "url": "text",
          "valueString": "Not Hispanic or Latino"
        } ]
      } ],
      "identifier": [ {
        "type": {
          "coding": [ {
            "system": "http://terminology.hl7.org/CodeSystem/v2-0203",
            "code": "MR"
          } ]
        },
        "system": "https://bonnie-fhir.healthit.gov/",
        "value": "61152a3b98086b7a79cbd7c1"
      } ],
      "active": true,
      "name": [ {
        "use": "usual",
        "family": "DENEXPass",
        "given": [ "DegenerativeNeuroDisorder" ]
      } ],
      "gender": "female",
      "birthDate": "1966-07-12"
    },
    "request": {
      "method": "PUT",
      "url": "Patient/25a4e31a-832c-4337-9a8e-8a0a6dfb189d"
    }
  }, {
    "fullUrl": "https://madie.cms.gov/Condition/7ed9aab8-9f82-491d-99e1-e12f3b3e8cd7",
    "resource": {
      "resourceType": "Condition",
      "id": "7ed9aab8-9f82-491d-99e1-e12f3b3e8cd7",
      "meta": {
        "profile": [ "http://hl7.org/fhir/us/qicore/StructureDefinition/qicore-condition-encounter-diagnosis" ]
      },
      "clinicalStatus": {
        "coding": [ {
          "system": "http://terminology.hl7.org/CodeSystem/condition-clinical",
          "code": "active",
          "display": "Active",
          "userSelected": true
        } ]
      },
      "verificationStatus": {
        "coding": [ {
          "system": "http://terminology.hl7.org/CodeSystem/condition-ver-status",
          "code": "confirmed",
          "display": "Confirmed",
          "userSelected": true
        } ]
      },
      "category": [ {
        "coding": [ {
          "system": "http://terminology.hl7.org/CodeSystem/condition-category",
          "code": "encounter-diagnosis",
          "display": "Encounter Diagnosis",
          "userSelected": true
        } ]
      } ],
      "code": {
        "coding": [ {
          "system": "http://hl7.org/fhir/sid/icd-10-cm",
          "code": "F09",
          "display": "Unsp mental disorder due to known physiological condition",
          "userSelected": true
        } ]
      },
      "subject": {
        "reference": "Patient/25a4e31a-832c-4337-9a8e-8a0a6dfb189d"
      },
      "onsetPeriod": {
        "start": "2026-04-10T08:00:00.000+00:00"
      },
      "recordedDate": "2026-04-10T08:05:00.000+00:00"
    },
    "request": {
      "method": "PUT",
      "url": "Condition/7ed9aab8-9f82-491d-99e1-e12f3b3e8cd7"
    }
  }, {
    "fullUrl": "https://madie.cms.gov/MeasureReport/78fe03f4-71f6-4d27-a8ef-e74ab781a90d",
    "resource": {
      "resourceType": "MeasureReport",
      "id": "78fe03f4-71f6-4d27-a8ef-e74ab781a90d",
      "meta": {
        "profile": [ "http://hl7.org/fhir/us/cqfmeasures/StructureDefinition/test-case-cqfm" ]
      },
      "contained": [ {
        "resourceType": "Parameters",
        "id": "3e5ac7d9-400c-4e3f-b270-2bc78d63fd6b-parameters",
        "parameter": [ {
          "name": "subject",
          "valueString": "25a4e31a-832c-4337-9a8e-8a0a6dfb189d"
        } ]
      } ],
      "extension": [ {
        "url": "http://hl7.org/fhir/StructureDefinition/cqf-inputParameters",
        "valueReference": {
          "reference": "#3e5ac7d9-400c-4e3f-b270-2bc78d63fd6b-parameters"
        }
      }, {
        "url": "http://hl7.org/fhir/us/cqfmeasures/StructureDefinition/cqfm-testCaseDescription",
        "valueMarkdown": "Elective hospitalization with procedure (general anesthesia) within first 3 days of encounter. But has encounter diagnosis of degenerative neurological disorder so meets denom exclusion. \n"
      } ],
      "modifierExtension": [ {
        "url": "http://hl7.org/fhir/us/cqfmeasures/StructureDefinition/cqfm-isTestCase",
        "valueBoolean": true
      } ],
      "status": "complete",
      "type": "individual",
      "measure": "https://madie.cms.gov/Measure/CMS1218FHIRHHRF",
      "period": {
        "start": "2026-01-01",
        "end": "2026-12-31"
      },
      "group": [ {
        "id": "Group_1",
        "population": [ {
          "id": "InitialPopulation_1",
          "code": {
            "coding": [ {
              "system": "http://terminology.hl7.org/CodeSystem/measure-population",
              "code": "initial-population",
              "display": "Initial Population"
            } ]
          },
          "count": 1
        }, {
          "id": "Denominator_1",
          "code": {
            "coding": [ {
              "system": "http://terminology.hl7.org/CodeSystem/measure-population",
              "code": "denominator",
              "display": "Denominator"
            } ]
          },
          "count": 1
        }, {
          "id": "DenominatorExclusion_1",
          "code": {
            "coding": [ {
              "system": "http://terminology.hl7.org/CodeSystem/measure-population",
              "code": "denominator-exclusion",
              "display": "Denominator Exclusion"
            } ]
          },
          "count": 1
        }, {
          "id": "Numerator_1",
          "code": {
            "coding": [ {
              "system": "http://terminology.hl7.org/CodeSystem/measure-population",
              "code": "numerator",
              "display": "Numerator"
            } ]
          },
          "count": 0
        } ],
        "measureScore": {
          "value": 0.0
        }
      } ],
      "evaluatedResource": [ {
        "reference": "Procedure/6b6b20a2-8582-4067-9a5e-4012613e0838"
      }, {
        "reference": "Encounter/df446e04-b2e5-493b-8c3a-f2d5492ef9c2"
      }, {
        "reference": "Patient/25a4e31a-832c-4337-9a8e-8a0a6dfb189d"
      }, {
        "reference": "Condition/7ed9aab8-9f82-491d-99e1-e12f3b3e8cd7"
      } ]
    },
    "request": {
      "method": "PUT",
      "url": "MeasureReport/78fe03f4-71f6-4d27-a8ef-e74ab781a90d"
    }
  } ]
}