{
  "resourceType": "Bundle",
  "id": "6495b572e06f07b7e170781b",
  "type": "collection",
  "entry": [ {
    "fullUrl": "https://madie.cms.gov/Patient/f5ab0931-7298-476d-8529-3e13214e626f",
    "resource": {
      "resourceType": "Patient",
      "id": "f5ab0931-7298-476d-8529-3e13214e626f",
      "meta": {
        "profile": [ "http://hl7.org/fhir/us/qicore/StructureDefinition/qicore-patient" ]
      },
      "extension": [ {
        "url": "http://hl7.org/fhir/us/core/StructureDefinition/us-core-race",
        "extension": [ {
          "url": "ombCategory",
          "valueCoding": {
            "system": "urn:oid:2.16.840.1.113883.6.238",
            "code": "2028-9",
            "display": "Asian",
            "userSelected": true
          }
        }, {
          "url": "text",
          "valueString": "Asian"
        } ]
      }, {
        "url": "http://hl7.org/fhir/us/core/StructureDefinition/us-core-ethnicity",
        "extension": [ {
          "url": "ombCategory",
          "valueCoding": {
            "system": "urn:oid:2.16.840.1.113883.6.238",
            "code": "2186-5",
            "display": "Not Hispanic or Latino",
            "userSelected": true
          }
        }, {
          "url": "text",
          "valueString": "Not Hispanic or Latino"
        } ]
      } ],
      "identifier": [ {
        "type": {
          "coding": [ {
            "system": "http://terminology.hl7.org/CodeSystem/v2-0203",
            "code": "MR"
          } ]
        },
        "system": "https://bonnie-fhir.healthit.gov/",
        "value": "6495b572e06f07b7e170781b"
      } ],
      "name": [ {
        "family": "IPPass",
        "given": [ "HIVDxonMarch30ofMP" ]
      } ],
      "gender": "female",
      "birthDate": "1991-02-09"
    }
  }, {
    "fullUrl": "https://madie.cms.gov/Condition/1d264bdb-4cb6-43f2-87ea-9d22cbdef4ce",
    "resource": {
      "resourceType": "Condition",
      "id": "1d264bdb-4cb6-43f2-87ea-9d22cbdef4ce",
      "meta": {
        "profile": [ "http://hl7.org/fhir/us/qicore/StructureDefinition/qicore-condition-problems-health-concerns" ]
      },
      "clinicalStatus": {
        "coding": [ {
          "system": "http://terminology.hl7.org/CodeSystem/condition-clinical",
          "code": "active",
          "display": "active",
          "userSelected": true
        } ]
      },
      "category": [ {
        "coding": [ {
          "system": "http://terminology.hl7.org/CodeSystem/condition-category",
          "code": "problem-list-item",
          "display": "Problem List Item"
        } ]
      } ],
      "code": {
        "coding": [ {
          "system": "http://hl7.org/fhir/sid/icd-9-cm",
          "version": "2013",
          "code": "042",
          "display": "Human immunodeficiency virus [HIV] disease",
          "userSelected": true
        }, {
          "system": "http://snomed.info/sct",
          "version": "http://snomed.info/sct/731000124108/version/20250301",
          "code": "165816005",
          "userSelected": true
        } ]
      },
      "subject": {
        "reference": "Patient/f5ab0931-7298-476d-8529-3e13214e626f"
      },
      "onsetDateTime": "2026-03-30T11:00:00.000+00:00",
      "recordedDate": "2026-03-30T11:00:00.000+00:00"
    }
  }, {
    "fullUrl": "https://madie.cms.gov/Encounter/bb6b9d26-4990-419f-ae2c-d56e0d10f947",
    "resource": {
      "resourceType": "Encounter",
      "id": "bb6b9d26-4990-419f-ae2c-d56e0d10f947",
      "meta": {
        "profile": [ "http://hl7.org/fhir/us/qicore/StructureDefinition/qicore-encounter" ]
      },
      "status": "finished",
      "class": {
        "system": "http://terminology.hl7.org/CodeSystem/v3-ActCode",
        "code": "AMB",
        "display": "ambulatory"
      },
      "type": [ {
        "coding": [ {
          "system": "http://snomed.info/sct",
          "version": "2022-09",
          "code": "185463005",
          "display": "Visit out of hours (procedure)",
          "userSelected": true
        } ]
      } ],
      "subject": {
        "reference": "Patient/f5ab0931-7298-476d-8529-3e13214e626f"
      },
      "period": {
        "start": "2026-03-07T13:00:00.000+00:00",
        "end": "2026-03-07T13:39:00.000+00:00"
      }
    }
  }, {
    "fullUrl": "https://madie.cms.gov/Coverage/9573c4be-7a62-4939-a637-2f857ae0aeef",
    "resource": {
      "resourceType": "Coverage",
      "id": "9573c4be-7a62-4939-a637-2f857ae0aeef",
      "meta": {
        "profile": [ "http://hl7.org/fhir/us/qicore/StructureDefinition/qicore-coverage" ]
      },
      "status": "active",
      "subscriberId": "123456",
      "beneficiary": {
        "reference": "Patient/f5ab0931-7298-476d-8529-3e13214e626f"
      },
      "relationship": {
        "coding": [ {
          "system": "http://terminology.hl7.org/CodeSystem/subscriber-relationship",
          "code": "self",
          "display": "Self"
        } ]
      },
      "payor": [ {
        "reference": "Organization/58b1f4c7-cec0-4433-bb8f-61c2fbbceddb"
      } ]
    }
  }, {
    "fullUrl": "https://madie.cms.gov/Organization/58b1f4c7-cec0-4433-bb8f-61c2fbbceddb",
    "resource": {
      "resourceType": "Organization",
      "id": "58b1f4c7-cec0-4433-bb8f-61c2fbbceddb",
      "meta": {
        "profile": [ "http://hl7.org/fhir/us/qicore/StructureDefinition/qicore-organization" ]
      },
      "identifier": [ {
        "use": "temp",
        "system": "urn:oid:2.16.840.1.113883.4.4",
        "value": "21-3259825"
      } ],
      "active": true,
      "type": [ {
        "coding": [ {
          "system": "http://terminology.hl7.org/CodeSystem/organization-type",
          "code": "pay",
          "display": "Payer"
        } ]
      } ],
      "name": "Blue Cross Blue Shield of Texas",
      "telecom": [ {
        "system": "phone",
        "value": "(+1) 972-766-6900"
      } ],
      "address": [ {
        "use": "billing",
        "type": "postal",
        "line": [ "P.O. Box 660044" ],
        "city": "Dallas",
        "state": "TX",
        "postalCode": "75266-0044",
        "country": "USA"
      } ]
    }
  }, {
    "fullUrl": "https://madie.cms.gov/Practitioner/1000f0f5-0d7b-4c93-9e04-0328bc1ca5cd",
    "resource": {
      "resourceType": "Practitioner",
      "id": "1000f0f5-0d7b-4c93-9e04-0328bc1ca5cd",
      "meta": {
        "profile": [ "http://hl7.org/fhir/us/qicore/StructureDefinition/qicore-practitioner" ]
      },
      "identifier": [ {
        "system": "http://hl7.org/fhir/sid/us-npi",
        "value": "1689411712"
      } ],
      "name": [ {
        "family": "Evil",
        "prefix": [ "Dr" ]
      } ]
    }
  }, {
    "fullUrl": "https://madie.cms.gov/MeasureReport/ccb9305d-b4be-4720-a268-0cba1746e15c",
    "resource": {
      "resourceType": "MeasureReport",
      "id": "ccb9305d-b4be-4720-a268-0cba1746e15c",
      "meta": {
        "profile": [ "http://hl7.org/fhir/us/cqfmeasures/StructureDefinition/test-case-cqfm" ]
      },
      "contained": [ {
        "resourceType": "Parameters",
        "id": "43d33efd-a795-4866-b798-dd8ce57d092c-parameters",
        "parameter": [ {
          "name": "subject",
          "valueString": "f5ab0931-7298-476d-8529-3e13214e626f"
        } ]
      } ],
      "extension": [ {
        "url": "http://hl7.org/fhir/StructureDefinition/cqf-inputParameters",
        "valueReference": {
          "reference": "#43d33efd-a795-4866-b798-dd8ce57d092c-parameters"
        }
      }, {
        "url": "http://hl7.org/fhir/us/cqfmeasures/StructureDefinition/cqfm-testCaseDescription",
        "valueMarkdown": "HIV diagnosis made on March 30 of MP with a qualifying encounter during MP"
      } ],
      "modifierExtension": [ {
        "url": "http://hl7.org/fhir/us/cqfmeasures/StructureDefinition/cqfm-isTestCase",
        "valueBoolean": true
      } ],
      "status": "complete",
      "type": "individual",
      "measure": "https://madie.cms.gov/Measure/CMS314FHIRHIVViralSuppression",
      "period": {
        "start": "2026-01-01",
        "end": "2026-12-31"
      },
      "group": [ {
        "id": "Group_1",
        "population": [ {
          "id": "InitialPopulation_1",
          "code": {
            "coding": [ {
              "system": "http://terminology.hl7.org/CodeSystem/measure-population",
              "code": "initial-population",
              "display": "Initial Population"
            } ]
          },
          "count": 1
        }, {
          "id": "Denominator_1",
          "code": {
            "coding": [ {
              "system": "http://terminology.hl7.org/CodeSystem/measure-population",
              "code": "denominator",
              "display": "Denominator"
            } ]
          },
          "count": 1
        }, {
          "id": "Numerator_1",
          "code": {
            "coding": [ {
              "system": "http://terminology.hl7.org/CodeSystem/measure-population",
              "code": "numerator",
              "display": "Numerator"
            } ]
          },
          "count": 0
        } ],
        "measureScore": {
          "value": 1.0
        }
      } ],
      "evaluatedResource": [ {
        "reference": "Patient/f5ab0931-7298-476d-8529-3e13214e626f"
      }, {
        "reference": "Condition/1d264bdb-4cb6-43f2-87ea-9d22cbdef4ce"
      }, {
        "reference": "Encounter/bb6b9d26-4990-419f-ae2c-d56e0d10f947"
      }, {
        "reference": "Coverage/9573c4be-7a62-4939-a637-2f857ae0aeef"
      }, {
        "reference": "Organization/58b1f4c7-cec0-4433-bb8f-61c2fbbceddb"
      }, {
        "reference": "Practitioner/1000f0f5-0d7b-4c93-9e04-0328bc1ca5cd"
      } ]
    }
  } ]
}