{
  "resourceType": "Bundle",
  "id": "Patient-41-NUMPass-GMIGreaterThan9",
  "type": "transaction",
  "entry": [ {
    "fullUrl": "https://madie.cms.gov/Patient/6630d394-c81d-42f5-a218-40b73a2a4949",
    "resource": {
      "resourceType": "Patient",
      "id": "6630d394-c81d-42f5-a218-40b73a2a4949",
      "meta": {
        "profile": [ "http://hl7.org/fhir/us/qicore/StructureDefinition/qicore-patient" ]
      },
      "extension": [ {
        "url": "http://hl7.org/fhir/us/core/StructureDefinition/us-core-race",
        "extension": [ {
          "url": "ombCategory",
          "valueCoding": {
            "system": "urn:oid:2.16.840.1.113883.6.238",
            "code": "2028-9",
            "display": "Asian",
            "userSelected": true
          }
        }, {
          "url": "text",
          "valueString": "Asian"
        } ]
      }, {
        "url": "http://hl7.org/fhir/us/core/StructureDefinition/us-core-ethnicity",
        "extension": [ {
          "url": "ombCategory",
          "valueCoding": {
            "system": "urn:oid:2.16.840.1.113883.6.238",
            "code": "2135-2",
            "display": "Hispanic or Latino",
            "userSelected": true
          }
        }, {
          "url": "text",
          "valueString": "Hispanic or Latino"
        } ]
      } ],
      "identifier": [ {
        "type": {
          "coding": [ {
            "system": "http://terminology.hl7.org/CodeSystem/v2-0203",
            "code": "MR"
          } ]
        },
        "system": "http://hospital.smarthealthit.org",
        "value": "999999995"
      } ],
      "name": [ {
        "family": "Bertha",
        "given": [ "Betty" ]
      } ],
      "gender": "female",
      "birthDate": "2007-01-01"
    },
    "request": {
      "method": "PUT",
      "url": "Patient/6630d394-c81d-42f5-a218-40b73a2a4949"
    }
  }, {
    "fullUrl": "https://madie.cms.gov/Encounter/6a191664-bdff-4d10-be12-6282b13f3490",
    "resource": {
      "resourceType": "Encounter",
      "id": "6a191664-bdff-4d10-be12-6282b13f3490",
      "meta": {
        "profile": [ "http://hl7.org/fhir/us/qicore/StructureDefinition/qicore-encounter" ]
      },
      "status": "finished",
      "class": {
        "system": "http://terminology.hl7.org/CodeSystem/v3-ActCode",
        "code": "AMB",
        "display": "ambulatory"
      },
      "type": [ {
        "coding": [ {
          "system": "http://snomed.info/sct",
          "code": "185460008",
          "display": "Home visit request by patient (procedure)"
        } ]
      } ],
      "subject": {
        "reference": "Patient/6630d394-c81d-42f5-a218-40b73a2a4949"
      },
      "period": {
        "start": "2026-01-01T00:00:00.000+00:00",
        "end": "2026-01-01T00:15:00.000+00:00"
      }
    },
    "request": {
      "method": "PUT",
      "url": "Encounter/6a191664-bdff-4d10-be12-6282b13f3490"
    }
  }, {
    "fullUrl": "https://madie.cms.gov/Condition/8d4f72ca-b9e8-4a11-92a6-278f0870a9f9",
    "resource": {
      "resourceType": "Condition",
      "id": "8d4f72ca-b9e8-4a11-92a6-278f0870a9f9",
      "meta": {
        "profile": [ "http://hl7.org/fhir/us/qicore/StructureDefinition/qicore-condition-encounter-diagnosis" ]
      },
      "clinicalStatus": {
        "coding": [ {
          "system": "http://terminology.hl7.org/CodeSystem/condition-clinical",
          "code": "active"
        } ]
      },
      "category": [ {
        "coding": [ {
          "system": "http://terminology.hl7.org/CodeSystem/condition-category",
          "code": "encounter-diagnosis",
          "display": "Encounter Diagnosis"
        } ]
      } ],
      "code": {
        "coding": [ {
          "system": "http://snomed.info/sct",
          "code": "102781000119107",
          "display": "Sensory neuropathy due to type 1 diabetes mellitus (disorder)"
        } ]
      },
      "subject": {
        "reference": "Patient/6630d394-c81d-42f5-a218-40b73a2a4949"
      },
      "onsetDateTime": "2026-01-01T23:59:00.000+00:00"
    },
    "request": {
      "method": "PUT",
      "url": "Condition/8d4f72ca-b9e8-4a11-92a6-278f0870a9f9"
    }
  }, {
    "fullUrl": "https://madie.cms.gov/Observation/56be1535-8a54-42e5-8118-4083e62ccbad",
    "resource": {
      "resourceType": "Observation",
      "id": "56be1535-8a54-42e5-8118-4083e62ccbad",
      "meta": {
        "profile": [ "http://hl7.org/fhir/us/qicore/StructureDefinition/qicore-observation-lab" ]
      },
      "status": "corrected",
      "category": [ {
        "coding": [ {
          "system": "http://terminology.hl7.org/CodeSystem/observation-category",
          "code": "laboratory"
        } ]
      } ],
      "code": {
        "coding": [ {
          "system": "http://loinc.org",
          "code": "97506-0",
          "display": "Glucose management indicator"
        } ]
      },
      "subject": {
        "reference": "Patient/6630d394-c81d-42f5-a218-40b73a2a4949"
      },
      "effectivePeriod": {
        "start": "2026-01-02T00:00:00.000+00:00",
        "end": "2026-01-03T00:00:00.000+00:00"
      },
      "valueQuantity": {
        "value": 9.1,
        "unit": "%",
        "system": "http://unitsofmeasure.org",
        "code": "%"
      }
    },
    "request": {
      "method": "PUT",
      "url": "Observation/56be1535-8a54-42e5-8118-4083e62ccbad"
    }
  }, {
    "fullUrl": "https://madie.cms.gov/MeasureReport/00306284-8ee3-4241-b775-78f424ad4167",
    "resource": {
      "resourceType": "MeasureReport",
      "id": "00306284-8ee3-4241-b775-78f424ad4167",
      "meta": {
        "profile": [ "http://hl7.org/fhir/us/cqfmeasures/StructureDefinition/test-case-cqfm" ]
      },
      "contained": [ {
        "resourceType": "Parameters",
        "id": "255707f0-9c47-4f20-8d40-a43df1d326d4-parameters",
        "parameter": [ {
          "name": "subject",
          "valueString": "6630d394-c81d-42f5-a218-40b73a2a4949"
        } ]
      } ],
      "extension": [ {
        "url": "http://hl7.org/fhir/StructureDefinition/cqf-inputParameters",
        "valueReference": {
          "reference": "#255707f0-9c47-4f20-8d40-a43df1d326d4-parameters"
        }
      }, {
        "url": "http://hl7.org/fhir/us/cqfmeasures/StructureDefinition/cqfm-testCaseDescription",
        "valueMarkdown": "Glucose management indicator is greater than 9%"
      } ],
      "modifierExtension": [ {
        "url": "http://hl7.org/fhir/us/cqfmeasures/StructureDefinition/cqfm-isTestCase",
        "valueBoolean": true
      } ],
      "status": "complete",
      "type": "individual",
      "measure": "https://madie.cms.gov/Measure/CMS122FHIRDiabetesAssessGT9Pct",
      "period": {
        "start": "2026-01-01",
        "end": "2026-12-31"
      },
      "group": [ {
        "id": "Group_1",
        "population": [ {
          "id": "InitialPopulation_1",
          "code": {
            "coding": [ {
              "system": "http://terminology.hl7.org/CodeSystem/measure-population",
              "code": "initial-population",
              "display": "Initial Population"
            } ]
          },
          "count": 1
        }, {
          "id": "Denominator_1",
          "code": {
            "coding": [ {
              "system": "http://terminology.hl7.org/CodeSystem/measure-population",
              "code": "denominator",
              "display": "Denominator"
            } ]
          },
          "count": 1
        }, {
          "id": "DenominatorExclusion_1",
          "code": {
            "coding": [ {
              "system": "http://terminology.hl7.org/CodeSystem/measure-population",
              "code": "denominator-exclusion",
              "display": "Denominator Exclusion"
            } ]
          },
          "count": 0
        }, {
          "id": "Numerator_1",
          "code": {
            "coding": [ {
              "system": "http://terminology.hl7.org/CodeSystem/measure-population",
              "code": "numerator",
              "display": "Numerator"
            } ]
          },
          "count": 1
        } ],
        "measureScore": {
          "value": 1.0
        }
      } ],
      "evaluatedResource": [ {
        "reference": "Patient/6630d394-c81d-42f5-a218-40b73a2a4949"
      }, {
        "reference": "Encounter/6a191664-bdff-4d10-be12-6282b13f3490"
      }, {
        "reference": "Condition/8d4f72ca-b9e8-4a11-92a6-278f0870a9f9"
      }, {
        "reference": "Observation/56be1535-8a54-42e5-8118-4083e62ccbad"
      } ]
    },
    "request": {
      "method": "PUT",
      "url": "MeasureReport/00306284-8ee3-4241-b775-78f424ad4167"
    }
  } ]
}