{
  "resourceType": "Bundle",
  "id": "63ec0968ccb3770120fe9d74",
  "type": "transaction",
  "entry": [ {
    "fullUrl": "https://madie.cms.gov/Patient/bd0c87d4-b1d8-470b-beba-df7f7b9af87e",
    "resource": {
      "resourceType": "Patient",
      "id": "bd0c87d4-b1d8-470b-beba-df7f7b9af87e",
      "meta": {
        "profile": [ "http://hl7.org/fhir/us/qicore/StructureDefinition/qicore-patient" ]
      },
      "text": {
        "status": "generated",
        "div": "<div xmlns=\"http://www.w3.org/1999/xhtml\"><div class=\"hapiHeaderText\">OnAdmit <b>HEMATPASS </b></div><table class=\"hapiPropertyTable\"><tbody><tr><td>Identifier</td><td>a3da21e0aa9acb035adc77fa116544b16013e74ef32aafc4f42a40ab71459966</td></tr><tr><td>Date of birth</td><td><span>15 June 1956</span></td></tr></tbody></table></div>"
      },
      "extension": [ {
        "url": "http://hl7.org/fhir/us/core/StructureDefinition/us-core-race",
        "extension": [ {
          "url": "ombCategory",
          "valueCoding": {
            "system": "urn:oid:2.16.840.1.113883.6.238",
            "code": "2106-3",
            "display": "White",
            "userSelected": true
          }
        }, {
          "url": "text",
          "valueString": "White"
        } ]
      }, {
        "url": "http://hl7.org/fhir/us/core/StructureDefinition/us-core-ethnicity",
        "extension": [ {
          "url": "ombCategory",
          "valueCoding": {
            "system": "urn:oid:2.16.840.1.113883.6.238",
            "code": "2186-5",
            "display": "Not Hispanic or Latino",
            "userSelected": true
          }
        }, {
          "url": "text",
          "valueString": "Not Hispanic or Latino"
        } ]
      }, {
        "url": "http://hl7.org/fhir/us/core/StructureDefinition/us-core-sex",
        "valueCode": "248153007"
      } ],
      "identifier": [ {
        "type": {
          "coding": [ {
            "system": "http://terminology.hl7.org/CodeSystem/v2-0203",
            "code": "MR"
          } ]
        },
        "system": "https://bonnie-fhir.healthit.gov/",
        "value": "63ec0968ccb3770120fe9d74"
      } ],
      "active": true,
      "name": [ {
        "use": "usual",
        "family": "HematocritFail",
        "given": [ "1MinBeforeObservationAdmit" ]
      } ],
      "gender": "male",
      "birthDate": "1961-07-01"
    },
    "request": {
      "method": "PUT",
      "url": "Patient/bd0c87d4-b1d8-470b-beba-df7f7b9af87e"
    }
  }, {
    "fullUrl": "https://madie.cms.gov/Encounter/114d0a27-c83b-4ece-aaa2-e618ab9d8fd8",
    "resource": {
      "resourceType": "Encounter",
      "id": "114d0a27-c83b-4ece-aaa2-e618ab9d8fd8",
      "meta": {
        "profile": [ "http://hl7.org/fhir/us/qicore/StructureDefinition/qicore-encounter" ]
      },
      "status": "finished",
      "class": {
        "system": "http://terminology.hl7.org/CodeSystem/v3-ActCode",
        "code": "OBSENC",
        "display": "observation encounter",
        "userSelected": true
      },
      "type": [ {
        "coding": [ {
          "system": "http://snomed.info/sct",
          "code": "448951000124107",
          "display": "Admission to observation unit (procedure)"
        } ]
      } ],
      "subject": {
        "reference": "Patient/bd0c87d4-b1d8-470b-beba-df7f7b9af87e"
      },
      "period": {
        "start": "2026-07-01T08:00:00.000+00:00",
        "end": "2026-07-02T07:15:00.000+00:00"
      },
      "length": {
        "value": 1,
        "unit": "days"
      }
    },
    "request": {
      "method": "PUT",
      "url": "Encounter/114d0a27-c83b-4ece-aaa2-e618ab9d8fd8"
    }
  }, {
    "fullUrl": "https://madie.cms.gov/Encounter/69683138-3a50-4828-adfd-52921a566fcc",
    "resource": {
      "resourceType": "Encounter",
      "id": "69683138-3a50-4828-adfd-52921a566fcc",
      "meta": {
        "profile": [ "http://hl7.org/fhir/us/qicore/StructureDefinition/qicore-encounter" ]
      },
      "status": "finished",
      "class": {
        "system": "http://terminology.hl7.org/CodeSystem/v3-ActCode",
        "code": "IMP",
        "display": "inpatient encounter",
        "userSelected": true
      },
      "type": [ {
        "coding": [ {
          "system": "http://snomed.info/sct",
          "code": "183452005"
        } ]
      } ],
      "subject": {
        "reference": "Patient/bd0c87d4-b1d8-470b-beba-df7f7b9af87e"
      },
      "period": {
        "start": "2026-07-02T07:15:00.000+00:00",
        "end": "2026-07-05T12:15:00.000+00:00"
      },
      "length": {
        "value": 3,
        "unit": "days"
      }
    },
    "request": {
      "method": "PUT",
      "url": "Encounter/69683138-3a50-4828-adfd-52921a566fcc"
    }
  }, {
    "fullUrl": "https://madie.cms.gov/Coverage/937995a3-bbab-437f-be50-f27ade6ef525",
    "resource": {
      "resourceType": "Coverage",
      "id": "937995a3-bbab-437f-be50-f27ade6ef525",
      "meta": {
        "profile": [ "http://hl7.org/fhir/us/qicore/StructureDefinition/qicore-coverage" ]
      },
      "status": "active",
      "type": {
        "coding": [ {
          "system": "https://nahdo.org/sopt",
          "version": "1.0.1",
          "code": "1",
          "display": "MEDICARE",
          "userSelected": true
        } ]
      },
      "subscriberId": "AB9876",
      "beneficiary": {
        "reference": "Patient/bd0c87d4-b1d8-470b-beba-df7f7b9af87e"
      },
      "relationship": {
        "coding": [ {
          "system": "http://terminology.hl7.org/CodeSystem/subscriber-relationship",
          "code": "self"
        } ]
      },
      "payor": [ {
        "reference": "Organization/5ffcfffc-7964-4e7d-a764-30df37bac0d6"
      } ]
    },
    "request": {
      "method": "PUT",
      "url": "Coverage/937995a3-bbab-437f-be50-f27ade6ef525"
    }
  }, {
    "fullUrl": "https://madie.cms.gov/Observation/db4fc2a0-1384-4297-b477-fe48f7f7fe5f",
    "resource": {
      "resourceType": "Observation",
      "id": "db4fc2a0-1384-4297-b477-fe48f7f7fe5f",
      "meta": {
        "profile": [ "http://hl7.org/fhir/us/qicore/StructureDefinition/qicore-observation-lab" ]
      },
      "status": "final",
      "category": [ {
        "coding": [ {
          "system": "http://terminology.hl7.org/CodeSystem/observation-category",
          "code": "laboratory",
          "display": "Laboratory",
          "userSelected": true
        } ]
      } ],
      "code": {
        "coding": [ {
          "system": "http://loinc.org",
          "version": "2.72",
          "code": "20570-8",
          "display": "Hematocrit [Volume Fraction] of Blood by calculation"
        } ]
      },
      "subject": {
        "reference": "Patient/bd0c87d4-b1d8-470b-beba-df7f7b9af87e"
      },
      "effectiveDateTime": "2026-07-01T07:59:00.000+00:00",
      "issued": "2026-07-01T07:59:00.000+00:00",
      "performer": [ {
        "reference": "Organization/Organization-1"
      } ],
      "valueQuantity": {
        "value": 50,
        "unit": "%",
        "system": "http://unitsofmeasure.org",
        "code": "%"
      }
    },
    "request": {
      "method": "PUT",
      "url": "Observation/db4fc2a0-1384-4297-b477-fe48f7f7fe5f"
    }
  }, {
    "fullUrl": "https://madie.cms.gov/Organization/5ffcfffc-7964-4e7d-a764-30df37bac0d6",
    "resource": {
      "resourceType": "Organization",
      "id": "5ffcfffc-7964-4e7d-a764-30df37bac0d6",
      "meta": {
        "profile": [ "http://hl7.org/fhir/us/qicore/StructureDefinition/qicore-organization" ]
      },
      "identifier": [ {
        "use": "temp",
        "system": "urn:oid:2.16.840.1.113883.4.4",
        "value": "21-3259825"
      } ],
      "active": true,
      "type": [ {
        "coding": [ {
          "system": "http://terminology.hl7.org/CodeSystem/organization-type",
          "code": "pay",
          "display": "Payer"
        } ]
      } ],
      "name": "Blue Cross Blue Shield of Texas",
      "telecom": [ {
        "system": "phone",
        "value": "(+1) 972-766-6900"
      } ],
      "address": [ {
        "use": "billing",
        "type": "postal",
        "line": [ "P.O. Box 660044" ],
        "city": "Dallas",
        "state": "TX",
        "postalCode": "75266-0044",
        "country": "USA"
      } ]
    },
    "request": {
      "method": "PUT",
      "url": "Organization/5ffcfffc-7964-4e7d-a764-30df37bac0d6"
    }
  }, {
    "fullUrl": "https://madie.cms.gov/Practitioner/bf865af0-97ea-49ad-8345-f0e386e93458",
    "resource": {
      "resourceType": "Practitioner",
      "id": "bf865af0-97ea-49ad-8345-f0e386e93458",
      "meta": {
        "profile": [ "http://hl7.org/fhir/us/qicore/StructureDefinition/qicore-practitioner" ]
      },
      "identifier": [ {
        "system": "http://hl7.org/fhir/sid/us-npi",
        "value": "0723660813"
      } ],
      "name": [ {
        "family": "Evil",
        "prefix": [ "Dr" ]
      } ]
    },
    "request": {
      "method": "PUT",
      "url": "Practitioner/bf865af0-97ea-49ad-8345-f0e386e93458"
    }
  }, {
    "fullUrl": "https://madie.cms.gov/MeasureReport/dc60ec49-1245-4ac2-aa6c-d44da1a72e28",
    "resource": {
      "resourceType": "MeasureReport",
      "id": "dc60ec49-1245-4ac2-aa6c-d44da1a72e28",
      "meta": {
        "profile": [ "http://hl7.org/fhir/us/cqfmeasures/StructureDefinition/test-case-cqfm" ]
      },
      "contained": [ {
        "resourceType": "Parameters",
        "id": "359f5b0e-49f8-40c5-8e5b-810de1a522e8-parameters",
        "parameter": [ {
          "name": "subject",
          "valueString": "bd0c87d4-b1d8-470b-beba-df7f7b9af87e"
        } ]
      } ],
      "extension": [ {
        "url": "http://hl7.org/fhir/StructureDefinition/cqf-inputParameters",
        "valueReference": {
          "reference": "#359f5b0e-49f8-40c5-8e5b-810de1a522e8-parameters"
        }
      }, {
        "url": "http://hl7.org/fhir/us/cqfmeasures/StructureDefinition/cqfm-testCaseDescription",
        "valueMarkdown": "Observation enc first day of MP (7/1),  inpatient admit 7/2 and hematocrit test performed 1 min prior to Observation admission"
      } ],
      "modifierExtension": [ {
        "url": "http://hl7.org/fhir/us/cqfmeasures/StructureDefinition/cqfm-isTestCase",
        "valueBoolean": true
      } ],
      "status": "complete",
      "type": "individual",
      "measure": "https://madie.cms.gov/Measure/CMSFHIR844HybridHospitalWideMortality",
      "period": {
        "start": "2026-07-01",
        "end": "2027-06-30"
      },
      "group": [ {
        "id": "Group_1",
        "population": [ {
          "id": "InitialPopulation_1",
          "code": {
            "coding": [ {
              "system": "http://terminology.hl7.org/CodeSystem/measure-population",
              "code": "initial-population",
              "display": "Initial Population"
            } ]
          },
          "count": 1
        } ],
        "measureScore": {
          "value": 0.0
        }
      } ],
      "evaluatedResource": [ {
        "reference": "Patient/bd0c87d4-b1d8-470b-beba-df7f7b9af87e"
      }, {
        "reference": "Encounter/114d0a27-c83b-4ece-aaa2-e618ab9d8fd8"
      }, {
        "reference": "Encounter/69683138-3a50-4828-adfd-52921a566fcc"
      }, {
        "reference": "Coverage/937995a3-bbab-437f-be50-f27ade6ef525"
      }, {
        "reference": "Observation/db4fc2a0-1384-4297-b477-fe48f7f7fe5f"
      }, {
        "reference": "Organization/5ffcfffc-7964-4e7d-a764-30df37bac0d6"
      }, {
        "reference": "Practitioner/bf865af0-97ea-49ad-8345-f0e386e93458"
      } ]
    },
    "request": {
      "method": "PUT",
      "url": "MeasureReport/dc60ec49-1245-4ac2-aa6c-d44da1a72e28"
    }
  } ]
}