{
  "resourceType": "Bundle",
  "id": "60f82c2f98086b570510e2a8",
  "type": "transaction",
  "entry": [ {
    "fullUrl": "https://madie.cms.gov/Patient/c787d9c8-9645-4da6-a607-85dbefdf129e",
    "resource": {
      "resourceType": "Patient",
      "id": "c787d9c8-9645-4da6-a607-85dbefdf129e",
      "meta": {
        "profile": [ "http://hl7.org/fhir/us/qicore/StructureDefinition/qicore-patient" ]
      },
      "text": {
        "status": "generated",
        "div": "<div xmlns=\"http://www.w3.org/1999/xhtml\"><div class=\"hapiHeaderText\">INRDayAftEnc_ED&lt;1hrObs&lt;1hrBFEncDayOf <b>DENEXCEPASS </b></div><table class=\"hapiPropertyTable\"><tbody><tr><td>Identifier</td><td>eb0390ddf5cccfdde210d05452662b986f9c97b164102446c8fbef7016593c62</td></tr><tr><td>Date of birth</td><td><span>26 September 1975</span></td></tr></tbody></table></div>"
      },
      "extension": [ {
        "url": "http://hl7.org/fhir/us/core/StructureDefinition/us-core-race",
        "extension": [ {
          "url": "ombCategory",
          "valueCoding": {
            "system": "urn:oid:2.16.840.1.113883.6.238",
            "code": "2054-5",
            "display": "Black or African American",
            "userSelected": true
          }
        }, {
          "url": "text",
          "valueString": "Black or African American"
        } ]
      }, {
        "url": "http://hl7.org/fhir/us/core/StructureDefinition/us-core-ethnicity",
        "extension": [ {
          "url": "ombCategory",
          "valueCoding": {
            "system": "urn:oid:2.16.840.1.113883.6.238",
            "code": "2186-5",
            "display": "Not Hispanic or Latino",
            "userSelected": true
          }
        }, {
          "url": "text",
          "valueString": "Not Hispanic or Latino"
        } ]
      } ],
      "identifier": [ {
        "type": {
          "coding": [ {
            "system": "http://terminology.hl7.org/CodeSystem/v2-0203",
            "code": "MR"
          } ]
        },
        "system": "https://bonnie-fhir.healthit.gov/",
        "value": "60f82c2f98086b570510e2a8"
      } ],
      "active": true,
      "name": [ {
        "use": "usual",
        "family": "DENEXCEPass",
        "given": [ "INRDayAftEncEDlt1hrObslt1hrBFEncDayOf" ]
      } ],
      "gender": "female",
      "birthDate": "1976-09-26"
    },
    "request": {
      "method": "PUT",
      "url": "Patient/c787d9c8-9645-4da6-a607-85dbefdf129e"
    }
  }, {
    "fullUrl": "https://madie.cms.gov/Encounter/5b8dbf84-90ee-45e7-b3a6-65603cf647ad",
    "resource": {
      "resourceType": "Encounter",
      "id": "5b8dbf84-90ee-45e7-b3a6-65603cf647ad",
      "meta": {
        "profile": [ "http://hl7.org/fhir/us/qicore/StructureDefinition/qicore-encounter" ]
      },
      "status": "finished",
      "class": {
        "system": "http://terminology.hl7.org/CodeSystem/v3-ActCode",
        "code": "EMER",
        "display": "emergency",
        "userSelected": true
      },
      "type": [ {
        "coding": [ {
          "system": "http://snomed.info/sct",
          "code": "4525004"
        } ]
      } ],
      "subject": {
        "reference": "Patient/c787d9c8-9645-4da6-a607-85dbefdf129e"
      },
      "period": {
        "start": "2026-10-11T06:15:00.000+00:00",
        "end": "2026-10-11T06:30:00.000+00:00"
      },
      "length": {
        "value": 0,
        "unit": "days"
      }
    },
    "request": {
      "method": "PUT",
      "url": "Encounter/5b8dbf84-90ee-45e7-b3a6-65603cf647ad"
    }
  }, {
    "fullUrl": "https://madie.cms.gov/Encounter/84c28025-4478-4ebb-b31b-c40f9048709f",
    "resource": {
      "resourceType": "Encounter",
      "id": "84c28025-4478-4ebb-b31b-c40f9048709f",
      "meta": {
        "profile": [ "http://hl7.org/fhir/us/qicore/StructureDefinition/qicore-encounter" ]
      },
      "status": "finished",
      "class": {
        "system": "http://terminology.hl7.org/CodeSystem/v3-ActCode",
        "code": "OBSENC",
        "display": "observation encounter",
        "userSelected": true
      },
      "type": [ {
        "coding": [ {
          "system": "http://snomed.info/sct",
          "code": "448851000124103"
        } ]
      } ],
      "subject": {
        "reference": "Patient/c787d9c8-9645-4da6-a607-85dbefdf129e"
      },
      "period": {
        "start": "2026-10-11T06:31:00.000+00:00",
        "end": "2026-10-11T07:30:00.000+00:00"
      },
      "length": {
        "value": 0,
        "unit": "days"
      }
    },
    "request": {
      "method": "PUT",
      "url": "Encounter/84c28025-4478-4ebb-b31b-c40f9048709f"
    }
  }, {
    "fullUrl": "https://madie.cms.gov/Encounter/a20bfa3b-3475-4aa4-9fc4-2d92f2a32df6",
    "resource": {
      "resourceType": "Encounter",
      "id": "a20bfa3b-3475-4aa4-9fc4-2d92f2a32df6",
      "meta": {
        "profile": [ "http://hl7.org/fhir/us/qicore/StructureDefinition/qicore-encounter" ]
      },
      "status": "finished",
      "class": {
        "system": "http://terminology.hl7.org/CodeSystem/v3-ActCode",
        "code": "IMP",
        "display": "inpatient encounter",
        "userSelected": true
      },
      "type": [ {
        "coding": [ {
          "system": "http://snomed.info/sct",
          "code": "32485007"
        } ]
      } ],
      "subject": {
        "reference": "Patient/c787d9c8-9645-4da6-a607-85dbefdf129e"
      },
      "period": {
        "start": "2026-10-11T07:31:00.000+00:00",
        "end": "2026-10-15T11:30:00.000+00:00"
      },
      "length": {
        "value": 4,
        "unit": "days"
      },
      "reasonReference": [ {
        "reference": "Condition/90f58c64-2dfa-41ae-9f1e-3b93adfb6704"
      } ]
    },
    "request": {
      "method": "PUT",
      "url": "Encounter/a20bfa3b-3475-4aa4-9fc4-2d92f2a32df6"
    }
  }, {
    "fullUrl": "https://madie.cms.gov/Observation/b8b85205-e6a6-43a4-839e-ad70cf2fdbeb",
    "resource": {
      "resourceType": "Observation",
      "id": "b8b85205-e6a6-43a4-839e-ad70cf2fdbeb",
      "meta": {
        "profile": [ "http://hl7.org/fhir/us/qicore/StructureDefinition/qicore-observation-lab" ]
      },
      "status": "final",
      "category": [ {
        "coding": [ {
          "system": "http://terminology.hl7.org/CodeSystem/observation-category",
          "code": "laboratory",
          "display": "Laboratory"
        } ]
      } ],
      "code": {
        "coding": [ {
          "system": "http://loinc.org",
          "code": "34714-6"
        } ]
      },
      "subject": {
        "reference": "Patient/c787d9c8-9645-4da6-a607-85dbefdf129e"
      },
      "effectivePeriod": {
        "start": "2026-10-10T06:14:00.000+00:00"
      },
      "issued": "2026-10-12T00:00:00.000+00:00",
      "valueQuantity": {
        "value": 3.6
      }
    },
    "request": {
      "method": "PUT",
      "url": "Observation/b8b85205-e6a6-43a4-839e-ad70cf2fdbeb"
    }
  }, {
    "fullUrl": "https://madie.cms.gov/Coverage/eba68d3a-592e-41cb-8366-62b8c4f1b8fb",
    "resource": {
      "resourceType": "Coverage",
      "id": "eba68d3a-592e-41cb-8366-62b8c4f1b8fb",
      "status": "active",
      "beneficiary": {
        "reference": "Patient/c787d9c8-9645-4da6-a607-85dbefdf129e"
      },
      "period": {
        "start": "1976-09-26T08:00:00.000+00:00"
      },
      "payor": [ {
        "reference": "Organization/822cc51e-41b0-404d-be89-f6867b14e7e7"
      } ]
    },
    "request": {
      "method": "PUT",
      "url": "Coverage/eba68d3a-592e-41cb-8366-62b8c4f1b8fb"
    }
  }, {
    "fullUrl": "https://madie.cms.gov/Condition/90f58c64-2dfa-41ae-9f1e-3b93adfb6704",
    "resource": {
      "resourceType": "Condition",
      "id": "90f58c64-2dfa-41ae-9f1e-3b93adfb6704",
      "meta": {
        "profile": [ "http://hl7.org/fhir/us/qicore/StructureDefinition/qicore-condition-encounter-diagnosis" ]
      },
      "clinicalStatus": {
        "coding": [ {
          "system": "http://terminology.hl7.org/CodeSystem/condition-clinical",
          "code": "active"
        } ]
      },
      "verificationStatus": {
        "coding": [ {
          "system": "http://terminology.hl7.org/CodeSystem/condition-ver-status",
          "code": "confirmed"
        } ]
      },
      "category": [ {
        "coding": [ {
          "system": "http://terminology.hl7.org/CodeSystem/condition-category",
          "code": "encounter-diagnosis",
          "display": "Encounter Diagnosis"
        } ]
      } ],
      "code": {
        "coding": [ {
          "system": "http://snomed.info/sct",
          "version": "2020-09",
          "code": "111297002",
          "display": "Nonparalytic stroke (disorder)",
          "userSelected": true
        } ]
      },
      "subject": {
        "reference": "Patient/c787d9c8-9645-4da6-a607-85dbefdf129e"
      },
      "encounter": {
        "reference": "Encounter/a20bfa3b-3475-4aa4-9fc4-2d92f2a32df6"
      },
      "recordedDate": "2026-08-06T08:00:00.000+00:00"
    },
    "request": {
      "method": "PUT",
      "url": "Condition/90f58c64-2dfa-41ae-9f1e-3b93adfb6704"
    }
  }, {
    "fullUrl": "https://madie.cms.gov/claim/5ca62962b8484628b8de1ec5",
    "resource": {
      "resourceType": "Claim",
      "id": "5ca62962b8484628b8de1ec5",
      "meta": {
        "profile": [ "http://hl7.org/fhir/us/qicore/StructureDefinition/qicore-claim" ]
      },
      "status": "active",
      "type": {
        "coding": [ {
          "system": "http://terminology.hl7.org/CodeSystem/claim-type",
          "code": "institutional"
        } ]
      },
      "use": "claim",
      "patient": {
        "reference": "Patient/5450abfd-a667-4eb9-9b59-e85feed4865c"
      },
      "created": "2026-12-01",
      "provider": {
        "reference": "Practitioner/2d3a81dc-743c-40af-86e3-2764760b2488"
      },
      "priority": {
        "coding": [ {
          "system": "http://terminology.hl7.org/CodeSystem/processpriority",
          "code": "normal"
        } ]
      },
      "diagnosis": [ {
        "sequence": 1,
        "diagnosisCodeableConcept": {
          "coding": [ {
            "system": "http://hl7.org/fhir/sid/icd-10-cm",
            "code": "I63.00"
          } ]
        },
        "type": [ {
          "coding": [ {
            "system": "http://terminology.hl7.org/CodeSystem/ex-diagnosistype",
            "code": "principal"
          } ]
        } ]
      } ],
      "insurance": [ {
        "sequence": 1,
        "focal": true,
        "coverage": {
          "reference": "Coverage/5fa041661c76ba66d9959367"
        }
      } ],
      "item": [ {
        "sequence": 1,
        "diagnosisSequence": [ 1 ],
        "productOrService": {
          "coding": [ {
            "system": "http://terminology.hl7.org/CodeSystem/ex-USCLS",
            "code": "99555"
          } ]
        },
        "encounter": [ {
          "reference": "Encounter/a20bfa3b-3475-4aa4-9fc4-2d92f2a32df6"
        } ]
      } ]
    },
    "request": {
      "method": "PUT",
      "url": "Claim/5ca62962b8484628b8de1ec5"
    }
  }, {
    "fullUrl": "https://madie.cms.gov/Organization/822cc51e-41b0-404d-be89-f6867b14e7e7",
    "resource": {
      "resourceType": "Organization",
      "id": "822cc51e-41b0-404d-be89-f6867b14e7e7",
      "meta": {
        "profile": [ "http://hl7.org/fhir/us/qicore/StructureDefinition/qicore-organization" ]
      },
      "identifier": [ {
        "use": "temp",
        "system": "urn:oid:2.16.840.1.113883.4.4",
        "value": "21-3259825"
      } ],
      "active": true,
      "type": [ {
        "coding": [ {
          "system": "http://terminology.hl7.org/CodeSystem/organization-type",
          "code": "pay",
          "display": "Payer"
        } ]
      } ],
      "name": "Blue Cross Blue Shield of Texas",
      "telecom": [ {
        "system": "phone",
        "value": "(+1) 972-766-6900"
      } ],
      "address": [ {
        "use": "billing",
        "type": "postal",
        "line": [ "P.O. Box 660044" ],
        "city": "Dallas",
        "state": "TX",
        "postalCode": "75266-0044",
        "country": "USA"
      } ]
    },
    "request": {
      "method": "PUT",
      "url": "Organization/822cc51e-41b0-404d-be89-f6867b14e7e7"
    }
  }, {
    "fullUrl": "https://madie.cms.gov/Practitioner/2d3a81dc-743c-40af-86e3-2764760b2488",
    "resource": {
      "resourceType": "Practitioner",
      "id": "2d3a81dc-743c-40af-86e3-2764760b2488",
      "identifier": [ {
        "system": "http://hl7.org/fhir/sid/us-npi",
        "value": "123456"
      } ],
      "name": [ {
        "family": "Evil",
        "prefix": [ "Dr" ]
      } ]
    },
    "request": {
      "method": "PUT",
      "url": "Practitioner/2d3a81dc-743c-40af-86e3-2764760b2488"
    }
  }, {
    "fullUrl": "https://madie.cms.gov/MeasureReport/c693a5e6-d456-47f9-8f3d-b8c9a0b75e8e",
    "resource": {
      "resourceType": "MeasureReport",
      "id": "c693a5e6-d456-47f9-8f3d-b8c9a0b75e8e",
      "meta": {
        "profile": [ "http://hl7.org/fhir/us/cqfmeasures/StructureDefinition/test-case-cqfm" ]
      },
      "contained": [ {
        "resourceType": "Parameters",
        "id": "c5f359aa-558a-4c12-9dc1-6d338c953eac-parameters",
        "parameter": [ {
          "name": "subject",
          "valueString": "c787d9c8-9645-4da6-a607-85dbefdf129e"
        } ]
      } ],
      "extension": [ {
        "url": "http://hl7.org/fhir/StructureDefinition/cqf-inputParameters",
        "valueReference": {
          "reference": "#c5f359aa-558a-4c12-9dc1-6d338c953eac-parameters"
        }
      } ],
      "modifierExtension": [ {
        "url": "http://hl7.org/fhir/us/cqfmeasures/StructureDefinition/cqfm-isTestCase",
        "valueBoolean": true
      } ],
      "status": "complete",
      "type": "individual",
      "measure": "https://madie.cms.gov/Measure/CMS72FHIRSTKAntithromboticDay2",
      "period": {
        "start": "2026-01-01",
        "end": "2026-12-31"
      },
      "group": [ {
        "id": "Group_1",
        "population": [ {
          "id": "InitialPopulation_1",
          "code": {
            "coding": [ {
              "system": "http://terminology.hl7.org/CodeSystem/measure-population",
              "code": "initial-population",
              "display": "Initial Population"
            } ]
          },
          "count": 1
        }, {
          "id": "Denominator_1",
          "code": {
            "coding": [ {
              "system": "http://terminology.hl7.org/CodeSystem/measure-population",
              "code": "denominator",
              "display": "Denominator"
            } ]
          },
          "count": 1
        }, {
          "id": "DenominatorExclusion_1",
          "code": {
            "coding": [ {
              "system": "http://terminology.hl7.org/CodeSystem/measure-population",
              "code": "denominator-exclusion",
              "display": "Denominator Exclusion"
            } ]
          },
          "count": 0
        }, {
          "id": "Numerator_1",
          "code": {
            "coding": [ {
              "system": "http://terminology.hl7.org/CodeSystem/measure-population",
              "code": "numerator",
              "display": "Numerator"
            } ]
          },
          "count": 0
        }, {
          "id": "DenominatorException_1",
          "code": {
            "coding": [ {
              "system": "http://terminology.hl7.org/CodeSystem/measure-population",
              "code": "denominator-exception",
              "display": "Denominator Exception"
            } ]
          },
          "count": 1
        } ],
        "measureScore": {
          "value": 0.0
        }
      } ],
      "evaluatedResource": [ {
        "reference": "Patient/c787d9c8-9645-4da6-a607-85dbefdf129e"
      }, {
        "reference": "Encounter/5b8dbf84-90ee-45e7-b3a6-65603cf647ad"
      }, {
        "reference": "Encounter/84c28025-4478-4ebb-b31b-c40f9048709f"
      }, {
        "reference": "Encounter/a20bfa3b-3475-4aa4-9fc4-2d92f2a32df6"
      }, {
        "reference": "Observation/b8b85205-e6a6-43a4-839e-ad70cf2fdbeb"
      }, {
        "reference": "Coverage/eba68d3a-592e-41cb-8366-62b8c4f1b8fb"
      }, {
        "reference": "Condition/90f58c64-2dfa-41ae-9f1e-3b93adfb6704"
      }, {
        "reference": "Claim/5ca62962b8484628b8de1ec5"
      }, {
        "reference": "Organization/822cc51e-41b0-404d-be89-f6867b14e7e7"
      }, {
        "reference": "Practitioner/2d3a81dc-743c-40af-86e3-2764760b2488"
      } ]
    },
    "request": {
      "method": "PUT",
      "url": "MeasureReport/c693a5e6-d456-47f9-8f3d-b8c9a0b75e8e"
    }
  } ]
}