{
  "resourceType": "Bundle",
  "id": "tests-NUMERFail-LabTest2Equals81At5Min-bundle",
  "type": "transaction",
  "entry": [ {
    "fullUrl": "https://madie.cms.gov/Encounter/44327560-9df6-4f7f-bda6-c9813bb38fb3",
    "resource": {
      "resourceType": "Encounter",
      "id": "44327560-9df6-4f7f-bda6-c9813bb38fb3",
      "meta": {
        "profile": [ "http://hl7.org/fhir/us/qicore/StructureDefinition/qicore-encounter" ]
      },
      "status": "finished",
      "class": {
        "system": "http://terminology.hl7.org/CodeSystem/v3-ActCode",
        "code": "IMP",
        "display": "Inpatient encounter"
      },
      "type": [ {
        "coding": [ {
          "system": "http://snomed.info/sct",
          "code": "183452005",
          "display": "Emergency hospital admission"
        } ]
      } ],
      "subject": {
        "reference": "Patient/3fdb535d-0a7f-4ec9-80a6-845e002a76cb"
      },
      "period": {
        "start": "2026-01-11T08:00:00.000Z",
        "end": "2026-01-16T21:00:00.000Z"
      }
    },
    "request": {
      "method": "PUT",
      "url": "Encounter/44327560-9df6-4f7f-bda6-c9813bb38fb3"
    }
  }, {
    "fullUrl": "https://madie.cms.gov/MedicationAdministration/10633f0e-6999-4e08-b3ff-1cf8800a04ae",
    "resource": {
      "resourceType": "MedicationAdministration",
      "id": "10633f0e-6999-4e08-b3ff-1cf8800a04ae",
      "meta": {
        "profile": [ "http://hl7.org/fhir/us/qicore/StructureDefinition/qicore-medicationadministration" ]
      },
      "status": "completed",
      "medicationCodeableConcept": {
        "coding": [ {
          "system": "http://www.nlm.nih.gov/research/umls/rxnorm",
          "code": "1653202",
          "display": "3 ML insulin aspart, human 100 UNT/ML Pen Injector"
        } ]
      },
      "subject": {
        "reference": "Patient/3fdb535d-0a7f-4ec9-80a6-845e002a76cb"
      },
      "effectivePeriod": {
        "start": "2026-01-11T08:00:00.000Z",
        "end": "2026-01-11T09:00:00.000Z"
      }
    },
    "request": {
      "method": "PUT",
      "url": "MedicationAdministration/10633f0e-6999-4e08-b3ff-1cf8800a04ae"
    }
  }, {
    "fullUrl": "https://madie.cms.gov/Observation/26427615-57db-4e3e-8773-e51c22f4ad0c",
    "resource": {
      "resourceType": "Observation",
      "id": "26427615-57db-4e3e-8773-e51c22f4ad0c",
      "meta": {
        "profile": [ "http://hl7.org/fhir/us/qicore/StructureDefinition/qicore-observation-lab" ]
      },
      "status": "final",
      "category": [ {
        "coding": [ {
          "system": "http://terminology.hl7.org/CodeSystem/observation-category",
          "code": "laboratory",
          "display": "Laboratory"
        } ],
        "text": "Laboratory"
      } ],
      "code": {
        "coding": [ {
          "system": "http://loinc.org",
          "code": "1556-0",
          "display": "Fasting glucose [Mass/volume] in Capillary blood"
        } ]
      },
      "subject": {
        "reference": "Patient/3fdb535d-0a7f-4ec9-80a6-845e002a76cb"
      },
      "effectivePeriod": {
        "start": "2026-01-11T08:00:00.000Z",
        "end": "2026-01-11T08:00:00.000Z"
      },
      "issued": "2026-07-11T08:00:00.000Z",
      "valueQuantity": {
        "value": 35,
        "unit": "mg/dL"
      }
    },
    "request": {
      "method": "PUT",
      "url": "Observation/26427615-57db-4e3e-8773-e51c22f4ad0c"
    }
  }, {
    "fullUrl": "https://madie.cms.gov/Observation/5cb5bdd1-cc20-4aa2-b70b-4343e8609e0c",
    "resource": {
      "resourceType": "Observation",
      "id": "5cb5bdd1-cc20-4aa2-b70b-4343e8609e0c",
      "meta": {
        "profile": [ "http://hl7.org/fhir/us/qicore/StructureDefinition/qicore-observation-lab" ]
      },
      "status": "final",
      "category": [ {
        "coding": [ {
          "system": "http://terminology.hl7.org/CodeSystem/observation-category",
          "code": "laboratory",
          "display": "Laboratory"
        } ],
        "text": "Laboratory"
      } ],
      "code": {
        "coding": [ {
          "system": "http://loinc.org",
          "code": "1556-0",
          "display": "Fasting glucose [Mass/volume] in Capillary blood"
        } ]
      },
      "subject": {
        "reference": "Patient/3fdb535d-0a7f-4ec9-80a6-845e002a76cb"
      },
      "effectivePeriod": {
        "start": "2026-01-11T08:05:00.000Z",
        "end": "2026-01-11T08:05:00.000Z"
      },
      "issued": "2026-01-11T08:05:00.000Z",
      "valueQuantity": {
        "value": 81,
        "unit": "mg/dL"
      }
    },
    "request": {
      "method": "PUT",
      "url": "Observation/5cb5bdd1-cc20-4aa2-b70b-4343e8609e0c"
    }
  }, {
    "fullUrl": "https://madie.cms.gov/Patient/3fdb535d-0a7f-4ec9-80a6-845e002a76cb",
    "resource": {
      "resourceType": "Patient",
      "id": "3fdb535d-0a7f-4ec9-80a6-845e002a76cb",
      "meta": {
        "profile": [ "http://hl7.org/fhir/us/qicore/StructureDefinition/qicore-patient" ]
      },
      "extension": [ {
        "url": "http://hl7.org/fhir/us/core/StructureDefinition/us-core-race",
        "extension": [ {
          "url": "ombCategory",
          "valueCoding": {
            "system": "urn:oid:2.16.840.1.113883.6.238",
            "code": "2106-3",
            "display": "White"
          }
        }, {
          "url": "text",
          "valueString": "White"
        } ]
      }, {
        "url": "http://hl7.org/fhir/us/core/StructureDefinition/us-core-ethnicity",
        "extension": [ {
          "url": "ombCategory",
          "valueCoding": {
            "system": "urn:oid:2.16.840.1.113883.6.238",
            "code": "2135-2",
            "display": "Hispanic or Latino"
          }
        }, {
          "url": "text",
          "valueString": "Hispanic or Latino"
        } ]
      }, {
        "url": "http://hl7.org/fhir/us/core/StructureDefinition/us-core-sex",
        "valueCode": "248153007"
      } ],
      "identifier": [ {
        "system": "http://hospital.smarthealthit.org",
        "value": "999999999"
      } ],
      "name": [ {
        "family": "CMSNUMERFail",
        "given": [ "LabTest2Equals81At5Min" ]
      } ],
      "gender": "female",
      "birthDate": "2000-07-11"
    },
    "request": {
      "method": "PUT",
      "url": "Patient/3fdb535d-0a7f-4ec9-80a6-845e002a76cb"
    }
  }, {
    "fullUrl": "https://madie.cms.gov/MeasureReport/30870773-58d4-4b0d-9199-1f6a0b01e4e2",
    "resource": {
      "resourceType": "MeasureReport",
      "id": "30870773-58d4-4b0d-9199-1f6a0b01e4e2",
      "meta": {
        "profile": [ "http://hl7.org/fhir/us/cqfmeasures/StructureDefinition/test-case-cqfm" ]
      },
      "contained": [ {
        "resourceType": "Parameters",
        "id": "86ad720c-d0c5-48e7-9a05-38d4d2a9603f-parameters",
        "parameter": [ {
          "name": "subject",
          "valueString": "3fdb535d-0a7f-4ec9-80a6-845e002a76cb"
        } ]
      } ],
      "extension": [ {
        "url": "http://hl7.org/fhir/StructureDefinition/cqf-inputParameters",
        "valueReference": {
          "reference": "#86ad720c-d0c5-48e7-9a05-38d4d2a9603f-parameters"
        }
      }, {
        "url": "http://hl7.org/fhir/us/cqfmeasures/StructureDefinition/cqfm-testCaseDescription",
        "valueMarkdown": "Encounter, meds administered, lab test 1 = 35, lab 2  exactly 5 minutes after with result = 81 so does not meet Numerator. Timing is based on rel datetime of first test to second test.\n\n(CMS #17)"
      } ],
      "modifierExtension": [ {
        "url": "http://hl7.org/fhir/us/cqfmeasures/StructureDefinition/cqfm-isTestCase",
        "valueBoolean": true
      } ],
      "status": "complete",
      "type": "individual",
      "measure": "https://madie.cms.gov/Measure/NHSNGlycemicControlHypoglycemiaInitialPopulation",
      "period": {
        "start": "2026-01-01",
        "end": "2026-12-31"
      },
      "group": [ {
        "id": "Group_1",
        "population": [ {
          "id": "InitialPopulation_1",
          "code": {
            "coding": [ {
              "system": "http://terminology.hl7.org/CodeSystem/measure-population",
              "code": "initial-population",
              "display": "Initial Population"
            } ]
          },
          "count": 1
        } ],
        "measureScore": {
          "value": 0.0
        }
      } ],
      "evaluatedResource": [ {
        "reference": "Encounter/44327560-9df6-4f7f-bda6-c9813bb38fb3"
      }, {
        "reference": "MedicationAdministration/10633f0e-6999-4e08-b3ff-1cf8800a04ae"
      }, {
        "reference": "Observation/26427615-57db-4e3e-8773-e51c22f4ad0c"
      }, {
        "reference": "Observation/5cb5bdd1-cc20-4aa2-b70b-4343e8609e0c"
      }, {
        "reference": "Patient/3fdb535d-0a7f-4ec9-80a6-845e002a76cb"
      } ]
    },
    "request": {
      "method": "PUT",
      "url": "MeasureReport/30870773-58d4-4b0d-9199-1f6a0b01e4e2"
    }
  } ]
}