{
  "resourceType": "Bundle",
  "id": "DENEXFail-PalliativeCareDiagnosisStartsAfterMP",
  "type": "transaction",
  "entry": [ {
    "fullUrl": "https://madie.cms.gov/Patient/d513ed00-6ea1-4522-ae7c-c3bc29082e92",
    "resource": {
      "resourceType": "Patient",
      "id": "d513ed00-6ea1-4522-ae7c-c3bc29082e92",
      "meta": {
        "profile": [ "http://hl7.org/fhir/us/qicore/StructureDefinition/qicore-patient" ]
      },
      "extension": [ {
        "url": "http://hl7.org/fhir/us/core/StructureDefinition/us-core-race",
        "extension": [ {
          "url": "ombCategory",
          "valueCoding": {
            "system": "urn:oid:2.16.840.1.113883.6.238",
            "code": "2028-9",
            "display": "Asian"
          }
        }, {
          "url": "text",
          "valueString": "Asian"
        } ]
      }, {
        "url": "http://hl7.org/fhir/us/core/StructureDefinition/us-core-ethnicity",
        "extension": [ {
          "url": "ombCategory",
          "valueCoding": {
            "system": "urn:oid:2.16.840.1.113883.6.238",
            "code": "2135-2",
            "display": "Hispanic or Latino"
          }
        }, {
          "url": "text",
          "valueString": "Hispanic or Latino"
        } ]
      } ],
      "identifier": [ {
        "system": "http://hospital.smarthealthit.org",
        "value": "999999995"
      } ],
      "name": [ {
        "family": "DENEXFail",
        "given": [ "PalliativeCareDiagnosisStartsAfterMP" ]
      } ],
      "gender": "female",
      "birthDate": "2007-12-31"
    },
    "request": {
      "method": "PUT",
      "url": "Patient/d513ed00-6ea1-4522-ae7c-c3bc29082e92"
    }
  }, {
    "fullUrl": "https://madie.cms.gov/Encounter/880234ef-87cb-4e4a-b858-d009d30b8fe9",
    "resource": {
      "resourceType": "Encounter",
      "id": "880234ef-87cb-4e4a-b858-d009d30b8fe9",
      "meta": {
        "profile": [ "http://hl7.org/fhir/us/qicore/StructureDefinition/qicore-encounter" ]
      },
      "status": "finished",
      "class": {
        "system": "http://terminology.hl7.org/CodeSystem/v3-ActCode",
        "code": "AMB",
        "display": "ambulatory"
      },
      "type": [ {
        "coding": [ {
          "system": "http://snomed.info/sct",
          "code": "3391000175108",
          "display": "Office visit for pediatric care and assessment (procedure)"
        } ]
      } ],
      "subject": {
        "reference": "Patient/d513ed00-6ea1-4522-ae7c-c3bc29082e92"
      },
      "period": {
        "start": "2026-01-01T00:00:00.000+00:00",
        "end": "2026-01-01T01:00:00.000+00:00"
      }
    },
    "request": {
      "method": "PUT",
      "url": "Encounter/880234ef-87cb-4e4a-b858-d009d30b8fe9"
    }
  }, {
    "fullUrl": "https://madie.cms.gov/Condition/225e1179-6de5-404e-9ce3-326778ab167f",
    "resource": {
      "resourceType": "Condition",
      "id": "225e1179-6de5-404e-9ce3-326778ab167f",
      "meta": {
        "profile": [ "http://hl7.org/fhir/us/qicore/StructureDefinition/qicore-condition-problems-health-concerns" ]
      },
      "clinicalStatus": {
        "coding": [ {
          "system": "http://terminology.hl7.org/CodeSystem/condition-clinical",
          "code": "active"
        } ]
      },
      "category": [ {
        "coding": [ {
          "system": "http://terminology.hl7.org/CodeSystem/condition-category",
          "code": "problem-list-item",
          "display": "Problem List Item"
        } ]
      } ],
      "code": {
        "coding": [ {
          "system": "http://snomed.info/sct",
          "code": "371125006",
          "display": "Labile essential hypertension (disorder)"
        } ]
      },
      "subject": {
        "reference": "Patient/d513ed00-6ea1-4522-ae7c-c3bc29082e92"
      },
      "onsetDateTime": "2026-06-30T23:59:59.000+00:00"
    },
    "request": {
      "method": "PUT",
      "url": "Condition/225e1179-6de5-404e-9ce3-326778ab167f"
    }
  }, {
    "fullUrl": "https://madie.cms.gov/Condition/206bcbf7-bfbf-478f-a124-c8133f4e5c99",
    "resource": {
      "resourceType": "Condition",
      "id": "206bcbf7-bfbf-478f-a124-c8133f4e5c99",
      "meta": {
        "profile": [ "http://hl7.org/fhir/us/qicore/StructureDefinition/qicore-condition-problems-health-concerns" ]
      },
      "clinicalStatus": {
        "coding": [ {
          "system": "http://terminology.hl7.org/CodeSystem/condition-clinical",
          "code": "active"
        } ]
      },
      "category": [ {
        "coding": [ {
          "system": "http://terminology.hl7.org/CodeSystem/condition-category",
          "code": "problem-list-item",
          "display": "Problem List Item"
        } ]
      } ],
      "code": {
        "coding": [ {
          "system": "http://snomed.info/sct",
          "code": "441874000",
          "display": "Seen by palliative care service (finding)"
        } ]
      },
      "subject": {
        "reference": "Patient/d513ed00-6ea1-4522-ae7c-c3bc29082e92"
      },
      "onsetDateTime": "2027-01-01T00:00:00.000+00:00"
    },
    "request": {
      "method": "PUT",
      "url": "Condition/206bcbf7-bfbf-478f-a124-c8133f4e5c99"
    }
  }, {
    "fullUrl": "https://madie.cms.gov/MeasureReport/2685f647-34dd-40e1-ab8e-0dfa70d30388",
    "resource": {
      "resourceType": "MeasureReport",
      "id": "2685f647-34dd-40e1-ab8e-0dfa70d30388",
      "meta": {
        "profile": [ "http://hl7.org/fhir/us/cqfmeasures/StructureDefinition/test-case-cqfm" ]
      },
      "contained": [ {
        "resourceType": "Parameters",
        "id": "3047159a-dfa0-4e7f-a310-a16789a3c89c-parameters",
        "parameter": [ {
          "name": "subject",
          "valueString": "d513ed00-6ea1-4522-ae7c-c3bc29082e92"
        } ]
      } ],
      "extension": [ {
        "url": "http://hl7.org/fhir/StructureDefinition/cqf-inputParameters",
        "valueReference": {
          "reference": "#3047159a-dfa0-4e7f-a310-a16789a3c89c-parameters"
        }
      }, {
        "url": "http://hl7.org/fhir/us/cqfmeasures/StructureDefinition/cqfm-testCaseDescription",
        "valueMarkdown": "Palliative care diagnosis starts after MP"
      } ],
      "modifierExtension": [ {
        "url": "http://hl7.org/fhir/us/cqfmeasures/StructureDefinition/cqfm-isTestCase",
        "valueBoolean": true
      } ],
      "status": "complete",
      "type": "individual",
      "measure": "https://madie.cms.gov/Measure/CMS165FHIRControllingHighBP",
      "period": {
        "start": "2026-01-01",
        "end": "2026-12-31"
      },
      "group": [ {
        "id": "Group_1",
        "population": [ {
          "id": "InitialPopulation_1",
          "code": {
            "coding": [ {
              "system": "http://terminology.hl7.org/CodeSystem/measure-population",
              "code": "initial-population",
              "display": "Initial Population"
            } ]
          },
          "count": 1
        }, {
          "id": "Denominator_1",
          "code": {
            "coding": [ {
              "system": "http://terminology.hl7.org/CodeSystem/measure-population",
              "code": "denominator",
              "display": "Denominator"
            } ]
          },
          "count": 1
        }, {
          "id": "DenominatorExclusion_1",
          "code": {
            "coding": [ {
              "system": "http://terminology.hl7.org/CodeSystem/measure-population",
              "code": "denominator-exclusion",
              "display": "Denominator Exclusion"
            } ]
          },
          "count": 0
        }, {
          "id": "Numerator_1",
          "code": {
            "coding": [ {
              "system": "http://terminology.hl7.org/CodeSystem/measure-population",
              "code": "numerator",
              "display": "Numerator"
            } ]
          },
          "count": 0
        } ],
        "measureScore": {
          "value": 1.0
        }
      } ],
      "evaluatedResource": [ {
        "reference": "Patient/d513ed00-6ea1-4522-ae7c-c3bc29082e92"
      }, {
        "reference": "Encounter/880234ef-87cb-4e4a-b858-d009d30b8fe9"
      }, {
        "reference": "Condition/225e1179-6de5-404e-9ce3-326778ab167f"
      }, {
        "reference": "Condition/206bcbf7-bfbf-478f-a124-c8133f4e5c99"
      } ]
    },
    "request": {
      "method": "PUT",
      "url": "MeasureReport/2685f647-34dd-40e1-ab8e-0dfa70d30388"
    }
  } ]
}