{
  "resourceType": "Bundle",
  "id": "63487c2f0968f80122540190",
  "type": "transaction",
  "entry": [ {
    "fullUrl": "https://madie.cms.gov/Patient/a1e91653-1ffc-418b-b711-3d941af24c77",
    "resource": {
      "resourceType": "Patient",
      "id": "a1e91653-1ffc-418b-b711-3d941af24c77",
      "meta": {
        "profile": [ "http://hl7.org/fhir/us/qicore/StructureDefinition/qicore-patient" ]
      },
      "text": {
        "status": "generated",
        "div": "<div xmlns=\"http://www.w3.org/1999/xhtml\"><div class=\"hapiHeaderText\">AssessG1RelDateTime42wksB4TimeOfDelivRelTime<b>DENPASS</b></div><table class=\"hapiPropertyTable\"><tbody><tr><td>Identifier</td><td>c6b51506d3a7092894a3f06af44f7ab397fd257a35f97f16644057feff48ec70</td></tr><tr><td>Date of birth</td><td><span>14 February 1985</span></td></tr></tbody></table></div>"
      },
      "extension": [ {
        "url": "http://hl7.org/fhir/us/core/StructureDefinition/us-core-race",
        "extension": [ {
          "url": "ombCategory",
          "valueCoding": {
            "system": "urn:oid:2.16.840.1.113883.6.238",
            "code": "1002-5",
            "display": "American Indian or Alaska Native",
            "userSelected": true
          }
        }, {
          "url": "text",
          "valueString": "American Indian or Alaska Native"
        } ]
      }, {
        "url": "http://hl7.org/fhir/us/core/StructureDefinition/us-core-ethnicity",
        "extension": [ {
          "url": "ombCategory",
          "valueCoding": {
            "system": "urn:oid:2.16.840.1.113883.6.238",
            "code": "2135-2",
            "display": "Hispanic or Latino",
            "userSelected": true
          }
        }, {
          "url": "text",
          "valueString": "Hispanic or Latino"
        } ]
      } ],
      "identifier": [ {
        "type": {
          "coding": [ {
            "system": "http://terminology.hl7.org/CodeSystem/v2-0203",
            "code": "MR"
          } ]
        },
        "system": "https://bonnie-fhir.healthit.gov/",
        "value": "63487c2f0968f80122540190"
      } ],
      "active": true,
      "name": [ {
        "use": "usual",
        "family": "DENPass",
        "given": [ "AssessG1RelDateTime42wksB4TimeOfDelivRelTime" ]
      } ],
      "gender": "female",
      "birthDate": "1998-02-14"
    },
    "request": {
      "method": "PUT",
      "url": "Patient/a1e91653-1ffc-418b-b711-3d941af24c77"
    }
  }, {
    "fullUrl": "https://madie.cms.gov/Observation/90771c06-6a66-4be1-bc1d-e0b838198a39",
    "resource": {
      "resourceType": "Observation",
      "id": "90771c06-6a66-4be1-bc1d-e0b838198a39",
      "meta": {
        "profile": [ "http://hl7.org/fhir/us/qicore/StructureDefinition/qicore-simple-observation" ]
      },
      "status": "final",
      "category": [ {
        "coding": [ {
          "system": "http://terminology.hl7.org/CodeSystem/observation-category",
          "code": "exam",
          "display": "exam",
          "userSelected": true
        } ]
      } ],
      "code": {
        "coding": [ {
          "system": "http://loinc.org",
          "code": "11996-6"
        } ]
      },
      "subject": {
        "reference": "Patient/a1e91653-1ffc-418b-b711-3d941af24c77"
      },
      "effectiveDateTime": "2025-08-19T19:00:00.000+00:00",
      "performer": [ {
        "reference": "Organization/example1",
        "display": "Hendricks Country Hospital"
      } ],
      "valueInteger": 1
    },
    "request": {
      "method": "PUT",
      "url": "Observation/90771c06-6a66-4be1-bc1d-e0b838198a39"
    }
  }, {
    "fullUrl": "https://madie.cms.gov/Observation/cfa9111d-53c5-43b3-aa41-6993c4e02190",
    "resource": {
      "resourceType": "Observation",
      "id": "cfa9111d-53c5-43b3-aa41-6993c4e02190",
      "meta": {
        "profile": [ "http://hl7.org/fhir/us/qicore/StructureDefinition/qicore-simple-observation" ]
      },
      "status": "final",
      "category": [ {
        "coding": [ {
          "system": "http://terminology.hl7.org/CodeSystem/observation-category",
          "code": "exam",
          "display": "exam",
          "userSelected": true
        } ]
      } ],
      "code": {
        "coding": [ {
          "system": "http://loinc.org",
          "code": "11884-4"
        } ]
      },
      "subject": {
        "reference": "Patient/a1e91653-1ffc-418b-b711-3d941af24c77"
      },
      "effectiveDateTime": "2026-06-08T09:15:00.000+00:00",
      "performer": [ {
        "reference": "Organization/example1",
        "display": "Hendricks Country Hospital"
      } ],
      "valueQuantity": {
        "value": 37,
        "system": "http://unitsofmeasure.org",
        "code": "wk"
      }
    },
    "request": {
      "method": "PUT",
      "url": "Observation/cfa9111d-53c5-43b3-aa41-6993c4e02190"
    }
  }, {
    "fullUrl": "https://madie.cms.gov/Observation/11d0d381-41d3-40fe-824c-7a10e08a575b",
    "resource": {
      "resourceType": "Observation",
      "id": "11d0d381-41d3-40fe-824c-7a10e08a575b",
      "meta": {
        "profile": [ "http://hl7.org/fhir/us/qicore/StructureDefinition/qicore-simple-observation" ]
      },
      "status": "final",
      "category": [ {
        "coding": [ {
          "system": "http://terminology.hl7.org/CodeSystem/observation-category",
          "code": "exam",
          "display": "exam",
          "userSelected": true
        } ]
      } ],
      "code": {
        "coding": [ {
          "system": "http://loinc.org",
          "code": "93857-1"
        } ]
      },
      "subject": {
        "reference": "Patient/a1e91653-1ffc-418b-b711-3d941af24c77"
      },
      "effectiveDateTime": "2026-06-08T19:00:00.000+00:00",
      "performer": [ {
        "reference": "Organization/example1",
        "display": "Hendricks Country Hospital"
      } ],
      "valueDateTime": "2026-06-08T19:00:00.000+00:00"
    },
    "request": {
      "method": "PUT",
      "url": "Observation/11d0d381-41d3-40fe-824c-7a10e08a575b"
    }
  }, {
    "fullUrl": "https://madie.cms.gov/Encounter/a47d8c7e-7089-41e6-94f5-9716b95bb034",
    "resource": {
      "resourceType": "Encounter",
      "id": "a47d8c7e-7089-41e6-94f5-9716b95bb034",
      "meta": {
        "profile": [ "http://hl7.org/fhir/us/qicore/StructureDefinition/qicore-encounter" ]
      },
      "status": "finished",
      "class": {
        "system": "http://terminology.hl7.org/CodeSystem/v3-ActCode",
        "code": "IMP",
        "display": "inpatient encounter"
      },
      "type": [ {
        "coding": [ {
          "system": "http://snomed.info/sct",
          "code": "183452005"
        } ]
      } ],
      "subject": {
        "reference": "Patient/a1e91653-1ffc-418b-b711-3d941af24c77"
      },
      "period": {
        "start": "2026-06-08T08:00:00.000+00:00",
        "end": "2026-06-10T08:15:00.000+00:00"
      },
      "length": {
        "value": 2,
        "unit": "days"
      },
      "reasonCode": [ {
        "coding": [ {
          "system": "http://snomed.info/sct",
          "code": "169826009",
          "display": "Single live birth from singleton pregnancy (finding)"
        } ]
      } ]
    },
    "request": {
      "method": "PUT",
      "url": "Encounter/a47d8c7e-7089-41e6-94f5-9716b95bb034"
    }
  }, {
    "fullUrl": "https://madie.cms.gov/Procedure/9aabc97c-30e2-42c2-b2d7-51c9409d6d03",
    "resource": {
      "resourceType": "Procedure",
      "id": "9aabc97c-30e2-42c2-b2d7-51c9409d6d03",
      "meta": {
        "profile": [ "http://hl7.org/fhir/us/qicore/StructureDefinition/qicore-procedure" ]
      },
      "extension": [ {
        "url": "http://hl7.org/fhir/us/qicore/StructureDefinition/qicore-recorded",
        "valueDateTime": "2014-04-05T13:35:00.000+00:00"
      } ],
      "status": "completed",
      "code": {
        "coding": [ {
          "system": "http://www.cms.gov/Medicare/Coding/ICD10",
          "code": "10D07Z3"
        } ]
      },
      "subject": {
        "reference": "Patient/a1e91653-1ffc-418b-b711-3d941af24c77"
      },
      "performedPeriod": {
        "start": "2026-06-08T08:10:00.000+00:00",
        "end": "2026-06-08T09:14:00.000+00:00"
      }
    },
    "request": {
      "method": "PUT",
      "url": "Procedure/9aabc97c-30e2-42c2-b2d7-51c9409d6d03"
    }
  }, {
    "fullUrl": "https://madie.cms.gov/Condition/0b459f43-917a-4bf1-b210-7759c8dfec62",
    "resource": {
      "resourceType": "Condition",
      "id": "0b459f43-917a-4bf1-b210-7759c8dfec62",
      "meta": {
        "profile": [ "http://hl7.org/fhir/us/qicore/StructureDefinition/qicore-condition" ]
      },
      "category": [ {
        "coding": [ {
          "system": "http://terminology.hl7.org/CodeSystem/condition-category",
          "code": "encounter-diagnosis",
          "display": "Encounter Diagnosis"
        } ]
      } ],
      "code": {
        "coding": [ {
          "system": "http://snomed.info/sct",
          "version": "2022-09",
          "code": "169826009",
          "display": "Single live birth (finding)",
          "userSelected": true
        } ]
      },
      "subject": {
        "reference": "Patient/a1e91653-1ffc-418b-b711-3d941af24c77"
      },
      "recordedDate": "2026-10-18T08:00:00.000+00:00"
    },
    "request": {
      "method": "PUT",
      "url": "Condition/0b459f43-917a-4bf1-b210-7759c8dfec62"
    }
  }, {
    "fullUrl": "https://madie.cms.gov/Coverage/6f098f77-48e8-48d5-a98f-06528ae9b206",
    "resource": {
      "resourceType": "Coverage",
      "id": "6f098f77-48e8-48d5-a98f-06528ae9b206",
      "meta": {
        "profile": [ "http://hl7.org/fhir/us/qicore/StructureDefinition/qicore-coverage" ]
      },
      "status": "active",
      "subscriberId": "523435",
      "beneficiary": {
        "reference": "Patient/a1e91653-1ffc-418b-b711-3d941af24c77"
      },
      "relationship": {
        "coding": [ {
          "system": "http://terminology.hl7.org/CodeSystem/subscriber-relationship",
          "code": "self"
        } ]
      },
      "payor": [ {
        "reference": "Organization/4c17d70d-5ab2-4451-850d-d5811c0f832a"
      } ]
    },
    "request": {
      "method": "PUT",
      "url": "Coverage/6f098f77-48e8-48d5-a98f-06528ae9b206"
    }
  }, {
    "fullUrl": "https://madie.cms.gov/Organization/4c17d70d-5ab2-4451-850d-d5811c0f832a",
    "resource": {
      "resourceType": "Organization",
      "id": "4c17d70d-5ab2-4451-850d-d5811c0f832a",
      "meta": {
        "profile": [ "http://hl7.org/fhir/us/qicore/StructureDefinition/qicore-organization" ]
      },
      "identifier": [ {
        "use": "temp",
        "system": "urn:oid:2.16.840.1.113883.4.4",
        "value": "21-3259825"
      } ],
      "active": true,
      "type": [ {
        "coding": [ {
          "system": "http://terminology.hl7.org/CodeSystem/organization-type",
          "code": "pay",
          "display": "Payer"
        } ]
      } ],
      "name": "Blue Cross Blue Shield of Texas",
      "telecom": [ {
        "system": "phone",
        "value": "(+1) 972-766-6900"
      } ],
      "address": [ {
        "use": "billing",
        "type": "postal",
        "line": [ "P.O. Box 660044" ],
        "city": "Dallas",
        "state": "TX",
        "postalCode": "75266-0044",
        "country": "USA"
      } ]
    },
    "request": {
      "method": "PUT",
      "url": "Organization/4c17d70d-5ab2-4451-850d-d5811c0f832a"
    }
  }, {
    "fullUrl": "https://madie.cms.gov/Practitioner/44d05bdb-1283-44fa-9fb6-b07aae27b233",
    "resource": {
      "resourceType": "Practitioner",
      "id": "44d05bdb-1283-44fa-9fb6-b07aae27b233",
      "meta": {
        "profile": [ "http://hl7.org/fhir/us/qicore/StructureDefinition/qicore-practitioner" ]
      },
      "identifier": [ {
        "system": "http://hl7.org/fhir/sid/us-npi",
        "value": "1234567890"
      } ],
      "name": [ {
        "family": "Evil",
        "prefix": [ "Dr" ]
      } ]
    },
    "request": {
      "method": "PUT",
      "url": "Practitioner/44d05bdb-1283-44fa-9fb6-b07aae27b233"
    }
  }, {
    "fullUrl": "https://madie.cms.gov/MeasureReport/cb8f4211-8611-4efd-95c8-1d3f00ab4d33",
    "resource": {
      "resourceType": "MeasureReport",
      "id": "cb8f4211-8611-4efd-95c8-1d3f00ab4d33",
      "meta": {
        "profile": [ "http://hl7.org/fhir/us/cqfmeasures/StructureDefinition/test-case-cqfm" ]
      },
      "contained": [ {
        "resourceType": "Parameters",
        "id": "26de7516-d384-4862-9008-56994ca819d8-parameters",
        "parameter": [ {
          "name": "subject",
          "valueString": "a1e91653-1ffc-418b-b711-3d941af24c77"
        } ]
      } ],
      "extension": [ {
        "url": "http://hl7.org/fhir/StructureDefinition/cqf-inputParameters",
        "valueReference": {
          "reference": "#26de7516-d384-4862-9008-56994ca819d8-parameters"
        }
      }, {
        "url": "http://hl7.org/fhir/us/cqfmeasures/StructureDefinition/cqfm-testCaseDescription",
        "valueMarkdown": "Tests that Assess Gravida Rel Date is no more than 42 weeks before the Time of Delivery Rel Date.  This case is exactly 42 weeks before.\n"
      } ],
      "modifierExtension": [ {
        "url": "http://hl7.org/fhir/us/cqfmeasures/StructureDefinition/cqfm-isTestCase",
        "valueBoolean": true
      } ],
      "status": "complete",
      "type": "individual",
      "measure": "https://madie.cms.gov/Measure/CMS0334FHIRPCCesareanBirth",
      "period": {
        "start": "2026-01-01",
        "end": "2026-12-31"
      },
      "group": [ {
        "id": "Group_1",
        "population": [ {
          "id": "InitialPopulation_1",
          "code": {
            "coding": [ {
              "system": "http://terminology.hl7.org/CodeSystem/measure-population",
              "code": "initial-population",
              "display": "Initial Population"
            } ]
          },
          "count": 1
        }, {
          "id": "Denominator_1",
          "code": {
            "coding": [ {
              "system": "http://terminology.hl7.org/CodeSystem/measure-population",
              "code": "denominator",
              "display": "Denominator"
            } ]
          },
          "count": 1
        }, {
          "id": "DenominatorExclusion_1",
          "code": {
            "coding": [ {
              "system": "http://terminology.hl7.org/CodeSystem/measure-population",
              "code": "denominator-exclusion",
              "display": "Denominator Exclusion"
            } ]
          },
          "count": 0
        }, {
          "id": "Numerator_1",
          "code": {
            "coding": [ {
              "system": "http://terminology.hl7.org/CodeSystem/measure-population",
              "code": "numerator",
              "display": "Numerator"
            } ]
          },
          "count": 0
        } ],
        "measureScore": {
          "value": 0.0
        }
      } ],
      "evaluatedResource": [ {
        "reference": "Patient/a1e91653-1ffc-418b-b711-3d941af24c77"
      }, {
        "reference": "Observation/90771c06-6a66-4be1-bc1d-e0b838198a39"
      }, {
        "reference": "Observation/cfa9111d-53c5-43b3-aa41-6993c4e02190"
      }, {
        "reference": "Observation/11d0d381-41d3-40fe-824c-7a10e08a575b"
      }, {
        "reference": "Encounter/a47d8c7e-7089-41e6-94f5-9716b95bb034"
      }, {
        "reference": "Procedure/9aabc97c-30e2-42c2-b2d7-51c9409d6d03"
      }, {
        "reference": "Condition/0b459f43-917a-4bf1-b210-7759c8dfec62"
      }, {
        "reference": "Coverage/6f098f77-48e8-48d5-a98f-06528ae9b206"
      }, {
        "reference": "Organization/4c17d70d-5ab2-4451-850d-d5811c0f832a"
      }, {
        "reference": "Practitioner/44d05bdb-1283-44fa-9fb6-b07aae27b233"
      } ]
    },
    "request": {
      "method": "PUT",
      "url": "MeasureReport/cb8f4211-8611-4efd-95c8-1d3f00ab4d33"
    }
  } ]
}