{
  "resourceType": "Bundle",
  "id": "60abda28bf0a01003e3f76bd",
  "type": "collection",
  "entry": [ {
    "fullUrl": "https://madie.cms.gov/Patient/e0997418-e22b-4aa9-805b-dde2c398787b",
    "resource": {
      "resourceType": "Patient",
      "id": "e0997418-e22b-4aa9-805b-dde2c398787b",
      "meta": {
        "profile": [ "http://hl7.org/fhir/us/qicore/StructureDefinition/qicore-patient" ]
      },
      "extension": [ {
        "url": "http://hl7.org/fhir/us/core/StructureDefinition/us-core-race",
        "extension": [ {
          "url": "ombCategory",
          "valueCoding": {
            "system": "urn:oid:2.16.840.1.113883.6.238",
            "code": "2054-5",
            "display": "Black or African American"
          }
        }, {
          "url": "text",
          "valueString": "Black or African American"
        } ]
      }, {
        "url": "http://hl7.org/fhir/us/core/StructureDefinition/us-core-ethnicity",
        "extension": [ {
          "url": "ombCategory",
          "valueCoding": {
            "system": "urn:oid:2.16.840.1.113883.6.238",
            "code": "2186-5",
            "display": "Not Hispanic or Latino"
          }
        }, {
          "url": "text",
          "valueString": "Not Hispanic or Latino"
        } ]
      } ],
      "identifier": [ {
        "type": {
          "coding": [ {
            "system": "http://terminology.hl7.org/CodeSystem/v2-0203",
            "code": "MR"
          } ]
        },
        "system": "https://bonnie-fhir.healthit.gov/",
        "value": "463131313187656"
      } ],
      "name": [ {
        "family": "NUMERPass",
        "given": [ "DexaOrderInLast2YearsB4ADTOrder" ]
      } ],
      "gender": "male",
      "birthDate": "1954-06-15"
    }
  }, {
    "fullUrl": "https://madie.cms.gov/Encounter/fa7b4121-6c37-4672-ad07-8f5c9e71888b",
    "resource": {
      "resourceType": "Encounter",
      "id": "fa7b4121-6c37-4672-ad07-8f5c9e71888b",
      "meta": {
        "profile": [ "http://hl7.org/fhir/us/qicore/StructureDefinition/qicore-encounter" ]
      },
      "status": "finished",
      "class": {
        "system": "http://terminology.hl7.org/CodeSystem/v3-ActCode",
        "code": "AMB",
        "display": "ambulatory"
      },
      "type": [ {
        "coding": [ {
          "system": "http://snomed.info/sct",
          "version": "http://snomed.info/sct/731000124108/version/20240301",
          "code": "185463005",
          "display": "Visit out of hours (procedure)"
        } ]
      } ],
      "subject": {
        "reference": "Patient/e0997418-e22b-4aa9-805b-dde2c398787b"
      },
      "period": {
        "start": "2026-02-04T08:00:00.000+00:00",
        "end": "2026-02-04T08:15:00.000+00:00"
      }
    }
  }, {
    "fullUrl": "https://madie.cms.gov/Condition/25d3e836-20eb-4e4e-b906-faf6efdea5c4",
    "resource": {
      "resourceType": "Condition",
      "id": "25d3e836-20eb-4e4e-b906-faf6efdea5c4",
      "meta": {
        "profile": [ "http://hl7.org/fhir/us/qicore/StructureDefinition/qicore-condition-problems-health-concerns" ]
      },
      "clinicalStatus": {
        "coding": [ {
          "system": "http://terminology.hl7.org/CodeSystem/condition-clinical",
          "code": "active",
          "display": "Active",
          "userSelected": true
        } ]
      },
      "verificationStatus": {
        "coding": [ {
          "system": "http://terminology.hl7.org/CodeSystem/condition-ver-status",
          "code": "confirmed"
        } ]
      },
      "category": [ {
        "coding": [ {
          "system": "http://terminology.hl7.org/CodeSystem/condition-category",
          "code": "problem-list-item",
          "display": "Problem List Item"
        } ]
      } ],
      "code": {
        "coding": [ {
          "system": "http://snomed.info/sct",
          "version": "http://snomed.info/sct/731000124108/version/20250301",
          "code": "254900004",
          "display": "Carcinoma of prostate (disorder)"
        } ]
      },
      "subject": {
        "reference": "Patient/e0997418-e22b-4aa9-805b-dde2c398787b"
      },
      "onsetPeriod": {
        "start": "2025-10-04T08:00:00.000+00:00"
      }
    }
  }, {
    "fullUrl": "https://madie.cms.gov/Condition/a9962078-b8a8-4d22-a050-178273f4addf",
    "resource": {
      "resourceType": "Condition",
      "id": "a9962078-b8a8-4d22-a050-178273f4addf",
      "meta": {
        "profile": [ "http://hl7.org/fhir/us/qicore/StructureDefinition/qicore-condition-encounter-diagnosis" ]
      },
      "clinicalStatus": {
        "coding": [ {
          "system": "http://terminology.hl7.org/CodeSystem/condition-clinical",
          "code": "active",
          "display": "Active",
          "userSelected": true
        } ]
      },
      "verificationStatus": {
        "coding": [ {
          "system": "http://terminology.hl7.org/CodeSystem/condition-ver-status",
          "code": "confirmed"
        } ]
      },
      "category": [ {
        "coding": [ {
          "system": "http://terminology.hl7.org/CodeSystem/condition-category",
          "code": "encounter-diagnosis",
          "display": "Encounter Diagnosis"
        } ]
      } ],
      "code": {
        "coding": [ {
          "system": "http://snomed.info/sct",
          "version": "http://snomed.info/sct/731000124108/version/20250301",
          "code": "254900004",
          "display": "Carcinoma of prostate (disorder)"
        } ]
      },
      "subject": {
        "reference": "Patient/e0997418-e22b-4aa9-805b-dde2c398787b"
      },
      "onsetPeriod": {
        "start": "2025-10-04T08:00:00.000+00:00"
      }
    }
  }, {
    "fullUrl": "https://madie.cms.gov/ServiceRequest/80637544-60f2-4ab8-9343-c562a01c0fb3",
    "resource": {
      "resourceType": "ServiceRequest",
      "id": "80637544-60f2-4ab8-9343-c562a01c0fb3",
      "meta": {
        "profile": [ "http://hl7.org/fhir/us/qicore/StructureDefinition/qicore-servicerequest" ]
      },
      "status": "completed",
      "intent": "order",
      "code": {
        "coding": [ {
          "system": "http://loinc.org",
          "version": "2.76",
          "code": "38265-5",
          "display": "DXA Radius and Ulna [T-score] Bone density"
        } ]
      },
      "subject": {
        "reference": "Patient/e0997418-e22b-4aa9-805b-dde2c398787b"
      },
      "authoredOn": "2025-05-04T10:00:00.000+00:00"
    }
  }, {
    "fullUrl": "https://madie.cms.gov/Practitioner/5b1d48fd-43f0-46d8-b887-81b152dee21e",
    "resource": {
      "resourceType": "Practitioner",
      "id": "5b1d48fd-43f0-46d8-b887-81b152dee21e",
      "meta": {
        "profile": [ "http://hl7.org/fhir/us/qicore/StructureDefinition/qicore-practitioner" ]
      },
      "identifier": [ {
        "use": "temp",
        "system": "urn:oid:2.16.840.1.113883.4.336",
        "value": "Practitioner-23"
      } ],
      "active": true,
      "name": [ {
        "family": "Careful",
        "given": [ "Adam" ],
        "prefix": [ "Dr" ]
      } ],
      "address": [ {
        "use": "home",
        "line": [ "534 Erewhon St" ],
        "city": "PleasantVille",
        "state": "UT",
        "postalCode": "84414"
      } ],
      "qualification": [ {
        "identifier": [ {
          "system": "http://example.org/UniversityIdentifier",
          "value": "12345"
        } ],
        "code": {
          "coding": [ {
            "system": "http://terminology.hl7.org/CodeSystem/v2-0360|2.7",
            "code": "BS",
            "display": "Bachelor of Science"
          } ],
          "text": "Bachelor of Science"
        },
        "period": {
          "start": "1996"
        },
        "issuer": {
          "display": "Example University"
        }
      } ]
    }
  }, {
    "fullUrl": "https://madie.cms.gov/MedicationRequest/0125978f-069d-4ef5-ac47-ddcb3e50d191",
    "resource": {
      "resourceType": "MedicationRequest",
      "id": "0125978f-069d-4ef5-ac47-ddcb3e50d191",
      "meta": {
        "profile": [ "http://hl7.org/fhir/us/qicore/StructureDefinition/qicore-medicationrequest" ]
      },
      "status": "active",
      "intent": "order",
      "medicationCodeableConcept": {
        "coding": [ {
          "system": "http://www.nlm.nih.gov/research/umls/rxnorm",
          "version": "06052023",
          "code": "1115257",
          "display": "1.5 ML leuprolide acetate 30 MG/ML Prefilled Syringe"
        } ]
      },
      "subject": {
        "reference": "Patient/e0997418-e22b-4aa9-805b-dde2c398787b"
      },
      "authoredOn": "2025-12-03T08:00:00.000+00:00",
      "requester": {
        "reference": "http://myGoodHealthcare.com/fhir/Practitioner/5b1d48fd-43f0-46d8-b887-81b152dee21e"
      },
      "dosageInstruction": [ {
        "timing": {
          "repeat": {
            "boundsPeriod": {
              "start": "2025-12-03T08:00:00.000+00:00",
              "end": "2026-03-04T08:00:00.000+00:00"
            }
          }
        }
      } ]
    }
  }, {
    "fullUrl": "https://madie.cms.gov/ServiceRequest/8b6b1772-960e-4928-b3b9-1013c69b826c",
    "resource": {
      "resourceType": "ServiceRequest",
      "id": "8b6b1772-960e-4928-b3b9-1013c69b826c",
      "meta": {
        "profile": [ "http://hl7.org/fhir/us/qicore/StructureDefinition/qicore-servicerequest" ]
      },
      "status": "active",
      "intent": "order",
      "code": {
        "coding": [ {
          "system": "http://snomed.info/sct",
          "version": "http://snomed.info/sct/731000124108/version/20250301",
          "code": "456381000124102",
          "display": "Injection of leuprolide acetate for twelve month period (regime/therapy)"
        } ]
      },
      "subject": {
        "reference": "Patient/e0997418-e22b-4aa9-805b-dde2c398787b"
      },
      "authoredOn": "2025-12-04T08:00:00.000+00:00"
    }
  }, {
    "fullUrl": "https://madie.cms.gov/MeasureReport/3793a3c0-f0cf-4688-b253-f45306827c87",
    "resource": {
      "resourceType": "MeasureReport",
      "id": "3793a3c0-f0cf-4688-b253-f45306827c87",
      "meta": {
        "profile": [ "http://hl7.org/fhir/us/cqfmeasures/StructureDefinition/test-case-cqfm" ]
      },
      "contained": [ {
        "resourceType": "Parameters",
        "id": "d3edd0fe-9158-4e62-b8bd-248840d542e8-parameters",
        "parameter": [ {
          "name": "subject",
          "valueString": "e0997418-e22b-4aa9-805b-dde2c398787b"
        } ]
      } ],
      "extension": [ {
        "url": "http://hl7.org/fhir/StructureDefinition/cqf-inputParameters",
        "valueReference": {
          "reference": "#d3edd0fe-9158-4e62-b8bd-248840d542e8-parameters"
        }
      }, {
        "url": "http://hl7.org/fhir/us/cqfmeasures/StructureDefinition/cqfm-testCaseDescription",
        "valueMarkdown": "Dx of Prostate Cancer and qualifying encounters. ADT in December before MP, DEXA within 2 years prior to ADT."
      } ],
      "modifierExtension": [ {
        "url": "http://hl7.org/fhir/us/cqfmeasures/StructureDefinition/cqfm-isTestCase",
        "valueBoolean": true
      } ],
      "status": "complete",
      "type": "individual",
      "measure": "https://madie.cms.gov/Measure/CMS645FHIRBoneDensityPCADTherapy",
      "period": {
        "start": "2026-01-01",
        "end": "2026-12-31"
      },
      "group": [ {
        "id": "Group_1",
        "population": [ {
          "id": "InitialPopulation_1",
          "code": {
            "coding": [ {
              "system": "http://terminology.hl7.org/CodeSystem/measure-population",
              "code": "initial-population",
              "display": "Initial Population"
            } ]
          },
          "count": 1
        }, {
          "id": "Denominator_1",
          "code": {
            "coding": [ {
              "system": "http://terminology.hl7.org/CodeSystem/measure-population",
              "code": "denominator",
              "display": "Denominator"
            } ]
          },
          "count": 1
        }, {
          "id": "Numerator_1",
          "code": {
            "coding": [ {
              "system": "http://terminology.hl7.org/CodeSystem/measure-population",
              "code": "numerator",
              "display": "Numerator"
            } ]
          },
          "count": 1
        }, {
          "id": "DenominatorException_1",
          "code": {
            "coding": [ {
              "system": "http://terminology.hl7.org/CodeSystem/measure-population",
              "code": "denominator-exception",
              "display": "Denominator Exception"
            } ]
          },
          "count": 0
        } ],
        "measureScore": {
          "value": 1.0
        }
      } ],
      "evaluatedResource": [ {
        "reference": "Patient/e0997418-e22b-4aa9-805b-dde2c398787b"
      }, {
        "reference": "Encounter/fa7b4121-6c37-4672-ad07-8f5c9e71888b"
      }, {
        "reference": "Condition/25d3e836-20eb-4e4e-b906-faf6efdea5c4"
      }, {
        "reference": "Condition/a9962078-b8a8-4d22-a050-178273f4addf"
      }, {
        "reference": "ServiceRequest/80637544-60f2-4ab8-9343-c562a01c0fb3"
      }, {
        "reference": "Practitioner/5b1d48fd-43f0-46d8-b887-81b152dee21e"
      }, {
        "reference": "MedicationRequest/0125978f-069d-4ef5-ac47-ddcb3e50d191"
      }, {
        "reference": "ServiceRequest/8b6b1772-960e-4928-b3b9-1013c69b826c"
      } ]
    }
  } ]
}