{
  "resourceType": "Bundle",
  "id": "tests-a82b589d-d741-4bc8-941c-9546a2b787e8-bundle",
  "type": "transaction",
  "entry": [ {
    "fullUrl": "https://madie.cms.gov/Encounter/3bf6e0fa-d60d-46e6-b345-36b7cf98408c",
    "resource": {
      "resourceType": "Encounter",
      "id": "3bf6e0fa-d60d-46e6-b345-36b7cf98408c",
      "meta": {
        "profile": [ "http://hl7.org/fhir/us/qicore/StructureDefinition/qicore-encounter" ]
      },
      "status": "finished",
      "class": {
        "system": "http://terminology.hl7.org/CodeSystem/v3-ActCode",
        "code": "IMP",
        "display": "inpatient encounter"
      },
      "type": [ {
        "coding": [ {
          "system": "http://snomed.info/sct",
          "code": "112689000"
        } ]
      } ],
      "priority": {
        "coding": [ {
          "system": "http://snomed.info/sct",
          "code": "103390000"
        } ]
      },
      "subject": {
        "reference": "Patient/a82b589d-d741-4bc8-941c-9546a2b787e8"
      },
      "period": {
        "start": "2026-04-10T08:00:00.000+00:00",
        "end": "2026-04-14T08:15:00.000+00:00"
      },
      "diagnosis": [ {
        "condition": {
          "reference": "Procedure/330151fa-7e31-42f0-ac4f-ca8496f83370"
        }
      } ]
    },
    "request": {
      "method": "PUT",
      "url": "Encounter/3bf6e0fa-d60d-46e6-b345-36b7cf98408c"
    }
  }, {
    "fullUrl": "https://madie.cms.gov/Patient/a82b589d-d741-4bc8-941c-9546a2b787e8",
    "resource": {
      "resourceType": "Patient",
      "id": "a82b589d-d741-4bc8-941c-9546a2b787e8",
      "meta": {
        "profile": [ "http://hl7.org/fhir/us/qicore/StructureDefinition/qicore-patient" ]
      },
      "extension": [ {
        "url": "http://hl7.org/fhir/us/core/StructureDefinition/us-core-race",
        "extension": [ {
          "url": "ombCategory",
          "valueCoding": {
            "system": "urn:oid:2.16.840.1.113883.6.238",
            "code": "2028-9",
            "display": "Asian",
            "userSelected": true
          }
        }, {
          "url": "text",
          "valueString": "Asian"
        } ]
      }, {
        "url": "http://hl7.org/fhir/us/core/StructureDefinition/us-core-ethnicity",
        "extension": [ {
          "url": "ombCategory",
          "valueCoding": {
            "system": "urn:oid:2.16.840.1.113883.6.238",
            "code": "2186-5",
            "display": "Not Hispanic or Latino",
            "userSelected": true
          }
        }, {
          "url": "text",
          "valueString": "Not Hispanic or Latino"
        } ]
      } ],
      "identifier": [ {
        "type": {
          "coding": [ {
            "system": "http://terminology.hl7.org/CodeSystem/v2-0203",
            "code": "MR"
          } ]
        },
        "system": "https://bonnie-fhir.healthit.gov/",
        "value": "61152a3b98086b7a79cbd7c1"
      } ],
      "active": true,
      "name": [ {
        "use": "usual",
        "family": "IPPFail",
        "given": [ "ElecEncWithEDVisitEndDTSameAsIPStartDT" ]
      } ],
      "gender": "female",
      "birthDate": "1966-04-09"
    },
    "request": {
      "method": "PUT",
      "url": "Patient/a82b589d-d741-4bc8-941c-9546a2b787e8"
    }
  }, {
    "fullUrl": "https://madie.cms.gov/Encounter/97ea79e7-2c04-4a64-9ddd-41b7530e729b",
    "resource": {
      "resourceType": "Encounter",
      "id": "97ea79e7-2c04-4a64-9ddd-41b7530e729b",
      "meta": {
        "profile": [ "http://hl7.org/fhir/us/qicore/StructureDefinition/qicore-encounter" ]
      },
      "status": "finished",
      "class": {
        "system": "http://terminology.hl7.org/CodeSystem/v3-ActCode",
        "code": "EMER",
        "display": "emergency"
      },
      "type": [ {
        "coding": [ {
          "system": "http://snomed.info/sct",
          "code": "4525004"
        } ]
      } ],
      "subject": {
        "reference": "Patient/a82b589d-d741-4bc8-941c-9546a2b787e8"
      },
      "period": {
        "start": "2026-04-09T08:00:00.000+00:00",
        "end": "2026-04-10T08:00:00.000+00:00"
      }
    },
    "request": {
      "method": "PUT",
      "url": "Encounter/97ea79e7-2c04-4a64-9ddd-41b7530e729b"
    }
  }, {
    "fullUrl": "https://madie.cms.gov/Procedure/330151fa-7e31-42f0-ac4f-ca8496f83370",
    "resource": {
      "resourceType": "Procedure",
      "id": "330151fa-7e31-42f0-ac4f-ca8496f83370",
      "meta": {
        "profile": [ "http://hl7.org/fhir/us/qicore/StructureDefinition/qicore-procedure" ]
      },
      "extension": [ {
        "url": "http://hl7.org/fhir/us/qicore/StructureDefinition/qicore-recorded",
        "valueDateTime": "2026-04-11T10:30:00.000+00:00"
      } ],
      "status": "completed",
      "category": {
        "coding": [ {
          "system": "http://snomed.info/sct",
          "code": "18286008",
          "display": "General or neuraxial anesthesia"
        } ]
      },
      "code": {
        "coding": [ {
          "system": "http://snomed.info/sct",
          "code": "112943005",
          "display": "Epidural injection of anesthetic substance, diagnostic, caudal, continuous"
        } ]
      },
      "subject": {
        "reference": "Patient/a82b589d-d741-4bc8-941c-9546a2b787e8"
      },
      "performedPeriod": {
        "start": "2026-04-11T08:00:00.000+00:00",
        "end": "2026-04-11T10:15:00.000+00:00"
      }
    },
    "request": {
      "method": "PUT",
      "url": "Procedure/330151fa-7e31-42f0-ac4f-ca8496f83370"
    }
  }, {
    "fullUrl": "https://madie.cms.gov/MeasureReport/3658c0c5-9f18-4285-8c84-045b25a1fdf7",
    "resource": {
      "resourceType": "MeasureReport",
      "id": "3658c0c5-9f18-4285-8c84-045b25a1fdf7",
      "meta": {
        "profile": [ "http://hl7.org/fhir/us/cqfmeasures/StructureDefinition/test-case-cqfm" ]
      },
      "contained": [ {
        "resourceType": "Parameters",
        "id": "b471e41f-a6df-4661-9268-ed4b5f128fd0-parameters",
        "parameter": [ {
          "name": "subject",
          "valueString": "a82b589d-d741-4bc8-941c-9546a2b787e8"
        } ]
      } ],
      "extension": [ {
        "url": "http://hl7.org/fhir/StructureDefinition/cqf-inputParameters",
        "valueReference": {
          "reference": "#b471e41f-a6df-4661-9268-ed4b5f128fd0-parameters"
        }
      }, {
        "url": "http://hl7.org/fhir/us/cqfmeasures/StructureDefinition/cqfm-testCaseDescription",
        "valueMarkdown": "Hospitalization (has 'elective' class) with procedure (general anesthesia) within first 3 days of encounter. ED visit ends same time as start of IP visit so Fails IPP. "
      } ],
      "modifierExtension": [ {
        "url": "http://hl7.org/fhir/us/cqfmeasures/StructureDefinition/cqfm-isTestCase",
        "valueBoolean": true
      } ],
      "status": "complete",
      "type": "individual",
      "measure": "https://madie.cms.gov/Measure/CMS1218FHIRHHRF",
      "period": {
        "start": "2026-01-01",
        "end": "2026-12-31"
      },
      "group": [ {
        "id": "Group_1",
        "population": [ {
          "id": "InitialPopulation_1",
          "code": {
            "coding": [ {
              "system": "http://terminology.hl7.org/CodeSystem/measure-population",
              "code": "initial-population",
              "display": "Initial Population"
            } ]
          },
          "count": 0
        }, {
          "id": "Denominator_1",
          "code": {
            "coding": [ {
              "system": "http://terminology.hl7.org/CodeSystem/measure-population",
              "code": "denominator",
              "display": "Denominator"
            } ]
          },
          "count": 0
        }, {
          "id": "DenominatorExclusion_1",
          "code": {
            "coding": [ {
              "system": "http://terminology.hl7.org/CodeSystem/measure-population",
              "code": "denominator-exclusion",
              "display": "Denominator Exclusion"
            } ]
          },
          "count": 0
        }, {
          "id": "Numerator_1",
          "code": {
            "coding": [ {
              "system": "http://terminology.hl7.org/CodeSystem/measure-population",
              "code": "numerator",
              "display": "Numerator"
            } ]
          },
          "count": 0
        } ],
        "measureScore": {
          "value": 0.0
        }
      } ],
      "evaluatedResource": [ {
        "reference": "Encounter/3bf6e0fa-d60d-46e6-b345-36b7cf98408c"
      }, {
        "reference": "Patient/a82b589d-d741-4bc8-941c-9546a2b787e8"
      }, {
        "reference": "Encounter/97ea79e7-2c04-4a64-9ddd-41b7530e729b"
      }, {
        "reference": "Procedure/330151fa-7e31-42f0-ac4f-ca8496f83370"
      } ]
    },
    "request": {
      "method": "PUT",
      "url": "MeasureReport/3658c0c5-9f18-4285-8c84-045b25a1fdf7"
    }
  } ]
}