{
  "resourceType": "Bundle",
  "id": "661579e3db207d74c03b8a50",
  "type": "transaction",
  "entry": [ {
    "fullUrl": "https://madie.cms.gov/Patient/6fc94c60-6eae-44a4-b1f7-c4f3369b4e47",
    "resource": {
      "resourceType": "Patient",
      "id": "6fc94c60-6eae-44a4-b1f7-c4f3369b4e47",
      "meta": {
        "profile": [ "http://hl7.org/fhir/us/qicore/StructureDefinition/qicore-patient" ]
      },
      "extension": [ {
        "url": "http://hl7.org/fhir/us/core/StructureDefinition/us-core-race",
        "extension": [ {
          "url": "ombCategory",
          "valueCoding": {
            "system": "urn:oid:2.16.840.1.113883.6.238",
            "code": "2076-8",
            "display": "Native Hawaiian or Other Pacific Islander",
            "userSelected": true
          }
        }, {
          "url": "text",
          "valueString": "Native Hawaiian or Other Pacific Islander"
        } ]
      }, {
        "url": "http://hl7.org/fhir/us/core/StructureDefinition/us-core-ethnicity",
        "extension": [ {
          "url": "ombCategory",
          "valueCoding": {
            "system": "urn:oid:2.16.840.1.113883.6.238",
            "code": "2186-5",
            "display": "Not Hispanic or Latino",
            "userSelected": true
          }
        }, {
          "url": "text",
          "valueString": "Not Hispanic or Latino"
        } ]
      }, {
        "url": "http://hl7.org/fhir/us/core/StructureDefinition/us-core-sex",
        "valueCode": "248152002"
      } ],
      "identifier": [ {
        "type": {
          "coding": [ {
            "system": "http://terminology.hl7.org/CodeSystem/v2-0203",
            "code": "MR"
          } ]
        },
        "system": "https://bonnie-fhir.healthit.gov/",
        "value": "661579e3db207d74c03b8a50"
      } ],
      "name": [ {
        "family": "NUMERStrat4Fail",
        "given": [ "EMDuringTriageDiagseqNotPrim" ]
      } ],
      "gender": "female",
      "birthDate": "2008-12-31"
    },
    "request": {
      "method": "PUT",
      "url": "Patient/6fc94c60-6eae-44a4-b1f7-c4f3369b4e47"
    }
  }, {
    "fullUrl": "https://madie.cms.gov/Encounter/478c4c48-e860-4493-8ebb-5a1abd8791ef",
    "resource": {
      "resourceType": "Encounter",
      "id": "478c4c48-e860-4493-8ebb-5a1abd8791ef",
      "meta": {
        "profile": [ "http://hl7.org/fhir/us/qicore/StructureDefinition/qicore-encounter" ]
      },
      "status": "finished",
      "class": {
        "system": "http://terminology.hl7.org/CodeSystem/v3-ActCode",
        "code": "EMER",
        "display": "emergency"
      },
      "type": [ {
        "coding": [ {
          "system": "http://snomed.info/sct",
          "version": "2023-09",
          "code": "225390008",
          "display": "Triage (procedure)",
          "userSelected": true
        } ]
      } ],
      "subject": {
        "reference": "Patient/6fc94c60-6eae-44a4-b1f7-c4f3369b4e47"
      },
      "period": {
        "start": "2027-05-01T08:00:00.000+00:00",
        "end": "2027-05-01T13:15:00.000+00:00"
      }
    },
    "request": {
      "method": "PUT",
      "url": "Encounter/478c4c48-e860-4493-8ebb-5a1abd8791ef"
    }
  }, {
    "fullUrl": "https://madie.cms.gov/Encounter/2e2f7986-683b-45b8-ab0c-5e3186c348d3",
    "resource": {
      "resourceType": "Encounter",
      "id": "2e2f7986-683b-45b8-ab0c-5e3186c348d3",
      "meta": {
        "profile": [ "http://hl7.org/fhir/us/qicore/StructureDefinition/qicore-encounter" ]
      },
      "status": "finished",
      "class": {
        "system": "http://terminology.hl7.org/CodeSystem/v3-ActCode",
        "code": "EMER",
        "display": "emergency"
      },
      "type": [ {
        "coding": [ {
          "system": "http://snomed.info/sct",
          "version": "2023-09",
          "code": "4525004",
          "display": "Emergency department patient visit (procedure)",
          "userSelected": true
        } ]
      } ],
      "subject": {
        "reference": "Patient/6fc94c60-6eae-44a4-b1f7-c4f3369b4e47"
      },
      "period": {
        "start": "2027-05-01T08:00:00.000+00:00",
        "end": "2027-05-01T12:15:00.000+00:00"
      },
      "diagnosis": [ {
        "condition": {
          "reference": "Condition/406c0dbe-408f-4844-ab67-0f8c38d1596c"
        },
        "use": {
          "coding": [ {
            "system": "http://terminology.hl7.org/CodeSystem/diagnosis-role",
            "code": "billing"
          } ]
        },
        "rank": 1
      } ],
      "location": [ {
        "location": {
          "reference": "Location/f0346597-2e11-45fe-bead-ae7d82dd270f"
        },
        "period": {
          "start": "2027-05-01T07:45:00.000+00:00",
          "end": "2027-05-01T16:31:00.000+00:00"
        }
      }, {
        "location": {
          "reference": "Location/b0327f04-f7fe-4099-94ef-fd5b167dfa67"
        },
        "period": {
          "start": "2027-05-01T09:31:00.000+00:00",
          "end": "2027-05-01T12:15:00.000+00:00"
        }
      }, {
        "location": {
          "reference": "Location/608ec015-3913-4f22-8d13-0224ec3b4fbe"
        },
        "period": {
          "start": "2027-05-01T08:40:00.000+00:00",
          "end": "2027-05-01T12:15:00.000+00:00"
        }
      }, {
        "location": {
          "reference": "Location/c9721e6d-1b0a-43cc-b095-7d28d35fc35f"
        },
        "period": {
          "start": "2027-05-01T08:30:00.000+00:00",
          "end": "2027-05-01T15:46:00.000+00:00"
        }
      } ]
    },
    "request": {
      "method": "PUT",
      "url": "Encounter/2e2f7986-683b-45b8-ab0c-5e3186c348d3"
    }
  }, {
    "fullUrl": "https://madie.cms.gov/Location/f0346597-2e11-45fe-bead-ae7d82dd270f",
    "resource": {
      "resourceType": "Location",
      "id": "f0346597-2e11-45fe-bead-ae7d82dd270f",
      "meta": {
        "profile": [ "http://hl7.org/fhir/us/qicore/StructureDefinition/qicore-location" ]
      },
      "identifier": [ {
        "use": "usual",
        "system": "http://exampleoflocation.com",
        "value": "B1-S.F1"
      } ],
      "name": "Medical Surgical East, first floor",
      "type": [ {
        "coding": [ {
          "system": "https://www.cdc.gov/nhsn/cdaportal/terminology/codesystem/hsloc.html",
          "version": "2022",
          "code": "1108-0",
          "display": "Emergency Department",
          "userSelected": true
        } ]
      } ]
    },
    "request": {
      "method": "PUT",
      "url": "Location/f0346597-2e11-45fe-bead-ae7d82dd270f"
    }
  }, {
    "fullUrl": "https://madie.cms.gov/Location/b0327f04-f7fe-4099-94ef-fd5b167dfa67",
    "resource": {
      "resourceType": "Location",
      "id": "b0327f04-f7fe-4099-94ef-fd5b167dfa67",
      "meta": {
        "profile": [ "http://hl7.org/fhir/us/qicore/StructureDefinition/qicore-location" ]
      },
      "identifier": [ {
        "use": "usual",
        "system": "http://exampleoflocation.com",
        "value": "B1-S.F2"
      } ],
      "name": "Medical Surgical East, first floor",
      "type": [ {
        "coding": [ {
          "system": "https://www.cdc.gov/nhsn/cdaportal/terminology/codesystem/hsloc.html",
          "version": "2022",
          "code": "1209-6",
          "display": "Treatment Room",
          "userSelected": true
        } ]
      } ]
    },
    "request": {
      "method": "PUT",
      "url": "Location/b0327f04-f7fe-4099-94ef-fd5b167dfa67"
    }
  }, {
    "fullUrl": "https://madie.cms.gov/Condition/406c0dbe-408f-4844-ab67-0f8c38d1596c",
    "resource": {
      "resourceType": "Condition",
      "id": "406c0dbe-408f-4844-ab67-0f8c38d1596c",
      "meta": {
        "profile": [ "http://hl7.org/fhir/us/qicore/StructureDefinition/qicore-condition-encounter-diagnosis" ]
      },
      "category": [ {
        "coding": [ {
          "system": "http://terminology.hl7.org/CodeSystem/condition-category",
          "code": "encounter-diagnosis",
          "display": "Encounter Diagnosis"
        } ]
      } ],
      "code": {
        "coding": [ {
          "system": "http://snomed.info/sct",
          "version": "2023-09",
          "code": "10349009",
          "display": "Multi-infarct dementia with delirium (disorder)",
          "userSelected": true
        } ]
      },
      "subject": {
        "reference": "Patient/6fc94c60-6eae-44a4-b1f7-c4f3369b4e47"
      },
      "recordedDate": "2027-04-09T08:00:00.000+00:00"
    },
    "request": {
      "method": "PUT",
      "url": "Condition/406c0dbe-408f-4844-ab67-0f8c38d1596c"
    }
  }, {
    "fullUrl": "https://madie.cms.gov/Location/c9721e6d-1b0a-43cc-b095-7d28d35fc35f",
    "resource": {
      "resourceType": "Location",
      "id": "c9721e6d-1b0a-43cc-b095-7d28d35fc35f",
      "meta": {
        "profile": [ "http://hl7.org/fhir/us/qicore/StructureDefinition/qicore-location" ]
      },
      "identifier": [ {
        "use": "usual",
        "system": "http://exampleoflocation.com",
        "value": "B1-S.F2"
      } ],
      "name": "Medical Surgical East, first floor",
      "type": [ {
        "coding": [ {
          "system": "https://www.cdc.gov/nhsn/cdaportal/terminology/codesystem/hsloc.html",
          "version": "2022",
          "code": "1108-0",
          "display": "Emergency Department",
          "userSelected": true
        } ]
      } ]
    },
    "request": {
      "method": "PUT",
      "url": "Location/c9721e6d-1b0a-43cc-b095-7d28d35fc35f"
    }
  }, {
    "fullUrl": "https://madie.cms.gov/Location/608ec015-3913-4f22-8d13-0224ec3b4fbe",
    "resource": {
      "resourceType": "Location",
      "id": "608ec015-3913-4f22-8d13-0224ec3b4fbe",
      "meta": {
        "profile": [ "http://hl7.org/fhir/us/qicore/StructureDefinition/qicore-location" ]
      },
      "identifier": [ {
        "use": "usual",
        "system": "http://exampleoflocation.com",
        "value": "B1-S.F2"
      } ],
      "name": "Medical Surgical East, first floor",
      "type": [ {
        "coding": [ {
          "system": "https://www.cdc.gov/nhsn/cdaportal/terminology/codesystem/hsloc.html",
          "version": "2022",
          "code": "1209-6",
          "display": "Treatment Room"
        } ]
      } ]
    },
    "request": {
      "method": "PUT",
      "url": "Location/608ec015-3913-4f22-8d13-0224ec3b4fbe"
    }
  }, {
    "fullUrl": "https://madie.cms.gov/Claim/41d502cf-8611-474f-bee9-08b5276d63b8",
    "resource": {
      "resourceType": "Claim",
      "id": "41d502cf-8611-474f-bee9-08b5276d63b8",
      "meta": {
        "profile": [ "http://hl7.org/fhir/us/qicore/StructureDefinition/qicore-claim" ]
      },
      "status": "active",
      "type": {
        "coding": [ {
          "system": "http://terminology.hl7.org/CodeSystem/claim-type",
          "code": "institutional"
        } ]
      },
      "use": "claim",
      "patient": {
        "reference": "Patient/6fc94c60-6eae-44a4-b1f7-c4f3369b4e47"
      },
      "created": "2027-05-01",
      "provider": {
        "reference": "Practitioner/c05ffad3-d21e-4aa9-8fa6-d0b04627359a"
      },
      "priority": {
        "coding": [ {
          "system": "http://terminology.hl7.org/CodeSystem/processpriority",
          "code": "normal"
        } ]
      },
      "diagnosis": [ {
        "sequence": 1,
        "diagnosisReference": {
          "reference": "Condition/406c0dbe-408f-4844-ab67-0f8c38d1596c"
        },
        "type": [ {
          "coding": [ {
            "system": "http://terminology.hl7.org/CodeSystem/ex-diagnosistype",
            "code": "principal"
          } ]
        } ]
      } ],
      "insurance": [ {
        "sequence": 1,
        "focal": true,
        "coverage": {
          "reference": "Coverage/4e625317-c4b7-4bda-9680-9838637ea1fb"
        }
      } ],
      "item": [ {
        "sequence": 1,
        "diagnosisSequence": [ 2 ],
        "productOrService": {
          "coding": [ {
            "system": "http://terminology.hl7.org/CodeSystem/ex-USCLS",
            "code": "99555"
          } ]
        },
        "encounter": [ {
          "reference": "Encounter/2e2f7986-683b-45b8-ab0c-5e3186c348d3"
        } ]
      } ]
    },
    "request": {
      "method": "PUT",
      "url": "Claim/41d502cf-8611-474f-bee9-08b5276d63b8"
    }
  }, {
    "fullUrl": "https://madie.cms.gov/Coverage/4e625317-c4b7-4bda-9680-9838637ea1fb",
    "resource": {
      "resourceType": "Coverage",
      "id": "4e625317-c4b7-4bda-9680-9838637ea1fb",
      "meta": {
        "profile": [ "http://hl7.org/fhir/us/qicore/StructureDefinition/qicore-coverage" ]
      },
      "identifier": [ {
        "type": {
          "coding": [ {
            "system": "http://terminology.hl7.org/CodeSystem/v2-0203",
            "code": "MB"
          } ]
        }
      } ],
      "status": "active",
      "beneficiary": {
        "reference": "Patient/6fc94c60-6eae-44a4-b1f7-c4f3369b4e47"
      },
      "relationship": {
        "coding": [ {
          "system": "http://terminology.hl7.org/CodeSystem/subscriber-relationship",
          "code": "self"
        } ]
      },
      "payor": [ {
        "reference": "Organization/5ef89460-9343-4a5a-b163-867283221ae9"
      } ]
    },
    "request": {
      "method": "PUT",
      "url": "Coverage/4e625317-c4b7-4bda-9680-9838637ea1fb"
    }
  }, {
    "fullUrl": "https://madie.cms.gov/Organization/5ef89460-9343-4a5a-b163-867283221ae9",
    "resource": {
      "resourceType": "Organization",
      "id": "5ef89460-9343-4a5a-b163-867283221ae9",
      "meta": {
        "profile": [ "http://hl7.org/fhir/us/qicore/StructureDefinition/qicore-organization" ]
      },
      "identifier": [ {
        "use": "temp",
        "system": "urn:oid:2.16.840.1.113883.4.4",
        "value": "21-3259825"
      } ],
      "active": true,
      "type": [ {
        "coding": [ {
          "system": "http://terminology.hl7.org/CodeSystem/organization-type",
          "code": "pay",
          "display": "Payer"
        } ]
      } ],
      "name": "Blue Cross Blue Shield of Texas",
      "telecom": [ {
        "system": "phone",
        "value": "(+1) 972-766-6900"
      } ],
      "address": [ {
        "use": "billing",
        "type": "postal",
        "line": [ "P.O. Box 660044" ],
        "city": "Dallas",
        "state": "TX",
        "postalCode": "75266-0044",
        "country": "USA"
      } ]
    },
    "request": {
      "method": "PUT",
      "url": "Organization/5ef89460-9343-4a5a-b163-867283221ae9"
    }
  }, {
    "fullUrl": "https://madie.cms.gov/Practitioner/c05ffad3-d21e-4aa9-8fa6-d0b04627359a",
    "resource": {
      "resourceType": "Practitioner",
      "id": "c05ffad3-d21e-4aa9-8fa6-d0b04627359a",
      "meta": {
        "profile": [ "http://hl7.org/fhir/us/qicore/StructureDefinition/qicore-practitioner" ]
      },
      "identifier": [ {
        "system": "http://hl7.org/fhir/sid/us-npi",
        "value": "9999999896"
      } ],
      "name": [ {
        "family": "Evil",
        "prefix": [ "Dr" ]
      } ]
    },
    "request": {
      "method": "PUT",
      "url": "Practitioner/c05ffad3-d21e-4aa9-8fa6-d0b04627359a"
    }
  }, {
    "fullUrl": "https://madie.cms.gov/MeasureReport/6904d935-3c8f-46ba-b41c-d4ec813e1b72",
    "resource": {
      "resourceType": "MeasureReport",
      "id": "6904d935-3c8f-46ba-b41c-d4ec813e1b72",
      "meta": {
        "profile": [ "http://hl7.org/fhir/us/cqfmeasures/StructureDefinition/test-case-cqfm" ]
      },
      "contained": [ {
        "resourceType": "Parameters",
        "id": "54b4ebd3-3fe3-4369-a577-dc769796e5c7-parameters",
        "parameter": [ {
          "name": "subject",
          "valueString": "6fc94c60-6eae-44a4-b1f7-c4f3369b4e47"
        } ]
      } ],
      "extension": [ {
        "url": "http://hl7.org/fhir/StructureDefinition/cqf-inputParameters",
        "valueReference": {
          "reference": "#54b4ebd3-3fe3-4369-a577-dc769796e5c7-parameters"
        }
      }, {
        "url": "http://hl7.org/fhir/us/cqfmeasures/StructureDefinition/cqfm-testCaseDescription",
        "valueMarkdown": "Adult, mental diagnosis, LOS 8+ hours, EM overlaps with Triage. Diagnosis sequence is 2 - which fails according to principal diagnosis function. Strata is not assigned"
      } ],
      "modifierExtension": [ {
        "url": "http://hl7.org/fhir/us/cqfmeasures/StructureDefinition/cqfm-isTestCase",
        "valueBoolean": true
      } ],
      "status": "complete",
      "type": "individual",
      "measure": "https://madie.cms.gov/Measure/CMS1244FHIRECATHOQR",
      "period": {
        "start": "2027-01-01",
        "end": "2027-12-31"
      },
      "group": [ {
        "id": "Group_1",
        "population": [ {
          "id": "InitialPopulation_1",
          "code": {
            "coding": [ {
              "system": "http://terminology.hl7.org/CodeSystem/measure-population",
              "code": "initial-population",
              "display": "Initial Population"
            } ]
          },
          "count": 1
        }, {
          "id": "Denominator_1",
          "code": {
            "coding": [ {
              "system": "http://terminology.hl7.org/CodeSystem/measure-population",
              "code": "denominator",
              "display": "Denominator"
            } ]
          },
          "count": 1
        }, {
          "id": "Numerator_1",
          "code": {
            "coding": [ {
              "system": "http://terminology.hl7.org/CodeSystem/measure-population",
              "code": "numerator",
              "display": "Numerator"
            } ]
          },
          "count": 1
        } ],
        "measureScore": {
          "value": 0.0
        },
        "stratifier": [ {
          "id": "Stratification_1_1",
          "code": [ {
            "text": "Strata-1"
          } ],
          "stratum": [ {
            "value": {
              "text": "Strata-1"
            },
            "population": [ {
              "id": "InitialPopulation_1",
              "code": {
                "coding": [ {
                  "system": "http://terminology.hl7.org/CodeSystem/measure-population",
                  "code": "initial-population",
                  "display": "Initial Population"
                } ]
              },
              "count": 0
            }, {
              "id": "Denominator_1",
              "code": {
                "coding": [ {
                  "system": "http://terminology.hl7.org/CodeSystem/measure-population",
                  "code": "denominator",
                  "display": "Denominator"
                } ]
              },
              "count": 0
            }, {
              "id": "Numerator_1",
              "code": {
                "coding": [ {
                  "system": "http://terminology.hl7.org/CodeSystem/measure-population",
                  "code": "numerator",
                  "display": "Numerator"
                } ]
              },
              "count": 0
            } ]
          } ]
        }, {
          "id": "Stratification_1_2",
          "code": [ {
            "text": "Strata-2"
          } ],
          "stratum": [ {
            "value": {
              "text": "Strata-2"
            },
            "population": [ {
              "id": "InitialPopulation_1",
              "code": {
                "coding": [ {
                  "system": "http://terminology.hl7.org/CodeSystem/measure-population",
                  "code": "initial-population",
                  "display": "Initial Population"
                } ]
              },
              "count": 0
            }, {
              "id": "Denominator_1",
              "code": {
                "coding": [ {
                  "system": "http://terminology.hl7.org/CodeSystem/measure-population",
                  "code": "denominator",
                  "display": "Denominator"
                } ]
              },
              "count": 0
            }, {
              "id": "Numerator_1",
              "code": {
                "coding": [ {
                  "system": "http://terminology.hl7.org/CodeSystem/measure-population",
                  "code": "numerator",
                  "display": "Numerator"
                } ]
              },
              "count": 0
            } ]
          } ]
        }, {
          "id": "Stratification_1_3",
          "code": [ {
            "text": "Strata-3"
          } ],
          "stratum": [ {
            "value": {
              "text": "Strata-3"
            },
            "population": [ {
              "id": "InitialPopulation_1",
              "code": {
                "coding": [ {
                  "system": "http://terminology.hl7.org/CodeSystem/measure-population",
                  "code": "initial-population",
                  "display": "Initial Population"
                } ]
              },
              "count": 0
            }, {
              "id": "Denominator_1",
              "code": {
                "coding": [ {
                  "system": "http://terminology.hl7.org/CodeSystem/measure-population",
                  "code": "denominator",
                  "display": "Denominator"
                } ]
              },
              "count": 0
            }, {
              "id": "Numerator_1",
              "code": {
                "coding": [ {
                  "system": "http://terminology.hl7.org/CodeSystem/measure-population",
                  "code": "numerator",
                  "display": "Numerator"
                } ]
              },
              "count": 0
            } ]
          } ]
        }, {
          "id": "Stratification_1_4",
          "code": [ {
            "text": "Strata-4"
          } ],
          "stratum": [ {
            "value": {
              "text": "Strata-4"
            },
            "population": [ {
              "id": "InitialPopulation_1",
              "code": {
                "coding": [ {
                  "system": "http://terminology.hl7.org/CodeSystem/measure-population",
                  "code": "initial-population",
                  "display": "Initial Population"
                } ]
              },
              "count": 0
            }, {
              "id": "Denominator_1",
              "code": {
                "coding": [ {
                  "system": "http://terminology.hl7.org/CodeSystem/measure-population",
                  "code": "denominator",
                  "display": "Denominator"
                } ]
              },
              "count": 0
            }, {
              "id": "Numerator_1",
              "code": {
                "coding": [ {
                  "system": "http://terminology.hl7.org/CodeSystem/measure-population",
                  "code": "numerator",
                  "display": "Numerator"
                } ]
              },
              "count": 0
            } ]
          } ]
        } ]
      } ],
      "evaluatedResource": [ {
        "reference": "Patient/6fc94c60-6eae-44a4-b1f7-c4f3369b4e47"
      }, {
        "reference": "Encounter/478c4c48-e860-4493-8ebb-5a1abd8791ef"
      }, {
        "reference": "Encounter/2e2f7986-683b-45b8-ab0c-5e3186c348d3"
      }, {
        "reference": "Location/f0346597-2e11-45fe-bead-ae7d82dd270f"
      }, {
        "reference": "Location/b0327f04-f7fe-4099-94ef-fd5b167dfa67"
      }, {
        "reference": "Condition/406c0dbe-408f-4844-ab67-0f8c38d1596c"
      }, {
        "reference": "Location/c9721e6d-1b0a-43cc-b095-7d28d35fc35f"
      }, {
        "reference": "Location/608ec015-3913-4f22-8d13-0224ec3b4fbe"
      }, {
        "reference": "Claim/41d502cf-8611-474f-bee9-08b5276d63b8"
      }, {
        "reference": "Coverage/4e625317-c4b7-4bda-9680-9838637ea1fb"
      }, {
        "reference": "Organization/5ef89460-9343-4a5a-b163-867283221ae9"
      }, {
        "reference": "Practitioner/c05ffad3-d21e-4aa9-8fa6-d0b04627359a"
      } ]
    },
    "request": {
      "method": "PUT",
      "url": "MeasureReport/6904d935-3c8f-46ba-b41c-d4ec813e1b72"
    }
  } ]
}