{
  "resourceType": "Bundle",
  "id": "6109658e98086b538055b9db",
  "type": "collection",
  "entry": [ {
    "fullUrl": "https://madie.cms.gov/Patient/20d535da-db77-47c2-bc50-d36ed8a29270",
    "resource": {
      "resourceType": "Patient",
      "id": "20d535da-db77-47c2-bc50-d36ed8a29270",
      "meta": {
        "profile": [ "http://hl7.org/fhir/us/qicore/StructureDefinition/qicore-patient" ]
      },
      "extension": [ {
        "url": "http://hl7.org/fhir/us/core/StructureDefinition/us-core-race",
        "extension": [ {
          "url": "ombCategory",
          "valueCoding": {
            "system": "urn:oid:2.16.840.1.113883.6.238",
            "code": "2106-3",
            "display": "White",
            "userSelected": true
          }
        }, {
          "url": "text",
          "valueString": "White"
        } ]
      }, {
        "url": "http://hl7.org/fhir/us/core/StructureDefinition/us-core-ethnicity",
        "extension": [ {
          "url": "ombCategory",
          "valueCoding": {
            "system": "urn:oid:2.16.840.1.113883.6.238",
            "code": "2186-5",
            "display": "Not Hispanic or Latino",
            "userSelected": true
          }
        }, {
          "url": "text",
          "valueString": "Not Hispanic or Latino"
        } ]
      } ],
      "identifier": [ {
        "type": {
          "coding": [ {
            "system": "http://terminology.hl7.org/CodeSystem/v2-0203",
            "code": "MR"
          } ]
        },
        "system": "https://bonnie-fhir.healthit.gov/",
        "value": "6109658e98086b538055b9db"
      } ],
      "active": true,
      "name": [ {
        "use": "usual",
        "family": "IPPFail",
        "given": [ "PatientLT18atMPEdge" ]
      } ],
      "gender": "male",
      "birthDate": "2008-01-02"
    }
  }, {
    "fullUrl": "https://madie.cms.gov/Condition/2adba1c5-3b30-4fe4-9684-216283e6a973",
    "resource": {
      "resourceType": "Condition",
      "id": "2adba1c5-3b30-4fe4-9684-216283e6a973",
      "meta": {
        "profile": [ "http://hl7.org/fhir/us/qicore/StructureDefinition/qicore-condition-problems-health-concerns" ]
      },
      "clinicalStatus": {
        "coding": [ {
          "system": "http://terminology.hl7.org/CodeSystem/condition-clinical",
          "code": "active",
          "display": "active",
          "userSelected": true
        } ]
      },
      "category": [ {
        "coding": [ {
          "system": "http://terminology.hl7.org/CodeSystem/condition-category",
          "code": "problem-list-item",
          "display": "Problem List Item",
          "userSelected": true
        } ]
      } ],
      "code": {
        "coding": [ {
          "system": "http://hl7.org/fhir/sid/icd-10-cm",
          "code": "H40.10X0"
        } ]
      },
      "subject": {
        "reference": "Patient/20d535da-db77-47c2-bc50-d36ed8a29270"
      },
      "onsetDateTime": "2014-08-27T13:00:00.000+00:00"
    }
  }, {
    "fullUrl": "https://madie.cms.gov/Observation/a3f12d13-3754-4bba-ba06-bbf8db97d99e",
    "resource": {
      "resourceType": "Observation",
      "id": "a3f12d13-3754-4bba-ba06-bbf8db97d99e",
      "meta": {
        "profile": [ "http://hl7.org/fhir/us/qicore/StructureDefinition/qicore-observation-clinical-result" ]
      },
      "status": "final",
      "category": [ {
        "coding": [ {
          "system": "http://terminology.hl7.org/CodeSystem/observation-category",
          "code": "laboratory",
          "display": "Laboratory",
          "userSelected": true
        } ]
      }, {
        "coding": [ {
          "system": "http://terminology.hl7.org/CodeSystem/observation-category",
          "code": "survey"
        } ]
      } ],
      "code": {
        "coding": [ {
          "system": "http://loinc.org",
          "code": "71487-3"
        } ]
      },
      "subject": {
        "reference": "Patient/20d535da-db77-47c2-bc50-d36ed8a29270"
      },
      "effectivePeriod": {
        "start": "2026-08-27T13:00:00.000+00:00",
        "end": "2026-08-27T13:15:00.000+00:00"
      },
      "valueString": "Documented, progressive thinning of the neuroretinal rim with an associated increase in cupping of the optic disc"
    }
  }, {
    "fullUrl": "https://madie.cms.gov/Observation/a0958e1a-5024-43df-8eac-4135a22c8475",
    "resource": {
      "resourceType": "Observation",
      "id": "a0958e1a-5024-43df-8eac-4135a22c8475",
      "meta": {
        "profile": [ "http://hl7.org/fhir/us/qicore/StructureDefinition/qicore-observationcancelled" ]
      },
      "extension": [ {
        "url": "http://hl7.org/fhir/us/qicore/StructureDefinition/qicore-notDoneReason",
        "valueCodeableConcept": {
          "coding": [ {
            "system": "http://snomed.info/sct",
            "version": "http://snomed.info/sct/731000124108/version/202303",
            "code": "410536001",
            "display": "Contraindicated (qualifier value)"
          } ]
        }
      } ],
      "status": "cancelled",
      "category": [ {
        "coding": [ {
          "system": "http://snomed.info/sct",
          "version": "http://snomed.info/sct/731000124108/version/202303",
          "code": "428119001",
          "display": "Procedure not indicated (situation)",
          "userSelected": true
        } ]
      }, {
        "coding": [ {
          "system": "http://terminology.hl7.org/CodeSystem/observation-category",
          "code": "survey"
        } ]
      } ],
      "code": {
        "coding": [ {
          "system": "http://loinc.org",
          "version": "2.73",
          "code": "71487-3"
        } ]
      },
      "subject": {
        "reference": "Patient/20d535da-db77-47c2-bc50-d36ed8a29270"
      },
      "effectiveDateTime": "2026-08-27T13:00:00.000+00:00",
      "issued": "2026-08-27T13:00:00.000+00:00",
      "dataAbsentReason": {
        "coding": [ {
          "system": "http://terminology.hl7.org/CodeSystem/data-absent-reason",
          "code": "unknown",
          "display": "Unknown"
        } ]
      }
    }
  }, {
    "fullUrl": "https://madie.cms.gov/Encounter/5f930912-b4d4-41ad-9467-f01d60552c13",
    "resource": {
      "resourceType": "Encounter",
      "id": "5f930912-b4d4-41ad-9467-f01d60552c13",
      "meta": {
        "profile": [ "http://hl7.org/fhir/us/qicore/StructureDefinition/qicore-encounter" ]
      },
      "status": "finished",
      "class": {
        "system": "http://terminology.hl7.org/CodeSystem/v3-ActCode",
        "code": "AMB",
        "display": "ambulatory",
        "userSelected": true
      },
      "type": [ {
        "coding": [ {
          "system": "http://www.ama-assn.org/go/cpt",
          "code": "92002"
        } ]
      } ],
      "subject": {
        "reference": "Patient/20d535da-db77-47c2-bc50-d36ed8a29270"
      },
      "period": {
        "start": "2026-08-27T12:40:00.000+00:00",
        "end": "2026-08-27T13:40:00.000+00:00"
      },
      "length": {
        "value": 0.0,
        "unit": "days"
      }
    }
  }, {
    "fullUrl": "https://madie.cms.gov/MeasureReport/69cda87e-d840-4e66-ac6d-d7f0812c7c9a",
    "resource": {
      "resourceType": "MeasureReport",
      "id": "69cda87e-d840-4e66-ac6d-d7f0812c7c9a",
      "meta": {
        "profile": [ "http://hl7.org/fhir/us/cqfmeasures/StructureDefinition/test-case-cqfm" ]
      },
      "contained": [ {
        "resourceType": "Parameters",
        "id": "480234a2-8774-40cf-89d9-67113cbc8153-parameters",
        "parameter": [ {
          "name": "subject",
          "valueString": "20d535da-db77-47c2-bc50-d36ed8a29270"
        } ]
      } ],
      "extension": [ {
        "url": "http://hl7.org/fhir/StructureDefinition/cqf-inputParameters",
        "valueReference": {
          "reference": "#480234a2-8774-40cf-89d9-67113cbc8153-parameters"
        }
      }, {
        "url": "http://hl7.org/fhir/us/cqfmeasures/StructureDefinition/cqfm-testCaseDescription",
        "valueMarkdown": "Patient fails IPP/Denom due to age being 17 years 11 months and 30 days old  at start of MP"
      } ],
      "modifierExtension": [ {
        "url": "http://hl7.org/fhir/us/cqfmeasures/StructureDefinition/cqfm-isTestCase",
        "valueBoolean": true
      } ],
      "status": "complete",
      "type": "individual",
      "measure": "https://madie.cms.gov/Measure/CMS143FHIRPOAGOpticNerveEval",
      "period": {
        "start": "2026-01-01",
        "end": "2026-12-31"
      },
      "group": [ {
        "id": "Group_1",
        "population": [ {
          "id": "InitialPopulation_1",
          "code": {
            "coding": [ {
              "system": "http://terminology.hl7.org/CodeSystem/measure-population",
              "code": "initial-population",
              "display": "Initial Population"
            } ]
          },
          "count": 0
        }, {
          "id": "Denominator_1",
          "code": {
            "coding": [ {
              "system": "http://terminology.hl7.org/CodeSystem/measure-population",
              "code": "denominator",
              "display": "Denominator"
            } ]
          },
          "count": 0
        }, {
          "id": "Numerator_1",
          "code": {
            "coding": [ {
              "system": "http://terminology.hl7.org/CodeSystem/measure-population",
              "code": "numerator",
              "display": "Numerator"
            } ]
          },
          "count": 0
        }, {
          "id": "DenominatorException_1",
          "code": {
            "coding": [ {
              "system": "http://terminology.hl7.org/CodeSystem/measure-population",
              "code": "denominator-exception",
              "display": "Denominator Exception"
            } ]
          },
          "count": 0
        } ],
        "measureScore": {
          "value": 1.0
        }
      } ],
      "evaluatedResource": [ {
        "reference": "Patient/20d535da-db77-47c2-bc50-d36ed8a29270"
      }, {
        "reference": "Condition/2adba1c5-3b30-4fe4-9684-216283e6a973"
      }, {
        "reference": "Observation/a3f12d13-3754-4bba-ba06-bbf8db97d99e"
      }, {
        "reference": "Observation/a0958e1a-5024-43df-8eac-4135a22c8475"
      }, {
        "reference": "Encounter/5f930912-b4d4-41ad-9467-f01d60552c13"
      } ]
    }
  } ]
}