{
  "resourceType": "Bundle",
  "id": "641366f24b11b147841ab8a0",
  "type": "transaction",
  "entry": [ {
    "fullUrl": "https://madie.cms.gov/Patient/3f860c8e-e5fc-4843-ac4e-acb8e63471f3",
    "resource": {
      "resourceType": "Patient",
      "id": "3f860c8e-e5fc-4843-ac4e-acb8e63471f3",
      "meta": {
        "profile": [ "http://hl7.org/fhir/us/qicore/StructureDefinition/qicore-patient" ]
      },
      "extension": [ {
        "url": "http://hl7.org/fhir/us/core/StructureDefinition/us-core-race",
        "extension": [ {
          "url": "ombCategory",
          "valueCoding": {
            "system": "urn:oid:2.16.840.1.113883.6.238",
            "code": "2054-5",
            "display": "Black or African American",
            "userSelected": true
          }
        }, {
          "url": "text",
          "valueString": "Black or African American"
        } ]
      }, {
        "url": "http://hl7.org/fhir/us/core/StructureDefinition/us-core-ethnicity",
        "extension": [ {
          "url": "ombCategory",
          "valueCoding": {
            "system": "urn:oid:2.16.840.1.113883.6.238",
            "code": "2186-5",
            "display": "Not Hispanic or Latino",
            "userSelected": true
          }
        }, {
          "url": "text",
          "valueString": "Not Hispanic or Latino"
        } ]
      } ],
      "identifier": [ {
        "type": {
          "coding": [ {
            "system": "http://terminology.hl7.org/CodeSystem/v2-0203",
            "code": "MR"
          } ]
        },
        "system": "https://bonnie-fhir.healthit.gov/",
        "value": "641366f24b11b147841ab8a0"
      } ],
      "name": [ {
        "family": "DENEXPass",
        "given": [ "DischargeFacilityHosp" ]
      } ],
      "gender": "male",
      "birthDate": "1960-08-22"
    },
    "request": {
      "method": "PUT",
      "url": "Patient/3f860c8e-e5fc-4843-ac4e-acb8e63471f3"
    }
  }, {
    "fullUrl": "https://madie.cms.gov/Condition/a1af29ce-ae97-4699-9a1b-27d3ed467973",
    "resource": {
      "resourceType": "Condition",
      "id": "a1af29ce-ae97-4699-9a1b-27d3ed467973",
      "meta": {
        "profile": [ "http://hl7.org/fhir/us/qicore/StructureDefinition/qicore-condition-encounter-diagnosis" ]
      },
      "clinicalStatus": {
        "coding": [ {
          "system": "http://terminology.hl7.org/CodeSystem/condition-clinical",
          "code": "active",
          "display": "active",
          "userSelected": true
        } ]
      },
      "category": [ {
        "coding": [ {
          "system": "http://terminology.hl7.org/CodeSystem/condition-category",
          "code": "encounter-diagnosis",
          "display": "Encounter Diagnosis",
          "userSelected": true
        } ]
      } ],
      "code": {
        "coding": [ {
          "system": "http://snomed.info/sct",
          "version": "2021-09",
          "code": "102781000119107",
          "display": "Sensory neuropathy due to type 1 diabetes mellitus (disorder)",
          "userSelected": true
        } ]
      },
      "subject": {
        "reference": "Patient/3f860c8e-e5fc-4843-ac4e-acb8e63471f3"
      },
      "onsetDateTime": "2024-09-01T08:00:00.000+00:00"
    },
    "request": {
      "method": "PUT",
      "url": "Condition/a1af29ce-ae97-4699-9a1b-27d3ed467973"
    }
  }, {
    "fullUrl": "https://madie.cms.gov/Encounter/b437c065-03f3-45e5-981b-9444439de932",
    "resource": {
      "resourceType": "Encounter",
      "id": "b437c065-03f3-45e5-981b-9444439de932",
      "meta": {
        "profile": [ "http://hl7.org/fhir/us/qicore/StructureDefinition/qicore-encounter" ]
      },
      "status": "finished",
      "class": {
        "system": "http://terminology.hl7.org/CodeSystem/v3-ActCode",
        "code": "AMB",
        "display": "ambulatory",
        "userSelected": true
      },
      "type": [ {
        "coding": [ {
          "system": "http://snomed.info/sct",
          "version": "2021-09",
          "code": "183452005",
          "display": "Emergency hospital admission (procedure)",
          "userSelected": true
        } ]
      } ],
      "subject": {
        "reference": "Patient/3f860c8e-e5fc-4843-ac4e-acb8e63471f3"
      },
      "period": {
        "start": "2026-01-13T08:00:00.000+00:00",
        "end": "2026-01-13T08:15:00.000+00:00"
      },
      "hospitalization": {
        "dischargeDisposition": {
          "coding": [ {
            "system": "http://snomed.info/sct",
            "version": "2021-09",
            "code": "428371000124100",
            "display": "Discharge to healthcare facility for hospice care (procedure)",
            "userSelected": true
          } ]
        }
      }
    },
    "request": {
      "method": "PUT",
      "url": "Encounter/b437c065-03f3-45e5-981b-9444439de932"
    }
  }, {
    "fullUrl": "https://madie.cms.gov/Encounter/f99e56de-d96e-4b68-a94c-c22337aa3060",
    "resource": {
      "resourceType": "Encounter",
      "id": "f99e56de-d96e-4b68-a94c-c22337aa3060",
      "meta": {
        "profile": [ "http://hl7.org/fhir/us/qicore/StructureDefinition/qicore-encounter" ]
      },
      "status": "finished",
      "class": {
        "system": "http://terminology.hl7.org/CodeSystem/v3-ActCode",
        "code": "AMB",
        "display": "ambulatory",
        "userSelected": true
      },
      "type": [ {
        "coding": [ {
          "system": "http://snomed.info/sct",
          "version": "2021-09",
          "code": "444971000124105",
          "display": "Annual wellness visit (procedure)",
          "userSelected": true
        } ]
      } ],
      "subject": {
        "reference": "Patient/3f860c8e-e5fc-4843-ac4e-acb8e63471f3"
      },
      "period": {
        "start": "2026-03-06T08:00:00.000+00:00",
        "end": "2026-03-06T08:15:00.000+00:00"
      }
    },
    "request": {
      "method": "PUT",
      "url": "Encounter/f99e56de-d96e-4b68-a94c-c22337aa3060"
    }
  }, {
    "fullUrl": "https://madie.cms.gov/MeasureReport/45c6e0bf-693a-463c-a96f-90024ee92482",
    "resource": {
      "resourceType": "MeasureReport",
      "id": "45c6e0bf-693a-463c-a96f-90024ee92482",
      "meta": {
        "profile": [ "http://hl7.org/fhir/us/cqfmeasures/StructureDefinition/test-case-cqfm" ]
      },
      "contained": [ {
        "resourceType": "Parameters",
        "id": "691a8ba2-bd6b-481c-bc73-31800bf0b376-parameters",
        "parameter": [ {
          "name": "subject",
          "valueString": "3f860c8e-e5fc-4843-ac4e-acb8e63471f3"
        } ]
      } ],
      "extension": [ {
        "url": "http://hl7.org/fhir/StructureDefinition/cqf-inputParameters",
        "valueReference": {
          "reference": "#691a8ba2-bd6b-481c-bc73-31800bf0b376-parameters"
        }
      }, {
        "url": "http://hl7.org/fhir/us/cqfmeasures/StructureDefinition/cqfm-testCaseDescription",
        "valueMarkdown": "This patient is 65 years old with a qualifying encounter and active diabetes diagnosis, with a discharge to a healthcare facility for hospice care. This case tests the denominator exclusion criteria."
      } ],
      "modifierExtension": [ {
        "url": "http://hl7.org/fhir/us/cqfmeasures/StructureDefinition/cqfm-isTestCase",
        "valueBoolean": true
      } ],
      "status": "complete",
      "type": "individual",
      "measure": "https://madie.cms.gov/Measure/CMS951FHIRKidneyHealthEval",
      "period": {
        "start": "2026-01-01",
        "end": "2026-12-31"
      },
      "group": [ {
        "id": "Group_1",
        "population": [ {
          "id": "InitialPopulation_1",
          "code": {
            "coding": [ {
              "system": "http://terminology.hl7.org/CodeSystem/measure-population",
              "code": "initial-population",
              "display": "Initial Population"
            } ]
          },
          "count": 1
        }, {
          "id": "Denominator_1",
          "code": {
            "coding": [ {
              "system": "http://terminology.hl7.org/CodeSystem/measure-population",
              "code": "denominator",
              "display": "Denominator"
            } ]
          },
          "count": 1
        }, {
          "id": "DenominatorExclusion_1",
          "code": {
            "coding": [ {
              "system": "http://terminology.hl7.org/CodeSystem/measure-population",
              "code": "denominator-exclusion",
              "display": "Denominator Exclusion"
            } ]
          },
          "count": 1
        }, {
          "id": "Numerator_1",
          "code": {
            "coding": [ {
              "system": "http://terminology.hl7.org/CodeSystem/measure-population",
              "code": "numerator",
              "display": "Numerator"
            } ]
          },
          "count": 0
        } ],
        "measureScore": {
          "value": 1.0
        }
      } ],
      "evaluatedResource": [ {
        "reference": "Patient/3f860c8e-e5fc-4843-ac4e-acb8e63471f3"
      }, {
        "reference": "Condition/a1af29ce-ae97-4699-9a1b-27d3ed467973"
      }, {
        "reference": "Encounter/b437c065-03f3-45e5-981b-9444439de932"
      }, {
        "reference": "Encounter/f99e56de-d96e-4b68-a94c-c22337aa3060"
      } ]
    },
    "request": {
      "method": "PUT",
      "url": "MeasureReport/45c6e0bf-693a-463c-a96f-90024ee92482"
    }
  } ]
}