{
  "resourceType": "Bundle",
  "id": "64d1169b1252352a0771c3af",
  "type": "transaction",
  "entry": [ {
    "fullUrl": "https://madie.cms.gov/Patient/a4f7a37c-6c3e-499f-b474-56598165dee8",
    "resource": {
      "resourceType": "Patient",
      "id": "a4f7a37c-6c3e-499f-b474-56598165dee8",
      "meta": {
        "profile": [ "http://hl7.org/fhir/us/qicore/StructureDefinition/qicore-patient" ]
      },
      "extension": [ {
        "url": "http://hl7.org/fhir/us/core/StructureDefinition/us-core-race",
        "extension": [ {
          "url": "ombCategory",
          "valueCoding": {
            "system": "urn:oid:2.16.840.1.113883.6.238",
            "code": "1002-5",
            "display": "American Indian or Alaska Native",
            "userSelected": true
          }
        }, {
          "url": "text",
          "valueString": "American Indian or Alaska Native"
        } ]
      }, {
        "url": "http://hl7.org/fhir/us/core/StructureDefinition/us-core-ethnicity",
        "extension": [ {
          "url": "ombCategory",
          "valueCoding": {
            "system": "urn:oid:2.16.840.1.113883.6.238",
            "code": "2135-2",
            "display": "Hispanic or Latino",
            "userSelected": true
          }
        }, {
          "url": "text",
          "valueString": "Hispanic or Latino"
        } ]
      } ],
      "identifier": [ {
        "type": {
          "coding": [ {
            "system": "http://terminology.hl7.org/CodeSystem/v2-0203",
            "code": "MR"
          } ]
        },
        "system": "https://bonnie-fhir.healthit.gov/",
        "value": "64d1169b1252352a0771c3af"
      } ],
      "name": [ {
        "family": "DENOMPass",
        "given": [ "Age6Yr1Day onJan1Edge" ]
      } ],
      "gender": "male",
      "birthDate": "2020-12-31"
    },
    "request": {
      "method": "PUT",
      "url": "Patient/a4f7a37c-6c3e-499f-b474-56598165dee8"
    }
  }, {
    "fullUrl": "https://madie.cms.gov/Encounter/5468db87-a5ae-4e8b-82c7-3e4c00c6c519",
    "resource": {
      "resourceType": "Encounter",
      "id": "5468db87-a5ae-4e8b-82c7-3e4c00c6c519",
      "status": "finished",
      "class": {
        "system": "http://terminology.hl7.org/CodeSystem/v3-ActCode",
        "code": "AMB",
        "display": "ambulatory",
        "userSelected": true
      },
      "type": [ {
        "coding": [ {
          "system": "http://snomed.info/sct",
          "version": "2022-09",
          "code": "281036007",
          "display": "Follow-up consultation (procedure)",
          "userSelected": true
        } ]
      } ],
      "subject": {
        "reference": "Patient/a4f7a37c-6c3e-499f-b474-56598165dee8"
      },
      "period": {
        "start": "2027-02-17T08:00:00.000+00:00",
        "end": "2027-02-17T08:15:00.000+00:00"
      },
      "reasonCode": [ {
        "coding": [ {
          "system": "http://snomed.info/sct",
          "version": "2022-09",
          "code": "10811161000119107",
          "display": "Major depressive disorder in mother complicating pregnancy (disorder)",
          "userSelected": true
        } ]
      } ],
      "diagnosis": [ {
        "condition": {
          "reference": "Condition/7e886694-8ac2-459e-8300-c4843a1f6ba1"
        },
        "use": {
          "coding": [ {
            "system": "http://snomed.info/sct",
            "version": "2022-09",
            "code": "10811161000119107",
            "display": "Major depressive disorder in mother complicating pregnancy (disorder)",
            "userSelected": true
          } ]
        }
      } ]
    },
    "request": {
      "method": "PUT",
      "url": "Encounter/5468db87-a5ae-4e8b-82c7-3e4c00c6c519"
    }
  }, {
    "fullUrl": "https://madie.cms.gov/Condition/7e886694-8ac2-459e-8300-c4843a1f6ba1",
    "resource": {
      "resourceType": "Condition",
      "id": "7e886694-8ac2-459e-8300-c4843a1f6ba1",
      "category": [ {
        "coding": [ {
          "system": "http://terminology.hl7.org/CodeSystem/condition-category",
          "code": "encounter-diagnosis",
          "display": "encounter-diagnosis",
          "userSelected": true
        } ]
      } ],
      "code": {
        "coding": [ {
          "system": "http://snomed.info/sct",
          "version": "2022-09",
          "code": "10811121000119102",
          "display": "Major depressive disorder in mother complicating childbirth (disorder)",
          "userSelected": true
        } ]
      },
      "subject": {
        "reference": "Patient/a4f7a37c-6c3e-499f-b474-56598165dee8"
      },
      "recordedDate": "2027-02-17T08:00:00.000+00:00"
    },
    "request": {
      "method": "PUT",
      "url": "Condition/7e886694-8ac2-459e-8300-c4843a1f6ba1"
    }
  }, {
    "fullUrl": "https://madie.cms.gov/Coverage/597d9a10-9ea7-4108-a4db-c66cacdb83b5",
    "resource": {
      "resourceType": "Coverage",
      "id": "597d9a10-9ea7-4108-a4db-c66cacdb83b5",
      "status": "active",
      "type": {
        "coding": [ {
          "system": "http://www.nlm.nih.gov/research/umls/sop",
          "version": "9.2",
          "code": "1",
          "display": "MEDICARE",
          "userSelected": true
        } ]
      },
      "beneficiary": {
        "reference": "Patient/a4f7a37c-6c3e-499f-b474-56598165dee8"
      },
      "period": {
        "start": "2027-01-01T08:00:00.000+00:00",
        "end": "2027-03-29T08:15:00.000+00:00"
      },
      "payor": [ {
        "reference": "Organization/c16a1bd7-25f7-40cf-8094-fd016ca065d5"
      } ]
    },
    "request": {
      "method": "PUT",
      "url": "Coverage/597d9a10-9ea7-4108-a4db-c66cacdb83b5"
    }
  }, {
    "fullUrl": "https://madie.cms.gov/Organization/c16a1bd7-25f7-40cf-8094-fd016ca065d5",
    "resource": {
      "resourceType": "Organization",
      "id": "c16a1bd7-25f7-40cf-8094-fd016ca065d5",
      "meta": {
        "profile": [ "http://hl7.org/fhir/us/qicore/StructureDefinition/qicore-organization" ]
      },
      "identifier": [ {
        "use": "temp",
        "system": "urn:oid:2.16.840.1.113883.4.4",
        "value": "21-3259825"
      } ],
      "active": true,
      "type": [ {
        "coding": [ {
          "system": "http://terminology.hl7.org/CodeSystem/organization-type",
          "code": "pay",
          "display": "Payer"
        } ]
      } ],
      "name": "Blue Cross Blue Shield of Texas",
      "telecom": [ {
        "system": "phone",
        "value": "(+1) 972-766-6900"
      } ],
      "address": [ {
        "use": "billing",
        "type": "postal",
        "line": [ "P.O. Box 660044" ],
        "city": "Dallas",
        "state": "TX",
        "postalCode": "75266-0044",
        "country": "USA"
      } ]
    },
    "request": {
      "method": "PUT",
      "url": "Organization/c16a1bd7-25f7-40cf-8094-fd016ca065d5"
    }
  }, {
    "fullUrl": "https://madie.cms.gov/Practitioner/6d9379c8-bf1c-4275-8826-591e0835aeb7",
    "resource": {
      "resourceType": "Practitioner",
      "id": "6d9379c8-bf1c-4275-8826-591e0835aeb7",
      "identifier": [ {
        "system": "http://hl7.org/fhir/sid/us-npi",
        "value": "123456"
      } ],
      "name": [ {
        "family": "Evil",
        "prefix": [ "Dr" ]
      } ]
    },
    "request": {
      "method": "PUT",
      "url": "Practitioner/6d9379c8-bf1c-4275-8826-591e0835aeb7"
    }
  }, {
    "fullUrl": "https://madie.cms.gov/MeasureReport/f6970f1e-a5f8-449b-8dd3-7426cb961eaa",
    "resource": {
      "resourceType": "MeasureReport",
      "id": "f6970f1e-a5f8-449b-8dd3-7426cb961eaa",
      "meta": {
        "profile": [ "http://hl7.org/fhir/us/cqfmeasures/StructureDefinition/test-case-cqfm" ]
      },
      "contained": [ {
        "resourceType": "Parameters",
        "id": "2c08ea78-8862-4dcb-b5c2-60584395ceac-parameters",
        "parameter": [ {
          "name": "subject",
          "valueString": "a4f7a37c-6c3e-499f-b474-56598165dee8"
        } ]
      } ],
      "extension": [ {
        "url": "http://hl7.org/fhir/StructureDefinition/cqf-inputParameters",
        "valueReference": {
          "reference": "#2c08ea78-8862-4dcb-b5c2-60584395ceac-parameters"
        }
      }, {
        "url": "http://hl7.org/fhir/us/cqfmeasures/StructureDefinition/cqfm-testCaseDescription",
        "valueMarkdown": "Patient is 6 years and 1 day on Jan 1 at start of MP"
      } ],
      "modifierExtension": [ {
        "url": "http://hl7.org/fhir/us/cqfmeasures/StructureDefinition/cqfm-isTestCase",
        "valueBoolean": true
      } ],
      "status": "complete",
      "type": "individual",
      "measure": "https://madie.cms.gov/Measure/CMS177FHIRChildMDDSuicideAssmt",
      "period": {
        "start": "2026-01-01",
        "end": "2026-12-31"
      },
      "group": [ {
        "id": "Group_1",
        "population": [ {
          "id": "InitialPopulation_1",
          "code": {
            "coding": [ {
              "system": "http://terminology.hl7.org/CodeSystem/measure-population",
              "code": "initial-population",
              "display": "Initial Population"
            } ]
          },
          "count": 0
        }, {
          "id": "Denominator_1",
          "code": {
            "coding": [ {
              "system": "http://terminology.hl7.org/CodeSystem/measure-population",
              "code": "denominator",
              "display": "Denominator"
            } ]
          },
          "count": 0
        }, {
          "id": "Numerator_1",
          "code": {
            "coding": [ {
              "system": "http://terminology.hl7.org/CodeSystem/measure-population",
              "code": "numerator",
              "display": "Numerator"
            } ]
          },
          "count": 0
        } ],
        "measureScore": {
          "value": 0.0
        }
      } ],
      "evaluatedResource": [ {
        "reference": "Patient/a4f7a37c-6c3e-499f-b474-56598165dee8"
      }, {
        "reference": "Encounter/5468db87-a5ae-4e8b-82c7-3e4c00c6c519"
      }, {
        "reference": "Condition/7e886694-8ac2-459e-8300-c4843a1f6ba1"
      }, {
        "reference": "Coverage/597d9a10-9ea7-4108-a4db-c66cacdb83b5"
      }, {
        "reference": "Organization/c16a1bd7-25f7-40cf-8094-fd016ca065d5"
      }, {
        "reference": "Practitioner/6d9379c8-bf1c-4275-8826-591e0835aeb7"
      } ]
    },
    "request": {
      "method": "PUT",
      "url": "MeasureReport/f6970f1e-a5f8-449b-8dd3-7426cb961eaa"
    }
  } ]
}