{
  "resourceType": "Bundle",
  "id": "661476b015ed5841a5547ebf",
  "type": "transaction",
  "entry": [ {
    "fullUrl": "https://madie.cms.gov/Patient/bfc497aa-308c-4113-9a36-21c6e17c3802",
    "resource": {
      "resourceType": "Patient",
      "id": "bfc497aa-308c-4113-9a36-21c6e17c3802",
      "meta": {
        "profile": [ "http://hl7.org/fhir/us/qicore/StructureDefinition/qicore-patient" ]
      },
      "extension": [ {
        "url": "http://hl7.org/fhir/us/core/StructureDefinition/us-core-race",
        "extension": [ {
          "url": "ombCategory",
          "valueCoding": {
            "system": "urn:oid:2.16.840.1.113883.6.238",
            "code": "1002-5",
            "display": "American Indian or Alaska Native",
            "userSelected": true
          }
        }, {
          "url": "text",
          "valueString": "American Indian or Alaska Native"
        } ]
      }, {
        "url": "http://hl7.org/fhir/us/core/StructureDefinition/us-core-ethnicity",
        "extension": [ {
          "url": "ombCategory",
          "valueCoding": {
            "system": "urn:oid:2.16.840.1.113883.6.238",
            "code": "2135-2",
            "display": "Hispanic or Latino",
            "userSelected": true
          }
        }, {
          "url": "text",
          "valueString": "Hispanic or Latino"
        } ]
      }, {
        "url": "http://hl7.org/fhir/us/core/StructureDefinition/us-core-sex",
        "valueCode": "248153007"
      } ],
      "identifier": [ {
        "type": {
          "coding": [ {
            "system": "http://terminology.hl7.org/CodeSystem/v2-0203",
            "code": "MR"
          } ]
        },
        "system": "https://bonnie-fhir.healthit.gov/",
        "value": "661476b015ed5841a5547ebf"
      } ],
      "name": [ {
        "family": "NUMERStrat1Pass",
        "given": [ "MultipleEnc2Passes" ]
      } ],
      "gender": "male",
      "birthDate": "2011-01-01"
    },
    "request": {
      "method": "PUT",
      "url": "Patient/bfc497aa-308c-4113-9a36-21c6e17c3802"
    }
  }, {
    "fullUrl": "https://madie.cms.gov/Encounter/9065cc11-6ac9-4717-bf94-ab6dfe817e4e",
    "resource": {
      "resourceType": "Encounter",
      "id": "9065cc11-6ac9-4717-bf94-ab6dfe817e4e",
      "meta": {
        "profile": [ "http://hl7.org/fhir/us/qicore/StructureDefinition/qicore-encounter" ]
      },
      "status": "finished",
      "class": {
        "system": "http://terminology.hl7.org/CodeSystem/v3-ActCode",
        "code": "EMER",
        "display": "emergency department"
      },
      "type": [ {
        "coding": [ {
          "system": "http://snomed.info/sct",
          "version": "2023-09",
          "code": "4525004",
          "display": "Emergency department patient visit (procedure)",
          "userSelected": true
        } ]
      } ],
      "subject": {
        "reference": "Patient/bfc497aa-308c-4113-9a36-21c6e17c3802"
      },
      "period": {
        "start": "2027-05-01T06:00:00.000+00:00",
        "end": "2027-05-01T14:00:00.000+00:00"
      },
      "diagnosis": [ {
        "condition": {
          "reference": "Condition/21506993-a8a3-474d-ab2b-c442e116cd59"
        },
        "use": {
          "coding": [ {
            "system": "http://terminology.hl7.org/CodeSystem/diagnosis-role",
            "code": "billing"
          } ]
        },
        "rank": 1
      } ],
      "location": [ {
        "location": {
          "reference": "Location/8c7fe3ff-6692-4949-83c9-697d60c0be37"
        },
        "period": {
          "start": "2027-05-01T06:00:00.000+00:00",
          "end": "2027-05-01T14:00:00.000+00:00"
        }
      } ]
    },
    "request": {
      "method": "PUT",
      "url": "Encounter/9065cc11-6ac9-4717-bf94-ab6dfe817e4e"
    }
  }, {
    "fullUrl": "https://madie.cms.gov/Encounter/205a8132-e0f7-4d14-97db-ce044d01a64e",
    "resource": {
      "resourceType": "Encounter",
      "id": "205a8132-e0f7-4d14-97db-ce044d01a64e",
      "meta": {
        "profile": [ "http://hl7.org/fhir/us/qicore/StructureDefinition/qicore-encounter" ]
      },
      "status": "finished",
      "class": {
        "system": "http://terminology.hl7.org/CodeSystem/v3-ActCode",
        "code": "EMER",
        "display": "emergency department"
      },
      "type": [ {
        "coding": [ {
          "system": "http://snomed.info/sct",
          "version": "2023-09",
          "code": "4525004",
          "display": "Emergency department patient visit (procedure)",
          "userSelected": true
        } ]
      } ],
      "subject": {
        "reference": "Patient/bfc497aa-308c-4113-9a36-21c6e17c3802"
      },
      "period": {
        "start": "2027-04-01T06:00:00.000+00:00",
        "end": "2027-04-01T14:01:00.000+00:00"
      },
      "diagnosis": [ {
        "condition": {
          "reference": "Condition/21506993-a8a3-474d-ab2b-c442e116cd59"
        },
        "use": {
          "coding": [ {
            "system": "http://terminology.hl7.org/CodeSystem/diagnosis-role",
            "code": "billing"
          } ]
        },
        "rank": 1
      } ],
      "location": [ {
        "location": {
          "reference": "Location/8c7fe3ff-6692-4949-83c9-697d60c0be37"
        },
        "period": {
          "start": "2027-04-01T06:00:00.000+00:00",
          "end": "2027-04-01T14:01:00.000+00:00"
        }
      }, {
        "location": {
          "reference": "Location/7ce553f7-4b21-4433-90e4-2fe25a8fef3e"
        },
        "period": {
          "start": "2027-04-01T07:01:00.000+00:00",
          "end": "2027-04-01T14:01:00.000+00:00"
        }
      } ]
    },
    "request": {
      "method": "PUT",
      "url": "Encounter/205a8132-e0f7-4d14-97db-ce044d01a64e"
    }
  }, {
    "fullUrl": "https://madie.cms.gov/Condition/21506993-a8a3-474d-ab2b-c442e116cd59",
    "resource": {
      "resourceType": "Condition",
      "id": "21506993-a8a3-474d-ab2b-c442e116cd59",
      "meta": {
        "profile": [ "http://hl7.org/fhir/us/qicore/StructureDefinition/qicore-condition-encounter-diagnosis" ]
      },
      "category": [ {
        "coding": [ {
          "system": "http://terminology.hl7.org/CodeSystem/condition-category",
          "code": "encounter-diagnosis",
          "display": "Encounter Diagnosis"
        } ]
      } ],
      "code": {
        "coding": [ {
          "system": "http://snomed.info/sct",
          "version": "2023-09",
          "code": "10660471000119109",
          "display": "Ulcer of left foot due to type 2 diabetes mellitus (disorder)",
          "userSelected": true
        } ]
      },
      "subject": {
        "reference": "Patient/bfc497aa-308c-4113-9a36-21c6e17c3802"
      },
      "recordedDate": "2027-05-01T08:00:00.000+00:00"
    },
    "request": {
      "method": "PUT",
      "url": "Condition/21506993-a8a3-474d-ab2b-c442e116cd59"
    }
  }, {
    "fullUrl": "https://madie.cms.gov/Location/7ce553f7-4b21-4433-90e4-2fe25a8fef3e",
    "resource": {
      "resourceType": "Location",
      "id": "7ce553f7-4b21-4433-90e4-2fe25a8fef3e",
      "meta": {
        "profile": [ "http://hl7.org/fhir/us/qicore/StructureDefinition/qicore-location" ]
      },
      "identifier": [ {
        "use": "usual",
        "system": "http://exampleoflocation.com",
        "value": "B1-S.F2"
      } ],
      "name": "Emergency Department",
      "type": [ {
        "coding": [ {
          "system": "https://www.cdc.gov/nhsn/cdaportal/terminology/codesystem/hsloc.html",
          "version": "2022",
          "code": "1209-6",
          "display": "Treatment Room",
          "userSelected": true
        } ]
      } ]
    },
    "request": {
      "method": "PUT",
      "url": "Location/7ce553f7-4b21-4433-90e4-2fe25a8fef3e"
    }
  }, {
    "fullUrl": "https://madie.cms.gov/Location/8c7fe3ff-6692-4949-83c9-697d60c0be37",
    "resource": {
      "resourceType": "Location",
      "id": "8c7fe3ff-6692-4949-83c9-697d60c0be37",
      "meta": {
        "profile": [ "http://hl7.org/fhir/us/qicore/StructureDefinition/qicore-location" ]
      },
      "identifier": [ {
        "use": "usual",
        "system": "http://exampleoflocation.com",
        "value": "B1-S.F2"
      } ],
      "name": "Medical Surgical East, first floor",
      "type": [ {
        "coding": [ {
          "system": "https://www.cdc.gov/nhsn/cdaportal/terminology/codesystem/hsloc.html",
          "version": "2022",
          "code": "1108-0",
          "display": "Emergency Department",
          "userSelected": true
        } ]
      } ]
    },
    "request": {
      "method": "PUT",
      "url": "Location/8c7fe3ff-6692-4949-83c9-697d60c0be37"
    }
  }, {
    "fullUrl": "https://madie.cms.gov/Claim/dacefdf0-94cc-49d1-a8c3-76d3b40bad3f",
    "resource": {
      "resourceType": "Claim",
      "id": "dacefdf0-94cc-49d1-a8c3-76d3b40bad3f",
      "meta": {
        "profile": [ "http://hl7.org/fhir/us/qicore/StructureDefinition/qicore-claim" ]
      },
      "status": "active",
      "type": {
        "coding": [ {
          "system": "http://terminology.hl7.org/CodeSystem/claim-type",
          "code": "institutional"
        } ]
      },
      "use": "claim",
      "patient": {
        "reference": "Patient/bfc497aa-308c-4113-9a36-21c6e17c3802"
      },
      "created": "2027-05-01",
      "provider": {
        "reference": "Practitioner/practitioner-123456"
      },
      "priority": {
        "coding": [ {
          "system": "http://terminology.hl7.org/CodeSystem/processpriority",
          "code": "normal"
        } ]
      },
      "diagnosis": [ {
        "sequence": 1,
        "diagnosisReference": {
          "reference": "Condition/21506993-a8a3-474d-ab2b-c442e116cd59"
        },
        "type": [ {
          "coding": [ {
            "system": "http://terminology.hl7.org/CodeSystem/ex-diagnosistype",
            "code": "principal"
          } ]
        } ]
      } ],
      "insurance": [ {
        "sequence": 1,
        "focal": true,
        "coverage": {
          "reference": "Coverage/1"
        }
      } ],
      "item": [ {
        "sequence": 1,
        "diagnosisSequence": [ 1 ],
        "productOrService": {
          "coding": [ {
            "system": "http://terminology.hl7.org/CodeSystem/ex-USCLS",
            "code": "99555"
          } ]
        },
        "encounter": [ {
          "reference": "Encounter/9065cc11-6ac9-4717-bf94-ab6dfe817e4e"
        } ]
      } ]
    },
    "request": {
      "method": "PUT",
      "url": "Claim/dacefdf0-94cc-49d1-a8c3-76d3b40bad3f"
    }
  }, {
    "fullUrl": "https://madie.cms.gov/Claim/dacefdf0-94cc-49d1-a8c3-76d3b40bad3f2",
    "resource": {
      "resourceType": "Claim",
      "id": "dacefdf0-94cc-49d1-a8c3-76d3b40bad3f2",
      "meta": {
        "profile": [ "http://hl7.org/fhir/us/qicore/StructureDefinition/qicore-claim" ]
      },
      "status": "active",
      "type": {
        "coding": [ {
          "system": "http://terminology.hl7.org/CodeSystem/claim-type",
          "code": "institutional"
        } ]
      },
      "use": "claim",
      "patient": {
        "reference": "Patient/bfc497aa-308c-4113-9a36-21c6e17c3802"
      },
      "created": "2027-05-01",
      "provider": {
        "reference": "Practitioner/practitioner-123456"
      },
      "priority": {
        "coding": [ {
          "system": "http://terminology.hl7.org/CodeSystem/processpriority",
          "code": "normal"
        } ]
      },
      "diagnosis": [ {
        "sequence": 1,
        "diagnosisReference": {
          "reference": "Condition/21506993-a8a3-474d-ab2b-c442e116cd59"
        },
        "type": [ {
          "coding": [ {
            "system": "http://terminology.hl7.org/CodeSystem/ex-diagnosistype",
            "code": "principal"
          } ]
        } ]
      } ],
      "insurance": [ {
        "sequence": 1,
        "focal": true,
        "coverage": {
          "reference": "Coverage/1"
        }
      } ],
      "item": [ {
        "sequence": 1,
        "diagnosisSequence": [ 1 ],
        "productOrService": {
          "coding": [ {
            "system": "http://terminology.hl7.org/CodeSystem/ex-USCLS",
            "code": "99555"
          } ]
        },
        "encounter": [ {
          "reference": "Encounter/205a8132-e0f7-4d14-97db-ce044d01a64e"
        } ]
      } ]
    },
    "request": {
      "method": "PUT",
      "url": "Claim/dacefdf0-94cc-49d1-a8c3-76d3b40bad3f2"
    }
  }, {
    "fullUrl": "https://madie.cms.gov/ServiceRequest/7eb5f3fc-6847-42c0-9b21-7b3c62ebbf17",
    "resource": {
      "resourceType": "ServiceRequest",
      "id": "7eb5f3fc-6847-42c0-9b21-7b3c62ebbf17",
      "meta": {
        "profile": [ "http://hl7.org/fhir/us/qicore/StructureDefinition/qicore-servicerequest" ]
      },
      "status": "completed",
      "intent": "order",
      "code": {
        "coding": [ {
          "system": "http://snomed.info/sct",
          "code": "19712007",
          "display": "Patient transfer, to another health care facility (procedure)",
          "userSelected": true
        } ]
      },
      "subject": {
        "reference": "Patient/bfc497aa-308c-4113-9a36-21c6e17c3802"
      },
      "authoredOn": "2027-05-01T09:59:00.000+00:00"
    },
    "request": {
      "method": "PUT",
      "url": "ServiceRequest/7eb5f3fc-6847-42c0-9b21-7b3c62ebbf17"
    }
  }, {
    "fullUrl": "https://madie.cms.gov/Coverage/da16fa1f-2aeb-4040-8c15-05167454d7ec",
    "resource": {
      "resourceType": "Coverage",
      "id": "da16fa1f-2aeb-4040-8c15-05167454d7ec",
      "meta": {
        "profile": [ "http://hl7.org/fhir/us/qicore/StructureDefinition/qicore-coverage" ]
      },
      "identifier": [ {
        "type": {
          "coding": [ {
            "system": "http://terminology.hl7.org/CodeSystem/v2-0203",
            "code": "MB"
          } ]
        }
      } ],
      "status": "active",
      "beneficiary": {
        "reference": "Patient/bfc497aa-308c-4113-9a36-21c6e17c3802"
      },
      "relationship": {
        "coding": [ {
          "system": "http://terminology.hl7.org/CodeSystem/subscriber-relationship",
          "code": "self"
        } ]
      },
      "payor": [ {
        "reference": "Organization/1e7e8891-887e-4258-8784-ebb6b9997992"
      } ]
    },
    "request": {
      "method": "PUT",
      "url": "Coverage/da16fa1f-2aeb-4040-8c15-05167454d7ec"
    }
  }, {
    "fullUrl": "https://madie.cms.gov/Organization/1e7e8891-887e-4258-8784-ebb6b9997992",
    "resource": {
      "resourceType": "Organization",
      "id": "1e7e8891-887e-4258-8784-ebb6b9997992",
      "meta": {
        "profile": [ "http://hl7.org/fhir/us/qicore/StructureDefinition/qicore-organization" ]
      },
      "identifier": [ {
        "use": "temp",
        "system": "urn:oid:2.16.840.1.113883.4.4",
        "value": "21-3259825"
      } ],
      "active": true,
      "type": [ {
        "coding": [ {
          "system": "http://terminology.hl7.org/CodeSystem/organization-type",
          "code": "pay",
          "display": "Payer"
        } ]
      } ],
      "name": "Blue Cross Blue Shield of Texas",
      "telecom": [ {
        "system": "phone",
        "value": "(+1) 972-766-6900"
      } ],
      "address": [ {
        "use": "billing",
        "type": "postal",
        "line": [ "P.O. Box 660044" ],
        "city": "Dallas",
        "state": "TX",
        "postalCode": "75266-0044",
        "country": "USA"
      } ]
    },
    "request": {
      "method": "PUT",
      "url": "Organization/1e7e8891-887e-4258-8784-ebb6b9997992"
    }
  }, {
    "fullUrl": "https://madie.cms.gov/Practitioner/246c4ac9-ede6-4dbb-86ac-0d4a1e76856f",
    "resource": {
      "resourceType": "Practitioner",
      "id": "246c4ac9-ede6-4dbb-86ac-0d4a1e76856f",
      "meta": {
        "profile": [ "http://hl7.org/fhir/us/qicore/StructureDefinition/qicore-practitioner" ]
      },
      "identifier": [ {
        "system": "http://hl7.org/fhir/sid/us-npi",
        "value": "9999999896"
      } ],
      "name": [ {
        "family": "Evil",
        "prefix": [ "Dr" ]
      } ]
    },
    "request": {
      "method": "PUT",
      "url": "Practitioner/246c4ac9-ede6-4dbb-86ac-0d4a1e76856f"
    }
  }, {
    "fullUrl": "https://madie.cms.gov/MeasureReport/144788e3-0a90-4dfe-b90e-1fb369101f36",
    "resource": {
      "resourceType": "MeasureReport",
      "id": "144788e3-0a90-4dfe-b90e-1fb369101f36",
      "meta": {
        "profile": [ "http://hl7.org/fhir/us/cqfmeasures/StructureDefinition/test-case-cqfm" ]
      },
      "contained": [ {
        "resourceType": "Parameters",
        "id": "1ff102c0-73a0-4f7a-a993-9186bd972bbe-parameters",
        "parameter": [ {
          "name": "subject",
          "valueString": "bfc497aa-308c-4113-9a36-21c6e17c3802"
        } ]
      } ],
      "extension": [ {
        "url": "http://hl7.org/fhir/StructureDefinition/cqf-inputParameters",
        "valueReference": {
          "reference": "#1ff102c0-73a0-4f7a-a993-9186bd972bbe-parameters"
        }
      }, {
        "url": "http://hl7.org/fhir/us/cqfmeasures/StructureDefinition/cqfm-testCaseDescription",
        "valueMarkdown": "May encounter 240 mins, April encounter 481 mins LOS with time to treatment room gt than 61 mins passes num. Although April encounter triggers the numerator twice, it still counts only once for each encounter. Child, no mental health diagnosis."
      } ],
      "modifierExtension": [ {
        "url": "http://hl7.org/fhir/us/cqfmeasures/StructureDefinition/cqfm-isTestCase",
        "valueBoolean": true
      } ],
      "status": "complete",
      "type": "individual",
      "measure": "https://madie.cms.gov/Measure/CMS1264FHIRECATREHQR",
      "period": {
        "start": "2027-01-01",
        "end": "2027-12-31"
      },
      "group": [ {
        "id": "Group_1",
        "population": [ {
          "id": "InitialPopulation_1",
          "code": {
            "coding": [ {
              "system": "http://terminology.hl7.org/CodeSystem/measure-population",
              "code": "initial-population",
              "display": "Initial Population"
            } ]
          },
          "count": 2
        }, {
          "id": "Denominator_1",
          "code": {
            "coding": [ {
              "system": "http://terminology.hl7.org/CodeSystem/measure-population",
              "code": "denominator",
              "display": "Denominator"
            } ]
          },
          "count": 2
        }, {
          "id": "Numerator_1",
          "code": {
            "coding": [ {
              "system": "http://terminology.hl7.org/CodeSystem/measure-population",
              "code": "numerator",
              "display": "Numerator"
            } ]
          },
          "count": 2
        } ],
        "measureScore": {
          "value": 0.0
        },
        "stratifier": [ {
          "id": "Stratification_1_1",
          "code": [ {
            "text": "Strata-1"
          } ],
          "stratum": [ {
            "value": {
              "text": "Strata-1"
            },
            "population": [ {
              "id": "InitialPopulation_1",
              "code": {
                "coding": [ {
                  "system": "http://terminology.hl7.org/CodeSystem/measure-population",
                  "code": "initial-population",
                  "display": "Initial Population"
                } ]
              },
              "count": 2
            }, {
              "id": "Denominator_1",
              "code": {
                "coding": [ {
                  "system": "http://terminology.hl7.org/CodeSystem/measure-population",
                  "code": "denominator",
                  "display": "Denominator"
                } ]
              },
              "count": 2
            }, {
              "id": "Numerator_1",
              "code": {
                "coding": [ {
                  "system": "http://terminology.hl7.org/CodeSystem/measure-population",
                  "code": "numerator",
                  "display": "Numerator"
                } ]
              },
              "count": 2
            } ]
          } ]
        }, {
          "id": "Stratification_1_2",
          "code": [ {
            "text": "Strata-2"
          } ],
          "stratum": [ {
            "value": {
              "text": "Strata-2"
            },
            "population": [ {
              "id": "InitialPopulation_1",
              "code": {
                "coding": [ {
                  "system": "http://terminology.hl7.org/CodeSystem/measure-population",
                  "code": "initial-population",
                  "display": "Initial Population"
                } ]
              },
              "count": 0
            }, {
              "id": "Denominator_1",
              "code": {
                "coding": [ {
                  "system": "http://terminology.hl7.org/CodeSystem/measure-population",
                  "code": "denominator",
                  "display": "Denominator"
                } ]
              },
              "count": 0
            }, {
              "id": "Numerator_1",
              "code": {
                "coding": [ {
                  "system": "http://terminology.hl7.org/CodeSystem/measure-population",
                  "code": "numerator",
                  "display": "Numerator"
                } ]
              },
              "count": 0
            } ]
          } ]
        }, {
          "id": "Stratification_1_3",
          "code": [ {
            "text": "Strata-3"
          } ],
          "stratum": [ {
            "value": {
              "text": "Strata-3"
            },
            "population": [ {
              "id": "InitialPopulation_1",
              "code": {
                "coding": [ {
                  "system": "http://terminology.hl7.org/CodeSystem/measure-population",
                  "code": "initial-population",
                  "display": "Initial Population"
                } ]
              },
              "count": 0
            }, {
              "id": "Denominator_1",
              "code": {
                "coding": [ {
                  "system": "http://terminology.hl7.org/CodeSystem/measure-population",
                  "code": "denominator",
                  "display": "Denominator"
                } ]
              },
              "count": 0
            }, {
              "id": "Numerator_1",
              "code": {
                "coding": [ {
                  "system": "http://terminology.hl7.org/CodeSystem/measure-population",
                  "code": "numerator",
                  "display": "Numerator"
                } ]
              },
              "count": 0
            } ]
          } ]
        }, {
          "id": "Stratification_1_4",
          "code": [ {
            "text": "Strata-4"
          } ],
          "stratum": [ {
            "value": {
              "text": "Strata-4"
            },
            "population": [ {
              "id": "InitialPopulation_1",
              "code": {
                "coding": [ {
                  "system": "http://terminology.hl7.org/CodeSystem/measure-population",
                  "code": "initial-population",
                  "display": "Initial Population"
                } ]
              },
              "count": 0
            }, {
              "id": "Denominator_1",
              "code": {
                "coding": [ {
                  "system": "http://terminology.hl7.org/CodeSystem/measure-population",
                  "code": "denominator",
                  "display": "Denominator"
                } ]
              },
              "count": 0
            }, {
              "id": "Numerator_1",
              "code": {
                "coding": [ {
                  "system": "http://terminology.hl7.org/CodeSystem/measure-population",
                  "code": "numerator",
                  "display": "Numerator"
                } ]
              },
              "count": 0
            } ]
          } ]
        } ]
      } ],
      "evaluatedResource": [ {
        "reference": "Patient/bfc497aa-308c-4113-9a36-21c6e17c3802"
      }, {
        "reference": "Encounter/9065cc11-6ac9-4717-bf94-ab6dfe817e4e"
      }, {
        "reference": "Encounter/205a8132-e0f7-4d14-97db-ce044d01a64e"
      }, {
        "reference": "Condition/21506993-a8a3-474d-ab2b-c442e116cd59"
      }, {
        "reference": "Location/7ce553f7-4b21-4433-90e4-2fe25a8fef3e"
      }, {
        "reference": "Location/8c7fe3ff-6692-4949-83c9-697d60c0be37"
      }, {
        "reference": "Claim/dacefdf0-94cc-49d1-a8c3-76d3b40bad3f"
      }, {
        "reference": "Claim/dacefdf0-94cc-49d1-a8c3-76d3b40bad3f2"
      }, {
        "reference": "ServiceRequest/7eb5f3fc-6847-42c0-9b21-7b3c62ebbf17"
      }, {
        "reference": "Coverage/da16fa1f-2aeb-4040-8c15-05167454d7ec"
      }, {
        "reference": "Organization/1e7e8891-887e-4258-8784-ebb6b9997992"
      }, {
        "reference": "Practitioner/246c4ac9-ede6-4dbb-86ac-0d4a1e76856f"
      } ]
    },
    "request": {
      "method": "PUT",
      "url": "MeasureReport/144788e3-0a90-4dfe-b90e-1fb369101f36"
    }
  } ]
}