{
  "resourceType": "Bundle",
  "id": "62fd4b650968f8012246af5b",
  "type": "collection",
  "entry": [ {
    "fullUrl": "https://madie.cms.gov/Patient/03556842-5a83-41e6-8f43-5801d151336b",
    "resource": {
      "resourceType": "Patient",
      "id": "03556842-5a83-41e6-8f43-5801d151336b",
      "meta": {
        "profile": [ "http://hl7.org/fhir/us/qicore/StructureDefinition/qicore-patient" ]
      },
      "extension": [ {
        "url": "http://hl7.org/fhir/us/core/StructureDefinition/us-core-race",
        "extension": [ {
          "url": "ombCategory",
          "valueCoding": {
            "system": "urn:oid:2.16.840.1.113883.6.238",
            "code": "1002-5",
            "display": "American Indian or Alaska Native",
            "userSelected": true
          }
        }, {
          "url": "text",
          "valueString": "American Indian or Alaska Native"
        } ]
      }, {
        "url": "http://hl7.org/fhir/us/core/StructureDefinition/us-core-ethnicity",
        "extension": [ {
          "url": "ombCategory",
          "valueCoding": {
            "system": "urn:oid:2.16.840.1.113883.6.238",
            "code": "2135-2",
            "display": "Hispanic or Latino",
            "userSelected": true
          }
        }, {
          "url": "text",
          "valueString": "Hispanic or Latino"
        } ]
      } ],
      "identifier": [ {
        "type": {
          "coding": [ {
            "system": "http://terminology.hl7.org/CodeSystem/v2-0203",
            "code": "MR"
          } ]
        },
        "system": "https://bonnie-fhir.healthit.gov/",
        "value": "62fd4b650968f8012246af5b"
      } ],
      "name": [ {
        "family": "NUMERFail",
        "given": [ "ConsRptAfterMP" ]
      } ],
      "gender": "female",
      "birthDate": "1990-12-31"
    }
  }, {
    "fullUrl": "https://madie.cms.gov/Encounter/48190469-bb2f-4c2f-a00b-e849f9b213ba",
    "resource": {
      "resourceType": "Encounter",
      "id": "48190469-bb2f-4c2f-a00b-e849f9b213ba",
      "meta": {
        "profile": [ "http://hl7.org/fhir/us/qicore/StructureDefinition/qicore-encounter" ]
      },
      "status": "finished",
      "class": {
        "system": "http://terminology.hl7.org/CodeSystem/v3-ActCode",
        "code": "AMB",
        "display": "ambulatory"
      },
      "type": [ {
        "coding": [ {
          "system": "http://www.ama-assn.org/go/cpt",
          "version": "2021",
          "code": "99395",
          "display": "Periodic comprehensive preventive medicine reevaluation and management of an individual including an age and gender appropriate history, examination, counseling/anticipatory guidance/risk factor reduction interventions, and the ordering of laboratory/diagnostic procedures, established patient; 18-39 years",
          "userSelected": true
        } ]
      } ],
      "subject": {
        "reference": "Patient/03556842-5a83-41e6-8f43-5801d151336b"
      },
      "period": {
        "start": "2026-01-01T00:00:00.000+00:00",
        "end": "2026-01-01T00:01:00.000+00:00"
      }
    }
  }, {
    "fullUrl": "https://madie.cms.gov/Task/6f2b384b-20dd-4ad3-916e-06c0ea57a807",
    "resource": {
      "resourceType": "Task",
      "id": "6f2b384b-20dd-4ad3-916e-06c0ea57a807",
      "meta": {
        "profile": [ "http://hl7.org/fhir/us/qicore/StructureDefinition/qicore-task" ]
      },
      "identifier": [ {
        "use": "official",
        "system": "http:/goodhealth.org/identifiers",
        "value": "20170201-002"
      } ],
      "basedOn": [ {
        "reference": "ServiceRequest/d3d1cbd7-dda4-451f-a7ed-8218fb12648e"
      } ],
      "status": "completed",
      "intent": "order",
      "priority": "routine",
      "code": {
        "coding": [ {
          "system": "http://loinc.org",
          "version": "2.72",
          "code": "11488-4",
          "display": "Consult note",
          "userSelected": true
        } ]
      },
      "for": {
        "reference": "Patient/03556842-5a83-41e6-8f43-5801d151336b"
      },
      "executionPeriod": {
        "start": "2027-01-01T00:00:00.000+00:00",
        "end": "2027-01-01T00:15:00.000+00:00"
      }
    }
  }, {
    "fullUrl": "https://madie.cms.gov/ServiceRequest/d3d1cbd7-dda4-451f-a7ed-8218fb12648e",
    "resource": {
      "resourceType": "ServiceRequest",
      "id": "d3d1cbd7-dda4-451f-a7ed-8218fb12648e",
      "meta": {
        "profile": [ "http://hl7.org/fhir/us/qicore/StructureDefinition/qicore-servicerequest" ]
      },
      "status": "active",
      "intent": "order",
      "code": {
        "coding": [ {
          "system": "http://snomed.info/sct",
          "version": "http://snomed.info/sct/731000124108/version/20250301",
          "code": "103696004",
          "display": "Patient referral to specialist (procedure)",
          "userSelected": true
        } ]
      },
      "subject": {
        "reference": "Patient/03556842-5a83-41e6-8f43-5801d151336b"
      },
      "authoredOn": "2026-05-31T08:00:00.000+00:00"
    }
  }, {
    "fullUrl": "https://madie.cms.gov/Coverage/97144417-892c-4479-aa39-75f11a98612d",
    "resource": {
      "resourceType": "Coverage",
      "id": "97144417-892c-4479-aa39-75f11a98612d",
      "meta": {
        "profile": [ "http://hl7.org/fhir/us/qicore/StructureDefinition/qicore-coverage" ]
      },
      "status": "active",
      "subscriberId": "123456",
      "beneficiary": {
        "reference": "Patient/03556842-5a83-41e6-8f43-5801d151336b"
      },
      "relationship": {
        "coding": [ {
          "system": "http://terminology.hl7.org/CodeSystem/subscriber-relationship",
          "code": "self",
          "display": "Self"
        } ]
      },
      "payor": [ {
        "reference": "Organization/6c530299-b95f-44a6-855a-00d6aa492375"
      } ]
    }
  }, {
    "fullUrl": "https://madie.cms.gov/Organization/6c530299-b95f-44a6-855a-00d6aa492375",
    "resource": {
      "resourceType": "Organization",
      "id": "6c530299-b95f-44a6-855a-00d6aa492375",
      "meta": {
        "profile": [ "http://hl7.org/fhir/us/qicore/StructureDefinition/qicore-organization" ]
      },
      "identifier": [ {
        "use": "temp",
        "system": "urn:oid:2.16.840.1.113883.4.4",
        "value": "21-3259825"
      } ],
      "active": true,
      "type": [ {
        "coding": [ {
          "system": "http://terminology.hl7.org/CodeSystem/organization-type",
          "code": "pay",
          "display": "Payer"
        } ]
      } ],
      "name": "Blue Cross Blue Shield of Texas",
      "telecom": [ {
        "system": "phone",
        "value": "(+1) 972-766-6900"
      } ],
      "address": [ {
        "use": "billing",
        "type": "postal",
        "line": [ "P.O. Box 660044" ],
        "city": "Dallas",
        "state": "TX",
        "postalCode": "75266-0044",
        "country": "USA"
      } ]
    }
  }, {
    "fullUrl": "https://madie.cms.gov/Practitioner/269258bd-b7bb-40c0-a6e9-57b7bbab7630",
    "resource": {
      "resourceType": "Practitioner",
      "id": "269258bd-b7bb-40c0-a6e9-57b7bbab7630",
      "meta": {
        "profile": [ "http://hl7.org/fhir/us/qicore/StructureDefinition/qicore-practitioner" ]
      },
      "identifier": [ {
        "system": "http://hl7.org/fhir/sid/us-npi",
        "value": "1689411712"
      } ],
      "name": [ {
        "family": "Evil",
        "prefix": [ "Dr" ]
      } ]
    }
  }, {
    "fullUrl": "https://madie.cms.gov/MeasureReport/8ba70197-2632-4c4d-8b31-9ea3146e257a",
    "resource": {
      "resourceType": "MeasureReport",
      "id": "8ba70197-2632-4c4d-8b31-9ea3146e257a",
      "meta": {
        "profile": [ "http://hl7.org/fhir/us/cqfmeasures/StructureDefinition/test-case-cqfm" ]
      },
      "contained": [ {
        "resourceType": "Parameters",
        "id": "45d77dc1-26fc-434c-a966-8128f3a707f3-parameters",
        "parameter": [ {
          "name": "subject",
          "valueString": "03556842-5a83-41e6-8f43-5801d151336b"
        } ]
      } ],
      "extension": [ {
        "url": "http://hl7.org/fhir/StructureDefinition/cqf-inputParameters",
        "valueReference": {
          "reference": "#45d77dc1-26fc-434c-a966-8128f3a707f3-parameters"
        }
      }, {
        "url": "http://hl7.org/fhir/us/cqfmeasures/StructureDefinition/cqfm-testCaseDescription",
        "valueMarkdown": "Encounter during MP. status finished. Referral Status Active Intent Order during Referral period.  Consult report obtained after referral date. status received.  Consultant report received after MP. "
      } ],
      "modifierExtension": [ {
        "url": "http://hl7.org/fhir/us/cqfmeasures/StructureDefinition/cqfm-isTestCase",
        "valueBoolean": true
      } ],
      "status": "complete",
      "type": "individual",
      "measure": "https://madie.cms.gov/Measure/CMS50FHIRReceiptofSpecialistReport",
      "period": {
        "start": "2026-01-01",
        "end": "2026-12-31"
      },
      "group": [ {
        "id": "Group_1",
        "population": [ {
          "id": "InitialPopulation_1",
          "code": {
            "coding": [ {
              "system": "http://terminology.hl7.org/CodeSystem/measure-population",
              "code": "initial-population",
              "display": "Initial Population"
            } ]
          },
          "count": 1
        }, {
          "id": "Denominator_1",
          "code": {
            "coding": [ {
              "system": "http://terminology.hl7.org/CodeSystem/measure-population",
              "code": "denominator",
              "display": "Denominator"
            } ]
          },
          "count": 1
        }, {
          "id": "Numerator_1",
          "code": {
            "coding": [ {
              "system": "http://terminology.hl7.org/CodeSystem/measure-population",
              "code": "numerator",
              "display": "Numerator"
            } ]
          },
          "count": 0
        } ],
        "measureScore": {
          "value": 1.0
        }
      } ],
      "evaluatedResource": [ {
        "reference": "Patient/03556842-5a83-41e6-8f43-5801d151336b"
      }, {
        "reference": "Encounter/48190469-bb2f-4c2f-a00b-e849f9b213ba"
      }, {
        "reference": "Task/6f2b384b-20dd-4ad3-916e-06c0ea57a807"
      }, {
        "reference": "ServiceRequest/d3d1cbd7-dda4-451f-a7ed-8218fb12648e"
      }, {
        "reference": "Coverage/97144417-892c-4479-aa39-75f11a98612d"
      }, {
        "reference": "Organization/6c530299-b95f-44a6-855a-00d6aa492375"
      }, {
        "reference": "Practitioner/269258bd-b7bb-40c0-a6e9-57b7bbab7630"
      } ]
    }
  } ]
}