{
  "resourceType": "Bundle",
  "id": "60f82c2f98086b570510e2c7",
  "type": "transaction",
  "entry": [ {
    "fullUrl": "https://madie.cms.gov/Patient/be5c4068-2639-4b0c-bea3-5b7c80a6fe3b",
    "resource": {
      "resourceType": "Patient",
      "id": "be5c4068-2639-4b0c-bea3-5b7c80a6fe3b",
      "meta": {
        "profile": [ "http://hl7.org/fhir/us/qicore/StructureDefinition/qicore-patient" ]
      },
      "text": {
        "status": "generated",
        "div": "<div xmlns=\"http://www.w3.org/1999/xhtml\"><div class=\"hapiHeaderText\">INRGT3.5(100).resultDatetime_EQHospEncStartday <b>DENEXCEPASS </b></div><table class=\"hapiPropertyTable\"><tbody><tr><td>Identifier</td><td>dfa8445af2775eb6d72ac78e5253d54ae4b88f8656f6a0b4bf81ce35b6315a00</td></tr><tr><td>Date of birth</td><td><span>26 September 1975</span></td></tr></tbody></table></div>"
      },
      "extension": [ {
        "url": "http://hl7.org/fhir/us/core/StructureDefinition/us-core-race",
        "extension": [ {
          "url": "ombCategory",
          "valueCoding": {
            "system": "urn:oid:2.16.840.1.113883.6.238",
            "code": "2054-5",
            "display": "Black or African American",
            "userSelected": true
          }
        }, {
          "url": "text",
          "valueString": "Black or African American"
        } ]
      }, {
        "url": "http://hl7.org/fhir/us/core/StructureDefinition/us-core-ethnicity",
        "extension": [ {
          "url": "ombCategory",
          "valueCoding": {
            "system": "urn:oid:2.16.840.1.113883.6.238",
            "code": "2186-5",
            "display": "Not Hispanic or Latino",
            "userSelected": true
          }
        }, {
          "url": "text",
          "valueString": "Not Hispanic or Latino"
        } ]
      } ],
      "identifier": [ {
        "type": {
          "coding": [ {
            "system": "http://terminology.hl7.org/CodeSystem/v2-0203",
            "code": "MR"
          } ]
        },
        "system": "https://bonnie-fhir.healthit.gov/",
        "value": "60f82c2f98086b570510e2c7"
      } ],
      "active": true,
      "name": [ {
        "use": "usual",
        "family": "DENEXCEPass",
        "given": [ "INRGT3pt5ptresultDatetimeEQHospEncStartday" ]
      } ],
      "gender": "female",
      "birthDate": "1976-09-26"
    },
    "request": {
      "method": "PUT",
      "url": "Patient/be5c4068-2639-4b0c-bea3-5b7c80a6fe3b"
    }
  }, {
    "fullUrl": "https://madie.cms.gov/Encounter/ccc11a84-bf02-4cbf-9e7c-2e4fc6efad0c",
    "resource": {
      "resourceType": "Encounter",
      "id": "ccc11a84-bf02-4cbf-9e7c-2e4fc6efad0c",
      "meta": {
        "profile": [ "http://hl7.org/fhir/us/qicore/StructureDefinition/qicore-encounter" ]
      },
      "status": "finished",
      "class": {
        "system": "http://terminology.hl7.org/CodeSystem/v3-ActCode",
        "code": "IMP",
        "display": "inpatient encounter",
        "userSelected": true
      },
      "type": [ {
        "coding": [ {
          "system": "http://snomed.info/sct",
          "code": "32485007"
        } ]
      } ],
      "subject": {
        "reference": "Patient/be5c4068-2639-4b0c-bea3-5b7c80a6fe3b"
      },
      "period": {
        "start": "2026-10-10T06:30:00.000+00:00",
        "end": "2026-10-15T11:30:00.000+00:00"
      },
      "length": {
        "value": 5,
        "unit": "days"
      },
      "reasonReference": [ {
        "reference": "Condition/f7858340-b61c-4f39-b666-31b5a3d9bb6d"
      } ]
    },
    "request": {
      "method": "PUT",
      "url": "Encounter/ccc11a84-bf02-4cbf-9e7c-2e4fc6efad0c"
    }
  }, {
    "fullUrl": "https://madie.cms.gov/claim/5ca62962b8484628b8de1ec5",
    "resource": {
      "resourceType": "Claim",
      "id": "5ca62962b8484628b8de1ec5",
      "meta": {
        "profile": [ "http://hl7.org/fhir/us/qicore/StructureDefinition/qicore-claim" ]
      },
      "status": "active",
      "type": {
        "coding": [ {
          "system": "http://terminology.hl7.org/CodeSystem/claim-type",
          "code": "institutional"
        } ]
      },
      "use": "claim",
      "patient": {
        "reference": "Patient/be5c4068-2639-4b0c-bea3-5b7c80a6fe3b"
      },
      "created": "2026-12-01",
      "provider": {
        "reference": "Practitioner/a7defe27-aa21-4043-9950-45534f6fe506"
      },
      "priority": {
        "coding": [ {
          "system": "http://terminology.hl7.org/CodeSystem/processpriority",
          "code": "normal"
        } ]
      },
      "diagnosis": [ {
        "sequence": 1,
        "diagnosisCodeableConcept": {
          "coding": [ {
            "system": "http://hl7.org/fhir/sid/icd-10-cm",
            "code": "I63.00"
          } ]
        },
        "type": [ {
          "coding": [ {
            "system": "http://terminology.hl7.org/CodeSystem/ex-diagnosistype",
            "code": "principal"
          } ]
        } ]
      } ],
      "insurance": [ {
        "sequence": 1,
        "focal": true,
        "coverage": {
          "reference": "Coverage/2bb2215d-d0e9-458d-a488-f892289c1b37"
        }
      } ],
      "item": [ {
        "sequence": 1,
        "diagnosisSequence": [ 1 ],
        "productOrService": {
          "coding": [ {
            "system": "http://terminology.hl7.org/CodeSystem/ex-USCLS",
            "code": "99555"
          } ]
        },
        "encounter": [ {
          "reference": "Encounter/ccc11a84-bf02-4cbf-9e7c-2e4fc6efad0c"
        } ]
      } ]
    },
    "request": {
      "method": "PUT",
      "url": "Claim/5ca62962b8484628b8de1ec5"
    }
  }, {
    "fullUrl": "https://madie.cms.gov/Observation/dfde458a-2684-42f5-b5a6-439005d714e8",
    "resource": {
      "resourceType": "Observation",
      "id": "dfde458a-2684-42f5-b5a6-439005d714e8",
      "meta": {
        "profile": [ "http://hl7.org/fhir/us/qicore/StructureDefinition/qicore-observation-lab" ]
      },
      "status": "amended",
      "category": [ {
        "coding": [ {
          "system": "http://terminology.hl7.org/CodeSystem/observation-category",
          "code": "laboratory",
          "display": "Laboratory"
        } ]
      } ],
      "code": {
        "coding": [ {
          "system": "http://loinc.org",
          "code": "34714-6"
        } ]
      },
      "subject": {
        "reference": "Patient/be5c4068-2639-4b0c-bea3-5b7c80a6fe3b"
      },
      "effectivePeriod": {
        "start": "2026-10-10T06:15:00.000+00:00"
      },
      "issued": "2026-10-10T06:30:00.000+00:00",
      "valueQuantity": {
        "value": 100,
        "unit": "0",
        "system": "http://unitsofmeasure.org"
      }
    },
    "request": {
      "method": "PUT",
      "url": "Observation/dfde458a-2684-42f5-b5a6-439005d714e8"
    }
  }, {
    "fullUrl": "https://madie.cms.gov/Coverage/2bb2215d-d0e9-458d-a488-f892289c1b37",
    "resource": {
      "resourceType": "Coverage",
      "id": "2bb2215d-d0e9-458d-a488-f892289c1b37",
      "status": "active",
      "beneficiary": {
        "reference": "Patient/be5c4068-2639-4b0c-bea3-5b7c80a6fe3b"
      },
      "period": {
        "start": "1976-09-26T08:00:00.000+00:00"
      },
      "payor": [ {
        "reference": "Organization/4e809c0b-ec02-4568-9833-e644b6f79bd4"
      } ]
    },
    "request": {
      "method": "PUT",
      "url": "Coverage/2bb2215d-d0e9-458d-a488-f892289c1b37"
    }
  }, {
    "fullUrl": "https://madie.cms.gov/Condition/f7858340-b61c-4f39-b666-31b5a3d9bb6d",
    "resource": {
      "resourceType": "Condition",
      "id": "f7858340-b61c-4f39-b666-31b5a3d9bb6d",
      "meta": {
        "profile": [ "http://hl7.org/fhir/us/qicore/StructureDefinition/qicore-condition" ]
      },
      "clinicalStatus": {
        "coding": [ {
          "system": "http://terminology.hl7.org/CodeSystem/condition-clinical",
          "code": "active"
        } ]
      },
      "verificationStatus": {
        "coding": [ {
          "system": "http://terminology.hl7.org/CodeSystem/condition-ver-status",
          "code": "confirmed"
        } ]
      },
      "category": [ {
        "coding": [ {
          "system": "http://terminology.hl7.org/CodeSystem/condition-category",
          "code": "encounter-diagnosis",
          "display": "Encounter Diagnosis"
        } ]
      } ],
      "code": {
        "coding": [ {
          "system": "http://snomed.info/sct",
          "version": "2020-09",
          "code": "111297002",
          "display": "Nonparalytic stroke (disorder)",
          "userSelected": true
        } ]
      },
      "subject": {
        "reference": "Patient/be5c4068-2639-4b0c-bea3-5b7c80a6fe3b"
      },
      "recordedDate": "2026-08-06T08:00:00.000+00:00"
    },
    "request": {
      "method": "PUT",
      "url": "Condition/f7858340-b61c-4f39-b666-31b5a3d9bb6d"
    }
  }, {
    "fullUrl": "https://madie.cms.gov/Organization/4e809c0b-ec02-4568-9833-e644b6f79bd4",
    "resource": {
      "resourceType": "Organization",
      "id": "4e809c0b-ec02-4568-9833-e644b6f79bd4",
      "meta": {
        "profile": [ "http://hl7.org/fhir/us/qicore/StructureDefinition/qicore-organization" ]
      },
      "identifier": [ {
        "use": "temp",
        "system": "urn:oid:2.16.840.1.113883.4.4",
        "value": "21-3259825"
      } ],
      "active": true,
      "type": [ {
        "coding": [ {
          "system": "http://terminology.hl7.org/CodeSystem/organization-type",
          "code": "pay",
          "display": "Payer"
        } ]
      } ],
      "name": "Blue Cross Blue Shield of Texas",
      "telecom": [ {
        "system": "phone",
        "value": "(+1) 972-766-6900"
      } ],
      "address": [ {
        "use": "billing",
        "type": "postal",
        "line": [ "P.O. Box 660044" ],
        "city": "Dallas",
        "state": "TX",
        "postalCode": "75266-0044",
        "country": "USA"
      } ]
    },
    "request": {
      "method": "PUT",
      "url": "Organization/4e809c0b-ec02-4568-9833-e644b6f79bd4"
    }
  }, {
    "fullUrl": "https://madie.cms.gov/Practitioner/a7defe27-aa21-4043-9950-45534f6fe506",
    "resource": {
      "resourceType": "Practitioner",
      "id": "a7defe27-aa21-4043-9950-45534f6fe506",
      "identifier": [ {
        "system": "http://hl7.org/fhir/sid/us-npi",
        "value": "123456"
      } ],
      "name": [ {
        "family": "Evil",
        "prefix": [ "Dr" ]
      } ]
    },
    "request": {
      "method": "PUT",
      "url": "Practitioner/a7defe27-aa21-4043-9950-45534f6fe506"
    }
  }, {
    "fullUrl": "https://madie.cms.gov/MeasureReport/ad329961-b67b-413b-a186-d6b269572c42",
    "resource": {
      "resourceType": "MeasureReport",
      "id": "ad329961-b67b-413b-a186-d6b269572c42",
      "meta": {
        "profile": [ "http://hl7.org/fhir/us/cqfmeasures/StructureDefinition/test-case-cqfm" ]
      },
      "contained": [ {
        "resourceType": "Parameters",
        "id": "14406a62-ea60-4f19-a7e6-bb8c29455334-parameters",
        "parameter": [ {
          "name": "subject",
          "valueString": "be5c4068-2639-4b0c-bea3-5b7c80a6fe3b"
        } ]
      } ],
      "extension": [ {
        "url": "http://hl7.org/fhir/StructureDefinition/cqf-inputParameters",
        "valueReference": {
          "reference": "#14406a62-ea60-4f19-a7e6-bb8c29455334-parameters"
        }
      }, {
        "url": "http://hl7.org/fhir/us/cqfmeasures/StructureDefinition/cqfm-testCaseDescription",
        "valueMarkdown": "Patient receives INR of greater than 3.5 equal to the day of IP start. No ED. No Obs.\n"
      } ],
      "modifierExtension": [ {
        "url": "http://hl7.org/fhir/us/cqfmeasures/StructureDefinition/cqfm-isTestCase",
        "valueBoolean": true
      } ],
      "status": "complete",
      "type": "individual",
      "measure": "https://madie.cms.gov/Measure/CMS72FHIRSTKAntithromboticDay2",
      "period": {
        "start": "2026-01-01",
        "end": "2026-12-31"
      },
      "group": [ {
        "id": "Group_1",
        "population": [ {
          "id": "InitialPopulation_1",
          "code": {
            "coding": [ {
              "system": "http://terminology.hl7.org/CodeSystem/measure-population",
              "code": "initial-population",
              "display": "Initial Population"
            } ]
          },
          "count": 1
        }, {
          "id": "Denominator_1",
          "code": {
            "coding": [ {
              "system": "http://terminology.hl7.org/CodeSystem/measure-population",
              "code": "denominator",
              "display": "Denominator"
            } ]
          },
          "count": 1
        }, {
          "id": "DenominatorExclusion_1",
          "code": {
            "coding": [ {
              "system": "http://terminology.hl7.org/CodeSystem/measure-population",
              "code": "denominator-exclusion",
              "display": "Denominator Exclusion"
            } ]
          },
          "count": 0
        }, {
          "id": "Numerator_1",
          "code": {
            "coding": [ {
              "system": "http://terminology.hl7.org/CodeSystem/measure-population",
              "code": "numerator",
              "display": "Numerator"
            } ]
          },
          "count": 0
        }, {
          "id": "DenominatorException_1",
          "code": {
            "coding": [ {
              "system": "http://terminology.hl7.org/CodeSystem/measure-population",
              "code": "denominator-exception",
              "display": "Denominator Exception"
            } ]
          },
          "count": 1
        } ],
        "measureScore": {
          "value": 0.0
        }
      } ],
      "evaluatedResource": [ {
        "reference": "Patient/be5c4068-2639-4b0c-bea3-5b7c80a6fe3b"
      }, {
        "reference": "Encounter/ccc11a84-bf02-4cbf-9e7c-2e4fc6efad0c"
      }, {
        "reference": "Claim/5ca62962b8484628b8de1ec5"
      }, {
        "reference": "Observation/dfde458a-2684-42f5-b5a6-439005d714e8"
      }, {
        "reference": "Coverage/2bb2215d-d0e9-458d-a488-f892289c1b37"
      }, {
        "reference": "Condition/f7858340-b61c-4f39-b666-31b5a3d9bb6d"
      }, {
        "reference": "Organization/4e809c0b-ec02-4568-9833-e644b6f79bd4"
      }, {
        "reference": "Practitioner/a7defe27-aa21-4043-9950-45534f6fe506"
      } ]
    },
    "request": {
      "method": "PUT",
      "url": "MeasureReport/ad329961-b67b-413b-a186-d6b269572c42"
    }
  } ]
}