{
  "resourceType": "Bundle",
  "id": "131516513134563413",
  "type": "collection",
  "entry": [ {
    "fullUrl": "https://madie.cms.gov/Patient/c786457e-4e5b-4c6a-b05b-1600045a6243",
    "resource": {
      "resourceType": "Patient",
      "id": "c786457e-4e5b-4c6a-b05b-1600045a6243",
      "meta": {
        "profile": [ "http://hl7.org/fhir/us/qicore/StructureDefinition/qicore-patient" ]
      },
      "extension": [ {
        "url": "http://hl7.org/fhir/us/core/StructureDefinition/us-core-race",
        "extension": [ {
          "url": "ombCategory",
          "valueCoding": {
            "system": "urn:oid:2.16.840.1.113883.6.238",
            "code": "2106-3",
            "display": "White"
          }
        }, {
          "url": "text",
          "valueString": "White"
        } ]
      }, {
        "url": "http://hl7.org/fhir/us/core/StructureDefinition/us-core-ethnicity",
        "extension": [ {
          "url": "ombCategory",
          "valueCoding": {
            "system": "urn:oid:2.16.840.1.113883.6.238",
            "code": "2186-5",
            "display": "Not Hispanic or Latino"
          }
        }, {
          "url": "text",
          "valueString": "Not Hispanic or Latino"
        } ]
      } ],
      "identifier": [ {
        "type": {
          "coding": [ {
            "system": "http://terminology.hl7.org/CodeSystem/v2-0203",
            "code": "MR"
          } ]
        },
        "system": "https://bonnie-fhir.healthit.gov/",
        "value": "6067461d98086b57ea5acf1b"
      } ],
      "active": true,
      "name": [ {
        "use": "usual",
        "family": "NUMERPass",
        "given": [ "BetaBlockOrdDuringEncLVSDEF" ]
      } ],
      "gender": "male",
      "birthDate": "1953-04-17"
    }
  }, {
    "fullUrl": "https://madie.cms.gov/Encounter/60d5f4ca-6b0a-4a8a-a9ec-996abf4a76c6",
    "resource": {
      "resourceType": "Encounter",
      "id": "60d5f4ca-6b0a-4a8a-a9ec-996abf4a76c6",
      "meta": {
        "profile": [ "http://hl7.org/fhir/us/qicore/StructureDefinition/qicore-encounter" ]
      },
      "status": "finished",
      "class": {
        "system": "http://terminology.hl7.org/CodeSystem/v3-ActCode",
        "code": "AMB",
        "display": "ambulatory"
      },
      "type": [ {
        "coding": [ {
          "system": "http://www.ama-assn.org/go/cpt",
          "version": "2024",
          "code": "99213"
        } ]
      } ],
      "subject": {
        "reference": "Patient/c786457e-4e5b-4c6a-b05b-1600045a6243"
      },
      "period": {
        "start": "2026-05-19T14:40:00.000+00:00",
        "end": "2026-05-19T14:40:00.000+00:00"
      },
      "length": {
        "value": 0,
        "unit": "days"
      }
    }
  }, {
    "fullUrl": "https://madie.cms.gov/Encounter/2f6597b3-471c-446c-98a5-ec7080df2669",
    "resource": {
      "resourceType": "Encounter",
      "id": "2f6597b3-471c-446c-98a5-ec7080df2669",
      "meta": {
        "profile": [ "http://hl7.org/fhir/us/qicore/StructureDefinition/qicore-encounter" ]
      },
      "status": "finished",
      "class": {
        "system": "http://terminology.hl7.org/CodeSystem/v3-ActCode",
        "code": "AMB",
        "display": "ambulatory"
      },
      "type": [ {
        "coding": [ {
          "system": "http://www.ama-assn.org/go/cpt",
          "version": "2024",
          "code": "99212"
        } ]
      } ],
      "subject": {
        "reference": "Patient/c786457e-4e5b-4c6a-b05b-1600045a6243"
      },
      "period": {
        "start": "2026-07-03T11:50:00.000+00:00",
        "end": "2026-07-03T11:50:00.000+00:00"
      },
      "length": {
        "value": 0,
        "unit": "days"
      }
    }
  }, {
    "fullUrl": "https://madie.cms.gov/Condition/eea5de6b-8f78-4068-bcf0-c206046c980a",
    "resource": {
      "resourceType": "Condition",
      "id": "eea5de6b-8f78-4068-bcf0-c206046c980a",
      "meta": {
        "profile": [ "http://hl7.org/fhir/us/qicore/StructureDefinition/qicore-condition-problems-health-concerns" ]
      },
      "clinicalStatus": {
        "coding": [ {
          "system": "http://terminology.hl7.org/CodeSystem/condition-clinical",
          "code": "active",
          "display": "Active"
        } ]
      },
      "category": [ {
        "coding": [ {
          "system": "http://terminology.hl7.org/CodeSystem/condition-category",
          "code": "problem-list-item",
          "display": "Problem List Item"
        } ]
      } ],
      "code": {
        "coding": [ {
          "system": "http://hl7.org/fhir/sid/icd-10-cm",
          "version": "2024",
          "code": "I44.1"
        } ]
      },
      "subject": {
        "reference": "Patient/c786457e-4e5b-4c6a-b05b-1600045a6243"
      },
      "onsetPeriod": {
        "start": "2026-02-03T14:40:00.000+00:00"
      }
    }
  }, {
    "fullUrl": "https://madie.cms.gov/Condition/567e4a76-eb92-48c4-bab7-7493137282a3",
    "resource": {
      "resourceType": "Condition",
      "id": "567e4a76-eb92-48c4-bab7-7493137282a3",
      "meta": {
        "profile": [ "http://hl7.org/fhir/us/qicore/StructureDefinition/qicore-condition-problems-health-concerns" ]
      },
      "clinicalStatus": {
        "coding": [ {
          "system": "http://terminology.hl7.org/CodeSystem/condition-clinical",
          "code": "active",
          "display": "Active"
        } ]
      },
      "verificationStatus": {
        "coding": [ {
          "system": "http://terminology.hl7.org/CodeSystem/condition-ver-status",
          "code": "confirmed",
          "display": "Confirmed",
          "userSelected": true
        } ]
      },
      "category": [ {
        "coding": [ {
          "system": "http://terminology.hl7.org/CodeSystem/condition-category",
          "code": "problem-list-item",
          "display": "Problem List Item"
        } ]
      } ],
      "code": {
        "coding": [ {
          "system": "http://hl7.org/fhir/sid/icd-10-cm",
          "version": "2024",
          "code": "I11.0"
        } ]
      },
      "subject": {
        "reference": "Patient/c786457e-4e5b-4c6a-b05b-1600045a6243"
      },
      "onsetDateTime": "2026-04-16T10:00:00.000+00:00"
    }
  }, {
    "fullUrl": "https://madie.cms.gov/Observation/d4b0a79e-4557-4edb-bfd4-87a2a8edb20c",
    "resource": {
      "resourceType": "Observation",
      "id": "d4b0a79e-4557-4edb-bfd4-87a2a8edb20c",
      "meta": {
        "profile": [ "http://hl7.org/fhir/us/qicore/StructureDefinition/qicore-observation-clinical-result" ]
      },
      "status": "final",
      "category": [ {
        "coding": [ {
          "system": "http://terminology.hl7.org/CodeSystem/observation-category",
          "code": "imaging",
          "display": "Imaging"
        } ]
      }, {
        "coding": [ {
          "system": "http://terminology.hl7.org/CodeSystem/observation-category",
          "code": "survey"
        } ]
      } ],
      "code": {
        "coding": [ {
          "system": "http://loinc.org",
          "version": "2.76",
          "code": "8807-0"
        } ]
      },
      "subject": {
        "reference": "Patient/c786457e-4e5b-4c6a-b05b-1600045a6243"
      },
      "effectivePeriod": {
        "start": "2026-04-01T11:50:00.000+00:00",
        "end": "2026-04-01T11:50:00.000+00:00"
      },
      "valueQuantity": {
        "value": 39,
        "unit": "%"
      }
    }
  }, {
    "fullUrl": "https://madie.cms.gov/MedicationRequest/b93bea14-e5f9-480b-8ebf-52ead3e9c3e8",
    "resource": {
      "resourceType": "MedicationRequest",
      "id": "b93bea14-e5f9-480b-8ebf-52ead3e9c3e8",
      "meta": {
        "profile": [ "http://hl7.org/fhir/us/qicore/StructureDefinition/qicore-medicationrequest" ]
      },
      "status": "active",
      "intent": "order",
      "medicationCodeableConcept": {
        "coding": [ {
          "system": "http://www.nlm.nih.gov/research/umls/rxnorm",
          "version": "06052023",
          "code": "854916"
        } ]
      },
      "subject": {
        "reference": "Patient/c786457e-4e5b-4c6a-b05b-1600045a6243"
      },
      "authoredOn": "2026-07-03T11:50:00.000+00:00",
      "requester": {
        "reference": "Practitioner/dc2cb663-d782-4121-8247-abe8729d6718"
      },
      "dosageInstruction": [ {
        "timing": {
          "repeat": {
            "boundsPeriod": {
              "end": "2026-05-19T14:40:00.000+00:00"
            }
          }
        }
      } ]
    }
  }, {
    "fullUrl": "https://madie.cms.gov/Practitioner/dc2cb663-d782-4121-8247-abe8729d6718",
    "resource": {
      "resourceType": "Practitioner",
      "id": "dc2cb663-d782-4121-8247-abe8729d6718",
      "meta": {
        "profile": [ "http://hl7.org/fhir/us/qicore/StructureDefinition/qicore-practitioner" ]
      },
      "identifier": [ {
        "use": "temp",
        "system": "urn:oid:2.16.840.1.113883.4.336",
        "value": "Practitioner-23"
      } ],
      "active": true,
      "name": [ {
        "family": "Careful",
        "given": [ "Adam" ],
        "prefix": [ "Dr" ]
      } ],
      "address": [ {
        "use": "home",
        "line": [ "534 Erewhon St" ],
        "city": "PleasantVille",
        "state": "UT",
        "postalCode": "84414"
      } ],
      "qualification": [ {
        "identifier": [ {
          "system": "http://mock-data.org/UniversityIdentifier",
          "value": "12345"
        } ],
        "code": {
          "coding": [ {
            "system": "http://terminology.hl7.org/CodeSystem/v2-0360|2.7",
            "code": "BS",
            "display": "Bachelor of Science"
          } ],
          "text": "Bachelor of Science"
        },
        "period": {
          "start": "1996"
        },
        "issuer": {
          "display": "Example University"
        }
      } ]
    }
  }, {
    "fullUrl": "https://madie.cms.gov/Condition/0a692448-32a6-460d-8244-47772afc0765",
    "resource": {
      "resourceType": "Condition",
      "id": "0a692448-32a6-460d-8244-47772afc0765",
      "meta": {
        "profile": [ "http://hl7.org/fhir/us/qicore/StructureDefinition/qicore-condition-encounter-diagnosis" ]
      },
      "category": [ {
        "coding": [ {
          "system": "http://terminology.hl7.org/CodeSystem/condition-category",
          "code": "encounter-diagnosis",
          "display": "Encounter Diagnosis"
        } ]
      } ],
      "code": {
        "coding": [ {
          "system": "http://snomed.info/sct",
          "version": "http://snomed.info/sct/731000124108/version/20250301",
          "code": "981000124106",
          "display": "Moderate left ventricular systolic dysfunction (disorder)"
        } ]
      },
      "subject": {
        "reference": "Patient/c786457e-4e5b-4c6a-b05b-1600045a6243"
      }
    }
  }, {
    "fullUrl": "https://madie.cms.gov/Condition/f5639bb6-3f27-46e9-9336-b9ce1ad20209",
    "resource": {
      "resourceType": "Condition",
      "id": "f5639bb6-3f27-46e9-9336-b9ce1ad20209",
      "meta": {
        "profile": [ "http://hl7.org/fhir/us/qicore/StructureDefinition/qicore-condition-problems-health-concerns" ]
      },
      "clinicalStatus": {
        "coding": [ {
          "system": "http://terminology.hl7.org/CodeSystem/condition-clinical",
          "code": "active",
          "display": "Active"
        } ]
      },
      "category": [ {
        "coding": [ {
          "system": "http://terminology.hl7.org/CodeSystem/condition-category",
          "code": "problem-list-item",
          "display": "Problem List Item"
        } ]
      } ],
      "code": {
        "coding": [ {
          "system": "http://snomed.info/sct",
          "version": "http://snomed.info/sct/731000124108/version/20250301",
          "code": "981000124106",
          "display": "Moderate left ventricular systolic dysfunction (disorder)"
        } ]
      },
      "subject": {
        "reference": "Patient/c786457e-4e5b-4c6a-b05b-1600045a6243"
      },
      "onsetPeriod": {
        "start": "2026-05-13T14:40:00.000+00:00"
      }
    }
  }, {
    "fullUrl": "https://madie.cms.gov/Coverage/1bbfff2d-1635-41f3-83fd-2d680f17440e",
    "resource": {
      "resourceType": "Coverage",
      "id": "1bbfff2d-1635-41f3-83fd-2d680f17440e",
      "meta": {
        "profile": [ "http://hl7.org/fhir/us/qicore/StructureDefinition/qicore-coverage" ]
      },
      "identifier": [ {
        "system": "http://benefitsinc.com/certificate",
        "value": "12345"
      } ],
      "status": "active",
      "type": {
        "coding": [ {
          "system": "https://nahdo.org/sopt",
          "version": "9.2",
          "code": "59",
          "display": "Other Private Insurance"
        } ]
      },
      "subscriberId": "123456",
      "beneficiary": {
        "reference": "Patient/c786457e-4e5b-4c6a-b05b-1600045a6243"
      },
      "dependent": "0",
      "relationship": {
        "coding": [ {
          "system": "http://terminology.hl7.org/CodeSystem/subscriber-relationship",
          "code": "self"
        } ]
      },
      "period": {
        "start": "2017-05-23",
        "end": "2026-05-23"
      },
      "payor": [ {
        "reference": "Organization/ea262de5-f97c-4d71-bae7-bf9e87163ce7"
      } ],
      "order": 9
    }
  }, {
    "fullUrl": "https://madie.cms.gov/Organization/ea262de5-f97c-4d71-bae7-bf9e87163ce7",
    "resource": {
      "resourceType": "Organization",
      "id": "ea262de5-f97c-4d71-bae7-bf9e87163ce7",
      "meta": {
        "profile": [ "http://hl7.org/fhir/us/qicore/StructureDefinition/qicore-organization" ]
      },
      "identifier": [ {
        "use": "temp",
        "system": "http://terminology.hl7.org/NamingSystem/USEIN",
        "value": "48915164351354"
      } ],
      "active": true,
      "type": [ {
        "coding": [ {
          "system": "http://terminology.hl7.org/CodeSystem/organization-type",
          "code": "team",
          "display": "Organizational team"
        } ]
      } ],
      "name": "Good Healthcare, LLC",
      "telecom": [ {
        "system": "phone",
        "value": "(+1) 901-683-7777"
      }, {
        "system": "fax",
        "value": "(+1) 901-683-6622"
      }, {
        "system": "email",
        "value": "BetterYourHealth@GoodHealthcare.com"
      } ],
      "address": [ {
        "line": [ "3651 Wentrow Blvd, Suite 227" ],
        "city": "Germantown",
        "state": "TN",
        "postalCode": "38138",
        "country": "USA"
      } ]
    }
  }, {
    "fullUrl": "https://madie.cms.gov/MeasureReport/9275d2b1-db94-4e55-aeb2-934ae23e70bb",
    "resource": {
      "resourceType": "MeasureReport",
      "id": "9275d2b1-db94-4e55-aeb2-934ae23e70bb",
      "meta": {
        "profile": [ "http://hl7.org/fhir/us/cqfmeasures/StructureDefinition/test-case-cqfm" ]
      },
      "contained": [ {
        "resourceType": "Parameters",
        "id": "13094c53-750f-40d8-ba24-e065e005852a-parameters",
        "parameter": [ {
          "name": "subject",
          "valueString": "c786457e-4e5b-4c6a-b05b-1600045a6243"
        } ]
      } ],
      "extension": [ {
        "url": "http://hl7.org/fhir/StructureDefinition/cqf-inputParameters",
        "valueReference": {
          "reference": "#13094c53-750f-40d8-ba24-e065e005852a-parameters"
        }
      }, {
        "url": "http://hl7.org/fhir/us/cqfmeasures/StructureDefinition/cqfm-testCaseDescription",
        "valueMarkdown": "Patient with beta blocker medication order during encounter."
      } ],
      "modifierExtension": [ {
        "url": "http://hl7.org/fhir/us/cqfmeasures/StructureDefinition/cqfm-isTestCase",
        "valueBoolean": true
      } ],
      "status": "complete",
      "type": "individual",
      "measure": "https://madie.cms.gov/Measure/CMS144FHIRHFBetaBlockerForLVSD",
      "period": {
        "start": "2026-01-01",
        "end": "2026-12-31"
      },
      "group": [ {
        "id": "Group_1",
        "population": [ {
          "id": "InitialPopulation_1",
          "code": {
            "coding": [ {
              "system": "http://terminology.hl7.org/CodeSystem/measure-population",
              "code": "initial-population",
              "display": "Initial Population"
            } ]
          },
          "count": 1
        }, {
          "id": "Denominator_1",
          "code": {
            "coding": [ {
              "system": "http://terminology.hl7.org/CodeSystem/measure-population",
              "code": "denominator",
              "display": "Denominator"
            } ]
          },
          "count": 1
        }, {
          "id": "DenominatorExclusion_1",
          "code": {
            "coding": [ {
              "system": "http://terminology.hl7.org/CodeSystem/measure-population",
              "code": "denominator-exclusion",
              "display": "Denominator Exclusion"
            } ]
          },
          "count": 0
        }, {
          "id": "Numerator_1",
          "code": {
            "coding": [ {
              "system": "http://terminology.hl7.org/CodeSystem/measure-population",
              "code": "numerator",
              "display": "Numerator"
            } ]
          },
          "count": 1
        }, {
          "id": "DenominatorException_1",
          "code": {
            "coding": [ {
              "system": "http://terminology.hl7.org/CodeSystem/measure-population",
              "code": "denominator-exception",
              "display": "Denominator Exception"
            } ]
          },
          "count": 0
        } ],
        "measureScore": {
          "value": 1.0
        }
      } ],
      "evaluatedResource": [ {
        "reference": "Patient/c786457e-4e5b-4c6a-b05b-1600045a6243"
      }, {
        "reference": "Encounter/60d5f4ca-6b0a-4a8a-a9ec-996abf4a76c6"
      }, {
        "reference": "Encounter/2f6597b3-471c-446c-98a5-ec7080df2669"
      }, {
        "reference": "Condition/eea5de6b-8f78-4068-bcf0-c206046c980a"
      }, {
        "reference": "Condition/567e4a76-eb92-48c4-bab7-7493137282a3"
      }, {
        "reference": "Observation/d4b0a79e-4557-4edb-bfd4-87a2a8edb20c"
      }, {
        "reference": "MedicationRequest/b93bea14-e5f9-480b-8ebf-52ead3e9c3e8"
      }, {
        "reference": "Practitioner/dc2cb663-d782-4121-8247-abe8729d6718"
      }, {
        "reference": "Condition/0a692448-32a6-460d-8244-47772afc0765"
      }, {
        "reference": "Condition/f5639bb6-3f27-46e9-9336-b9ce1ad20209"
      }, {
        "reference": "Coverage/1bbfff2d-1635-41f3-83fd-2d680f17440e"
      }, {
        "reference": "Organization/ea262de5-f97c-4d71-bae7-bf9e87163ce7"
      } ]
    }
  } ]
}