{
  "resourceType": "Bundle",
  "id": "SDEPass-SDECoverage2",
  "type": "transaction",
  "entry": [ {
    "fullUrl": "https://madie.cms.gov/Patient/8cf3bb45-d9c9-4e08-9e04-77dbf104fe42",
    "resource": {
      "resourceType": "Patient",
      "id": "8cf3bb45-d9c9-4e08-9e04-77dbf104fe42",
      "meta": {
        "profile": [ "http://hl7.org/fhir/us/qicore/StructureDefinition/qicore-patient" ]
      },
      "extension": [ {
        "url": "http://hl7.org/fhir/us/core/StructureDefinition/us-core-race",
        "extension": [ {
          "url": "ombCategory",
          "valueCoding": {
            "system": "urn:oid:2.16.840.1.113883.6.238",
            "code": "2028-9",
            "display": "Asian",
            "userSelected": true
          }
        }, {
          "url": "text",
          "valueString": "Asian"
        }, {
          "url": "detailed",
          "valueCoding": {
            "system": "urn:oid:2.16.840.1.113883.6.238",
            "code": "1653-5",
            "display": "Tohono O'Odham"
          }
        } ]
      }, {
        "url": "http://hl7.org/fhir/us/core/StructureDefinition/us-core-ethnicity",
        "extension": [ {
          "url": "ombCategory",
          "valueCoding": {
            "system": "urn:oid:2.16.840.1.113883.6.238",
            "code": "2135-2",
            "display": "Hispanic or Latino",
            "userSelected": true
          }
        }, {
          "url": "text",
          "valueString": "Hispanic or Latino"
        }, {
          "url": "detailed",
          "valueCoding": {
            "system": "urn:oid:2.16.840.1.113883.6.238",
            "code": "2180-8",
            "display": "Puerto Rican"
          }
        } ]
      }, {
        "url": "http://hl7.org/fhir/us/core/StructureDefinition/us-core-sex",
        "valueCode": "248152002"
      } ],
      "identifier": [ {
        "system": "http://hospital.smarthealthit.org",
        "value": "999999995"
      } ],
      "name": [ {
        "family": "SDE",
        "given": [ "SDECoverage" ]
      } ],
      "gender": "unknown",
      "birthDate": "1961-01-01"
    },
    "request": {
      "method": "PUT",
      "url": "Patient/8cf3bb45-d9c9-4e08-9e04-77dbf104fe42"
    }
  }, {
    "fullUrl": "https://madie.cms.gov/Encounter/8b4810df-b7f1-4ff6-8423-2b385532e1e1",
    "resource": {
      "resourceType": "Encounter",
      "id": "8b4810df-b7f1-4ff6-8423-2b385532e1e1",
      "meta": {
        "profile": [ "http://hl7.org/fhir/us/qicore/StructureDefinition/qicore-encounter" ]
      },
      "status": "finished",
      "class": {
        "system": "http://terminology.hl7.org/CodeSystem/v3-ActCode",
        "code": "AMB",
        "display": "ambulatory"
      },
      "type": [ {
        "coding": [ {
          "system": "http://snomed.info/sct",
          "code": "185465003",
          "display": "Weekend visit (procedure)"
        } ]
      } ],
      "subject": {
        "reference": "Patient/8cf3bb45-d9c9-4e08-9e04-77dbf104fe42"
      },
      "period": {
        "start": "2026-01-01T00:00:00.000+00:00",
        "end": "2026-01-01T00:15:00.000+00:00"
      }
    },
    "request": {
      "method": "PUT",
      "url": "Encounter/8b4810df-b7f1-4ff6-8423-2b385532e1e1"
    }
  }, {
    "fullUrl": "https://madie.cms.gov/Coverage/0f1d8660-192e-4d0f-835c-8a55a48fcf23",
    "resource": {
      "resourceType": "Coverage",
      "id": "0f1d8660-192e-4d0f-835c-8a55a48fcf23",
      "meta": {
        "profile": [ "http://hl7.org/fhir/us/qicore/StructureDefinition/qicore-coverage" ]
      },
      "identifier": [ {
        "system": "http://benefitsinc.com/certificate",
        "value": "12345"
      } ],
      "status": "active",
      "type": {
        "coding": [ {
          "system": "https://nahdo.org/sopt",
          "code": "59",
          "display": "Other Private Insurance"
        } ]
      },
      "policyHolder": {
        "reference": "Patient/8cf3bb45-d9c9-4e08-9e04-77dbf104fe42"
      },
      "subscriber": {
        "reference": "Patient/8cf3bb45-d9c9-4e08-9e04-77dbf104fe42"
      },
      "subscriberId": "12191",
      "beneficiary": {
        "reference": "Patient/8cf3bb45-d9c9-4e08-9e04-77dbf104fe42"
      },
      "dependent": "0",
      "relationship": {
        "coding": [ {
          "system": "http://terminology.hl7.org/CodeSystem/subscriber-relationship",
          "code": "self"
        } ]
      },
      "period": {
        "start": "2023-01-01T06:00:00.000+00:00",
        "end": "2023-01-01T11:06:01.000+00:00"
      },
      "payor": [ {
        "reference": "Patient/8cf3bb45-d9c9-4e08-9e04-77dbf104fe42"
      } ],
      "order": 9
    },
    "request": {
      "method": "PUT",
      "url": "Coverage/0f1d8660-192e-4d0f-835c-8a55a48fcf23"
    }
  }, {
    "fullUrl": "https://madie.cms.gov/MeasureReport/4bc6c71a-3f75-4e03-b0ab-e37aa1009447",
    "resource": {
      "resourceType": "MeasureReport",
      "id": "4bc6c71a-3f75-4e03-b0ab-e37aa1009447",
      "meta": {
        "profile": [ "http://hl7.org/fhir/us/cqfmeasures/StructureDefinition/test-case-cqfm" ]
      },
      "contained": [ {
        "resourceType": "Parameters",
        "id": "cf0786a9-6b9f-43de-ac39-d2143e481743-parameters",
        "parameter": [ {
          "name": "subject",
          "valueString": "8cf3bb45-d9c9-4e08-9e04-77dbf104fe42"
        } ]
      } ],
      "extension": [ {
        "url": "http://hl7.org/fhir/StructureDefinition/cqf-inputParameters",
        "valueReference": {
          "reference": "#cf0786a9-6b9f-43de-ac39-d2143e481743-parameters"
        }
      }, {
        "url": "http://hl7.org/fhir/us/cqfmeasures/StructureDefinition/cqfm-testCaseDescription",
        "valueMarkdown": "For meeting SDE 100% coverage - patient sex female"
      } ],
      "modifierExtension": [ {
        "url": "http://hl7.org/fhir/us/cqfmeasures/StructureDefinition/cqfm-isTestCase",
        "valueBoolean": true
      } ],
      "status": "complete",
      "type": "individual",
      "measure": "https://madie.cms.gov/Measure/CMS139FHIRFallRiskScreening",
      "period": {
        "start": "2026-01-01",
        "end": "2026-12-31"
      },
      "group": [ {
        "id": "Group_1",
        "population": [ {
          "id": "InitialPopulation_1",
          "code": {
            "coding": [ {
              "system": "http://terminology.hl7.org/CodeSystem/measure-population",
              "code": "initial-population",
              "display": "Initial Population"
            } ]
          },
          "count": 1
        }, {
          "id": "Denominator_1",
          "code": {
            "coding": [ {
              "system": "http://terminology.hl7.org/CodeSystem/measure-population",
              "code": "denominator",
              "display": "Denominator"
            } ]
          },
          "count": 1
        }, {
          "id": "DenominatorExclusion_1",
          "code": {
            "coding": [ {
              "system": "http://terminology.hl7.org/CodeSystem/measure-population",
              "code": "denominator-exclusion",
              "display": "Denominator Exclusion"
            } ]
          },
          "count": 0
        }, {
          "id": "Numerator_1",
          "code": {
            "coding": [ {
              "system": "http://terminology.hl7.org/CodeSystem/measure-population",
              "code": "numerator",
              "display": "Numerator"
            } ]
          },
          "count": 0
        } ],
        "measureScore": {
          "value": 1.0
        }
      } ],
      "evaluatedResource": [ {
        "reference": "Patient/8cf3bb45-d9c9-4e08-9e04-77dbf104fe42"
      }, {
        "reference": "Encounter/8b4810df-b7f1-4ff6-8423-2b385532e1e1"
      }, {
        "reference": "Coverage/0f1d8660-192e-4d0f-835c-8a55a48fcf23"
      } ]
    },
    "request": {
      "method": "PUT",
      "url": "MeasureReport/4bc6c71a-3f75-4e03-b0ab-e37aa1009447"
    }
  } ]
}