{
  "resourceType": "Bundle",
  "id": "62fa556bf4a8c3cd9f455396",
  "type": "transaction",
  "entry": [ {
    "fullUrl": "https://madie.cms.gov/Patient/5aa9e5eb-adeb-4779-a4d3-5b731411e141",
    "resource": {
      "resourceType": "Patient",
      "id": "5aa9e5eb-adeb-4779-a4d3-5b731411e141",
      "meta": {
        "profile": [ "http://hl7.org/fhir/us/qicore/StructureDefinition/qicore-patient" ]
      },
      "extension": [ {
        "url": "http://hl7.org/fhir/us/core/StructureDefinition/us-core-race",
        "extension": [ {
          "url": "ombCategory",
          "valueCoding": {
            "system": "urn:oid:2.16.840.1.113883.6.238",
            "code": "2028-9",
            "display": "Asian",
            "userSelected": true
          }
        }, {
          "url": "text",
          "valueString": "Asian"
        } ]
      }, {
        "url": "http://hl7.org/fhir/us/core/StructureDefinition/us-core-ethnicity",
        "extension": [ {
          "url": "ombCategory",
          "valueCoding": {
            "system": "urn:oid:2.16.840.1.113883.6.238",
            "code": "2186-5",
            "display": "Not Hispanic or Latino",
            "userSelected": true
          }
        }, {
          "url": "text",
          "valueString": "Not Hispanic or Latino"
        } ]
      } ],
      "identifier": [ {
        "type": {
          "coding": [ {
            "system": "http://terminology.hl7.org/CodeSystem/v2-0203",
            "code": "MR"
          } ]
        },
        "system": "https://bonnie-fhir.healthit.gov/",
        "value": "62fa556bf4a8c3cd9f455396"
      } ],
      "name": [ {
        "family": "NUMERFail",
        "given": [ "SingleUACRLab" ]
      } ],
      "gender": "female",
      "birthDate": "1975-05-02"
    },
    "request": {
      "method": "PUT",
      "url": "Patient/5aa9e5eb-adeb-4779-a4d3-5b731411e141"
    }
  }, {
    "fullUrl": "https://madie.cms.gov/Condition/53692422-a34d-4aca-acce-80b6416dd35f",
    "resource": {
      "resourceType": "Condition",
      "id": "53692422-a34d-4aca-acce-80b6416dd35f",
      "meta": {
        "profile": [ "http://hl7.org/fhir/us/qicore/StructureDefinition/qicore-condition-encounter-diagnosis" ]
      },
      "clinicalStatus": {
        "coding": [ {
          "system": "http://terminology.hl7.org/CodeSystem/condition-clinical",
          "code": "active",
          "display": "active",
          "userSelected": true
        } ]
      },
      "category": [ {
        "coding": [ {
          "system": "http://terminology.hl7.org/CodeSystem/condition-category",
          "code": "encounter-diagnosis",
          "display": "Encounter Diagnosis",
          "userSelected": true
        } ]
      } ],
      "code": {
        "coding": [ {
          "system": "http://snomed.info/sct",
          "version": "2021-09",
          "code": "127013003",
          "display": "Disorder of kidney due to diabetes mellitus (disorder)",
          "userSelected": true
        } ]
      },
      "subject": {
        "reference": "Patient/5aa9e5eb-adeb-4779-a4d3-5b731411e141"
      },
      "onsetDateTime": "2025-02-15T08:00:00.000+00:00"
    },
    "request": {
      "method": "PUT",
      "url": "Condition/53692422-a34d-4aca-acce-80b6416dd35f"
    }
  }, {
    "fullUrl": "https://madie.cms.gov/Observation/67177442-3fe5-4282-89f6-c74da6b3856a",
    "resource": {
      "resourceType": "Observation",
      "id": "67177442-3fe5-4282-89f6-c74da6b3856a",
      "meta": {
        "profile": [ "http://hl7.org/fhir/us/qicore/StructureDefinition/qicore-observation-lab" ]
      },
      "status": "final",
      "category": [ {
        "coding": [ {
          "system": "http://terminology.hl7.org/CodeSystem/observation-category",
          "code": "laboratory",
          "display": "Laboratory",
          "userSelected": true
        } ]
      } ],
      "code": {
        "coding": [ {
          "system": "http://loinc.org",
          "version": "2.71",
          "code": "20624-3",
          "display": "Creatinine [Mass/volume] in 24 hour Urine",
          "userSelected": true
        } ]
      },
      "subject": {
        "reference": "Patient/5aa9e5eb-adeb-4779-a4d3-5b731411e141"
      },
      "effectiveDateTime": "2026-08-15T08:00:00.000+00:00",
      "valueBoolean": true
    },
    "request": {
      "method": "PUT",
      "url": "Observation/67177442-3fe5-4282-89f6-c74da6b3856a"
    }
  }, {
    "fullUrl": "https://madie.cms.gov/Encounter/a07338ca-9c8d-4da9-b4c1-bf55b9f0b0a7",
    "resource": {
      "resourceType": "Encounter",
      "id": "a07338ca-9c8d-4da9-b4c1-bf55b9f0b0a7",
      "meta": {
        "profile": [ "http://hl7.org/fhir/us/qicore/StructureDefinition/qicore-encounter" ]
      },
      "status": "finished",
      "class": {
        "system": "http://terminology.hl7.org/CodeSystem/v3-ActCode",
        "code": "AMB",
        "display": "ambulatory",
        "userSelected": true
      },
      "type": [ {
        "coding": [ {
          "system": "http://snomed.info/sct",
          "version": "2021-09",
          "code": "444971000124105",
          "display": "Annual wellness visit (procedure)",
          "userSelected": true
        } ]
      } ],
      "subject": {
        "reference": "Patient/5aa9e5eb-adeb-4779-a4d3-5b731411e141"
      },
      "period": {
        "start": "2026-03-16T08:00:00.000+00:00",
        "end": "2026-03-16T08:15:00.000+00:00"
      }
    },
    "request": {
      "method": "PUT",
      "url": "Encounter/a07338ca-9c8d-4da9-b4c1-bf55b9f0b0a7"
    }
  }, {
    "fullUrl": "https://madie.cms.gov/MeasureReport/b3c2feda-b53b-4e80-8ef8-67a9b6d53613",
    "resource": {
      "resourceType": "MeasureReport",
      "id": "b3c2feda-b53b-4e80-8ef8-67a9b6d53613",
      "meta": {
        "profile": [ "http://hl7.org/fhir/us/cqfmeasures/StructureDefinition/test-case-cqfm" ]
      },
      "contained": [ {
        "resourceType": "Parameters",
        "id": "31fbd185-d44d-4451-9e4e-0aa7175e3762-parameters",
        "parameter": [ {
          "name": "subject",
          "valueString": "5aa9e5eb-adeb-4779-a4d3-5b731411e141"
        } ]
      } ],
      "extension": [ {
        "url": "http://hl7.org/fhir/StructureDefinition/cqf-inputParameters",
        "valueReference": {
          "reference": "#31fbd185-d44d-4451-9e4e-0aa7175e3762-parameters"
        }
      }, {
        "url": "http://hl7.org/fhir/us/cqfmeasures/StructureDefinition/cqfm-testCaseDescription",
        "valueMarkdown": "This patient is 50 years old with a qualifying encounter and active diabetes. The patient only has a single urine creatinine lab. This case tests the numerator criteria."
      } ],
      "modifierExtension": [ {
        "url": "http://hl7.org/fhir/us/cqfmeasures/StructureDefinition/cqfm-isTestCase",
        "valueBoolean": true
      } ],
      "status": "complete",
      "type": "individual",
      "measure": "https://madie.cms.gov/Measure/CMS951FHIRKidneyHealthEval",
      "period": {
        "start": "2026-01-01",
        "end": "2026-12-31"
      },
      "group": [ {
        "id": "Group_1",
        "population": [ {
          "id": "InitialPopulation_1",
          "code": {
            "coding": [ {
              "system": "http://terminology.hl7.org/CodeSystem/measure-population",
              "code": "initial-population",
              "display": "Initial Population"
            } ]
          },
          "count": 1
        }, {
          "id": "Denominator_1",
          "code": {
            "coding": [ {
              "system": "http://terminology.hl7.org/CodeSystem/measure-population",
              "code": "denominator",
              "display": "Denominator"
            } ]
          },
          "count": 1
        }, {
          "id": "DenominatorExclusion_1",
          "code": {
            "coding": [ {
              "system": "http://terminology.hl7.org/CodeSystem/measure-population",
              "code": "denominator-exclusion",
              "display": "Denominator Exclusion"
            } ]
          },
          "count": 0
        }, {
          "id": "Numerator_1",
          "code": {
            "coding": [ {
              "system": "http://terminology.hl7.org/CodeSystem/measure-population",
              "code": "numerator",
              "display": "Numerator"
            } ]
          },
          "count": 0
        } ],
        "measureScore": {
          "value": 1.0
        }
      } ],
      "evaluatedResource": [ {
        "reference": "Patient/5aa9e5eb-adeb-4779-a4d3-5b731411e141"
      }, {
        "reference": "Condition/53692422-a34d-4aca-acce-80b6416dd35f"
      }, {
        "reference": "Observation/67177442-3fe5-4282-89f6-c74da6b3856a"
      }, {
        "reference": "Encounter/a07338ca-9c8d-4da9-b4c1-bf55b9f0b0a7"
      } ]
    },
    "request": {
      "method": "PUT",
      "url": "MeasureReport/b3c2feda-b53b-4e80-8ef8-67a9b6d53613"
    }
  } ]
}