{
  "resourceType": "Bundle",
  "id": "62fd2c9e32e2f917c3627d87",
  "type": "collection",
  "entry": [ {
    "fullUrl": "https://madie.cms.gov/Patient/9d5d4ffe-710e-4b5d-b84a-ba4ed2de06dd",
    "resource": {
      "resourceType": "Patient",
      "id": "9d5d4ffe-710e-4b5d-b84a-ba4ed2de06dd",
      "meta": {
        "profile": [ "http://hl7.org/fhir/us/qicore/StructureDefinition/qicore-patient" ]
      },
      "extension": [ {
        "url": "http://hl7.org/fhir/us/core/StructureDefinition/us-core-race",
        "extension": [ {
          "url": "ombCategory",
          "valueCoding": {
            "system": "urn:oid:2.16.840.1.113883.6.238",
            "code": "1002-5",
            "display": "American Indian or Alaska Native",
            "userSelected": true
          }
        }, {
          "url": "text",
          "valueString": "American Indian or Alaska Native"
        } ]
      }, {
        "url": "http://hl7.org/fhir/us/core/StructureDefinition/us-core-ethnicity",
        "extension": [ {
          "url": "ombCategory",
          "valueCoding": {
            "system": "urn:oid:2.16.840.1.113883.6.238",
            "code": "2135-2",
            "display": "Hispanic or Latino",
            "userSelected": true
          }
        }, {
          "url": "text",
          "valueString": "Hispanic or Latino"
        } ]
      } ],
      "identifier": [ {
        "type": {
          "coding": [ {
            "system": "http://terminology.hl7.org/CodeSystem/v2-0203",
            "code": "MR"
          } ]
        },
        "system": "https://bonnie-fhir.healthit.gov/",
        "value": "62fd2c9e32e2f917c3627d87"
      } ],
      "name": [ {
        "family": "NUMERFail",
        "given": [ "BoneScanOverlapsStartMP" ]
      } ],
      "gender": "male",
      "birthDate": "1987-02-27"
    }
  }, {
    "fullUrl": "https://madie.cms.gov/Condition/5b36ebc0-145f-4e84-a4ea-5c2a0fb302b8",
    "resource": {
      "resourceType": "Condition",
      "id": "5b36ebc0-145f-4e84-a4ea-5c2a0fb302b8",
      "meta": {
        "profile": [ "http://hl7.org/fhir/us/qicore/StructureDefinition/qicore-condition-problems-health-concerns" ]
      },
      "clinicalStatus": {
        "coding": [ {
          "system": "http://terminology.hl7.org/CodeSystem/condition-clinical",
          "code": "active",
          "display": "active",
          "userSelected": true
        } ]
      },
      "category": [ {
        "coding": [ {
          "system": "http://terminology.hl7.org/CodeSystem/condition-category",
          "code": "problem-list-item",
          "display": "Problem List Item"
        }, {
          "system": "http://snomed.info/sct",
          "code": "439401001",
          "display": "Diagnosis"
        } ]
      } ],
      "code": {
        "coding": [ {
          "system": "http://snomed.info/sct",
          "code": "254900004",
          "display": "Carcinoma of prostate (disorder)",
          "userSelected": true
        } ]
      },
      "subject": {
        "reference": "Patient/9d5d4ffe-710e-4b5d-b84a-ba4ed2de06dd"
      },
      "onsetDateTime": "2025-01-07T08:00:00.000+00:00",
      "recordedDate": "2026-06-02T08:00:00.000+00:00"
    }
  }, {
    "fullUrl": "https://madie.cms.gov/Procedure/9cd7cac0-efb9-49a8-badc-f6131eeb3801",
    "resource": {
      "resourceType": "Procedure",
      "id": "9cd7cac0-efb9-49a8-badc-f6131eeb3801",
      "meta": {
        "profile": [ "http://hl7.org/fhir/us/qicore/StructureDefinition/qicore-procedure" ]
      },
      "extension": [ {
        "url": "http://hl7.org/fhir/us/qicore/StructureDefinition/qicore-recorded",
        "valueDateTime": "2026-02-01T09:00:00.000+00:00"
      } ],
      "status": "completed",
      "code": {
        "coding": [ {
          "system": "http://snomed.info/sct",
          "code": "38915000",
          "display": "Radionuclide therapy for gland ablation (procedure)",
          "userSelected": true
        } ]
      },
      "subject": {
        "reference": "Patient/9d5d4ffe-710e-4b5d-b84a-ba4ed2de06dd"
      },
      "performedDateTime": "2026-06-02T08:00:00.000+00:00"
    }
  }, {
    "fullUrl": "https://madie.cms.gov/Observation/4a92cbf6-3fd5-4733-b28e-c58682763504",
    "resource": {
      "resourceType": "Observation",
      "id": "4a92cbf6-3fd5-4733-b28e-c58682763504",
      "meta": {
        "profile": [ "http://hl7.org/fhir/us/qicore/StructureDefinition/qicore-observation-lab" ]
      },
      "status": "final",
      "category": [ {
        "coding": [ {
          "system": "http://terminology.hl7.org/CodeSystem/observation-category",
          "code": "laboratory",
          "display": "Laboratory"
        } ]
      } ],
      "code": {
        "coding": [ {
          "system": "http://loinc.org",
          "version": "2.72",
          "code": "2857-1",
          "display": "Prostate specific Ag [Mass/volume] in Serum or Plasma",
          "userSelected": true
        } ]
      },
      "subject": {
        "reference": "Patient/9d5d4ffe-710e-4b5d-b84a-ba4ed2de06dd"
      },
      "effectiveDateTime": "2026-01-07T08:00:00.000+00:00",
      "issued": "2026-04-02T08:00:00.000+00:00",
      "valueQuantity": {
        "value": 8,
        "system": "http://unitsofmeasure.org",
        "code": "ng/mL"
      }
    }
  }, {
    "fullUrl": "https://madie.cms.gov/Observation/edc34107-e2fa-4016-b4b9-a6d98019bd77",
    "resource": {
      "resourceType": "Observation",
      "id": "edc34107-e2fa-4016-b4b9-a6d98019bd77",
      "meta": {
        "profile": [ "http://hl7.org/fhir/us/qicore/StructureDefinition/qicore-observation-clinical-result" ]
      },
      "status": "final",
      "category": [ {
        "coding": [ {
          "system": "http://terminology.hl7.org/CodeSystem/observation-category",
          "code": "procedure",
          "display": "Procedure"
        } ]
      } ],
      "code": {
        "coding": [ {
          "system": "http://loinc.org",
          "code": "35266-6",
          "display": "Gleason score in Specimen Qualitative",
          "userSelected": true
        } ]
      },
      "subject": {
        "reference": "Patient/9d5d4ffe-710e-4b5d-b84a-ba4ed2de06dd"
      },
      "effectivePeriod": {
        "start": "2026-04-02T08:00:00.000+00:00"
      },
      "issued": "2026-04-02T08:00:00.000+00:00",
      "valueInteger": 5
    }
  }, {
    "fullUrl": "https://madie.cms.gov/Observation/526c0a79-9866-4594-bd59-9c2f18a12f84",
    "resource": {
      "resourceType": "Observation",
      "id": "526c0a79-9866-4594-bd59-9c2f18a12f84",
      "meta": {
        "profile": [ "http://hl7.org/fhir/us/qicore/StructureDefinition/qicore-observation-clinical-result" ]
      },
      "status": "final",
      "category": [ {
        "coding": [ {
          "system": "http://terminology.hl7.org/CodeSystem/observation-category",
          "code": "procedure",
          "display": "Procedure"
        } ]
      } ],
      "code": {
        "coding": [ {
          "system": "http://snomed.info/sct",
          "code": "254292007",
          "display": "Tumor staging (tumor staging)",
          "userSelected": true
        } ]
      },
      "subject": {
        "reference": "Patient/9d5d4ffe-710e-4b5d-b84a-ba4ed2de06dd"
      },
      "focus": [ {
        "reference": "Condition/5b36ebc0-145f-4e84-a4ea-5c2a0fb302b8"
      } ],
      "effectivePeriod": {
        "start": "2026-02-07T08:00:00.000+00:00"
      },
      "issued": "2026-02-02T08:00:00.000+00:00",
      "valueCodeableConcept": {
        "coding": [ {
          "system": "http://snomed.info/sct",
          "code": "1228892002",
          "display": "American Joint Committee on Cancer cT1a (qualifier value)",
          "userSelected": true
        } ]
      }
    }
  }, {
    "fullUrl": "https://madie.cms.gov/Observation/c6a30ee0-ac2e-4252-818f-dfc0639d97ab",
    "resource": {
      "resourceType": "Observation",
      "id": "c6a30ee0-ac2e-4252-818f-dfc0639d97ab",
      "meta": {
        "profile": [ "http://hl7.org/fhir/us/qicore/StructureDefinition/qicore-observation-clinical-result" ]
      },
      "status": "final",
      "category": [ {
        "coding": [ {
          "system": "http://terminology.hl7.org/CodeSystem/observation-category",
          "code": "procedure",
          "display": "Procedure"
        } ]
      } ],
      "code": {
        "coding": [ {
          "system": "http://loinc.org",
          "version": "2.72",
          "code": "25031-6",
          "display": "NM Bone Views",
          "userSelected": true
        } ]
      },
      "subject": {
        "reference": "Patient/9d5d4ffe-710e-4b5d-b84a-ba4ed2de06dd"
      },
      "effectivePeriod": {
        "start": "2025-12-31T08:00:00.000+00:00",
        "end": "2026-01-01T08:00:00.000+00:00"
      },
      "valueString": "Normal results found"
    }
  }, {
    "fullUrl": "https://madie.cms.gov/Coverage/1ac77df5-2ed5-4857-9b4d-4226c45cb31c",
    "resource": {
      "resourceType": "Coverage",
      "id": "1ac77df5-2ed5-4857-9b4d-4226c45cb31c",
      "meta": {
        "profile": [ "http://hl7.org/fhir/us/qicore/StructureDefinition/qicore-coverage" ]
      },
      "status": "active",
      "subscriberId": "123456789",
      "beneficiary": {
        "reference": "Patient/9d5d4ffe-710e-4b5d-b84a-ba4ed2de06dd"
      },
      "relationship": {
        "coding": [ {
          "system": "http://terminology.hl7.org/CodeSystem/subscriber-relationship",
          "code": "self",
          "display": "Self",
          "userSelected": true
        } ]
      },
      "payor": [ {
        "reference": "Organization/4fa0ee6d-8c4a-44cb-8906-b7e10973ede3"
      } ]
    }
  }, {
    "fullUrl": "https://madie.cms.gov/Organization/4fa0ee6d-8c4a-44cb-8906-b7e10973ede3",
    "resource": {
      "resourceType": "Organization",
      "id": "4fa0ee6d-8c4a-44cb-8906-b7e10973ede3",
      "meta": {
        "profile": [ "http://hl7.org/fhir/us/qicore/StructureDefinition/qicore-organization" ]
      },
      "identifier": [ {
        "use": "temp",
        "system": "urn:oid:2.16.840.1.113883.4.4",
        "value": "21-3259825"
      } ],
      "active": true,
      "type": [ {
        "coding": [ {
          "system": "http://terminology.hl7.org/CodeSystem/organization-type",
          "code": "pay",
          "display": "Payer"
        } ]
      } ],
      "name": "Blue Cross Blue Shield of Texas",
      "telecom": [ {
        "system": "phone",
        "value": "(+1) 972-766-6900"
      } ],
      "address": [ {
        "use": "billing",
        "type": "postal",
        "line": [ "P.O. Box 660044" ],
        "city": "Dallas",
        "state": "TX",
        "postalCode": "75266-0044",
        "country": "USA"
      } ]
    }
  }, {
    "fullUrl": "https://madie.cms.gov/Practitioner/dffa416a-c3c4-40b8-9b84-acf723076c06",
    "resource": {
      "resourceType": "Practitioner",
      "id": "dffa416a-c3c4-40b8-9b84-acf723076c06",
      "meta": {
        "profile": [ "http://hl7.org/fhir/us/qicore/StructureDefinition/qicore-practitioner" ]
      },
      "identifier": [ {
        "system": "http://hl7.org/fhir/sid/us-npi",
        "value": "1234567893"
      } ],
      "name": [ {
        "family": "Evil",
        "prefix": [ "Dr" ]
      } ]
    }
  }, {
    "fullUrl": "https://madie.cms.gov/MeasureReport/b4b1b9ee-98f4-4836-8de1-ebaa7b270c2a",
    "resource": {
      "resourceType": "MeasureReport",
      "id": "b4b1b9ee-98f4-4836-8de1-ebaa7b270c2a",
      "meta": {
        "profile": [ "http://hl7.org/fhir/us/cqfmeasures/StructureDefinition/test-case-cqfm" ]
      },
      "contained": [ {
        "resourceType": "Parameters",
        "id": "9cea9f67-1967-4fc6-b8f9-a0226e4540aa-parameters",
        "parameter": [ {
          "name": "subject",
          "valueString": "9d5d4ffe-710e-4b5d-b84a-ba4ed2de06dd"
        } ]
      } ],
      "extension": [ {
        "url": "http://hl7.org/fhir/StructureDefinition/cqf-inputParameters",
        "valueReference": {
          "reference": "#9cea9f67-1967-4fc6-b8f9-a0226e4540aa-parameters"
        }
      }, {
        "url": "http://hl7.org/fhir/us/cqfmeasures/StructureDefinition/cqfm-testCaseDescription",
        "valueMarkdown": "The bone scan overlaps the start of the measurement period.  "
      } ],
      "modifierExtension": [ {
        "url": "http://hl7.org/fhir/us/cqfmeasures/StructureDefinition/cqfm-isTestCase",
        "valueBoolean": true
      } ],
      "status": "complete",
      "type": "individual",
      "measure": "https://madie.cms.gov/Measure/CMS129FHIRProstCaBoneScanUse",
      "period": {
        "start": "2026-01-01",
        "end": "2026-12-31"
      },
      "group": [ {
        "id": "Group_1",
        "population": [ {
          "id": "InitialPopulation_1",
          "code": {
            "coding": [ {
              "system": "http://terminology.hl7.org/CodeSystem/measure-population",
              "code": "initial-population",
              "display": "Initial Population"
            } ]
          },
          "count": 1
        }, {
          "id": "Denominator_1",
          "code": {
            "coding": [ {
              "system": "http://terminology.hl7.org/CodeSystem/measure-population",
              "code": "denominator",
              "display": "Denominator"
            } ]
          },
          "count": 1
        }, {
          "id": "Numerator_1",
          "code": {
            "coding": [ {
              "system": "http://terminology.hl7.org/CodeSystem/measure-population",
              "code": "numerator",
              "display": "Numerator"
            } ]
          },
          "count": 0
        }, {
          "id": "DenominatorException_1",
          "code": {
            "coding": [ {
              "system": "http://terminology.hl7.org/CodeSystem/measure-population",
              "code": "denominator-exception",
              "display": "Denominator Exception"
            } ]
          },
          "count": 0
        } ],
        "measureScore": {
          "value": 1.0
        }
      } ],
      "evaluatedResource": [ {
        "reference": "Patient/9d5d4ffe-710e-4b5d-b84a-ba4ed2de06dd"
      }, {
        "reference": "Condition/5b36ebc0-145f-4e84-a4ea-5c2a0fb302b8"
      }, {
        "reference": "Procedure/9cd7cac0-efb9-49a8-badc-f6131eeb3801"
      }, {
        "reference": "Observation/4a92cbf6-3fd5-4733-b28e-c58682763504"
      }, {
        "reference": "Observation/edc34107-e2fa-4016-b4b9-a6d98019bd77"
      }, {
        "reference": "Observation/526c0a79-9866-4594-bd59-9c2f18a12f84"
      }, {
        "reference": "Observation/c6a30ee0-ac2e-4252-818f-dfc0639d97ab"
      }, {
        "reference": "Coverage/1ac77df5-2ed5-4857-9b4d-4226c45cb31c"
      }, {
        "reference": "Organization/4fa0ee6d-8c4a-44cb-8906-b7e10973ede3"
      }, {
        "reference": "Practitioner/dffa416a-c3c4-40b8-9b84-acf723076c06"
      } ]
    }
  } ]
}