{
  "resourceType": "Bundle",
  "id": "62c880ec0111a60120dc2206",
  "type": "transaction",
  "entry": [ {
    "fullUrl": "https://madie.cms.gov/Patient/4bf7c1f5-8c25-4cd9-9ca8-d67e9f1283cb",
    "resource": {
      "resourceType": "Patient",
      "id": "4bf7c1f5-8c25-4cd9-9ca8-d67e9f1283cb",
      "meta": {
        "profile": [ "http://hl7.org/fhir/us/qicore/StructureDefinition/qicore-patient" ]
      },
      "extension": [ {
        "url": "http://hl7.org/fhir/us/core/StructureDefinition/us-core-race",
        "extension": [ {
          "url": "ombCategory",
          "valueCoding": {
            "system": "urn:oid:2.16.840.1.113883.6.238",
            "code": "1002-5",
            "display": "American Indian or Alaska Native",
            "userSelected": true
          }
        }, {
          "url": "text",
          "valueString": "American Indian or Alaska Native"
        } ]
      }, {
        "url": "http://hl7.org/fhir/us/core/StructureDefinition/us-core-ethnicity",
        "extension": [ {
          "url": "ombCategory",
          "valueCoding": {
            "system": "urn:oid:2.16.840.1.113883.6.238",
            "code": "2135-2",
            "display": "Hispanic or Latino",
            "userSelected": true
          }
        }, {
          "url": "text",
          "valueString": "Hispanic or Latino"
        } ]
      }, {
        "url": "http://hl7.org/fhir/us/core/StructureDefinition/us-core-sex",
        "valueCode": "248153007"
      } ],
      "identifier": [ {
        "type": {
          "coding": [ {
            "system": "http://terminology.hl7.org/CodeSystem/v2-0203",
            "code": "MR"
          } ]
        },
        "system": "https://bonnie-fhir.healthit.gov/",
        "value": "62c880ec0111a60120dc2206"
      } ],
      "active": true,
      "name": [ {
        "use": "usual",
        "family": "IPPFailPop1",
        "given": [ "OneChemoAdministered" ]
      } ],
      "gender": "female",
      "birthDate": "1938-05-13"
    },
    "request": {
      "method": "PUT",
      "url": "Patient/4bf7c1f5-8c25-4cd9-9ca8-d67e9f1283cb"
    }
  }, {
    "fullUrl": "https://madie.cms.gov/Condition/d3b08a2b-6449-42d6-a450-0a2aeb6a85a5",
    "resource": {
      "resourceType": "Condition",
      "id": "d3b08a2b-6449-42d6-a450-0a2aeb6a85a5",
      "meta": {
        "profile": [ "http://hl7.org/fhir/us/qicore/StructureDefinition/qicore-condition-problems-health-concerns" ]
      },
      "clinicalStatus": {
        "coding": [ {
          "system": "http://terminology.hl7.org/CodeSystem/condition-clinical",
          "code": "active",
          "display": "active"
        } ]
      },
      "verificationStatus": {
        "coding": [ {
          "system": "http://terminology.hl7.org/CodeSystem/condition-ver-status",
          "code": "confirmed",
          "display": "Confirmed"
        } ]
      },
      "category": [ {
        "coding": [ {
          "system": "http://terminology.hl7.org/CodeSystem/condition-category",
          "code": "problem-list-item",
          "display": "Problem List Item"
        } ]
      } ],
      "code": {
        "coding": [ {
          "system": "http://snomed.info/sct",
          "version": "2022-09",
          "code": "80914001"
        } ]
      },
      "subject": {
        "reference": "Patient/4bf7c1f5-8c25-4cd9-9ca8-d67e9f1283cb"
      },
      "onsetDateTime": "2024-05-01T13:30:00.000+00:00"
    },
    "request": {
      "method": "PUT",
      "url": "Condition/d3b08a2b-6449-42d6-a450-0a2aeb6a85a5"
    }
  }, {
    "fullUrl": "https://madie.cms.gov/Encounter/0db4c4d5-9f49-4b62-8de9-479414c55f92",
    "resource": {
      "resourceType": "Encounter",
      "id": "0db4c4d5-9f49-4b62-8de9-479414c55f92",
      "meta": {
        "profile": [ "http://hl7.org/fhir/us/qicore/StructureDefinition/qicore-encounter" ]
      },
      "status": "finished",
      "class": {
        "system": "http://terminology.hl7.org/CodeSystem/v3-ActCode",
        "code": "AMB",
        "display": "ambulatory",
        "userSelected": true
      },
      "type": [ {
        "coding": [ {
          "system": "http://www.ama-assn.org/go/cpt",
          "code": "99205"
        } ]
      } ],
      "subject": {
        "reference": "Patient/4bf7c1f5-8c25-4cd9-9ca8-d67e9f1283cb"
      },
      "period": {
        "start": "2026-01-01T14:00:00.000+00:00",
        "end": "2026-01-01T15:00:00.000+00:00"
      }
    },
    "request": {
      "method": "PUT",
      "url": "Encounter/0db4c4d5-9f49-4b62-8de9-479414c55f92"
    }
  }, {
    "fullUrl": "https://madie.cms.gov/Coverage/4729f143-3476-44d1-9018-e8a1f29971c9",
    "resource": {
      "resourceType": "Coverage",
      "id": "4729f143-3476-44d1-9018-e8a1f29971c9",
      "meta": {
        "profile": [ "http://hl7.org/fhir/us/qicore/StructureDefinition/qicore-coverage" ]
      },
      "status": "active",
      "beneficiary": {
        "reference": "Patient/4bf7c1f5-8c25-4cd9-9ca8-d67e9f1283cb"
      },
      "period": {
        "start": "1938-05-13T08:00:00.000+00:00"
      },
      "payor": [ {
        "reference": "Organization/98c75da4-56e5-4e66-a16d-93cc0fb806d6"
      } ]
    },
    "request": {
      "method": "PUT",
      "url": "Coverage/4729f143-3476-44d1-9018-e8a1f29971c9"
    }
  }, {
    "fullUrl": "https://madie.cms.gov/Procedure/1d5c38b5-49a9-489c-8154-36a636bd9dbf",
    "resource": {
      "resourceType": "Procedure",
      "id": "1d5c38b5-49a9-489c-8154-36a636bd9dbf",
      "meta": {
        "profile": [ "http://hl7.org/fhir/us/qicore/StructureDefinition/qicore-procedure" ]
      },
      "extension": [ {
        "url": "http://hl7.org/fhir/us/qicore/StructureDefinition/qicore-recorded",
        "valueDateTime": "2024-12-02T08:35:00.000+00:00"
      } ],
      "status": "completed",
      "code": {
        "coding": [ {
          "system": "http://snomed.info/sct",
          "code": "169396008"
        } ]
      },
      "subject": {
        "reference": "Patient/4bf7c1f5-8c25-4cd9-9ca8-d67e9f1283cb"
      },
      "performedPeriod": {
        "start": "2024-12-02T08:00:00.000+00:00",
        "end": "2024-12-02T08:15:00.000+00:00"
      }
    },
    "request": {
      "method": "PUT",
      "url": "Procedure/1d5c38b5-49a9-489c-8154-36a636bd9dbf"
    }
  }, {
    "fullUrl": "https://madie.cms.gov/Organization/98c75da4-56e5-4e66-a16d-93cc0fb806d6",
    "resource": {
      "resourceType": "Organization",
      "id": "98c75da4-56e5-4e66-a16d-93cc0fb806d6",
      "meta": {
        "profile": [ "http://hl7.org/fhir/us/qicore/StructureDefinition/qicore-organization" ]
      },
      "identifier": [ {
        "use": "temp",
        "system": "urn:oid:2.16.840.1.113883.4.4",
        "value": "21-3259825"
      } ],
      "active": true,
      "type": [ {
        "coding": [ {
          "system": "http://terminology.hl7.org/CodeSystem/organization-type",
          "code": "pay",
          "display": "Payer"
        } ]
      } ],
      "name": "Blue Cross Blue Shield of Texas",
      "telecom": [ {
        "system": "phone",
        "value": "(+1) 972-766-6900"
      } ],
      "address": [ {
        "use": "billing",
        "type": "postal",
        "line": [ "P.O. Box 660044" ],
        "city": "Dallas",
        "state": "TX",
        "postalCode": "75266-0044",
        "country": "USA"
      } ]
    },
    "request": {
      "method": "PUT",
      "url": "Organization/98c75da4-56e5-4e66-a16d-93cc0fb806d6"
    }
  }, {
    "fullUrl": "https://madie.cms.gov/Practitioner/f6210115-bfae-4bf7-8c6b-90ca9c50afd9",
    "resource": {
      "resourceType": "Practitioner",
      "id": "f6210115-bfae-4bf7-8c6b-90ca9c50afd9",
      "meta": {
        "profile": [ "http://hl7.org/fhir/us/qicore/StructureDefinition/qicore-practitioner" ]
      },
      "identifier": [ {
        "system": "http://hl7.org/fhir/sid/us-npi",
        "value": "123456"
      } ],
      "name": [ {
        "family": "Evil",
        "prefix": [ "Dr" ]
      } ]
    },
    "request": {
      "method": "PUT",
      "url": "Practitioner/f6210115-bfae-4bf7-8c6b-90ca9c50afd9"
    }
  }, {
    "fullUrl": "https://madie.cms.gov/MeasureReport/05c38bde-9413-465a-9aa5-9199592ae26c",
    "resource": {
      "resourceType": "MeasureReport",
      "id": "05c38bde-9413-465a-9aa5-9199592ae26c",
      "meta": {
        "profile": [ "http://hl7.org/fhir/us/cqfmeasures/StructureDefinition/test-case-cqfm" ]
      },
      "contained": [ {
        "resourceType": "Parameters",
        "id": "d85f2173-f352-40a5-9092-1e5ef883577e-parameters",
        "parameter": [ {
          "name": "subject",
          "valueString": "4bf7c1f5-8c25-4cd9-9ca8-d67e9f1283cb"
        } ]
      } ],
      "extension": [ {
        "url": "http://hl7.org/fhir/StructureDefinition/cqf-inputParameters",
        "valueReference": {
          "reference": "#d85f2173-f352-40a5-9092-1e5ef883577e-parameters"
        }
      }, {
        "url": "http://hl7.org/fhir/us/cqfmeasures/StructureDefinition/cqfm-testCaseDescription",
        "valueMarkdown": "Patient with cancer diagnosis that overlaps the office visit during measurement period, received one administration of chemotherapy. \n"
      } ],
      "modifierExtension": [ {
        "url": "http://hl7.org/fhir/us/cqfmeasures/StructureDefinition/cqfm-isTestCase",
        "valueBoolean": true
      } ],
      "status": "complete",
      "type": "individual",
      "measure": "https://madie.cms.gov/Measure/CMS157FHIRPainIntensityQuantified",
      "period": {
        "start": "2026-01-01",
        "end": "2026-12-31"
      },
      "group": [ {
        "id": "Group_1",
        "population": [ {
          "id": "InitialPopulation_1",
          "code": {
            "coding": [ {
              "system": "http://terminology.hl7.org/CodeSystem/measure-population",
              "code": "initial-population",
              "display": "Initial Population"
            } ]
          },
          "count": 0
        }, {
          "id": "Denominator_1",
          "code": {
            "coding": [ {
              "system": "http://terminology.hl7.org/CodeSystem/measure-population",
              "code": "denominator",
              "display": "Denominator"
            } ]
          },
          "count": 0
        }, {
          "id": "Numerator_1",
          "code": {
            "coding": [ {
              "system": "http://terminology.hl7.org/CodeSystem/measure-population",
              "code": "numerator",
              "display": "Numerator"
            } ]
          },
          "count": 0
        } ],
        "measureScore": {
          "value": 0.0
        }
      }, {
        "id": "Group_2",
        "population": [ {
          "id": "InitialPopulation_2",
          "code": {
            "coding": [ {
              "system": "http://terminology.hl7.org/CodeSystem/measure-population",
              "code": "initial-population",
              "display": "Initial Population"
            } ]
          },
          "count": 0
        }, {
          "id": "Denominator_2",
          "code": {
            "coding": [ {
              "system": "http://terminology.hl7.org/CodeSystem/measure-population",
              "code": "denominator",
              "display": "Denominator"
            } ]
          },
          "count": 0
        }, {
          "id": "Numerator_2",
          "code": {
            "coding": [ {
              "system": "http://terminology.hl7.org/CodeSystem/measure-population",
              "code": "numerator",
              "display": "Numerator"
            } ]
          },
          "count": 0
        } ],
        "measureScore": {
          "value": 0.0
        }
      } ],
      "evaluatedResource": [ {
        "reference": "Patient/4bf7c1f5-8c25-4cd9-9ca8-d67e9f1283cb"
      }, {
        "reference": "Condition/d3b08a2b-6449-42d6-a450-0a2aeb6a85a5"
      }, {
        "reference": "Encounter/0db4c4d5-9f49-4b62-8de9-479414c55f92"
      }, {
        "reference": "Coverage/4729f143-3476-44d1-9018-e8a1f29971c9"
      }, {
        "reference": "Procedure/1d5c38b5-49a9-489c-8154-36a636bd9dbf"
      }, {
        "reference": "Organization/98c75da4-56e5-4e66-a16d-93cc0fb806d6"
      }, {
        "reference": "Practitioner/f6210115-bfae-4bf7-8c6b-90ca9c50afd9"
      } ]
    },
    "request": {
      "method": "PUT",
      "url": "MeasureReport/05c38bde-9413-465a-9aa5-9199592ae26c"
    }
  } ]
}