{
  "resourceType": "Bundle",
  "id": "612e6aef02c62a011f2ebd2e",
  "type": "transaction",
  "entry": [ {
    "fullUrl": "https://madie.cms.gov/Patient/bc83eb4d-4953-4995-9a14-5e2a764a6728",
    "resource": {
      "resourceType": "Patient",
      "id": "bc83eb4d-4953-4995-9a14-5e2a764a6728",
      "meta": {
        "profile": [ "http://hl7.org/fhir/us/qicore/StructureDefinition/qicore-patient" ]
      },
      "text": {
        "status": "generated",
        "div": "<div xmlns=\"http://www.w3.org/1999/xhtml\"><div class=\"hapiHeaderText\">TestMultipleOccur_1inExcl1inNum <b>NUMERPASS </b></div><table class=\"hapiPropertyTable\"><tbody><tr><td>Identifier</td><td>c25140d0e4b4dc40f8f038d62a9837e3e354787555978149ab2cc0d8c8c47525</td></tr><tr><td>Date of birth</td><td><span>02 January 1974</span></td></tr></tbody></table></div>"
      },
      "extension": [ {
        "url": "http://hl7.org/fhir/us/core/StructureDefinition/us-core-race",
        "extension": [ {
          "url": "ombCategory",
          "valueCoding": {
            "system": "urn:oid:2.16.840.1.113883.6.238",
            "code": "1002-5",
            "display": "American Indian or Alaska Native",
            "userSelected": true
          }
        }, {
          "url": "text",
          "valueString": "American Indian or Alaska Native"
        } ]
      }, {
        "url": "http://hl7.org/fhir/us/core/StructureDefinition/us-core-ethnicity",
        "extension": [ {
          "url": "ombCategory",
          "valueCoding": {
            "system": "urn:oid:2.16.840.1.113883.6.238",
            "code": "2135-2",
            "display": "Hispanic or Latino",
            "userSelected": true
          }
        }, {
          "url": "text",
          "valueString": "Hispanic or Latino"
        } ]
      } ],
      "identifier": [ {
        "type": {
          "coding": [ {
            "system": "http://terminology.hl7.org/CodeSystem/v2-0203",
            "code": "MR"
          } ]
        },
        "system": "https://bonnie-fhir.healthit.gov/",
        "value": "612e6aef02c62a011f2ebd2e"
      } ],
      "active": true,
      "name": [ {
        "use": "usual",
        "family": "NUMERPass",
        "given": [ "TestMultipleOccur_1inExcl1inNum" ]
      } ],
      "gender": "male",
      "birthDate": "1975-01-02"
    },
    "request": {
      "method": "PUT",
      "url": "Patient/bc83eb4d-4953-4995-9a14-5e2a764a6728"
    }
  }, {
    "fullUrl": "https://madie.cms.gov/Encounter/e8aa2b12-b4bb-4749-a2ed-d51441efdbda",
    "resource": {
      "resourceType": "Encounter",
      "id": "e8aa2b12-b4bb-4749-a2ed-d51441efdbda",
      "meta": {
        "profile": [ "http://hl7.org/fhir/us/qicore/StructureDefinition/qicore-encounter" ]
      },
      "status": "finished",
      "class": {
        "system": "http://terminology.hl7.org/CodeSystem/v3-ActCode",
        "code": "IMP",
        "display": "inpatient encounter"
      },
      "type": [ {
        "coding": [ {
          "system": "http://snomed.info/sct",
          "code": "183452005"
        } ]
      } ],
      "subject": {
        "reference": "Patient/bc83eb4d-4953-4995-9a14-5e2a764a6728"
      },
      "period": {
        "start": "2026-04-01T08:00:00.000+00:00",
        "end": "2026-04-05T08:15:00.000+00:00"
      },
      "length": {
        "value": 4.0,
        "unit": "days"
      }
    },
    "request": {
      "method": "PUT",
      "url": "Encounter/e8aa2b12-b4bb-4749-a2ed-d51441efdbda"
    }
  }, {
    "fullUrl": "https://madie.cms.gov/Encounter/f6603057-e35f-41ea-9b21-670185382abb",
    "resource": {
      "resourceType": "Encounter",
      "id": "f6603057-e35f-41ea-9b21-670185382abb",
      "meta": {
        "profile": [ "http://hl7.org/fhir/us/qicore/StructureDefinition/qicore-encounter" ]
      },
      "status": "finished",
      "class": {
        "system": "http://terminology.hl7.org/CodeSystem/v3-ActCode",
        "code": "IMP",
        "display": "inpatient encounter"
      },
      "type": [ {
        "coding": [ {
          "system": "http://snomed.info/sct",
          "code": "8715000"
        } ]
      } ],
      "subject": {
        "reference": "Patient/bc83eb4d-4953-4995-9a14-5e2a764a6728"
      },
      "period": {
        "start": "2026-11-01T08:00:00.000+00:00",
        "end": "2026-11-26T08:15:00.000+00:00"
      },
      "length": {
        "value": 25.0,
        "unit": "days"
      }
    },
    "request": {
      "method": "PUT",
      "url": "Encounter/f6603057-e35f-41ea-9b21-670185382abb"
    }
  }, {
    "fullUrl": "https://madie.cms.gov/Procedure/a736ac7f-fd75-4a56-b595-5e20e1bc71b0",
    "resource": {
      "resourceType": "Procedure",
      "id": "a736ac7f-fd75-4a56-b595-5e20e1bc71b0",
      "meta": {
        "profile": [ "http://hl7.org/fhir/us/qicore/StructureDefinition/qicore-procedure" ]
      },
      "extension": [ {
        "url": "http://hl7.org/fhir/us/qicore/StructureDefinition/qicore-recorded",
        "valueDateTime": "2013-04-03T13:35:00.000+00:00"
      } ],
      "status": "completed",
      "code": {
        "coding": [ {
          "system": "http://snomed.info/sct",
          "code": "133918004"
        } ]
      },
      "subject": {
        "reference": "Patient/bc83eb4d-4953-4995-9a14-5e2a764a6728"
      },
      "performedPeriod": {
        "start": "2026-04-01T08:00:00.000+00:00",
        "end": "2026-04-01T08:15:00.000+00:00"
      }
    },
    "request": {
      "method": "PUT",
      "url": "Procedure/a736ac7f-fd75-4a56-b595-5e20e1bc71b0"
    }
  }, {
    "fullUrl": "https://madie.cms.gov/Coverage/7507b89a-c97e-44c3-8a32-a8d74c262ebf",
    "resource": {
      "resourceType": "Coverage",
      "id": "7507b89a-c97e-44c3-8a32-a8d74c262ebf",
      "status": "active",
      "beneficiary": {
        "reference": "Patient/bc83eb4d-4953-4995-9a14-5e2a764a6728"
      },
      "period": {
        "start": "1975-01-02T08:00:00.000+00:00"
      },
      "payor": [ {
        "reference": "Organization/9b96d15b-9beb-49fd-84db-0f9fd37b2f40"
      } ]
    },
    "request": {
      "method": "PUT",
      "url": "Coverage/7507b89a-c97e-44c3-8a32-a8d74c262ebf"
    }
  }, {
    "fullUrl": "https://madie.cms.gov/MedicationAdministration/2c66a9d8-35b0-4658-8d8b-066188603404",
    "resource": {
      "resourceType": "MedicationAdministration",
      "id": "2c66a9d8-35b0-4658-8d8b-066188603404",
      "meta": {
        "profile": [ "http://hl7.org/fhir/us/qicore/StructureDefinition/qicore-medicationadministration" ]
      },
      "status": "completed",
      "medicationCodeableConcept": {
        "coding": [ {
          "system": "http://www.nlm.nih.gov/research/umls/rxnorm",
          "code": "855288",
          "display": "warfarin sodium 1 MG Oral Tablet",
          "userSelected": true
        } ]
      },
      "subject": {
        "reference": "Patient/bc83eb4d-4953-4995-9a14-5e2a764a6728"
      },
      "effectiveDateTime": "2026-11-01T10:00:00.000+00:00"
    },
    "request": {
      "method": "PUT",
      "url": "MedicationAdministration/2c66a9d8-35b0-4658-8d8b-066188603404"
    }
  }, {
    "fullUrl": "https://madie.cms.gov/Organization/9b96d15b-9beb-49fd-84db-0f9fd37b2f40",
    "resource": {
      "resourceType": "Organization",
      "id": "9b96d15b-9beb-49fd-84db-0f9fd37b2f40",
      "meta": {
        "profile": [ "http://hl7.org/fhir/us/qicore/StructureDefinition/qicore-organization" ]
      },
      "identifier": [ {
        "use": "temp",
        "system": "urn:oid:2.16.840.1.113883.4.4",
        "value": "21-3259825"
      } ],
      "active": true,
      "type": [ {
        "coding": [ {
          "system": "http://terminology.hl7.org/CodeSystem/organization-type",
          "code": "pay",
          "display": "Payer"
        } ]
      } ],
      "name": "Blue Cross Blue Shield of Texas",
      "telecom": [ {
        "system": "phone",
        "value": "(+1) 972-766-6900"
      } ],
      "address": [ {
        "use": "billing",
        "type": "postal",
        "line": [ "P.O. Box 660044" ],
        "city": "Dallas",
        "state": "TX",
        "postalCode": "75266-0044",
        "country": "USA"
      } ]
    },
    "request": {
      "method": "PUT",
      "url": "Organization/9b96d15b-9beb-49fd-84db-0f9fd37b2f40"
    }
  }, {
    "fullUrl": "https://madie.cms.gov/Practitioner/7780ad63-20fe-4e4f-a082-f0ad897bb3c3",
    "resource": {
      "resourceType": "Practitioner",
      "id": "7780ad63-20fe-4e4f-a082-f0ad897bb3c3",
      "identifier": [ {
        "system": "http://hl7.org/fhir/sid/us-npi",
        "value": "123456"
      } ],
      "name": [ {
        "family": "Evil",
        "prefix": [ "Dr" ]
      } ]
    },
    "request": {
      "method": "PUT",
      "url": "Practitioner/7780ad63-20fe-4e4f-a082-f0ad897bb3c3"
    }
  }, {
    "fullUrl": "https://madie.cms.gov/MeasureReport/638d800b-d981-4ae5-b320-3b5dcaf20af7",
    "resource": {
      "resourceType": "MeasureReport",
      "id": "638d800b-d981-4ae5-b320-3b5dcaf20af7",
      "meta": {
        "profile": [ "http://hl7.org/fhir/us/cqfmeasures/StructureDefinition/test-case-cqfm" ]
      },
      "contained": [ {
        "resourceType": "Parameters",
        "id": "4b0b4cf8-0dfb-481c-ade3-6b8972edef10-parameters",
        "parameter": [ {
          "name": "subject",
          "valueString": "bc83eb4d-4953-4995-9a14-5e2a764a6728"
        } ]
      } ],
      "extension": [ {
        "url": "http://hl7.org/fhir/StructureDefinition/cqf-inputParameters",
        "valueReference": {
          "reference": "#4b0b4cf8-0dfb-481c-ade3-6b8972edef10-parameters"
        }
      }, {
        "url": "http://hl7.org/fhir/us/cqfmeasures/StructureDefinition/cqfm-testCaseDescription",
        "valueMarkdown": "TestMultipleOccur - 2 occurrences one is excluded due to COMP and one pass numerator\n"
      } ],
      "modifierExtension": [ {
        "url": "http://hl7.org/fhir/us/cqfmeasures/StructureDefinition/cqfm-isTestCase",
        "valueBoolean": true
      } ],
      "status": "complete",
      "type": "individual",
      "measure": "https://madie.cms.gov/Measure/CMS108FHIRVTEProphylaxis",
      "period": {
        "start": "2026-01-01",
        "end": "2026-12-31"
      },
      "group": [ {
        "id": "Group_1",
        "population": [ {
          "id": "InitialPopulation_1",
          "code": {
            "coding": [ {
              "system": "http://terminology.hl7.org/CodeSystem/measure-population",
              "code": "initial-population",
              "display": "Initial Population"
            } ]
          },
          "count": 2
        }, {
          "id": "Denominator_1",
          "code": {
            "coding": [ {
              "system": "http://terminology.hl7.org/CodeSystem/measure-population",
              "code": "denominator",
              "display": "Denominator"
            } ]
          },
          "count": 2
        }, {
          "id": "DenominatorExclusion_1",
          "code": {
            "coding": [ {
              "system": "http://terminology.hl7.org/CodeSystem/measure-population",
              "code": "denominator-exclusion",
              "display": "Denominator Exclusion"
            } ]
          },
          "count": 1
        }, {
          "id": "Numerator_1",
          "code": {
            "coding": [ {
              "system": "http://terminology.hl7.org/CodeSystem/measure-population",
              "code": "numerator",
              "display": "Numerator"
            } ]
          },
          "count": 1
        } ],
        "measureScore": {
          "value": 0.0
        }
      } ],
      "evaluatedResource": [ {
        "reference": "Patient/bc83eb4d-4953-4995-9a14-5e2a764a6728"
      }, {
        "reference": "Encounter/e8aa2b12-b4bb-4749-a2ed-d51441efdbda"
      }, {
        "reference": "Encounter/f6603057-e35f-41ea-9b21-670185382abb"
      }, {
        "reference": "Procedure/a736ac7f-fd75-4a56-b595-5e20e1bc71b0"
      }, {
        "reference": "Coverage/7507b89a-c97e-44c3-8a32-a8d74c262ebf"
      }, {
        "reference": "MedicationAdministration/2c66a9d8-35b0-4658-8d8b-066188603404"
      }, {
        "reference": "Organization/9b96d15b-9beb-49fd-84db-0f9fd37b2f40"
      }, {
        "reference": "Practitioner/7780ad63-20fe-4e4f-a082-f0ad897bb3c3"
      } ]
    },
    "request": {
      "method": "PUT",
      "url": "MeasureReport/638d800b-d981-4ae5-b320-3b5dcaf20af7"
    }
  } ]
}