{
  "resourceType": "Bundle",
  "id": "60f82c3098086b570510e2cf",
  "type": "transaction",
  "entry": [ {
    "fullUrl": "https://madie.cms.gov/Patient/79a2dd53-a342-41d9-a5c9-1b565bd06fe7",
    "resource": {
      "resourceType": "Patient",
      "id": "79a2dd53-a342-41d9-a5c9-1b565bd06fe7",
      "meta": {
        "profile": [ "http://hl7.org/fhir/us/qicore/StructureDefinition/qicore-patient" ]
      },
      "text": {
        "status": "generated",
        "div": "<div xmlns=\"http://www.w3.org/1999/xhtml\"><div class=\"hapiHeaderText\">ProcTPA&lt;24hrB4_ED_Test_Interval <b>DENEXPASS </b></div><table class=\"hapiPropertyTable\"><tbody><tr><td>Date of birth</td><td><span>05 April 1979</span></td></tr></tbody></table></div>"
      },
      "extension": [ {
        "url": "http://hl7.org/fhir/us/core/StructureDefinition/us-core-race",
        "extension": [ {
          "url": "ombCategory",
          "valueCoding": {
            "system": "urn:oid:2.16.840.1.113883.6.238",
            "code": "2106-3",
            "display": "White",
            "userSelected": true
          }
        }, {
          "url": "text",
          "valueString": "White"
        } ]
      }, {
        "url": "http://hl7.org/fhir/us/core/StructureDefinition/us-core-ethnicity",
        "extension": [ {
          "url": "ombCategory",
          "valueCoding": {
            "system": "urn:oid:2.16.840.1.113883.6.238",
            "code": "2186-5",
            "display": "Not Hispanic or Latino",
            "userSelected": true
          }
        }, {
          "url": "text",
          "valueString": "Not Hispanic or Latino"
        } ]
      } ],
      "identifier": [ {
        "type": {
          "coding": [ {
            "system": "http://terminology.hl7.org/CodeSystem/v2-0203",
            "code": "MR"
          } ]
        },
        "system": "https://bonnie-fhir.healthit.gov/",
        "value": "60f82c3098086b570510e2cf"
      } ],
      "active": true,
      "name": [ {
        "use": "usual",
        "family": "DENEXPass",
        "given": [ "ProcTPALT24hrB4EDTestInterval" ]
      } ],
      "gender": "male",
      "birthDate": "1980-04-05"
    },
    "request": {
      "method": "PUT",
      "url": "Patient/79a2dd53-a342-41d9-a5c9-1b565bd06fe7"
    }
  }, {
    "fullUrl": "https://madie.cms.gov/Encounter/5c70b774-a62c-40f4-a7a6-90febf02d4e4",
    "resource": {
      "resourceType": "Encounter",
      "id": "5c70b774-a62c-40f4-a7a6-90febf02d4e4",
      "meta": {
        "profile": [ "http://hl7.org/fhir/us/qicore/StructureDefinition/qicore-encounter" ]
      },
      "status": "finished",
      "class": {
        "system": "http://terminology.hl7.org/CodeSystem/v3-ActCode",
        "code": "IMP",
        "display": "inpatient encounter"
      },
      "type": [ {
        "coding": [ {
          "system": "http://snomed.info/sct",
          "code": "183452005"
        } ]
      } ],
      "subject": {
        "reference": "Patient/79a2dd53-a342-41d9-a5c9-1b565bd06fe7"
      },
      "period": {
        "start": "2026-03-23T08:00:00.000+00:00",
        "end": "2026-03-30T07:15:00.000+00:00"
      },
      "reasonReference": [ {
        "reference": "Condition/15fc7a23-8607-46c6-a67c-9f7325f144a9"
      } ]
    },
    "request": {
      "method": "PUT",
      "url": "Encounter/5c70b774-a62c-40f4-a7a6-90febf02d4e4"
    }
  }, {
    "fullUrl": "https://madie.cms.gov/Encounter/b82aea76-c755-434d-a729-4e836a406381",
    "resource": {
      "resourceType": "Encounter",
      "id": "b82aea76-c755-434d-a729-4e836a406381",
      "meta": {
        "profile": [ "http://hl7.org/fhir/us/qicore/StructureDefinition/qicore-encounter" ]
      },
      "status": "finished",
      "class": {
        "system": "http://terminology.hl7.org/CodeSystem/v3-ActCode",
        "code": "EMER",
        "display": "emergency"
      },
      "type": [ {
        "coding": [ {
          "system": "http://snomed.info/sct",
          "code": "4525004"
        } ]
      } ],
      "subject": {
        "reference": "Patient/79a2dd53-a342-41d9-a5c9-1b565bd06fe7"
      },
      "period": {
        "start": "2026-03-22T06:00:00.000+00:00",
        "end": "2026-03-23T07:15:00.000+00:00"
      }
    },
    "request": {
      "method": "PUT",
      "url": "Encounter/b82aea76-c755-434d-a729-4e836a406381"
    }
  }, {
    "fullUrl": "https://madie.cms.gov/MedicationAdministration/e21e9965-1b86-485b-9ce2-dc429b5f8e27",
    "resource": {
      "resourceType": "MedicationAdministration",
      "id": "e21e9965-1b86-485b-9ce2-dc429b5f8e27",
      "meta": {
        "profile": [ "http://hl7.org/fhir/us/qicore/StructureDefinition/qicore-medicationadministration" ]
      },
      "status": "completed",
      "medicationCodeableConcept": {
        "coding": [ {
          "system": "http://www.nlm.nih.gov/research/umls/rxnorm",
          "code": "1804799"
        } ]
      },
      "subject": {
        "reference": "Patient/79a2dd53-a342-41d9-a5c9-1b565bd06fe7"
      },
      "effectivePeriod": {
        "start": "2026-03-21T06:00:00.000+00:00",
        "end": "2026-03-22T06:15:00.000+00:00"
      }
    },
    "request": {
      "method": "PUT",
      "url": "MedicationAdministration/e21e9965-1b86-485b-9ce2-dc429b5f8e27"
    }
  }, {
    "fullUrl": "https://madie.cms.gov/MedicationRequest/00610633-8405-4220-b527-50b7855691cb",
    "resource": {
      "resourceType": "MedicationRequest",
      "id": "00610633-8405-4220-b527-50b7855691cb",
      "meta": {
        "profile": [ "http://hl7.org/fhir/us/qicore/StructureDefinition/qicore-medicationrequest" ]
      },
      "status": "completed",
      "intent": "order",
      "medicationCodeableConcept": {
        "coding": [ {
          "system": "http://www.nlm.nih.gov/research/umls/rxnorm",
          "code": "1037045"
        } ]
      },
      "subject": {
        "reference": "Patient/79a2dd53-a342-41d9-a5c9-1b565bd06fe7"
      },
      "authoredOn": "2026-03-23T08:00:00.000+00:00",
      "requester": {
        "reference": "Practitioner/example"
      },
      "dosageInstruction": [ {
        "timing": {
          "repeat": {
            "boundsPeriod": {
              "start": "2026-03-23T08:00:00.000+00:00",
              "end": "2026-03-24T07:15:00.000+00:00"
            }
          }
        }
      } ]
    },
    "request": {
      "method": "PUT",
      "url": "MedicationRequest/00610633-8405-4220-b527-50b7855691cb"
    }
  }, {
    "fullUrl": "https://madie.cms.gov/Condition/15fc7a23-8607-46c6-a67c-9f7325f144a9",
    "resource": {
      "resourceType": "Condition",
      "id": "15fc7a23-8607-46c6-a67c-9f7325f144a9",
      "meta": {
        "profile": [ "http://hl7.org/fhir/us/qicore/StructureDefinition/qicore-condition-encounter-diagnosis" ]
      },
      "clinicalStatus": {
        "coding": [ {
          "system": "http://terminology.hl7.org/CodeSystem/condition-clinical",
          "code": "active"
        } ]
      },
      "verificationStatus": {
        "coding": [ {
          "system": "http://terminology.hl7.org/CodeSystem/condition-ver-status",
          "code": "confirmed"
        } ]
      },
      "category": [ {
        "coding": [ {
          "system": "http://terminology.hl7.org/CodeSystem/condition-category",
          "code": "encounter-diagnosis",
          "display": "Encounter Diagnosis"
        } ]
      } ],
      "code": {
        "coding": [ {
          "system": "http://snomed.info/sct",
          "version": "2020-09",
          "code": "111297002",
          "display": "Nonparalytic stroke (disorder)",
          "userSelected": true
        } ]
      },
      "subject": {
        "reference": "Patient/79a2dd53-a342-41d9-a5c9-1b565bd06fe7"
      },
      "encounter": {
        "reference": "Encounter/5c70b774-a62c-40f4-a7a6-90febf02d4e4"
      },
      "recordedDate": "2026-08-13T08:00:00.000+00:00"
    },
    "request": {
      "method": "PUT",
      "url": "Condition/15fc7a23-8607-46c6-a67c-9f7325f144a9"
    }
  }, {
    "fullUrl": "https://madie.cms.gov/claim/5ca62962b8484628b8de1ec5",
    "resource": {
      "resourceType": "Claim",
      "id": "5ca62962b8484628b8de1ec5",
      "meta": {
        "profile": [ "http://hl7.org/fhir/us/qicore/StructureDefinition/qicore-claim" ]
      },
      "status": "active",
      "type": {
        "coding": [ {
          "system": "http://terminology.hl7.org/CodeSystem/claim-type",
          "code": "institutional"
        } ]
      },
      "use": "claim",
      "patient": {
        "reference": "Patient/5450abfd-a667-4eb9-9b59-e85feed4865c"
      },
      "created": "2026-12-01",
      "provider": {
        "reference": "Practitioner/practitioner-123456"
      },
      "priority": {
        "coding": [ {
          "system": "http://terminology.hl7.org/CodeSystem/processpriority",
          "code": "normal"
        } ]
      },
      "diagnosis": [ {
        "sequence": 1,
        "diagnosisCodeableConcept": {
          "coding": [ {
            "system": "http://hl7.org/fhir/sid/icd-10-cm",
            "code": "I63.00"
          } ]
        },
        "type": [ {
          "coding": [ {
            "system": "http://terminology.hl7.org/CodeSystem/ex-diagnosistype",
            "code": "principal"
          } ]
        } ]
      } ],
      "insurance": [ {
        "sequence": 1,
        "focal": true,
        "coverage": {
          "reference": "Coverage/5fa041661c76ba66d9959367"
        }
      } ],
      "item": [ {
        "sequence": 1,
        "diagnosisSequence": [ 1 ],
        "productOrService": {
          "coding": [ {
            "system": "http://terminology.hl7.org/CodeSystem/ex-USCLS",
            "code": "99555"
          } ]
        },
        "encounter": [ {
          "reference": "Encounter/5c70b774-a62c-40f4-a7a6-90febf02d4e4"
        } ]
      } ]
    },
    "request": {
      "method": "PUT",
      "url": "Claim/5ca62962b8484628b8de1ec5"
    }
  }, {
    "fullUrl": "https://madie.cms.gov/Coverage/da7ff796-a14b-4cef-b28f-a0f0778b3d58",
    "resource": {
      "resourceType": "Coverage",
      "id": "da7ff796-a14b-4cef-b28f-a0f0778b3d58",
      "meta": {
        "profile": [ "http://hl7.org/fhir/us/qicore/StructureDefinition/qicore-coverage" ]
      },
      "status": "active",
      "beneficiary": {
        "reference": "Patient/79a2dd53-a342-41d9-a5c9-1b565bd06fe7"
      },
      "payor": [ {
        "reference": "Organization/ce36dd22-66a9-4cbc-b1e3-c0fed6d0d955"
      } ]
    },
    "request": {
      "method": "PUT",
      "url": "Coverage/da7ff796-a14b-4cef-b28f-a0f0778b3d58"
    }
  }, {
    "fullUrl": "https://madie.cms.gov/Organization/ce36dd22-66a9-4cbc-b1e3-c0fed6d0d955",
    "resource": {
      "resourceType": "Organization",
      "id": "ce36dd22-66a9-4cbc-b1e3-c0fed6d0d955",
      "meta": {
        "profile": [ "http://hl7.org/fhir/us/qicore/StructureDefinition/qicore-organization" ]
      },
      "identifier": [ {
        "use": "temp",
        "system": "urn:oid:2.16.840.1.113883.4.4",
        "value": "21-3259825"
      } ],
      "active": true,
      "type": [ {
        "coding": [ {
          "system": "http://terminology.hl7.org/CodeSystem/organization-type",
          "code": "pay",
          "display": "Payer"
        } ]
      } ],
      "name": "Blue Cross Blue Shield of Texas",
      "telecom": [ {
        "system": "phone",
        "value": "(+1) 972-766-6900"
      } ],
      "address": [ {
        "use": "billing",
        "type": "postal",
        "line": [ "P.O. Box 660044" ],
        "city": "Dallas",
        "state": "TX",
        "postalCode": "75266-0044",
        "country": "USA"
      } ]
    },
    "request": {
      "method": "PUT",
      "url": "Organization/ce36dd22-66a9-4cbc-b1e3-c0fed6d0d955"
    }
  }, {
    "fullUrl": "https://madie.cms.gov/MeasureReport/8e55f8f9-811b-4767-9567-dedda66a00ba",
    "resource": {
      "resourceType": "MeasureReport",
      "id": "8e55f8f9-811b-4767-9567-dedda66a00ba",
      "meta": {
        "profile": [ "http://hl7.org/fhir/us/cqfmeasures/StructureDefinition/test-case-cqfm" ]
      },
      "contained": [ {
        "resourceType": "Parameters",
        "id": "b91fd768-8a7d-4420-b62d-5144d98f3562-parameters",
        "parameter": [ {
          "name": "subject",
          "valueString": "79a2dd53-a342-41d9-a5c9-1b565bd06fe7"
        } ]
      } ],
      "extension": [ {
        "url": "http://hl7.org/fhir/StructureDefinition/cqf-inputParameters",
        "valueReference": {
          "reference": "#b91fd768-8a7d-4420-b62d-5144d98f3562-parameters"
        }
      }, {
        "url": "http://hl7.org/fhir/us/cqfmeasures/StructureDefinition/cqfm-testCaseDescription",
        "valueMarkdown": "Testing Interval function to determine if the timing of the TPA has an affect of passing the denominator exclusion. Based on 2020 AU issue ticket 2161. Any time before hospitalization starts does not meet the exclusion. \n"
      } ],
      "modifierExtension": [ {
        "url": "http://hl7.org/fhir/us/cqfmeasures/StructureDefinition/cqfm-isTestCase",
        "valueBoolean": true
      } ],
      "status": "complete",
      "type": "individual",
      "measure": "https://madie.cms.gov/Measure/CMS72FHIRSTKAntithromboticDay2",
      "period": {
        "start": "2026-01-01",
        "end": "2026-12-31"
      },
      "group": [ {
        "id": "Group_1",
        "population": [ {
          "id": "InitialPopulation_1",
          "code": {
            "coding": [ {
              "system": "http://terminology.hl7.org/CodeSystem/measure-population",
              "code": "initial-population",
              "display": "Initial Population"
            } ]
          },
          "count": 1
        }, {
          "id": "Denominator_1",
          "code": {
            "coding": [ {
              "system": "http://terminology.hl7.org/CodeSystem/measure-population",
              "code": "denominator",
              "display": "Denominator"
            } ]
          },
          "count": 1
        }, {
          "id": "DenominatorExclusion_1",
          "code": {
            "coding": [ {
              "system": "http://terminology.hl7.org/CodeSystem/measure-population",
              "code": "denominator-exclusion",
              "display": "Denominator Exclusion"
            } ]
          },
          "count": 1
        }, {
          "id": "Numerator_1",
          "code": {
            "coding": [ {
              "system": "http://terminology.hl7.org/CodeSystem/measure-population",
              "code": "numerator",
              "display": "Numerator"
            } ]
          },
          "count": 0
        }, {
          "id": "DenominatorException_1",
          "code": {
            "coding": [ {
              "system": "http://terminology.hl7.org/CodeSystem/measure-population",
              "code": "denominator-exception",
              "display": "Denominator Exception"
            } ]
          },
          "count": 0
        } ],
        "measureScore": {
          "value": 0.0
        }
      } ],
      "evaluatedResource": [ {
        "reference": "Patient/79a2dd53-a342-41d9-a5c9-1b565bd06fe7"
      }, {
        "reference": "Encounter/5c70b774-a62c-40f4-a7a6-90febf02d4e4"
      }, {
        "reference": "Encounter/b82aea76-c755-434d-a729-4e836a406381"
      }, {
        "reference": "MedicationAdministration/e21e9965-1b86-485b-9ce2-dc429b5f8e27"
      }, {
        "reference": "MedicationRequest/00610633-8405-4220-b527-50b7855691cb"
      }, {
        "reference": "Condition/15fc7a23-8607-46c6-a67c-9f7325f144a9"
      }, {
        "reference": "Claim/5ca62962b8484628b8de1ec5"
      }, {
        "reference": "Coverage/da7ff796-a14b-4cef-b28f-a0f0778b3d58"
      }, {
        "reference": "Organization/ce36dd22-66a9-4cbc-b1e3-c0fed6d0d955"
      } ]
    },
    "request": {
      "method": "PUT",
      "url": "MeasureReport/8e55f8f9-811b-4767-9567-dedda66a00ba"
    }
  } ]
}