{
  "resourceType": "Bundle",
  "id": "Patient-4-DENEXPass-ActiveMedEnds105DaysPriorToIPSD",
  "type": "transaction",
  "entry": [ {
    "fullUrl": "https://madie.cms.gov/Patient/9ab27fb9-1253-4b89-b88c-693d5f8ae65d",
    "resource": {
      "resourceType": "Patient",
      "id": "9ab27fb9-1253-4b89-b88c-693d5f8ae65d",
      "meta": {
        "profile": [ "http://hl7.org/fhir/us/qicore/StructureDefinition/qicore-patient" ]
      },
      "extension": [ {
        "url": "http://hl7.org/fhir/us/core/StructureDefinition/us-core-race",
        "extension": [ {
          "url": "ombCategory",
          "valueCoding": {
            "system": "urn:oid:2.16.840.1.113883.6.238",
            "code": "2028-9",
            "display": "Asian"
          }
        }, {
          "url": "text",
          "valueString": "Asian"
        } ]
      }, {
        "url": "http://hl7.org/fhir/us/core/StructureDefinition/us-core-ethnicity",
        "extension": [ {
          "url": "ombCategory",
          "valueCoding": {
            "system": "urn:oid:2.16.840.1.113883.6.238",
            "code": "2135-2",
            "display": "Hispanic or Latino"
          }
        }, {
          "url": "text",
          "valueString": "Hispanic or Latino"
        } ]
      } ],
      "identifier": [ {
        "system": "http://hospital.smarthealthit.org",
        "value": "999999995"
      } ],
      "name": [ {
        "family": "Bertha",
        "given": [ "Betty" ]
      } ],
      "gender": "female",
      "birthDate": "2007-01-01"
    },
    "request": {
      "method": "PUT",
      "url": "Patient/9ab27fb9-1253-4b89-b88c-693d5f8ae65d"
    }
  }, {
    "fullUrl": "https://madie.cms.gov/Encounter/56e8b446-d42f-46b3-8a7a-9173e52a9d0c",
    "resource": {
      "resourceType": "Encounter",
      "id": "56e8b446-d42f-46b3-8a7a-9173e52a9d0c",
      "meta": {
        "profile": [ "http://hl7.org/fhir/us/qicore/StructureDefinition/qicore-encounter" ]
      },
      "status": "finished",
      "class": {
        "system": "http://terminology.hl7.org/CodeSystem/v3-ActCode",
        "code": "AMB",
        "display": "ambulatory"
      },
      "type": [ {
        "coding": [ {
          "system": "http://snomed.info/sct",
          "code": "3391000175108",
          "display": "Office visit for pediatric care and assessment (procedure)"
        } ]
      } ],
      "subject": {
        "reference": "Patient/9ab27fb9-1253-4b89-b88c-693d5f8ae65d"
      },
      "period": {
        "start": "2026-01-01T00:00:00.000+00:00",
        "end": "2026-01-01T01:00:00.000+00:00"
      }
    },
    "request": {
      "method": "PUT",
      "url": "Encounter/56e8b446-d42f-46b3-8a7a-9173e52a9d0c"
    }
  }, {
    "fullUrl": "https://madie.cms.gov/MedicationDispense/a17f9c65-a497-4da4-a2eb-9f1441f1ffad",
    "resource": {
      "resourceType": "MedicationDispense",
      "id": "a17f9c65-a497-4da4-a2eb-9f1441f1ffad",
      "meta": {
        "profile": [ "http://hl7.org/fhir/us/qicore/StructureDefinition/qicore-medicationdispense" ]
      },
      "status": "completed",
      "medicationCodeableConcept": {
        "coding": [ {
          "system": "http://www.nlm.nih.gov/research/umls/rxnorm",
          "code": "1099316",
          "display": "desipramine hydrochloride 75 MG Oral Tablet"
        } ]
      },
      "subject": {
        "reference": "Patient/9ab27fb9-1253-4b89-b88c-693d5f8ae65d"
      },
      "daysSupply": {
        "value": 10,
        "system": "http://unitsofmeasure.org",
        "code": "d"
      },
      "whenHandedOver": "2026-01-01T01:00:00.000+00:00"
    },
    "request": {
      "method": "PUT",
      "url": "MedicationDispense/a17f9c65-a497-4da4-a2eb-9f1441f1ffad"
    }
  }, {
    "fullUrl": "https://madie.cms.gov/Condition/a20eda44-cd50-457d-93da-344dfbab9602",
    "resource": {
      "resourceType": "Condition",
      "id": "a20eda44-cd50-457d-93da-344dfbab9602",
      "meta": {
        "profile": [ "http://hl7.org/fhir/us/qicore/StructureDefinition/qicore-condition-encounter-diagnosis" ]
      },
      "clinicalStatus": {
        "coding": [ {
          "system": "http://terminology.hl7.org/CodeSystem/condition-clinical",
          "code": "active"
        } ]
      },
      "category": [ {
        "coding": [ {
          "system": "http://terminology.hl7.org/CodeSystem/condition-category",
          "code": "encounter-diagnosis",
          "display": "Encounter Diagnosis"
        } ]
      } ],
      "code": {
        "coding": [ {
          "system": "http://snomed.info/sct",
          "code": "15193003",
          "display": "Severe recurrent major depression with psychotic features, mood-incongruent (disorder)"
        } ]
      },
      "subject": {
        "reference": "Patient/9ab27fb9-1253-4b89-b88c-693d5f8ae65d"
      },
      "onsetDateTime": "2026-01-01T01:00:00.000+00:00"
    },
    "request": {
      "method": "PUT",
      "url": "Condition/a20eda44-cd50-457d-93da-344dfbab9602"
    }
  }, {
    "fullUrl": "https://madie.cms.gov/MedicationRequest/dc03fd13-94ff-4d61-bb9e-252d838f4014",
    "resource": {
      "resourceType": "MedicationRequest",
      "id": "dc03fd13-94ff-4d61-bb9e-252d838f4014",
      "meta": {
        "profile": [ "http://hl7.org/fhir/us/qicore/StructureDefinition/qicore-medicationrequest" ]
      },
      "status": "active",
      "intent": "order",
      "medicationCodeableConcept": {
        "coding": [ {
          "system": "http://www.nlm.nih.gov/research/umls/rxnorm",
          "code": "1099316",
          "display": "desipramine hydrochloride 75 MG Oral Tablet"
        } ]
      },
      "subject": {
        "reference": "Patient/9ab27fb9-1253-4b89-b88c-693d5f8ae65d"
      },
      "authoredOn": "2024-01-01T00:00:00.000+00:00",
      "requester": {
        "reference": "Practitioner/example"
      },
      "dosageInstruction": [ {
        "timing": {
          "repeat": {
            "boundsPeriod": {
              "start": "2024-01-01T00:00:00.000+00:00",
              "end": "2025-09-18T00:00:00.000+00:00"
            }
          }
        }
      } ]
    },
    "request": {
      "method": "PUT",
      "url": "MedicationRequest/dc03fd13-94ff-4d61-bb9e-252d838f4014"
    }
  }, {
    "fullUrl": "https://madie.cms.gov/MeasureReport/9e9f73b2-e121-4c23-a064-1fbadea55057",
    "resource": {
      "resourceType": "MeasureReport",
      "id": "9e9f73b2-e121-4c23-a064-1fbadea55057",
      "meta": {
        "profile": [ "http://hl7.org/fhir/us/cqfmeasures/StructureDefinition/test-case-cqfm" ]
      },
      "contained": [ {
        "resourceType": "Parameters",
        "id": "ae5381d4-2429-449a-bb14-5d5001625440-parameters",
        "parameter": [ {
          "name": "subject",
          "valueString": "9ab27fb9-1253-4b89-b88c-693d5f8ae65d"
        } ]
      } ],
      "extension": [ {
        "url": "http://hl7.org/fhir/StructureDefinition/cqf-inputParameters",
        "valueReference": {
          "reference": "#ae5381d4-2429-449a-bb14-5d5001625440-parameters"
        }
      }, {
        "url": "http://hl7.org/fhir/us/cqfmeasures/StructureDefinition/cqfm-testCaseDescription",
        "valueMarkdown": "Active antidepressant ends 105 days prior to IPSD"
      } ],
      "modifierExtension": [ {
        "url": "http://hl7.org/fhir/us/cqfmeasures/StructureDefinition/cqfm-isTestCase",
        "valueBoolean": true
      } ],
      "status": "complete",
      "type": "individual",
      "measure": "https://madie.cms.gov/Measure/CMS128FHIRAntidepressantMgmt",
      "period": {
        "start": "2026-01-01",
        "end": "2026-12-31"
      },
      "group": [ {
        "id": "Group_1",
        "population": [ {
          "id": "InitialPopulation_1",
          "code": {
            "coding": [ {
              "system": "http://terminology.hl7.org/CodeSystem/measure-population",
              "code": "initial-population",
              "display": "Initial Population"
            } ]
          },
          "count": 1
        }, {
          "id": "Denominator_1",
          "code": {
            "coding": [ {
              "system": "http://terminology.hl7.org/CodeSystem/measure-population",
              "code": "denominator",
              "display": "Denominator"
            } ]
          },
          "count": 1
        }, {
          "id": "DenominatorExclusion_1",
          "code": {
            "coding": [ {
              "system": "http://terminology.hl7.org/CodeSystem/measure-population",
              "code": "denominator-exclusion",
              "display": "Denominator Exclusion"
            } ]
          },
          "count": 1
        }, {
          "id": "Numerator_1",
          "code": {
            "coding": [ {
              "system": "http://terminology.hl7.org/CodeSystem/measure-population",
              "code": "numerator",
              "display": "Numerator"
            } ]
          },
          "count": 0
        } ],
        "measureScore": {
          "value": 1.0
        }
      }, {
        "id": "Group_2",
        "population": [ {
          "id": "InitialPopulation_2",
          "code": {
            "coding": [ {
              "system": "http://terminology.hl7.org/CodeSystem/measure-population",
              "code": "initial-population",
              "display": "Initial Population"
            } ]
          },
          "count": 1
        }, {
          "id": "Denominator_2",
          "code": {
            "coding": [ {
              "system": "http://terminology.hl7.org/CodeSystem/measure-population",
              "code": "denominator",
              "display": "Denominator"
            } ]
          },
          "count": 1
        }, {
          "id": "DenominatorExclusion_2",
          "code": {
            "coding": [ {
              "system": "http://terminology.hl7.org/CodeSystem/measure-population",
              "code": "denominator-exclusion",
              "display": "Denominator Exclusion"
            } ]
          },
          "count": 1
        }, {
          "id": "Numerator_2",
          "code": {
            "coding": [ {
              "system": "http://terminology.hl7.org/CodeSystem/measure-population",
              "code": "numerator",
              "display": "Numerator"
            } ]
          },
          "count": 0
        } ],
        "measureScore": {
          "value": 1.0
        }
      } ],
      "evaluatedResource": [ {
        "reference": "Patient/9ab27fb9-1253-4b89-b88c-693d5f8ae65d"
      }, {
        "reference": "Encounter/56e8b446-d42f-46b3-8a7a-9173e52a9d0c"
      }, {
        "reference": "MedicationDispense/a17f9c65-a497-4da4-a2eb-9f1441f1ffad"
      }, {
        "reference": "Condition/a20eda44-cd50-457d-93da-344dfbab9602"
      }, {
        "reference": "MedicationRequest/dc03fd13-94ff-4d61-bb9e-252d838f4014"
      } ]
    },
    "request": {
      "method": "PUT",
      "url": "MeasureReport/9e9f73b2-e121-4c23-a064-1fbadea55057"
    }
  } ]
}