{
  "resourceType": "Bundle",
  "id": "612e6b9302c62a011f2ee63c",
  "type": "transaction",
  "entry": [ {
    "fullUrl": "https://madie.cms.gov/Patient/3c854f27-5103-4367-bdef-97c3cde1edb8",
    "resource": {
      "resourceType": "Patient",
      "id": "3c854f27-5103-4367-bdef-97c3cde1edb8",
      "meta": {
        "profile": [ "http://hl7.org/fhir/us/qicore/StructureDefinition/qicore-patient" ]
      },
      "text": {
        "status": "generated",
        "div": "<div xmlns=\"http://www.w3.org/1999/xhtml\"><div class=\"hapiHeaderText\">PtRefDOGCSTaskReject <b>NUMERPASS </b></div><table class=\"hapiPropertyTable\"><tbody><tr><td>Identifier</td><td>24fc1ce85ce14557dd4d9eba17df9f17</td></tr><tr><td>Date of birth</td><td><span>02 January 1974</span></td></tr></tbody></table></div>"
      },
      "extension": [ {
        "url": "http://hl7.org/fhir/us/core/StructureDefinition/us-core-race",
        "extension": [ {
          "url": "ombCategory",
          "valueCoding": {
            "system": "urn:oid:2.16.840.1.113883.6.238",
            "code": "1002-5",
            "display": "American Indian or Alaska Native",
            "userSelected": true
          }
        }, {
          "url": "text",
          "valueString": "American Indian or Alaska Native"
        } ]
      }, {
        "url": "http://hl7.org/fhir/us/core/StructureDefinition/us-core-ethnicity",
        "extension": [ {
          "url": "ombCategory",
          "valueCoding": {
            "system": "urn:oid:2.16.840.1.113883.6.238",
            "code": "2135-2",
            "display": "Hispanic or Latino",
            "userSelected": true
          }
        }, {
          "url": "text",
          "valueString": "Hispanic or Latino"
        } ]
      } ],
      "identifier": [ {
        "type": {
          "coding": [ {
            "system": "http://terminology.hl7.org/CodeSystem/v2-0203",
            "code": "MR"
          } ]
        },
        "system": "https://bonnie-fhir.healthit.gov/",
        "value": "612e6b9302c62a011f2ee63c"
      } ],
      "active": true,
      "name": [ {
        "use": "usual",
        "family": "NUMERPass",
        "given": [ "PtRefDOGCSTaskReject" ]
      } ],
      "gender": "male",
      "birthDate": "1975-01-02"
    },
    "request": {
      "method": "PUT",
      "url": "Patient/3c854f27-5103-4367-bdef-97c3cde1edb8"
    }
  }, {
    "fullUrl": "https://madie.cms.gov/Encounter/51ddeb00-e6f2-4395-910a-c4572f340c85",
    "resource": {
      "resourceType": "Encounter",
      "id": "51ddeb00-e6f2-4395-910a-c4572f340c85",
      "meta": {
        "profile": [ "http://hl7.org/fhir/us/qicore/StructureDefinition/qicore-encounter" ]
      },
      "status": "finished",
      "class": {
        "system": "http://terminology.hl7.org/CodeSystem/v3-ActCode",
        "code": "IMP",
        "display": "inpatient encounter"
      },
      "type": [ {
        "coding": [ {
          "system": "http://snomed.info/sct",
          "code": "8715000"
        } ]
      } ],
      "subject": {
        "reference": "Patient/3c854f27-5103-4367-bdef-97c3cde1edb8"
      },
      "period": {
        "start": "2026-11-01T08:00:00.000+00:00",
        "end": "2026-11-26T08:15:00.000+00:00"
      },
      "length": {
        "value": 25,
        "unit": "days"
      }
    },
    "request": {
      "method": "PUT",
      "url": "Encounter/51ddeb00-e6f2-4395-910a-c4572f340c85"
    }
  }, {
    "fullUrl": "https://madie.cms.gov/Coverage/cced3509-a9db-4d44-ad6a-eff2dc5faa24",
    "resource": {
      "resourceType": "Coverage",
      "id": "cced3509-a9db-4d44-ad6a-eff2dc5faa24",
      "status": "active",
      "beneficiary": {
        "reference": "Patient/3c854f27-5103-4367-bdef-97c3cde1edb8"
      },
      "period": {
        "start": "1975-01-02T08:00:00.000+00:00"
      },
      "payor": [ {
        "reference": "Organization/fa56abb9-7994-44b8-8eae-dbe0ed76573b"
      } ]
    },
    "request": {
      "method": "PUT",
      "url": "Coverage/cced3509-a9db-4d44-ad6a-eff2dc5faa24"
    }
  }, {
    "fullUrl": "https://madie.cms.gov/Procedure/691de5ab-afe3-45f2-b45d-a9bf630d31e8",
    "resource": {
      "resourceType": "Procedure",
      "id": "691de5ab-afe3-45f2-b45d-a9bf630d31e8",
      "meta": {
        "profile": [ "http://hl7.org/fhir/us/qicore/StructureDefinition/qicore-procedure" ]
      },
      "extension": [ {
        "url": "http://hl7.org/fhir/us/qicore/StructureDefinition/qicore-recorded",
        "valueDateTime": "2013-11-03T13:35:00.000+00:00"
      } ],
      "status": "completed",
      "code": {
        "coding": [ {
          "system": "http://www.icd10data.com/icd10pcs",
          "code": "3E030FZ"
        }, {
          "system": "http://snomed.info/sct",
          "code": "401640004"
        } ]
      },
      "subject": {
        "reference": "Patient/3c854f27-5103-4367-bdef-97c3cde1edb8"
      },
      "performedPeriod": {
        "start": "2026-11-02T09:00:00.000+00:00",
        "end": "2026-11-02T09:15:00.000+00:00"
      }
    },
    "request": {
      "method": "PUT",
      "url": "Procedure/691de5ab-afe3-45f2-b45d-a9bf630d31e8"
    }
  }, {
    "fullUrl": "https://madie.cms.gov/ServiceRequest/92d8e366-cd5b-4943-a92d-c0366b4a368b",
    "resource": {
      "resourceType": "ServiceRequest",
      "id": "92d8e366-cd5b-4943-a92d-c0366b4a368b",
      "meta": {
        "profile": [ "http://hl7.org/fhir/us/qicore/StructureDefinition/qicore-servicerequest" ]
      },
      "status": "active",
      "intent": "order",
      "doNotPerform": true,
      "code": {
        "coding": [ {
          "system": "http://snomed.info/sct",
          "version": "2025-03",
          "code": "401640004"
        } ]
      },
      "subject": {
        "reference": "Patient/3c854f27-5103-4367-bdef-97c3cde1edb8"
      },
      "authoredOn": "2026-11-02T11:00:00.000+00:00"
    },
    "request": {
      "method": "PUT",
      "url": "ServiceRequest/92d8e366-cd5b-4943-a92d-c0366b4a368b"
    }
  }, {
    "fullUrl": "https://madie.cms.gov/Task/d9750d5c-10af-47a0-ba47-43d9d383f82a",
    "resource": {
      "resourceType": "Task",
      "id": "d9750d5c-10af-47a0-ba47-43d9d383f82a",
      "meta": {
        "profile": [ "http://hl7.org/fhir/us/qicore/StructureDefinition/qicore-taskrejected" ]
      },
      "status": "rejected",
      "statusReason": {
        "coding": [ {
          "system": "http://snomed.info/sct",
          "code": "443390004",
          "display": "Refusal of treatment by patient (situation)",
          "userSelected": true
        } ]
      },
      "code": {
        "coding": [ {
          "system": "http://hl7.org/fhir/CodeSystem/task-code",
          "code": "fulfill"
        } ]
      },
      "focus": {
        "reference": "ServiceRequest/92d8e366-cd5b-4943-a92d-c0366b4a368b"
      },
      "executionPeriod": {
        "start": "2026-11-02T11:30:00.000+00:00",
        "end": "2026-11-02T11:35:00.000+00:00"
      }
    },
    "request": {
      "method": "PUT",
      "url": "Task/d9750d5c-10af-47a0-ba47-43d9d383f82a"
    }
  }, {
    "fullUrl": "https://madie.cms.gov/Organization/fa56abb9-7994-44b8-8eae-dbe0ed76573b",
    "resource": {
      "resourceType": "Organization",
      "id": "fa56abb9-7994-44b8-8eae-dbe0ed76573b",
      "meta": {
        "profile": [ "http://hl7.org/fhir/us/qicore/StructureDefinition/qicore-organization" ]
      },
      "identifier": [ {
        "use": "temp",
        "system": "urn:oid:2.16.840.1.113883.4.4",
        "value": "21-3259825"
      } ],
      "active": true,
      "type": [ {
        "coding": [ {
          "system": "http://terminology.hl7.org/CodeSystem/organization-type",
          "code": "pay",
          "display": "Payer"
        } ]
      } ],
      "name": "Blue Cross Blue Shield of Texas",
      "telecom": [ {
        "system": "phone",
        "value": "(+1) 972-766-6900"
      } ],
      "address": [ {
        "use": "billing",
        "type": "postal",
        "line": [ "P.O. Box 660044" ],
        "city": "Dallas",
        "state": "TX",
        "postalCode": "75266-0044",
        "country": "USA"
      } ]
    },
    "request": {
      "method": "PUT",
      "url": "Organization/fa56abb9-7994-44b8-8eae-dbe0ed76573b"
    }
  }, {
    "fullUrl": "https://madie.cms.gov/Practitioner/dd83bee6-4f97-4f31-8a1d-35d67fa7e141",
    "resource": {
      "resourceType": "Practitioner",
      "id": "dd83bee6-4f97-4f31-8a1d-35d67fa7e141",
      "identifier": [ {
        "system": "http://hl7.org/fhir/sid/us-npi",
        "value": "123456"
      } ],
      "name": [ {
        "family": "Evil",
        "prefix": [ "Dr" ]
      } ]
    },
    "request": {
      "method": "PUT",
      "url": "Practitioner/dd83bee6-4f97-4f31-8a1d-35d67fa7e141"
    }
  }, {
    "fullUrl": "https://madie.cms.gov/MeasureReport/1c32114e-5b9f-4f01-b021-0b3dd5bd8adf",
    "resource": {
      "resourceType": "MeasureReport",
      "id": "1c32114e-5b9f-4f01-b021-0b3dd5bd8adf",
      "meta": {
        "profile": [ "http://hl7.org/fhir/us/cqfmeasures/StructureDefinition/test-case-cqfm" ]
      },
      "contained": [ {
        "resourceType": "Parameters",
        "id": "a0e4732a-96d0-4066-933b-460354f2d697-parameters",
        "parameter": [ {
          "name": "subject",
          "valueString": "3c854f27-5103-4367-bdef-97c3cde1edb8"
        } ]
      } ],
      "extension": [ {
        "url": "http://hl7.org/fhir/StructureDefinition/cqf-inputParameters",
        "valueReference": {
          "reference": "#a0e4732a-96d0-4066-933b-460354f2d697-parameters"
        }
      }, {
        "url": "http://hl7.org/fhir/us/cqfmeasures/StructureDefinition/cqfm-testCaseDescription",
        "valueMarkdown": "Graduated compression stockings\" order  rejected on 1 day after start of IP encounter and same day with Aneth\n"
      } ],
      "modifierExtension": [ {
        "url": "http://hl7.org/fhir/us/cqfmeasures/StructureDefinition/cqfm-isTestCase",
        "valueBoolean": true
      } ],
      "status": "complete",
      "type": "individual",
      "measure": "https://madie.cms.gov/Measure/CMS108FHIRVTEProphylaxis",
      "period": {
        "start": "2026-01-01",
        "end": "2026-12-31"
      },
      "group": [ {
        "id": "Group_1",
        "population": [ {
          "id": "InitialPopulation_1",
          "code": {
            "coding": [ {
              "system": "http://terminology.hl7.org/CodeSystem/measure-population",
              "code": "initial-population",
              "display": "Initial Population"
            } ]
          },
          "count": 1
        }, {
          "id": "Denominator_1",
          "code": {
            "coding": [ {
              "system": "http://terminology.hl7.org/CodeSystem/measure-population",
              "code": "denominator",
              "display": "Denominator"
            } ]
          },
          "count": 1
        }, {
          "id": "DenominatorExclusion_1",
          "code": {
            "coding": [ {
              "system": "http://terminology.hl7.org/CodeSystem/measure-population",
              "code": "denominator-exclusion",
              "display": "Denominator Exclusion"
            } ]
          },
          "count": 0
        }, {
          "id": "Numerator_1",
          "code": {
            "coding": [ {
              "system": "http://terminology.hl7.org/CodeSystem/measure-population",
              "code": "numerator",
              "display": "Numerator"
            } ]
          },
          "count": 1
        } ],
        "measureScore": {
          "value": 0.0
        }
      } ],
      "evaluatedResource": [ {
        "reference": "Patient/3c854f27-5103-4367-bdef-97c3cde1edb8"
      }, {
        "reference": "Encounter/51ddeb00-e6f2-4395-910a-c4572f340c85"
      }, {
        "reference": "Coverage/cced3509-a9db-4d44-ad6a-eff2dc5faa24"
      }, {
        "reference": "Procedure/691de5ab-afe3-45f2-b45d-a9bf630d31e8"
      }, {
        "reference": "ServiceRequest/92d8e366-cd5b-4943-a92d-c0366b4a368b"
      }, {
        "reference": "Task/d9750d5c-10af-47a0-ba47-43d9d383f82a"
      }, {
        "reference": "Organization/fa56abb9-7994-44b8-8eae-dbe0ed76573b"
      }, {
        "reference": "Practitioner/dd83bee6-4f97-4f31-8a1d-35d67fa7e141"
      } ]
    },
    "request": {
      "method": "PUT",
      "url": "MeasureReport/1c32114e-5b9f-4f01-b021-0b3dd5bd8adf"
    }
  } ]
}