{
  "resourceType": "Bundle",
  "id": "657cbdc9b4f1f0343662347a",
  "type": "transaction",
  "entry": [ {
    "fullUrl": "https://madie.cms.gov/Patient/865c6188-e4ad-4ca2-90e2-64bc6c93bcf1",
    "resource": {
      "resourceType": "Patient",
      "id": "865c6188-e4ad-4ca2-90e2-64bc6c93bcf1",
      "meta": {
        "profile": [ "http://hl7.org/fhir/us/qicore/StructureDefinition/qicore-patient" ]
      },
      "extension": [ {
        "url": "http://hl7.org/fhir/us/core/StructureDefinition/us-core-race",
        "extension": [ {
          "url": "ombCategory",
          "valueCoding": {
            "system": "urn:oid:2.16.840.1.113883.6.238",
            "code": "2106-3",
            "display": "White",
            "userSelected": true
          }
        }, {
          "url": "text",
          "valueString": "White"
        } ]
      }, {
        "url": "http://hl7.org/fhir/us/core/StructureDefinition/us-core-ethnicity",
        "extension": [ {
          "url": "ombCategory",
          "valueCoding": {
            "system": "urn:oid:2.16.840.1.113883.6.238",
            "code": "2186-5",
            "display": "Not Hispanic or Latino",
            "userSelected": true
          }
        }, {
          "url": "text",
          "valueString": "Not Hispanic or Latino"
        } ]
      } ],
      "identifier": [ {
        "type": {
          "coding": [ {
            "system": "http://terminology.hl7.org/CodeSystem/v2-0203",
            "code": "MR"
          } ]
        },
        "system": "https://bonnie-fhir.healthit.gov/",
        "value": "657cbdc9b4f1f0343662347a"
      } ],
      "name": [ {
        "family": "MedicationPass",
        "given": [ "Medication" ]
      } ],
      "gender": "female",
      "birthDate": "2008-01-01"
    },
    "request": {
      "method": "PUT",
      "url": "Patient/865c6188-e4ad-4ca2-90e2-64bc6c93bcf1"
    }
  }, {
    "fullUrl": "https://madie.cms.gov/Encounter/c5b4a659-b99a-4513-8bed-00886cf6ce38",
    "resource": {
      "resourceType": "Encounter",
      "id": "c5b4a659-b99a-4513-8bed-00886cf6ce38",
      "meta": {
        "profile": [ "http://hl7.org/fhir/us/qicore/StructureDefinition/qicore-encounter" ]
      },
      "status": "finished",
      "class": {
        "system": "http://terminology.hl7.org/CodeSystem/v3-ActCode",
        "code": "ACUTE",
        "display": "inpatient acute"
      },
      "type": [ {
        "coding": [ {
          "system": "http://snomed.info/sct",
          "version": "2024",
          "code": "32485007",
          "display": "Hospital admission (procedure)",
          "userSelected": true
        } ]
      } ],
      "subject": {
        "reference": "Patient/865c6188-e4ad-4ca2-90e2-64bc6c93bcf1"
      },
      "period": {
        "start": "2026-01-01T08:00:00.000Z",
        "end": "2026-01-02T09:15:00.000Z"
      },
      "diagnosis": [ {
        "condition": {
          "reference": "Condition/96515cbe-4dfe-43a9-97c9-49bf5aab7b66"
        },
        "use": {
          "coding": [ {
            "system": "http://terminology.hl7.org/CodeSystem/diagnosis-role",
            "code": "billing"
          } ]
        },
        "rank": 1
      } ]
    },
    "request": {
      "method": "PUT",
      "url": "Encounter/c5b4a659-b99a-4513-8bed-00886cf6ce38"
    }
  }, {
    "fullUrl": "https://madie.cms.gov/Location/a5207d8f-b20e-4edb-abc4-ae0de52175c8",
    "resource": {
      "resourceType": "Location",
      "id": "a5207d8f-b20e-4edb-abc4-ae0de52175c8",
      "meta": {
        "profile": [ "http://hl7.org/fhir/us/qicore/StructureDefinition/qicore-location" ]
      },
      "identifier": [ {
        "use": "usual",
        "system": "http://exampleoflocation.com",
        "value": "B1-S.F2"
      } ],
      "name": "Medical Surgical East, first floor",
      "type": [ {
        "coding": [ {
          "system": "https://www.cdc.gov/nhsn/cdaportal/terminology/codesystem/hsloc.html",
          "code": "1028-0",
          "display": "Medical Cardiac Critical Care",
          "userSelected": true
        } ]
      } ]
    },
    "request": {
      "method": "PUT",
      "url": "Location/a5207d8f-b20e-4edb-abc4-ae0de52175c8"
    }
  }, {
    "fullUrl": "https://madie.cms.gov/MedicationRequest/0aa64a82-0996-4f44-a115-676309c275fa",
    "resource": {
      "resourceType": "MedicationRequest",
      "id": "0aa64a82-0996-4f44-a115-676309c275fa",
      "meta": {
        "profile": [ "http://hl7.org/fhir/us/qicore/StructureDefinition/qicore-medicationrequest" ]
      },
      "status": "completed",
      "intent": "order",
      "medicationReference": {
        "reference": "Medication/9d282543-33b2-417d-92c9-ef158be51ab5"
      },
      "subject": {
        "reference": "Patient/865c6188-e4ad-4ca2-90e2-64bc6c93bcf1"
      },
      "authoredOn": "2026-01-01T08:15:00.000Z",
      "requester": {
        "reference": "Practitioner/33d87640-6b2a-40b0-ab11-542478a88d5a"
      },
      "dosageInstruction": [ {
        "timing": {
          "repeat": {
            "boundsPeriod": {
              "start": "2025-01-01T08:15:00.000Z"
            }
          }
        }
      } ]
    },
    "request": {
      "method": "PUT",
      "url": "MedicationRequest/0aa64a82-0996-4f44-a115-676309c275fa"
    }
  }, {
    "fullUrl": "https://madie.cms.gov/Medication/9d282543-33b2-417d-92c9-ef158be51ab5",
    "resource": {
      "resourceType": "Medication",
      "id": "9d282543-33b2-417d-92c9-ef158be51ab5",
      "meta": {
        "profile": [ "http://hl7.org/fhir/us/qicore/StructureDefinition/qicore-medication" ]
      },
      "code": {
        "coding": [ {
          "system": "http://www.nlm.nih.gov/research/umls/rxnorm",
          "code": "1007184",
          "display": "insulin aspart protamine, human / insulin aspart, human"
        } ]
      },
      "status": "active",
      "manufacturer": {
        "reference": "Organization/964ce852-fff9-4f2a-ad22-60ccbbe66225"
      },
      "form": {
        "coding": [ {
          "system": "http://snomed.info/sct",
          "code": "385219001",
          "display": "Conventional release solution for injection (dose form)"
        } ]
      },
      "amount": {
        "numerator": {
          "value": 1
        },
        "denominator": {
          "value": 128
        }
      },
      "ingredient": [ {
        "itemCodeableConcept": {
          "coding": [ {
            "system": "http://snomed.info/sct",
            "code": "420609005",
            "display": "Human regular insulin (substance)"
          } ]
        },
        "strength": {
          "numerator": {
            "value": 12,
            "system": "http://unitsofmeasure.org",
            "code": "mg"
          },
          "denominator": {
            "value": 1.2,
            "system": "http://unitsofmeasure.org",
            "code": "mL"
          }
        }
      } ],
      "batch": {
        "lotNumber": "9494788",
        "expirationDate": "2026-05-22"
      }
    },
    "request": {
      "method": "PUT",
      "url": "Medication/9d282543-33b2-417d-92c9-ef158be51ab5"
    }
  }, {
    "fullUrl": "https://madie.cms.gov/MedicationAdministration/0b5e983e-6ebd-4c9b-876b-9eb5b02c25f8",
    "resource": {
      "resourceType": "MedicationAdministration",
      "id": "0b5e983e-6ebd-4c9b-876b-9eb5b02c25f8",
      "meta": {
        "profile": [ "http://hl7.org/fhir/us/qicore/StructureDefinition/qicore-medicationadministration" ]
      },
      "status": "completed",
      "medicationReference": {
        "reference": "Medication/9d282543-33b2-417d-92c9-ef158be51ab5"
      },
      "subject": {
        "reference": "Patient/865c6188-e4ad-4ca2-90e2-64bc6c93bcf1"
      },
      "context": {
        "reference": "Encounter/0195917c-35dc-7667-a14f-1bc2c7481b78"
      },
      "supportingInformation": [ {
        "reference": "Condition/019595f8-e3af-7a05-bd02-cb1d0344a4b5"
      } ],
      "effectivePeriod": {
        "start": "2026-01-01T08:15:00.000Z",
        "end": "2026-01-01T08:15:00.000Z"
      },
      "dosage": {
        "route": {
          "coding": [ {
            "system": "http://snomed.info/sct",
            "code": "26643006",
            "display": "Oral route (qualifier value)"
          } ]
        },
        "dose": {
          "value": 600,
          "unit": "mg",
          "system": "http://unitsofmeasure.org",
          "code": "mg"
        }
      }
    },
    "request": {
      "method": "PUT",
      "url": "MedicationAdministration/0b5e983e-6ebd-4c9b-876b-9eb5b02c25f8"
    }
  }, {
    "fullUrl": "https://madie.cms.gov/Coverage/c464270d-6eb9-4c28-9cc7-f019c4e0da64",
    "resource": {
      "resourceType": "Coverage",
      "id": "c464270d-6eb9-4c28-9cc7-f019c4e0da64",
      "meta": {
        "profile": [ "http://hl7.org/fhir/us/qicore/StructureDefinition/qicore-coverage" ]
      },
      "identifier": [ {
        "system": "http://benefitsinc.com/certificate",
        "value": "12345"
      } ],
      "status": "active",
      "type": {
        "coding": [ {
          "system": "https://nahdo.org/sopt",
          "version": "1.0.1",
          "code": "1",
          "display": "MEDICARE",
          "userSelected": true
        } ]
      },
      "subscriberId": "AB9876",
      "beneficiary": {
        "reference": "Patient/865c6188-e4ad-4ca2-90e2-64bc6c93bcf1"
      },
      "relationship": {
        "coding": [ {
          "system": "http://terminology.hl7.org/CodeSystem/subscriber-relationship",
          "code": "self"
        } ]
      },
      "payor": [ {
        "reference": "Organization/964ce852-fff9-4f2a-ad22-60ccbbe66225"
      } ]
    },
    "request": {
      "method": "PUT",
      "url": "Coverage/c464270d-6eb9-4c28-9cc7-f019c4e0da64"
    }
  }, {
    "fullUrl": "https://madie.cms.gov/Organization/964ce852-fff9-4f2a-ad22-60ccbbe66225",
    "resource": {
      "resourceType": "Organization",
      "id": "964ce852-fff9-4f2a-ad22-60ccbbe66225",
      "meta": {
        "profile": [ "http://hl7.org/fhir/us/qicore/StructureDefinition/qicore-organization" ]
      },
      "identifier": [ {
        "use": "temp",
        "system": "urn:oid:2.16.840.1.113883.4.4",
        "value": "21-3259825"
      } ],
      "active": true,
      "type": [ {
        "coding": [ {
          "system": "http://terminology.hl7.org/CodeSystem/organization-type",
          "code": "pay",
          "display": "Payer"
        } ]
      } ],
      "name": "Blue Cross Blue Shield of Texas",
      "telecom": [ {
        "system": "phone",
        "value": "(+1) 972-766-6900"
      } ],
      "address": [ {
        "use": "billing",
        "type": "postal",
        "line": [ "P.O. Box 660044" ],
        "city": "Dallas",
        "state": "TX",
        "postalCode": "75266-0044",
        "country": "USA"
      } ]
    },
    "request": {
      "method": "PUT",
      "url": "Organization/964ce852-fff9-4f2a-ad22-60ccbbe66225"
    }
  }, {
    "fullUrl": "https://madie.cms.gov/Practitioner/f6bf7071-8a3e-4d53-b6ff-b104939a991c",
    "resource": {
      "resourceType": "Practitioner",
      "id": "f6bf7071-8a3e-4d53-b6ff-b104939a991c",
      "meta": {
        "profile": [ "http://hl7.org/fhir/us/qicore/StructureDefinition/qicore-practitioner" ]
      },
      "identifier": [ {
        "system": "http://hl7.org/fhir/sid/us-npi",
        "value": "0723660813"
      } ],
      "name": [ {
        "family": "Evil",
        "prefix": [ "Dr" ]
      } ]
    },
    "request": {
      "method": "PUT",
      "url": "Practitioner/f6bf7071-8a3e-4d53-b6ff-b104939a991c"
    }
  }, {
    "fullUrl": "https://madie.cms.gov/MeasureReport/54d74faa-90b6-4128-b12b-46a2b9f880a4",
    "resource": {
      "resourceType": "MeasureReport",
      "id": "54d74faa-90b6-4128-b12b-46a2b9f880a4",
      "meta": {
        "profile": [ "http://hl7.org/fhir/us/cqfmeasures/StructureDefinition/test-case-cqfm" ]
      },
      "contained": [ {
        "resourceType": "Parameters",
        "id": "3ac0944d-69ad-48ea-9275-61b3b7784a8b-parameters",
        "parameter": [ {
          "name": "subject",
          "valueString": "865c6188-e4ad-4ca2-90e2-64bc6c93bcf1"
        } ]
      } ],
      "extension": [ {
        "url": "http://hl7.org/fhir/StructureDefinition/cqf-inputParameters",
        "valueReference": {
          "reference": "#3ac0944d-69ad-48ea-9275-61b3b7784a8b-parameters"
        }
      }, {
        "url": "http://hl7.org/fhir/us/cqfmeasures/StructureDefinition/cqfm-testCaseDescription",
        "valueMarkdown": "Inpatient encounter with diabetic medication during MP with SDE medication "
      } ],
      "modifierExtension": [ {
        "url": "http://hl7.org/fhir/us/cqfmeasures/StructureDefinition/cqfm-isTestCase",
        "valueBoolean": true
      } ],
      "status": "complete",
      "type": "individual",
      "measure": "https://madie.cms.gov/Measure/NHSNGlycemicControlHypoglycemiaInitialPopulation",
      "period": {
        "start": "2026-01-01",
        "end": "2026-12-31"
      },
      "group": [ {
        "id": "Group_1",
        "population": [ {
          "id": "InitialPopulation_1",
          "code": {
            "coding": [ {
              "system": "http://terminology.hl7.org/CodeSystem/measure-population",
              "code": "initial-population",
              "display": "Initial Population"
            } ]
          },
          "count": 1
        } ],
        "measureScore": {
          "value": 0.0
        }
      } ],
      "evaluatedResource": [ {
        "reference": "Patient/865c6188-e4ad-4ca2-90e2-64bc6c93bcf1"
      }, {
        "reference": "Encounter/c5b4a659-b99a-4513-8bed-00886cf6ce38"
      }, {
        "reference": "Location/a5207d8f-b20e-4edb-abc4-ae0de52175c8"
      }, {
        "reference": "MedicationRequest/0aa64a82-0996-4f44-a115-676309c275fa"
      }, {
        "reference": "Medication/9d282543-33b2-417d-92c9-ef158be51ab5"
      }, {
        "reference": "MedicationAdministration/0b5e983e-6ebd-4c9b-876b-9eb5b02c25f8"
      }, {
        "reference": "Coverage/c464270d-6eb9-4c28-9cc7-f019c4e0da64"
      }, {
        "reference": "Organization/964ce852-fff9-4f2a-ad22-60ccbbe66225"
      }, {
        "reference": "Practitioner/f6bf7071-8a3e-4d53-b6ff-b104939a991c"
      } ]
    },
    "request": {
      "method": "PUT",
      "url": "MeasureReport/54d74faa-90b6-4128-b12b-46a2b9f880a4"
    }
  } ]
}