{
  "resourceType": "Bundle",
  "id": "612e6b6c02c62a011f2edb06",
  "type": "transaction",
  "entry": [ {
    "fullUrl": "https://madie.cms.gov/Patient/0190ef4b-c22d-4177-b293-874f1a9030a6",
    "resource": {
      "resourceType": "Patient",
      "id": "0190ef4b-c22d-4177-b293-874f1a9030a6",
      "meta": {
        "profile": [ "http://hl7.org/fhir/us/qicore/StructureDefinition/qicore-patient" ]
      },
      "text": {
        "status": "generated",
        "div": "<div xmlns=\"http://www.w3.org/1999/xhtml\"><div class=\"hapiHeaderText\">Dx=VTEduringEDGT1hrB4Enc <b>IPPPASS </b></div><table class=\"hapiPropertyTable\"><tbody><tr><td>Identifier</td><td>af2986d42642f004962c32566bf64a58</td></tr><tr><td>Date of birth</td><td><span>02 September 2003</span></td></tr></tbody></table></div>"
      },
      "extension": [ {
        "url": "http://hl7.org/fhir/us/core/StructureDefinition/us-core-race",
        "extension": [ {
          "url": "ombCategory",
          "valueCoding": {
            "system": "urn:oid:2.16.840.1.113883.6.238",
            "code": "1002-5",
            "display": "American Indian or Alaska Native",
            "userSelected": true
          }
        }, {
          "url": "text",
          "valueString": "American Indian or Alaska Native"
        } ]
      }, {
        "url": "http://hl7.org/fhir/us/core/StructureDefinition/us-core-ethnicity",
        "extension": [ {
          "url": "ombCategory",
          "valueCoding": {
            "system": "urn:oid:2.16.840.1.113883.6.238",
            "code": "2135-2",
            "display": "Hispanic or Latino",
            "userSelected": true
          }
        }, {
          "url": "text",
          "valueString": "Hispanic or Latino"
        } ]
      } ],
      "identifier": [ {
        "type": {
          "coding": [ {
            "system": "http://terminology.hl7.org/CodeSystem/v2-0203",
            "code": "MR"
          } ]
        },
        "system": "https://bonnie-fhir.healthit.gov/",
        "value": "612e6b6c02c62a011f2edb06"
      } ],
      "active": true,
      "name": [ {
        "use": "usual",
        "family": "IPPPass",
        "given": [ "DxVTEduringEDGT1hrB4Enc" ]
      } ],
      "gender": "male",
      "birthDate": "2004-09-02"
    },
    "request": {
      "method": "PUT",
      "url": "Patient/0190ef4b-c22d-4177-b293-874f1a9030a6"
    }
  }, {
    "fullUrl": "https://madie.cms.gov/Encounter/071b179c-0a61-4c8c-a516-ddc7d7c7e931",
    "resource": {
      "resourceType": "Encounter",
      "id": "071b179c-0a61-4c8c-a516-ddc7d7c7e931",
      "meta": {
        "profile": [ "http://hl7.org/fhir/us/qicore/StructureDefinition/qicore-encounter" ]
      },
      "status": "finished",
      "class": {
        "system": "http://terminology.hl7.org/CodeSystem/v3-ActCode",
        "code": "EMER",
        "display": "emergency"
      },
      "type": [ {
        "coding": [ {
          "system": "http://snomed.info/sct",
          "code": "4525004"
        } ]
      } ],
      "subject": {
        "reference": "Patient/0190ef4b-c22d-4177-b293-874f1a9030a6"
      },
      "period": {
        "start": "2026-09-02T09:00:00.000+00:00",
        "end": "2026-09-02T10:59:00.000+00:00"
      },
      "length": {
        "value": 0,
        "unit": "days"
      }
    },
    "request": {
      "method": "PUT",
      "url": "Encounter/071b179c-0a61-4c8c-a516-ddc7d7c7e931"
    }
  }, {
    "fullUrl": "https://madie.cms.gov/Encounter/73786ced-1c06-4dbb-805a-a611e0dae10c",
    "resource": {
      "resourceType": "Encounter",
      "id": "73786ced-1c06-4dbb-805a-a611e0dae10c",
      "meta": {
        "profile": [ "http://hl7.org/fhir/us/qicore/StructureDefinition/qicore-encounter" ]
      },
      "status": "finished",
      "class": {
        "system": "http://terminology.hl7.org/CodeSystem/v3-ActCode",
        "code": "IMP",
        "display": "inpatient encounter"
      },
      "type": [ {
        "coding": [ {
          "system": "http://snomed.info/sct",
          "code": "183452005"
        } ]
      } ],
      "subject": {
        "reference": "Patient/0190ef4b-c22d-4177-b293-874f1a9030a6"
      },
      "period": {
        "start": "2026-09-02T12:01:00.000+00:00",
        "end": "2026-12-31T23:59:00.000+00:00"
      },
      "length": {
        "value": 120,
        "unit": "days"
      }
    },
    "request": {
      "method": "PUT",
      "url": "Encounter/73786ced-1c06-4dbb-805a-a611e0dae10c"
    }
  }, {
    "fullUrl": "https://madie.cms.gov/Coverage/bcf6d314-fbcc-4f6f-8a8c-e975da0371cc",
    "resource": {
      "resourceType": "Coverage",
      "id": "bcf6d314-fbcc-4f6f-8a8c-e975da0371cc",
      "status": "active",
      "beneficiary": {
        "reference": "Patient/0190ef4b-c22d-4177-b293-874f1a9030a6"
      },
      "period": {
        "start": "2004-09-02T08:00:00.000+00:00"
      },
      "payor": [ {
        "reference": "Organization/6c350c7b-1aee-4355-851e-ca6fac0d4966"
      } ]
    },
    "request": {
      "method": "PUT",
      "url": "Coverage/bcf6d314-fbcc-4f6f-8a8c-e975da0371cc"
    }
  }, {
    "fullUrl": "https://madie.cms.gov/Condition/e79185c0-69b3-4cac-8c0a-e6af86d824cb",
    "resource": {
      "resourceType": "Condition",
      "id": "e79185c0-69b3-4cac-8c0a-e6af86d824cb",
      "meta": {
        "profile": [ "http://hl7.org/fhir/us/qicore/StructureDefinition/qicore-condition" ]
      },
      "clinicalStatus": {
        "coding": [ {
          "system": "http://terminology.hl7.org/CodeSystem/condition-clinical",
          "code": "active"
        } ]
      },
      "verificationStatus": {
        "coding": [ {
          "system": "http://terminology.hl7.org/CodeSystem/condition-ver-status",
          "code": "confirmed"
        } ]
      },
      "category": [ {
        "coding": [ {
          "system": "http://terminology.hl7.org/CodeSystem/condition-category",
          "code": "problem-list-item",
          "display": "Problem List Item"
        } ]
      } ],
      "code": {
        "coding": [ {
          "system": "http://snomed.info/sct",
          "code": "1001000119102"
        } ]
      },
      "subject": {
        "reference": "Patient/0190ef4b-c22d-4177-b293-874f1a9030a6"
      },
      "onsetPeriod": {
        "start": "2026-09-02T09:00:00.000+00:00",
        "end": "2026-09-02T10:00:00.000+00:00"
      }
    },
    "request": {
      "method": "PUT",
      "url": "Condition/e79185c0-69b3-4cac-8c0a-e6af86d824cb"
    }
  }, {
    "fullUrl": "https://madie.cms.gov/Organization/6c350c7b-1aee-4355-851e-ca6fac0d4966",
    "resource": {
      "resourceType": "Organization",
      "id": "6c350c7b-1aee-4355-851e-ca6fac0d4966",
      "meta": {
        "profile": [ "http://hl7.org/fhir/us/qicore/StructureDefinition/qicore-organization" ]
      },
      "identifier": [ {
        "use": "temp",
        "system": "urn:oid:2.16.840.1.113883.4.4",
        "value": "21-3259825"
      } ],
      "active": true,
      "type": [ {
        "coding": [ {
          "system": "http://terminology.hl7.org/CodeSystem/organization-type",
          "code": "pay",
          "display": "Payer"
        } ]
      } ],
      "name": "Blue Cross Blue Shield of Texas",
      "telecom": [ {
        "system": "phone",
        "value": "(+1) 972-766-6900"
      } ],
      "address": [ {
        "use": "billing",
        "type": "postal",
        "line": [ "P.O. Box 660044" ],
        "city": "Dallas",
        "state": "TX",
        "postalCode": "75266-0044",
        "country": "USA"
      } ]
    },
    "request": {
      "method": "PUT",
      "url": "Organization/6c350c7b-1aee-4355-851e-ca6fac0d4966"
    }
  }, {
    "fullUrl": "https://madie.cms.gov/Practitioner/e6555ea1-9a5b-450b-9b59-f74460ade1be",
    "resource": {
      "resourceType": "Practitioner",
      "id": "e6555ea1-9a5b-450b-9b59-f74460ade1be",
      "identifier": [ {
        "system": "http://hl7.org/fhir/sid/us-npi",
        "value": "123456"
      } ],
      "name": [ {
        "family": "Evil",
        "prefix": [ "Dr" ]
      } ]
    },
    "request": {
      "method": "PUT",
      "url": "Practitioner/e6555ea1-9a5b-450b-9b59-f74460ade1be"
    }
  }, {
    "fullUrl": "https://madie.cms.gov/MeasureReport/98ce6608-f122-4858-be70-47800e7630ed",
    "resource": {
      "resourceType": "MeasureReport",
      "id": "98ce6608-f122-4858-be70-47800e7630ed",
      "meta": {
        "profile": [ "http://hl7.org/fhir/us/cqfmeasures/StructureDefinition/test-case-cqfm" ]
      },
      "contained": [ {
        "resourceType": "Parameters",
        "id": "d07ceadb-4ee5-4da3-878c-11ef269d5286-parameters",
        "parameter": [ {
          "name": "subject",
          "valueString": "0190ef4b-c22d-4177-b293-874f1a9030a6"
        } ]
      } ],
      "extension": [ {
        "url": "http://hl7.org/fhir/StructureDefinition/cqf-inputParameters",
        "valueReference": {
          "reference": "#d07ceadb-4ee5-4da3-878c-11ef269d5286-parameters"
        }
      }, {
        "url": "http://hl7.org/fhir/us/cqfmeasures/StructureDefinition/cqfm-testCaseDescription",
        "valueMarkdown": "DxVTE in the ED but ED.end > 1:59 min before Inp.start\n"
      } ],
      "modifierExtension": [ {
        "url": "http://hl7.org/fhir/us/cqfmeasures/StructureDefinition/cqfm-isTestCase",
        "valueBoolean": true
      } ],
      "status": "complete",
      "type": "individual",
      "measure": "https://madie.cms.gov/Measure/CMS108FHIRVTEProphylaxis",
      "period": {
        "start": "2026-01-01",
        "end": "2026-12-31"
      },
      "group": [ {
        "id": "Group_1",
        "population": [ {
          "id": "InitialPopulation_1",
          "code": {
            "coding": [ {
              "system": "http://terminology.hl7.org/CodeSystem/measure-population",
              "code": "initial-population",
              "display": "Initial Population"
            } ]
          },
          "count": 1
        }, {
          "id": "Denominator_1",
          "code": {
            "coding": [ {
              "system": "http://terminology.hl7.org/CodeSystem/measure-population",
              "code": "denominator",
              "display": "Denominator"
            } ]
          },
          "count": 1
        }, {
          "id": "DenominatorExclusion_1",
          "code": {
            "coding": [ {
              "system": "http://terminology.hl7.org/CodeSystem/measure-population",
              "code": "denominator-exclusion",
              "display": "Denominator Exclusion"
            } ]
          },
          "count": 0
        }, {
          "id": "Numerator_1",
          "code": {
            "coding": [ {
              "system": "http://terminology.hl7.org/CodeSystem/measure-population",
              "code": "numerator",
              "display": "Numerator"
            } ]
          },
          "count": 0
        } ],
        "measureScore": {
          "value": 0.0
        }
      } ],
      "evaluatedResource": [ {
        "reference": "Patient/0190ef4b-c22d-4177-b293-874f1a9030a6"
      }, {
        "reference": "Encounter/071b179c-0a61-4c8c-a516-ddc7d7c7e931"
      }, {
        "reference": "Encounter/73786ced-1c06-4dbb-805a-a611e0dae10c"
      }, {
        "reference": "Coverage/bcf6d314-fbcc-4f6f-8a8c-e975da0371cc"
      }, {
        "reference": "Condition/e79185c0-69b3-4cac-8c0a-e6af86d824cb"
      }, {
        "reference": "Organization/6c350c7b-1aee-4355-851e-ca6fac0d4966"
      }, {
        "reference": "Practitioner/e6555ea1-9a5b-450b-9b59-f74460ade1be"
      } ]
    },
    "request": {
      "method": "PUT",
      "url": "MeasureReport/98ce6608-f122-4858-be70-47800e7630ed"
    }
  } ]
}