{
  "resourceType": "Bundle",
  "id": "61168b8798086b77ef9c5ec1",
  "type": "collection",
  "entry": [ {
    "fullUrl": "https://madie.cms.gov/Patient/9bdcc79c-f0b7-438e-9e2b-3f6a4350caf6",
    "resource": {
      "resourceType": "Patient",
      "id": "9bdcc79c-f0b7-438e-9e2b-3f6a4350caf6",
      "meta": {
        "profile": [ "http://hl7.org/fhir/us/qicore/StructureDefinition/qicore-patient" ]
      },
      "extension": [ {
        "url": "http://hl7.org/fhir/us/core/StructureDefinition/us-core-race",
        "extension": [ {
          "url": "ombCategory",
          "valueCoding": {
            "system": "urn:oid:2.16.840.1.113883.6.238",
            "code": "2106-3",
            "display": "White",
            "userSelected": true
          }
        }, {
          "url": "text",
          "valueString": "White"
        } ]
      }, {
        "url": "http://hl7.org/fhir/us/core/StructureDefinition/us-core-ethnicity",
        "extension": [ {
          "url": "ombCategory",
          "valueCoding": {
            "system": "urn:oid:2.16.840.1.113883.6.238",
            "code": "2186-5",
            "display": "Not Hispanic or Latino",
            "userSelected": true
          }
        }, {
          "url": "text",
          "valueString": "Not Hispanic or Latino"
        } ]
      } ],
      "identifier": [ {
        "type": {
          "coding": [ {
            "system": "http://terminology.hl7.org/CodeSystem/v2-0203",
            "code": "MR"
          } ]
        },
        "system": "https://GoodHealthCare.com/",
        "value": "61168b8798086b77ef9c5ec1"
      } ],
      "active": true,
      "name": [ {
        "use": "usual",
        "family": "IPFail",
        "given": [ "EncHasNoEndDate" ]
      } ],
      "gender": "female",
      "birthDate": "1967-01-07"
    }
  }, {
    "fullUrl": "https://madie.cms.gov/Condition/5e5981cd-f3a5-40d7-9d40-a507e3ecc82f",
    "resource": {
      "resourceType": "Condition",
      "id": "5e5981cd-f3a5-40d7-9d40-a507e3ecc82f",
      "meta": {
        "profile": [ "http://hl7.org/fhir/us/qicore/StructureDefinition/qicore-condition-problems-health-concerns" ]
      },
      "clinicalStatus": {
        "coding": [ {
          "system": "http://terminology.hl7.org/CodeSystem/condition-clinical",
          "code": "active",
          "display": "Active",
          "userSelected": true
        } ]
      },
      "category": [ {
        "coding": [ {
          "system": "http://terminology.hl7.org/CodeSystem/condition-category",
          "code": "problem-list-item",
          "display": "Problem List Item"
        } ]
      } ],
      "code": {
        "coding": [ {
          "system": "http://snomed.info/sct",
          "version": "http://snomed.info/sct/731000124108/version/20250301",
          "code": "232023006",
          "display": "Traction detachment of retina due to diabetes mellitus (disorder)"
        } ]
      },
      "subject": {
        "reference": "Patient/9bdcc79c-f0b7-438e-9e2b-3f6a4350caf6"
      },
      "onsetDateTime": "2026-09-10T10:45:00.000+00:00"
    }
  }, {
    "fullUrl": "https://madie.cms.gov/Encounter/07b8369e-9cf0-42d1-99ab-335339033922",
    "resource": {
      "resourceType": "Encounter",
      "id": "07b8369e-9cf0-42d1-99ab-335339033922",
      "meta": {
        "profile": [ "http://hl7.org/fhir/us/qicore/StructureDefinition/qicore-encounter" ]
      },
      "status": "finished",
      "class": {
        "system": "http://terminology.hl7.org/CodeSystem/v3-ActCode",
        "code": "AMB"
      },
      "type": [ {
        "coding": [ {
          "system": "http://www.ama-assn.org/go/cpt",
          "version": "2023",
          "code": "99205"
        } ]
      } ],
      "subject": {
        "reference": "Patient/9bdcc79c-f0b7-438e-9e2b-3f6a4350caf6"
      },
      "period": {
        "start": "2026-09-11T10:00:00.000+00:00"
      }
    }
  }, {
    "fullUrl": "https://madie.cms.gov/Coverage/729c6dd2-fba8-4961-b194-44bf96b4afcd",
    "resource": {
      "resourceType": "Coverage",
      "id": "729c6dd2-fba8-4961-b194-44bf96b4afcd",
      "meta": {
        "profile": [ "http://hl7.org/fhir/us/qicore/StructureDefinition/qicore-coverage" ]
      },
      "status": "active",
      "subscriberId": "123456",
      "beneficiary": {
        "reference": "Patient/9bdcc79c-f0b7-438e-9e2b-3f6a4350caf6"
      },
      "relationship": {
        "coding": [ {
          "system": "http://terminology.hl7.org/CodeSystem/subscriber-relationship",
          "code": "self",
          "display": "Self"
        } ]
      },
      "payor": [ {
        "reference": "Organization/c4373d3d-2466-45d6-8d5c-f88efaf8e55c"
      } ]
    }
  }, {
    "fullUrl": "https://madie.cms.gov/Organization/c4373d3d-2466-45d6-8d5c-f88efaf8e55c",
    "resource": {
      "resourceType": "Organization",
      "id": "c4373d3d-2466-45d6-8d5c-f88efaf8e55c",
      "meta": {
        "profile": [ "http://hl7.org/fhir/us/qicore/StructureDefinition/qicore-organization" ]
      },
      "identifier": [ {
        "use": "temp",
        "system": "urn:oid:2.16.840.1.113883.4.4",
        "value": "21-3259825"
      } ],
      "active": true,
      "type": [ {
        "coding": [ {
          "system": "http://terminology.hl7.org/CodeSystem/organization-type",
          "code": "pay",
          "display": "Payer"
        } ]
      } ],
      "name": "Blue Cross Blue Shield of Texas",
      "telecom": [ {
        "system": "phone",
        "value": "(+1) 972-766-6900"
      } ],
      "address": [ {
        "use": "billing",
        "type": "postal",
        "line": [ "P.O. Box 660044" ],
        "city": "Dallas",
        "state": "TX",
        "postalCode": "75266-0044",
        "country": "USA"
      } ]
    }
  }, {
    "fullUrl": "https://madie.cms.gov/MeasureReport/ef6d6cd2-7fbf-4f10-b70f-0af580f349ed",
    "resource": {
      "resourceType": "MeasureReport",
      "id": "ef6d6cd2-7fbf-4f10-b70f-0af580f349ed",
      "meta": {
        "profile": [ "http://hl7.org/fhir/us/cqfmeasures/StructureDefinition/test-case-cqfm" ]
      },
      "contained": [ {
        "resourceType": "Parameters",
        "id": "776b01bb-2433-4a2d-b559-d822893abb7f-parameters",
        "parameter": [ {
          "name": "subject",
          "valueString": "9bdcc79c-f0b7-438e-9e2b-3f6a4350caf6"
        } ]
      } ],
      "extension": [ {
        "url": "http://hl7.org/fhir/StructureDefinition/cqf-inputParameters",
        "valueReference": {
          "reference": "#776b01bb-2433-4a2d-b559-d822893abb7f-parameters"
        }
      }, {
        "url": "http://hl7.org/fhir/us/cqfmeasures/StructureDefinition/cqfm-testCaseDescription",
        "valueMarkdown": "Encounter occurs in MP but does not have an end date so should not pass Initial Population"
      } ],
      "modifierExtension": [ {
        "url": "http://hl7.org/fhir/us/cqfmeasures/StructureDefinition/cqfm-isTestCase",
        "valueBoolean": true
      } ],
      "status": "complete",
      "type": "individual",
      "measure": "https://madie.cms.gov/Measure/CMS142FHIRCommWithDrManagingDiab",
      "period": {
        "start": "2026-01-01",
        "end": "2026-12-31"
      },
      "group": [ {
        "id": "Group_1",
        "population": [ {
          "id": "InitialPopulation_1",
          "code": {
            "coding": [ {
              "system": "http://terminology.hl7.org/CodeSystem/measure-population",
              "code": "initial-population",
              "display": "Initial Population"
            } ]
          },
          "count": 0
        }, {
          "id": "Denominator_1",
          "code": {
            "coding": [ {
              "system": "http://terminology.hl7.org/CodeSystem/measure-population",
              "code": "denominator",
              "display": "Denominator"
            } ]
          },
          "count": 0
        }, {
          "id": "Numerator_1",
          "code": {
            "coding": [ {
              "system": "http://terminology.hl7.org/CodeSystem/measure-population",
              "code": "numerator",
              "display": "Numerator"
            } ]
          },
          "count": 0
        }, {
          "id": "DenominatorException_1",
          "code": {
            "coding": [ {
              "system": "http://terminology.hl7.org/CodeSystem/measure-population",
              "code": "denominator-exception",
              "display": "Denominator Exception"
            } ]
          },
          "count": 0
        } ],
        "measureScore": {
          "value": 1.0
        }
      } ],
      "evaluatedResource": [ {
        "reference": "Patient/9bdcc79c-f0b7-438e-9e2b-3f6a4350caf6"
      }, {
        "reference": "Condition/5e5981cd-f3a5-40d7-9d40-a507e3ecc82f"
      }, {
        "reference": "Encounter/07b8369e-9cf0-42d1-99ab-335339033922"
      }, {
        "reference": "Coverage/729c6dd2-fba8-4961-b194-44bf96b4afcd"
      }, {
        "reference": "Organization/c4373d3d-2466-45d6-8d5c-f88efaf8e55c"
      } ]
    }
  } ]
}