{
  "resourceType": "Bundle",
  "id": "617be86a1619a529957d62b9",
  "type": "transaction",
  "entry": [ {
    "fullUrl": "https://madie.cms.gov/Patient/cffad22d-5ac8-40a2-a677-a746687b0744",
    "resource": {
      "resourceType": "Patient",
      "id": "cffad22d-5ac8-40a2-a677-a746687b0744",
      "meta": {
        "profile": [ "http://hl7.org/fhir/us/qicore/StructureDefinition/qicore-patient" ]
      },
      "extension": [ {
        "url": "http://hl7.org/fhir/us/core/StructureDefinition/us-core-race",
        "extension": [ {
          "url": "ombCategory",
          "valueCoding": {
            "system": "urn:oid:2.16.840.1.113883.6.238",
            "code": "2076-8",
            "display": "Native Hawaiian or Other Pacific Islander",
            "userSelected": true
          }
        }, {
          "url": "text",
          "valueString": "Native Hawaiian or Other Pacific Islander"
        } ]
      }, {
        "url": "http://hl7.org/fhir/us/core/StructureDefinition/us-core-ethnicity",
        "extension": [ {
          "url": "ombCategory",
          "valueCoding": {
            "system": "urn:oid:2.16.840.1.113883.6.238",
            "code": "2186-5",
            "display": "Not Hispanic or Latino",
            "userSelected": true
          }
        }, {
          "url": "text",
          "valueString": "Not Hispanic or Latino"
        } ]
      }, {
        "url": "http://hl7.org/fhir/us/core/StructureDefinition/us-core-sex",
        "valueCode": "248152002"
      } ],
      "identifier": [ {
        "type": {
          "coding": [ {
            "system": "http://terminology.hl7.org/CodeSystem/v2-0203",
            "code": "MR"
          } ]
        },
        "system": "https://bonnie-fhir.healthit.gov/",
        "value": "617be86a1619a529957d62b9"
      } ],
      "name": [ {
        "family": "DenExcl7Fail",
        "given": [ "DxStartsBeforeEndsBefore90dayPeriod" ]
      } ],
      "gender": "female",
      "birthDate": "1985-12-02"
    },
    "request": {
      "method": "PUT",
      "url": "Patient/cffad22d-5ac8-40a2-a677-a746687b0744"
    }
  }, {
    "fullUrl": "https://madie.cms.gov/Encounter/6b7f5eed-a8df-4a1e-8c0e-271ea6667420",
    "resource": {
      "resourceType": "Encounter",
      "id": "6b7f5eed-a8df-4a1e-8c0e-271ea6667420",
      "meta": {
        "profile": [ "http://hl7.org/fhir/us/qicore/StructureDefinition/qicore-encounter" ]
      },
      "status": "finished",
      "class": {
        "system": "http://terminology.hl7.org/CodeSystem/v3-ActCode",
        "code": "EMER",
        "display": "emergency",
        "userSelected": true
      },
      "type": [ {
        "coding": [ {
          "system": "http://snomed.info/sct",
          "version": "2020-09",
          "code": "4525004",
          "display": "Emergency department patient visit (procedure)",
          "userSelected": true
        } ]
      } ],
      "subject": {
        "reference": "Patient/cffad22d-5ac8-40a2-a677-a746687b0744"
      },
      "period": {
        "start": "2026-10-09T08:05:00.000+00:00",
        "end": "2026-10-10T07:15:00.000+00:00"
      },
      "reasonReference": [ {
        "reference": "Condition/207ad6e0-6adb-4cd4-9d7d-7f1b60ed4c90"
      } ]
    },
    "request": {
      "method": "PUT",
      "url": "Encounter/6b7f5eed-a8df-4a1e-8c0e-271ea6667420"
    }
  }, {
    "fullUrl": "https://madie.cms.gov/Condition/207ad6e0-6adb-4cd4-9d7d-7f1b60ed4c90",
    "resource": {
      "resourceType": "Condition",
      "id": "207ad6e0-6adb-4cd4-9d7d-7f1b60ed4c90",
      "meta": {
        "profile": [ "http://hl7.org/fhir/us/qicore/StructureDefinition/qicore-condition-problems-health-concerns" ]
      },
      "clinicalStatus": {
        "coding": [ {
          "system": "http://terminology.hl7.org/CodeSystem/condition-clinical",
          "code": "active",
          "display": "active",
          "userSelected": true
        } ]
      },
      "category": [ {
        "coding": [ {
          "system": "http://terminology.hl7.org/CodeSystem/condition-category",
          "code": "problem-list-item",
          "display": "Problem List Item",
          "userSelected": true
        } ]
      } ],
      "code": {
        "coding": [ {
          "system": "http://snomed.info/sct",
          "version": "2020-09",
          "code": "401303003",
          "display": "Acute ST segment elevation myocardial infarction (disorder)",
          "userSelected": true
        } ]
      },
      "subject": {
        "reference": "Patient/cffad22d-5ac8-40a2-a677-a746687b0744"
      },
      "onsetDateTime": "2026-10-09T08:30:00.000+00:00"
    },
    "request": {
      "method": "PUT",
      "url": "Condition/207ad6e0-6adb-4cd4-9d7d-7f1b60ed4c90"
    }
  }, {
    "fullUrl": "https://madie.cms.gov/Condition/71647026-d776-4af2-b43b-100e11e9e7aa",
    "resource": {
      "resourceType": "Condition",
      "id": "71647026-d776-4af2-b43b-100e11e9e7aa",
      "meta": {
        "profile": [ "http://hl7.org/fhir/us/qicore/StructureDefinition/qicore-condition-problems-health-concerns" ]
      },
      "clinicalStatus": {
        "coding": [ {
          "system": "http://terminology.hl7.org/CodeSystem/condition-clinical",
          "version": "4.0.1",
          "code": "inactive",
          "display": "Inactive",
          "userSelected": true
        } ]
      },
      "category": [ {
        "coding": [ {
          "system": "http://terminology.hl7.org/CodeSystem/condition-category",
          "code": "problem-list-item",
          "display": "Problem List Item",
          "userSelected": true
        } ]
      } ],
      "code": {
        "coding": [ {
          "system": "http://snomed.info/sct",
          "version": "2020-03",
          "code": "110030002",
          "display": "Concussion injury of brain (disorder)",
          "userSelected": true
        } ]
      },
      "subject": {
        "reference": "Patient/cffad22d-5ac8-40a2-a677-a746687b0744"
      },
      "onsetDateTime": "2026-01-01T08:00:00.000+00:00",
      "abatementDateTime": "2026-05-20T09:30:00.000+00:00"
    },
    "request": {
      "method": "PUT",
      "url": "Condition/71647026-d776-4af2-b43b-100e11e9e7aa"
    }
  }, {
    "fullUrl": "https://madie.cms.gov/MeasureReport/26172637-1d18-427a-8c47-b17dfe9ed501",
    "resource": {
      "resourceType": "MeasureReport",
      "id": "26172637-1d18-427a-8c47-b17dfe9ed501",
      "meta": {
        "profile": [ "http://hl7.org/fhir/us/cqfmeasures/StructureDefinition/test-case-cqfm" ]
      },
      "contained": [ {
        "resourceType": "Parameters",
        "id": "22ae525d-f41b-439c-adc6-a8739ed3225f-parameters",
        "parameter": [ {
          "name": "subject",
          "valueString": "cffad22d-5ac8-40a2-a677-a746687b0744"
        } ]
      } ],
      "extension": [ {
        "url": "http://hl7.org/fhir/StructureDefinition/cqf-inputParameters",
        "valueReference": {
          "reference": "#22ae525d-f41b-439c-adc6-a8739ed3225f-parameters"
        }
      }, {
        "url": "http://hl7.org/fhir/us/cqfmeasures/StructureDefinition/cqfm-testCaseDescription",
        "valueMarkdown": "Patient has closed head trauma (exclusion diagnosis) starts before and ends before 90 day period  ED"
      } ],
      "modifierExtension": [ {
        "url": "http://hl7.org/fhir/us/cqfmeasures/StructureDefinition/cqfm-isTestCase",
        "valueBoolean": true
      } ],
      "status": "complete",
      "type": "individual",
      "measure": "https://madie.cms.gov/Measure/CMS996FHIRAptTxforSTEMI",
      "period": {
        "start": "2026-01-01",
        "end": "2026-12-31"
      },
      "group": [ {
        "id": "Group_1",
        "population": [ {
          "id": "InitialPopulation_1",
          "code": {
            "coding": [ {
              "system": "http://terminology.hl7.org/CodeSystem/measure-population",
              "code": "initial-population",
              "display": "Initial Population"
            } ]
          },
          "count": 1
        }, {
          "id": "Denominator_1",
          "code": {
            "coding": [ {
              "system": "http://terminology.hl7.org/CodeSystem/measure-population",
              "code": "denominator",
              "display": "Denominator"
            } ]
          },
          "count": 1
        }, {
          "id": "DenominatorExclusion_1",
          "code": {
            "coding": [ {
              "system": "http://terminology.hl7.org/CodeSystem/measure-population",
              "code": "denominator-exclusion",
              "display": "Denominator Exclusion"
            } ]
          },
          "count": 0
        }, {
          "id": "Numerator_1",
          "code": {
            "coding": [ {
              "system": "http://terminology.hl7.org/CodeSystem/measure-population",
              "code": "numerator",
              "display": "Numerator"
            } ]
          },
          "count": 0
        }, {
          "id": "DenominatorException_1",
          "code": {
            "coding": [ {
              "system": "http://terminology.hl7.org/CodeSystem/measure-population",
              "code": "denominator-exception",
              "display": "Denominator Exception"
            } ]
          },
          "count": 0
        } ],
        "measureScore": {
          "value": 0.0
        }
      } ],
      "evaluatedResource": [ {
        "reference": "Patient/cffad22d-5ac8-40a2-a677-a746687b0744"
      }, {
        "reference": "Encounter/6b7f5eed-a8df-4a1e-8c0e-271ea6667420"
      }, {
        "reference": "Condition/207ad6e0-6adb-4cd4-9d7d-7f1b60ed4c90"
      }, {
        "reference": "Condition/71647026-d776-4af2-b43b-100e11e9e7aa"
      } ]
    },
    "request": {
      "method": "PUT",
      "url": "MeasureReport/26172637-1d18-427a-8c47-b17dfe9ed501"
    }
  } ]
}