{
  "resourceType": "Bundle",
  "id": "60f82c3098086b570510e2f2",
  "type": "transaction",
  "entry": [ {
    "fullUrl": "https://madie.cms.gov/Patient/de4005d0-549c-40bb-93b9-26650c194d04",
    "resource": {
      "resourceType": "Patient",
      "id": "de4005d0-549c-40bb-93b9-26650c194d04",
      "meta": {
        "profile": [ "http://hl7.org/fhir/us/qicore/StructureDefinition/qicore-patient" ]
      },
      "text": {
        "status": "generated",
        "div": "<div xmlns=\"http://www.w3.org/1999/xhtml\"><div class=\"hapiHeaderText\">CMP_DayOf_RelvPerStart_OnIPEnd_EDEndLT1hrB4Obs_ObsEndLT1hrB4IP <b>DENEXFAIL </b></div><table class=\"hapiPropertyTable\"><tbody><tr><td>Date of birth</td><td><span>01 January 1980</span></td></tr></tbody></table></div>"
      },
      "extension": [ {
        "url": "http://hl7.org/fhir/us/core/StructureDefinition/us-core-race",
        "extension": [ {
          "url": "ombCategory",
          "valueCoding": {
            "system": "urn:oid:2.16.840.1.113883.6.238",
            "code": "2054-5",
            "display": "Black or African American",
            "userSelected": true
          }
        }, {
          "url": "text",
          "valueString": "Black or African American"
        } ]
      }, {
        "url": "http://hl7.org/fhir/us/core/StructureDefinition/us-core-ethnicity",
        "extension": [ {
          "url": "ombCategory",
          "valueCoding": {
            "system": "urn:oid:2.16.840.1.113883.6.238",
            "code": "2186-5",
            "display": "Not Hispanic or Latino",
            "userSelected": true
          }
        }, {
          "url": "text",
          "valueString": "Not Hispanic or Latino"
        } ]
      } ],
      "identifier": [ {
        "type": {
          "coding": [ {
            "system": "http://terminology.hl7.org/CodeSystem/v2-0203",
            "code": "MR"
          } ]
        },
        "system": "https://bonnie-fhir.healthit.gov/",
        "value": "60f82c3098086b570510e2f2"
      } ],
      "active": true,
      "name": [ {
        "use": "usual",
        "family": "DENEXFail",
        "given": [ "CMPDayOfRelvPerStartOnIPEndEDEndLT1hrB4ObsObsEndLT1hrB4IP" ]
      } ],
      "gender": "female",
      "birthDate": "1981-01-01"
    },
    "request": {
      "method": "PUT",
      "url": "Patient/de4005d0-549c-40bb-93b9-26650c194d04"
    }
  }, {
    "fullUrl": "https://madie.cms.gov/Encounter/8f28aca2-faf8-472f-b2d9-62cf838ee69f",
    "resource": {
      "resourceType": "Encounter",
      "id": "8f28aca2-faf8-472f-b2d9-62cf838ee69f",
      "meta": {
        "profile": [ "http://hl7.org/fhir/us/qicore/StructureDefinition/qicore-encounter" ]
      },
      "status": "finished",
      "class": {
        "system": "http://terminology.hl7.org/CodeSystem/v3-ActCode",
        "code": "EMER",
        "display": "emergency",
        "userSelected": true
      },
      "type": [ {
        "coding": [ {
          "system": "http://snomed.info/sct",
          "code": "4525004"
        } ]
      } ],
      "subject": {
        "reference": "Patient/de4005d0-549c-40bb-93b9-26650c194d04"
      },
      "period": {
        "start": "2026-11-18T07:00:00.000+00:00",
        "end": "2026-11-18T08:01:00.000+00:00"
      },
      "diagnosis": [ {
        "condition": {
          "reference": "Condition/77cacf46-9cc8-4d60-b561-a6d26d4baf45"
        },
        "use": {
          "coding": [ {
            "system": "http://terminology.hl7.org/CodeSystem/diagnosis-role",
            "code": "billing",
            "display": "Billing"
          } ]
        },
        "rank": 1
      } ]
    },
    "request": {
      "method": "PUT",
      "url": "Encounter/8f28aca2-faf8-472f-b2d9-62cf838ee69f"
    }
  }, {
    "fullUrl": "https://madie.cms.gov/Encounter/87cebdee-3199-47aa-901f-19feacb4b4e3",
    "resource": {
      "resourceType": "Encounter",
      "id": "87cebdee-3199-47aa-901f-19feacb4b4e3",
      "meta": {
        "profile": [ "http://hl7.org/fhir/us/qicore/StructureDefinition/qicore-encounter" ]
      },
      "status": "finished",
      "class": {
        "system": "http://terminology.hl7.org/CodeSystem/v3-ActCode",
        "code": "OBSENC",
        "display": "observation encounter",
        "userSelected": true
      },
      "type": [ {
        "coding": [ {
          "system": "http://snomed.info/sct",
          "code": "448951000124107"
        } ]
      } ],
      "subject": {
        "reference": "Patient/de4005d0-549c-40bb-93b9-26650c194d04"
      },
      "period": {
        "start": "2026-11-18T09:00:00.000+00:00",
        "end": "2026-11-18T10:01:00.000+00:00"
      }
    },
    "request": {
      "method": "PUT",
      "url": "Encounter/87cebdee-3199-47aa-901f-19feacb4b4e3"
    }
  }, {
    "fullUrl": "https://madie.cms.gov/Encounter/a86d11ff-36f3-483a-8bb4-2a1133ccdfcf",
    "resource": {
      "resourceType": "Encounter",
      "id": "a86d11ff-36f3-483a-8bb4-2a1133ccdfcf",
      "meta": {
        "profile": [ "http://hl7.org/fhir/us/qicore/StructureDefinition/qicore-encounter" ]
      },
      "status": "finished",
      "class": {
        "system": "http://terminology.hl7.org/CodeSystem/v3-ActCode",
        "code": "IMP",
        "display": "inpatient encounter",
        "userSelected": true
      },
      "type": [ {
        "coding": [ {
          "system": "http://snomed.info/sct",
          "code": "183452005"
        } ]
      } ],
      "subject": {
        "reference": "Patient/de4005d0-549c-40bb-93b9-26650c194d04"
      },
      "period": {
        "start": "2026-11-18T11:00:00.000+00:00",
        "end": "2026-11-20T08:15:00.000+00:00"
      },
      "reasonReference": [ {
        "reference": "Condition/77cacf46-9cc8-4d60-b561-a6d26d4baf45"
      } ]
    },
    "request": {
      "method": "PUT",
      "url": "Encounter/a86d11ff-36f3-483a-8bb4-2a1133ccdfcf"
    }
  }, {
    "fullUrl": "https://madie.cms.gov/Procedure/fc4a0660-15e7-4d22-8238-4d9c0c34b8c8",
    "resource": {
      "resourceType": "Procedure",
      "id": "fc4a0660-15e7-4d22-8238-4d9c0c34b8c8",
      "meta": {
        "profile": [ "http://hl7.org/fhir/us/qicore/StructureDefinition/qicore-procedure" ]
      },
      "extension": [ {
        "url": "http://hl7.org/fhir/us/qicore/StructureDefinition/qicore-recorded",
        "valueDateTime": "2014-04-05T13:35:00.000+00:00"
      } ],
      "status": "completed",
      "code": {
        "coding": [ {
          "system": "http://snomed.info/sct",
          "code": "133918004"
        } ]
      },
      "subject": {
        "reference": "Patient/de4005d0-549c-40bb-93b9-26650c194d04"
      },
      "performedPeriod": {
        "start": "2026-11-20T08:15:00.000+00:00",
        "end": "2026-11-20T08:15:00.000+00:00"
      }
    },
    "request": {
      "method": "PUT",
      "url": "Procedure/fc4a0660-15e7-4d22-8238-4d9c0c34b8c8"
    }
  }, {
    "fullUrl": "https://madie.cms.gov/Condition/77cacf46-9cc8-4d60-b561-a6d26d4baf45",
    "resource": {
      "resourceType": "Condition",
      "id": "77cacf46-9cc8-4d60-b561-a6d26d4baf45",
      "meta": {
        "profile": [ "http://hl7.org/fhir/us/qicore/StructureDefinition/qicore-condition-encounter-diagnosis" ]
      },
      "clinicalStatus": {
        "coding": [ {
          "system": "http://terminology.hl7.org/CodeSystem/condition-clinical",
          "code": "active"
        } ]
      },
      "verificationStatus": {
        "coding": [ {
          "system": "http://terminology.hl7.org/CodeSystem/condition-ver-status",
          "code": "confirmed"
        } ]
      },
      "category": [ {
        "coding": [ {
          "system": "http://terminology.hl7.org/CodeSystem/condition-category",
          "code": "encounter-diagnosis",
          "display": "Encounter Diagnosis"
        } ]
      } ],
      "code": {
        "coding": [ {
          "system": "http://snomed.info/sct",
          "version": "2020-09",
          "code": "111297002",
          "display": "Nonparalytic stroke (disorder)",
          "userSelected": true
        } ]
      },
      "subject": {
        "reference": "Patient/de4005d0-549c-40bb-93b9-26650c194d04"
      },
      "encounter": {
        "reference": "Encounter/a86d11ff-36f3-483a-8bb4-2a1133ccdfcf"
      },
      "recordedDate": "2026-08-11T08:00:00.000+00:00"
    },
    "request": {
      "method": "PUT",
      "url": "Condition/77cacf46-9cc8-4d60-b561-a6d26d4baf45"
    }
  }, {
    "fullUrl": "https://madie.cms.gov/claim/5ca62962b8484628b8de1ec5",
    "resource": {
      "resourceType": "Claim",
      "id": "5ca62962b8484628b8de1ec5",
      "meta": {
        "profile": [ "http://hl7.org/fhir/us/qicore/StructureDefinition/qicore-claim" ]
      },
      "status": "active",
      "type": {
        "coding": [ {
          "system": "http://terminology.hl7.org/CodeSystem/claim-type",
          "code": "institutional"
        } ]
      },
      "use": "claim",
      "patient": {
        "reference": "Patient/5450abfd-a667-4eb9-9b59-e85feed4865c"
      },
      "created": "2026-12-01",
      "provider": {
        "reference": "Practitioner/practitioner-123456"
      },
      "priority": {
        "coding": [ {
          "system": "http://terminology.hl7.org/CodeSystem/processpriority",
          "code": "normal"
        } ]
      },
      "diagnosis": [ {
        "sequence": 1,
        "diagnosisCodeableConcept": {
          "coding": [ {
            "system": "http://hl7.org/fhir/sid/icd-10-cm",
            "code": "I63.00"
          } ]
        },
        "type": [ {
          "coding": [ {
            "system": "http://terminology.hl7.org/CodeSystem/ex-diagnosistype",
            "code": "principal"
          } ]
        } ]
      } ],
      "insurance": [ {
        "sequence": 1,
        "focal": true,
        "coverage": {
          "reference": "Coverage/5fa041661c76ba66d9959367"
        }
      } ],
      "item": [ {
        "sequence": 1,
        "diagnosisSequence": [ 1 ],
        "productOrService": {
          "coding": [ {
            "system": "http://terminology.hl7.org/CodeSystem/ex-USCLS",
            "code": "99555"
          } ]
        },
        "encounter": [ {
          "reference": "Encounter/a86d11ff-36f3-483a-8bb4-2a1133ccdfcf"
        } ]
      } ]
    },
    "request": {
      "method": "PUT",
      "url": "Claim/5ca62962b8484628b8de1ec5"
    }
  }, {
    "fullUrl": "https://madie.cms.gov/Coverage/60fed76b-7853-4b3f-af61-34ebb0f264f8",
    "resource": {
      "resourceType": "Coverage",
      "id": "60fed76b-7853-4b3f-af61-34ebb0f264f8",
      "meta": {
        "profile": [ "http://hl7.org/fhir/us/qicore/StructureDefinition/qicore-coverage" ]
      },
      "status": "active",
      "beneficiary": {
        "reference": "Patient/de4005d0-549c-40bb-93b9-26650c194d04"
      },
      "payor": [ {
        "reference": "Organization/d65f97b2-7658-443f-9df0-42c50dbef426"
      } ]
    },
    "request": {
      "method": "PUT",
      "url": "Coverage/60fed76b-7853-4b3f-af61-34ebb0f264f8"
    }
  }, {
    "fullUrl": "https://madie.cms.gov/Organization/d65f97b2-7658-443f-9df0-42c50dbef426",
    "resource": {
      "resourceType": "Organization",
      "id": "d65f97b2-7658-443f-9df0-42c50dbef426",
      "meta": {
        "profile": [ "http://hl7.org/fhir/us/qicore/StructureDefinition/qicore-organization" ]
      },
      "identifier": [ {
        "use": "temp",
        "system": "urn:oid:2.16.840.1.113883.4.4",
        "value": "21-3259825"
      } ],
      "active": true,
      "type": [ {
        "coding": [ {
          "system": "http://terminology.hl7.org/CodeSystem/organization-type",
          "code": "pay",
          "display": "Payer"
        } ]
      } ],
      "name": "Blue Cross Blue Shield of Texas",
      "telecom": [ {
        "system": "phone",
        "value": "(+1) 972-766-6900"
      } ],
      "address": [ {
        "use": "billing",
        "type": "postal",
        "line": [ "P.O. Box 660044" ],
        "city": "Dallas",
        "state": "TX",
        "postalCode": "75266-0044",
        "country": "USA"
      } ]
    },
    "request": {
      "method": "PUT",
      "url": "Organization/d65f97b2-7658-443f-9df0-42c50dbef426"
    }
  }, {
    "fullUrl": "https://madie.cms.gov/MeasureReport/355dc65d-80f5-4572-8855-224bd5db7da2",
    "resource": {
      "resourceType": "MeasureReport",
      "id": "355dc65d-80f5-4572-8855-224bd5db7da2",
      "meta": {
        "profile": [ "http://hl7.org/fhir/us/cqfmeasures/StructureDefinition/test-case-cqfm" ]
      },
      "contained": [ {
        "resourceType": "Parameters",
        "id": "ba14cae8-5122-4ead-9a3a-eba701744292-parameters",
        "parameter": [ {
          "name": "subject",
          "valueString": "de4005d0-549c-40bb-93b9-26650c194d04"
        } ]
      } ],
      "extension": [ {
        "url": "http://hl7.org/fhir/StructureDefinition/cqf-inputParameters",
        "valueReference": {
          "reference": "#ba14cae8-5122-4ead-9a3a-eba701744292-parameters"
        }
      }, {
        "url": "http://hl7.org/fhir/us/cqfmeasures/StructureDefinition/cqfm-testCaseDescription",
        "valueMarkdown": "Patient receives comfort measures performed on the day of hospital arrival,  on IP end. ED ends less than 1 hour before Obs Start, Obs ends less than 1 hour before IP start.\n"
      } ],
      "modifierExtension": [ {
        "url": "http://hl7.org/fhir/us/cqfmeasures/StructureDefinition/cqfm-isTestCase",
        "valueBoolean": true
      } ],
      "status": "complete",
      "type": "individual",
      "measure": "https://madie.cms.gov/Measure/CMS72FHIRSTKAntithromboticDay2",
      "period": {
        "start": "2026-01-01",
        "end": "2026-12-31"
      },
      "group": [ {
        "id": "Group_1",
        "population": [ {
          "id": "InitialPopulation_1",
          "code": {
            "coding": [ {
              "system": "http://terminology.hl7.org/CodeSystem/measure-population",
              "code": "initial-population",
              "display": "Initial Population"
            } ]
          },
          "count": 1
        }, {
          "id": "Denominator_1",
          "code": {
            "coding": [ {
              "system": "http://terminology.hl7.org/CodeSystem/measure-population",
              "code": "denominator",
              "display": "Denominator"
            } ]
          },
          "count": 1
        }, {
          "id": "DenominatorExclusion_1",
          "code": {
            "coding": [ {
              "system": "http://terminology.hl7.org/CodeSystem/measure-population",
              "code": "denominator-exclusion",
              "display": "Denominator Exclusion"
            } ]
          },
          "count": 0
        }, {
          "id": "Numerator_1",
          "code": {
            "coding": [ {
              "system": "http://terminology.hl7.org/CodeSystem/measure-population",
              "code": "numerator",
              "display": "Numerator"
            } ]
          },
          "count": 0
        }, {
          "id": "DenominatorException_1",
          "code": {
            "coding": [ {
              "system": "http://terminology.hl7.org/CodeSystem/measure-population",
              "code": "denominator-exception",
              "display": "Denominator Exception"
            } ]
          },
          "count": 0
        } ],
        "measureScore": {
          "value": 0.0
        }
      } ],
      "evaluatedResource": [ {
        "reference": "Patient/de4005d0-549c-40bb-93b9-26650c194d04"
      }, {
        "reference": "Encounter/8f28aca2-faf8-472f-b2d9-62cf838ee69f"
      }, {
        "reference": "Encounter/87cebdee-3199-47aa-901f-19feacb4b4e3"
      }, {
        "reference": "Encounter/a86d11ff-36f3-483a-8bb4-2a1133ccdfcf"
      }, {
        "reference": "Procedure/fc4a0660-15e7-4d22-8238-4d9c0c34b8c8"
      }, {
        "reference": "Condition/77cacf46-9cc8-4d60-b561-a6d26d4baf45"
      }, {
        "reference": "Claim/5ca62962b8484628b8de1ec5"
      }, {
        "reference": "Coverage/60fed76b-7853-4b3f-af61-34ebb0f264f8"
      }, {
        "reference": "Organization/d65f97b2-7658-443f-9df0-42c50dbef426"
      } ]
    },
    "request": {
      "method": "PUT",
      "url": "MeasureReport/355dc65d-80f5-4572-8855-224bd5db7da2"
    }
  } ]
}