{
  "resourceType": "Bundle",
  "id": "657cbdc9b4f1f0343662347a",
  "type": "transaction",
  "entry": [ {
    "fullUrl": "https://madie.cms.gov/Patient/7ce282c2-9138-457b-9ef5-3de129f81dac",
    "resource": {
      "resourceType": "Patient",
      "id": "7ce282c2-9138-457b-9ef5-3de129f81dac",
      "meta": {
        "profile": [ "http://hl7.org/fhir/us/qicore/StructureDefinition/qicore-patient" ]
      },
      "extension": [ {
        "url": "http://hl7.org/fhir/us/core/StructureDefinition/us-core-race",
        "extension": [ {
          "url": "ombCategory",
          "valueCoding": {
            "system": "urn:oid:2.16.840.1.113883.6.238",
            "code": "2106-3",
            "display": "White",
            "userSelected": true
          }
        }, {
          "url": "text",
          "valueString": "White"
        } ]
      }, {
        "url": "http://hl7.org/fhir/us/core/StructureDefinition/us-core-ethnicity",
        "extension": [ {
          "url": "ombCategory",
          "valueCoding": {
            "system": "urn:oid:2.16.840.1.113883.6.238",
            "code": "2186-5",
            "display": "Not Hispanic or Latino",
            "userSelected": true
          }
        }, {
          "url": "text",
          "valueString": "Not Hispanic or Latino"
        } ]
      } ],
      "identifier": [ {
        "type": {
          "coding": [ {
            "system": "http://terminology.hl7.org/CodeSystem/v2-0203",
            "code": "MR"
          } ]
        },
        "system": "https://bonnie-fhir.healthit.gov/",
        "value": "657cbdc9b4f1f0343662347a"
      } ],
      "name": [ {
        "family": "IPOPPass",
        "given": [ "InptEncStatusOnLeave" ]
      } ],
      "gender": "female",
      "birthDate": "2008-01-01"
    },
    "request": {
      "method": "PUT",
      "url": "Patient/7ce282c2-9138-457b-9ef5-3de129f81dac"
    }
  }, {
    "fullUrl": "https://madie.cms.gov/Encounter/adf89ede-29f2-4dec-b6d3-87ccbc2fc212",
    "resource": {
      "resourceType": "Encounter",
      "id": "adf89ede-29f2-4dec-b6d3-87ccbc2fc212",
      "meta": {
        "profile": [ "http://hl7.org/fhir/us/qicore/StructureDefinition/qicore-encounter" ]
      },
      "status": "onleave",
      "class": {
        "system": "http://terminology.hl7.org/CodeSystem/v3-ActCode",
        "code": "ACUTE",
        "display": "inpatient acute"
      },
      "type": [ {
        "coding": [ {
          "system": "http://snomed.info/sct",
          "version": "2024",
          "code": "32485007",
          "display": "Hospital admission (procedure)",
          "userSelected": true
        } ]
      } ],
      "subject": {
        "reference": "Patient/7ce282c2-9138-457b-9ef5-3de129f81dac"
      },
      "period": {
        "start": "2026-01-01T08:00:00.000+00:00",
        "end": "2026-01-02T09:15:00.000+00:00"
      }
    },
    "request": {
      "method": "PUT",
      "url": "Encounter/adf89ede-29f2-4dec-b6d3-87ccbc2fc212"
    }
  }, {
    "fullUrl": "https://madie.cms.gov/Location/4cb71c10-8aa2-4340-acba-567ca6f30964",
    "resource": {
      "resourceType": "Location",
      "id": "4cb71c10-8aa2-4340-acba-567ca6f30964",
      "meta": {
        "profile": [ "http://hl7.org/fhir/us/qicore/StructureDefinition/qicore-location" ]
      },
      "identifier": [ {
        "use": "usual",
        "system": "http://exampleoflocation.com",
        "value": "B1-S.F2"
      } ],
      "name": "Medical Surgical East, first floor",
      "type": [ {
        "coding": [ {
          "system": "https://www.cdc.gov/nhsn/cdaportal/terminology/codesystem/hsloc.html",
          "code": "1028-0",
          "display": "Medical Cardiac Critical Care",
          "userSelected": true
        } ]
      } ]
    },
    "request": {
      "method": "PUT",
      "url": "Location/4cb71c10-8aa2-4340-acba-567ca6f30964"
    }
  }, {
    "fullUrl": "https://madie.cms.gov/MedicationRequest/0f4ba33f-6e34-44a2-9923-7d94773469d2",
    "resource": {
      "resourceType": "MedicationRequest",
      "id": "0f4ba33f-6e34-44a2-9923-7d94773469d2",
      "meta": {
        "profile": [ "http://hl7.org/fhir/us/qicore/StructureDefinition/qicore-medicationrequest" ]
      },
      "status": "completed",
      "intent": "order",
      "medicationCodeableConcept": {
        "coding": [ {
          "system": "http://www.nlm.nih.gov/research/umls/rxnorm",
          "version": "06052023",
          "code": "1007184"
        } ]
      },
      "subject": {
        "reference": "Patient/7ce282c2-9138-457b-9ef5-3de129f81dac"
      },
      "authoredOn": "2026-01-01T08:15:00.000+00:00",
      "requester": {
        "reference": "Practitioner/33d87640-6b2a-40b0-ab11-542478a88d5a"
      },
      "dosageInstruction": [ {
        "timing": {
          "repeat": {
            "boundsPeriod": {
              "start": "2025-01-01T08:15:00.000+00:00"
            }
          }
        }
      } ]
    },
    "request": {
      "method": "PUT",
      "url": "MedicationRequest/0f4ba33f-6e34-44a2-9923-7d94773469d2"
    }
  }, {
    "fullUrl": "https://madie.cms.gov/Coverage/9678a20f-1990-4bce-ae28-0704576c3d1e",
    "resource": {
      "resourceType": "Coverage",
      "id": "9678a20f-1990-4bce-ae28-0704576c3d1e",
      "meta": {
        "profile": [ "http://hl7.org/fhir/us/qicore/StructureDefinition/qicore-coverage" ]
      },
      "identifier": [ {
        "system": "http://benefitsinc.com/certificate",
        "value": "12345"
      } ],
      "status": "active",
      "type": {
        "coding": [ {
          "system": "https://nahdo.org/sopt",
          "version": "1.0.1",
          "code": "1",
          "display": "MEDICARE",
          "userSelected": true
        } ]
      },
      "subscriberId": "AB9876",
      "beneficiary": {
        "reference": "Patient/7ce282c2-9138-457b-9ef5-3de129f81dac"
      },
      "relationship": {
        "coding": [ {
          "system": "http://terminology.hl7.org/CodeSystem/subscriber-relationship",
          "code": "self"
        } ]
      },
      "payor": [ {
        "reference": "Organization/4fee2759-b211-45cf-8a8d-38159f27288a"
      } ]
    },
    "request": {
      "method": "PUT",
      "url": "Coverage/9678a20f-1990-4bce-ae28-0704576c3d1e"
    }
  }, {
    "fullUrl": "https://madie.cms.gov/Organization/4fee2759-b211-45cf-8a8d-38159f27288a",
    "resource": {
      "resourceType": "Organization",
      "id": "4fee2759-b211-45cf-8a8d-38159f27288a",
      "meta": {
        "profile": [ "http://hl7.org/fhir/us/qicore/StructureDefinition/qicore-organization" ]
      },
      "identifier": [ {
        "use": "temp",
        "system": "urn:oid:2.16.840.1.113883.4.4",
        "value": "21-3259825"
      } ],
      "active": true,
      "type": [ {
        "coding": [ {
          "system": "http://terminology.hl7.org/CodeSystem/organization-type",
          "code": "pay",
          "display": "Payer"
        } ]
      } ],
      "name": "Blue Cross Blue Shield of Texas",
      "telecom": [ {
        "system": "phone",
        "value": "(+1) 972-766-6900"
      } ],
      "address": [ {
        "use": "billing",
        "type": "postal",
        "line": [ "P.O. Box 660044" ],
        "city": "Dallas",
        "state": "TX",
        "postalCode": "75266-0044",
        "country": "USA"
      } ]
    },
    "request": {
      "method": "PUT",
      "url": "Organization/4fee2759-b211-45cf-8a8d-38159f27288a"
    }
  }, {
    "fullUrl": "https://madie.cms.gov/Practitioner/150b3bc4-84a8-4fa4-bba8-843785587985",
    "resource": {
      "resourceType": "Practitioner",
      "id": "150b3bc4-84a8-4fa4-bba8-843785587985",
      "meta": {
        "profile": [ "http://hl7.org/fhir/us/qicore/StructureDefinition/qicore-practitioner" ]
      },
      "identifier": [ {
        "system": "http://hl7.org/fhir/sid/us-npi",
        "value": "0723660813"
      } ],
      "name": [ {
        "family": "Evil",
        "prefix": [ "Dr" ]
      } ]
    },
    "request": {
      "method": "PUT",
      "url": "Practitioner/150b3bc4-84a8-4fa4-bba8-843785587985"
    }
  }, {
    "fullUrl": "https://madie.cms.gov/MeasureReport/eb1e6034-df37-4f15-8b29-59c0b18cb7ca",
    "resource": {
      "resourceType": "MeasureReport",
      "id": "eb1e6034-df37-4f15-8b29-59c0b18cb7ca",
      "meta": {
        "profile": [ "http://hl7.org/fhir/us/cqfmeasures/StructureDefinition/test-case-cqfm" ]
      },
      "contained": [ {
        "resourceType": "Parameters",
        "id": "61c430b1-921d-4bae-970b-f1309fd14ead-parameters",
        "parameter": [ {
          "name": "subject",
          "valueString": "7ce282c2-9138-457b-9ef5-3de129f81dac"
        } ]
      } ],
      "extension": [ {
        "url": "http://hl7.org/fhir/StructureDefinition/cqf-inputParameters",
        "valueReference": {
          "reference": "#61c430b1-921d-4bae-970b-f1309fd14ead-parameters"
        }
      }, {
        "url": "http://hl7.org/fhir/us/cqfmeasures/StructureDefinition/cqfm-testCaseDescription",
        "valueMarkdown": "Inpatient encounter with diabetic medication - status on leave"
      } ],
      "modifierExtension": [ {
        "url": "http://hl7.org/fhir/us/cqfmeasures/StructureDefinition/cqfm-isTestCase",
        "valueBoolean": true
      } ],
      "status": "complete",
      "type": "individual",
      "measure": "https://madie.cms.gov/Measure/NHSNGlycemicControlHypoglycemiaInitialPopulation",
      "period": {
        "start": "2026-01-01",
        "end": "2026-12-31"
      },
      "group": [ {
        "id": "Group_1",
        "population": [ {
          "id": "InitialPopulation_1",
          "code": {
            "coding": [ {
              "system": "http://terminology.hl7.org/CodeSystem/measure-population",
              "code": "initial-population",
              "display": "Initial Population"
            } ]
          },
          "count": 1
        } ],
        "measureScore": {
          "value": 0.0
        }
      } ],
      "evaluatedResource": [ {
        "reference": "Patient/7ce282c2-9138-457b-9ef5-3de129f81dac"
      }, {
        "reference": "Encounter/adf89ede-29f2-4dec-b6d3-87ccbc2fc212"
      }, {
        "reference": "Location/4cb71c10-8aa2-4340-acba-567ca6f30964"
      }, {
        "reference": "MedicationRequest/0f4ba33f-6e34-44a2-9923-7d94773469d2"
      }, {
        "reference": "Coverage/9678a20f-1990-4bce-ae28-0704576c3d1e"
      }, {
        "reference": "Organization/4fee2759-b211-45cf-8a8d-38159f27288a"
      }, {
        "reference": "Practitioner/150b3bc4-84a8-4fa4-bba8-843785587985"
      } ]
    },
    "request": {
      "method": "PUT",
      "url": "MeasureReport/eb1e6034-df37-4f15-8b29-59c0b18cb7ca"
    }
  } ]
}