{
  "resourceType": "Bundle",
  "id": "63488db8276faeaef3125a40",
  "type": "transaction",
  "entry": [ {
    "fullUrl": "https://madie.cms.gov/Patient/e7fe7e58-11bb-40e0-a342-06333917105c",
    "resource": {
      "resourceType": "Patient",
      "id": "e7fe7e58-11bb-40e0-a342-06333917105c",
      "meta": {
        "profile": [ "http://hl7.org/fhir/us/qicore/StructureDefinition/qicore-patient" ]
      },
      "text": {
        "status": "generated",
        "div": "<div xmlns=\"http://www.w3.org/1999/xhtml\"><div class=\"hapiHeaderText\">ProcDelivStart1MinB4EncInpStart<b>IPOPFail</b></div><table class=\"hapiPropertyTable\"><tbody><tr><td>Identifier</td><td>5c05b56286ceef6b3739c6d66e73a6f8be510476054eff3a61df4a6cad50439d</td></tr><tr><td>Date of birth</td><td><span>14 February 1985</span></td></tr></tbody></table></div>"
      },
      "extension": [ {
        "url": "http://hl7.org/fhir/us/core/StructureDefinition/us-core-race",
        "extension": [ {
          "url": "ombCategory",
          "valueCoding": {
            "system": "urn:oid:2.16.840.1.113883.6.238",
            "code": "1002-5",
            "display": "American Indian or Alaska Native",
            "userSelected": true
          }
        }, {
          "url": "text",
          "valueString": "American Indian or Alaska Native"
        }, {
          "url": "detailed",
          "valueCoding": {
            "system": "urn:oid:2.16.840.1.113883.6.238",
            "code": "1653-5",
            "display": "Tohono O'Odham"
          }
        } ]
      }, {
        "url": "http://hl7.org/fhir/us/core/StructureDefinition/us-core-ethnicity",
        "extension": [ {
          "url": "ombCategory",
          "valueCoding": {
            "system": "urn:oid:2.16.840.1.113883.6.238",
            "code": "2135-2",
            "display": "Hispanic or Latino",
            "userSelected": true
          }
        }, {
          "url": "text",
          "valueString": "Hispanic or Latino"
        }, {
          "url": "detailed",
          "valueCoding": {
            "system": "urn:oid:2.16.840.1.113883.6.238",
            "code": "2153-5",
            "display": "Mexican American Indian"
          }
        } ]
      } ],
      "identifier": [ {
        "type": {
          "coding": [ {
            "system": "http://terminology.hl7.org/CodeSystem/v2-0203",
            "code": "MR"
          } ]
        },
        "system": "https://bonnie-fhir.healthit.gov/",
        "value": "63488db8276faeaef3125a40"
      } ],
      "active": true,
      "name": [ {
        "use": "usual",
        "family": "IPOPFail",
        "given": [ "ProcDelivStart1MinB4EncInpStart" ]
      } ],
      "gender": "female",
      "birthDate": "1998-02-14"
    },
    "request": {
      "method": "PUT",
      "url": "Patient/e7fe7e58-11bb-40e0-a342-06333917105c"
    }
  }, {
    "fullUrl": "https://madie.cms.gov/Encounter/ee9a9fd0-b8ed-432b-8ea3-df5d15c77937",
    "resource": {
      "resourceType": "Encounter",
      "id": "ee9a9fd0-b8ed-432b-8ea3-df5d15c77937",
      "meta": {
        "profile": [ "http://hl7.org/fhir/us/qicore/StructureDefinition/qicore-encounter-" ]
      },
      "status": "finished",
      "class": {
        "system": "http://terminology.hl7.org/CodeSystem/v3-ActCode",
        "code": "IMP",
        "display": "inpatient encounter"
      },
      "type": [ {
        "coding": [ {
          "system": "http://snomed.info/sct",
          "code": "8715000"
        } ]
      } ],
      "subject": {
        "reference": "Patient/e7fe7e58-11bb-40e0-a342-06333917105c"
      },
      "period": {
        "start": "2026-11-28T08:00:00.000+00:00",
        "end": "2026-11-30T08:15:00.000+00:00"
      },
      "reasonCode": [ {
        "coding": [ {
          "system": "http://snomed.info/sct",
          "code": "169826009",
          "display": "Single live birth from singleton pregnancy (finding)"
        } ]
      } ]
    },
    "request": {
      "method": "PUT",
      "url": "Encounter/ee9a9fd0-b8ed-432b-8ea3-df5d15c77937"
    }
  }, {
    "fullUrl": "https://madie.cms.gov/Coverage/2bd62357-0909-45ce-9b80-9fb32f31718f",
    "resource": {
      "resourceType": "Coverage",
      "id": "2bd62357-0909-45ce-9b80-9fb32f31718f",
      "meta": {
        "profile": [ "http://hl7.org/fhir/us/qicore/StructureDefinition/qicore-coverage" ]
      },
      "status": "active",
      "subscriberId": "523435",
      "beneficiary": {
        "reference": "Patient/e7fe7e58-11bb-40e0-a342-06333917105c"
      },
      "relationship": {
        "coding": [ {
          "system": "http://terminology.hl7.org/CodeSystem/subscriber-relationship",
          "code": "self"
        } ]
      },
      "period": {
        "start": "1986-02-14T08:00:00.000+00:00"
      },
      "payor": [ {
        "reference": "Organization/8c7ac674-407b-42e2-9eb7-f046a6c3ee01"
      } ]
    },
    "request": {
      "method": "PUT",
      "url": "Coverage/2bd62357-0909-45ce-9b80-9fb32f31718f"
    }
  }, {
    "fullUrl": "https://madie.cms.gov/Procedure/7396acac-c856-49c1-82d9-4d52b968454c",
    "resource": {
      "resourceType": "Procedure",
      "id": "7396acac-c856-49c1-82d9-4d52b968454c",
      "meta": {
        "profile": [ "http://hl7.org/fhir/us/qicore/StructureDefinition/qicore-procedure" ]
      },
      "extension": [ {
        "url": "http://hl7.org/fhir/us/qicore/StructureDefinition/qicore-recorded",
        "valueDateTime": "2014-04-05T13:35:00.000+00:00"
      } ],
      "status": "completed",
      "code": {
        "coding": [ {
          "system": "http://www.cms.gov/Medicare/Coding/ICD10",
          "code": "10D00Z0",
          "userSelected": true
        } ]
      },
      "subject": {
        "reference": "Patient/e7fe7e58-11bb-40e0-a342-06333917105c"
      },
      "performedDateTime": "2026-11-28T07:59:00.000+00:00"
    },
    "request": {
      "method": "PUT",
      "url": "Procedure/7396acac-c856-49c1-82d9-4d52b968454c"
    }
  }, {
    "fullUrl": "https://madie.cms.gov/Organization/8c7ac674-407b-42e2-9eb7-f046a6c3ee01",
    "resource": {
      "resourceType": "Organization",
      "id": "8c7ac674-407b-42e2-9eb7-f046a6c3ee01",
      "meta": {
        "profile": [ "http://hl7.org/fhir/us/qicore/StructureDefinition/qicore-organization" ]
      },
      "identifier": [ {
        "use": "temp",
        "system": "urn:oid:2.16.840.1.113883.4.4",
        "value": "21-3259825"
      } ],
      "active": true,
      "type": [ {
        "coding": [ {
          "system": "http://terminology.hl7.org/CodeSystem/organization-type",
          "code": "pay",
          "display": "Payer"
        } ]
      } ],
      "name": "Blue Cross Blue Shield of Texas",
      "telecom": [ {
        "system": "phone",
        "value": "(+1) 972-766-6900"
      } ],
      "address": [ {
        "use": "billing",
        "type": "postal",
        "line": [ "P.O. Box 660044" ],
        "city": "Dallas",
        "state": "TX",
        "postalCode": "75266-0044",
        "country": "USA"
      } ]
    },
    "request": {
      "method": "PUT",
      "url": "Organization/8c7ac674-407b-42e2-9eb7-f046a6c3ee01"
    }
  }, {
    "fullUrl": "https://madie.cms.gov/Practitioner/c0a2b6d4-ec45-4f16-80ce-0c8220a24e89",
    "resource": {
      "resourceType": "Practitioner",
      "id": "c0a2b6d4-ec45-4f16-80ce-0c8220a24e89",
      "meta": {
        "profile": [ "http://hl7.org/fhir/us/qicore/StructureDefinition/qicore-practitioner" ]
      },
      "identifier": [ {
        "system": "http://hl7.org/fhir/sid/us-npi",
        "value": "1234567890"
      } ],
      "name": [ {
        "family": "Evil",
        "prefix": [ "Dr" ]
      } ]
    },
    "request": {
      "method": "PUT",
      "url": "Practitioner/c0a2b6d4-ec45-4f16-80ce-0c8220a24e89"
    }
  }, {
    "fullUrl": "https://madie.cms.gov/MeasureReport/970b9124-0f6b-4c17-89fb-12c58c7e07e7",
    "resource": {
      "resourceType": "MeasureReport",
      "id": "970b9124-0f6b-4c17-89fb-12c58c7e07e7",
      "meta": {
        "profile": [ "http://hl7.org/fhir/us/cqfmeasures/StructureDefinition/test-case-cqfm" ]
      },
      "contained": [ {
        "resourceType": "Parameters",
        "id": "36f33577-9178-41aa-9a47-f0c2110a5f7b-parameters",
        "parameter": [ {
          "name": "subject",
          "valueString": "e7fe7e58-11bb-40e0-a342-06333917105c"
        } ]
      } ],
      "extension": [ {
        "url": "http://hl7.org/fhir/StructureDefinition/cqf-inputParameters",
        "valueReference": {
          "reference": "#36f33577-9178-41aa-9a47-f0c2110a5f7b-parameters"
        }
      }, {
        "url": "http://hl7.org/fhir/us/cqfmeasures/StructureDefinition/cqfm-testCaseDescription",
        "valueMarkdown": "Fails IP: Proc Deliv Start 1 minute before Enc Inp Start.\n"
      } ],
      "modifierExtension": [ {
        "url": "http://hl7.org/fhir/us/cqfmeasures/StructureDefinition/cqfm-isTestCase",
        "valueBoolean": true
      } ],
      "status": "complete",
      "type": "individual",
      "measure": "https://madie.cms.gov/Measure/CMS0334FHIRPCCesareanBirth",
      "period": {
        "start": "2026-01-01",
        "end": "2026-12-31"
      },
      "group": [ {
        "id": "Group_1",
        "population": [ {
          "id": "InitialPopulation_1",
          "code": {
            "coding": [ {
              "system": "http://terminology.hl7.org/CodeSystem/measure-population",
              "code": "initial-population",
              "display": "Initial Population"
            } ]
          },
          "count": 0
        }, {
          "id": "Denominator_1",
          "code": {
            "coding": [ {
              "system": "http://terminology.hl7.org/CodeSystem/measure-population",
              "code": "denominator",
              "display": "Denominator"
            } ]
          },
          "count": 0
        }, {
          "id": "DenominatorExclusion_1",
          "code": {
            "coding": [ {
              "system": "http://terminology.hl7.org/CodeSystem/measure-population",
              "code": "denominator-exclusion",
              "display": "Denominator Exclusion"
            } ]
          },
          "count": 0
        }, {
          "id": "Numerator_1",
          "code": {
            "coding": [ {
              "system": "http://terminology.hl7.org/CodeSystem/measure-population",
              "code": "numerator",
              "display": "Numerator"
            } ]
          },
          "count": 0
        } ],
        "measureScore": {
          "value": 0.0
        }
      } ],
      "evaluatedResource": [ {
        "reference": "Patient/e7fe7e58-11bb-40e0-a342-06333917105c"
      }, {
        "reference": "Encounter/ee9a9fd0-b8ed-432b-8ea3-df5d15c77937"
      }, {
        "reference": "Coverage/2bd62357-0909-45ce-9b80-9fb32f31718f"
      }, {
        "reference": "Procedure/7396acac-c856-49c1-82d9-4d52b968454c"
      }, {
        "reference": "Organization/8c7ac674-407b-42e2-9eb7-f046a6c3ee01"
      }, {
        "reference": "Practitioner/c0a2b6d4-ec45-4f16-80ce-0c8220a24e89"
      } ]
    },
    "request": {
      "method": "PUT",
      "url": "MeasureReport/970b9124-0f6b-4c17-89fb-12c58c7e07e7"
    }
  } ]
}