{
  "resourceType": "Bundle",
  "id": "6413812c4b11b147841ab911",
  "type": "transaction",
  "entry": [ {
    "fullUrl": "https://madie.cms.gov/Patient/1d012d11-4b38-4bdc-bd27-e7d8bcc88c89",
    "resource": {
      "resourceType": "Patient",
      "id": "1d012d11-4b38-4bdc-bd27-e7d8bcc88c89",
      "meta": {
        "profile": [ "http://hl7.org/fhir/us/qicore/StructureDefinition/qicore-patient" ]
      },
      "extension": [ {
        "url": "http://hl7.org/fhir/us/core/StructureDefinition/us-core-race",
        "extension": [ {
          "url": "ombCategory",
          "valueCoding": {
            "system": "urn:oid:2.16.840.1.113883.6.238",
            "code": "2076-8",
            "display": "Native Hawaiian or Other Pacific Islander",
            "userSelected": true
          }
        }, {
          "url": "text",
          "valueString": "Native Hawaiian or Other Pacific Islander"
        } ]
      }, {
        "url": "http://hl7.org/fhir/us/core/StructureDefinition/us-core-ethnicity",
        "extension": [ {
          "url": "ombCategory",
          "valueCoding": {
            "system": "urn:oid:2.16.840.1.113883.6.238",
            "code": "2135-2",
            "display": "Hispanic or Latino",
            "userSelected": true
          }
        }, {
          "url": "text",
          "valueString": "Hispanic or Latino"
        } ]
      } ],
      "identifier": [ {
        "type": {
          "coding": [ {
            "system": "http://terminology.hl7.org/CodeSystem/v2-0203",
            "code": "MR"
          } ]
        },
        "system": "https://bonnie-fhir.healthit.gov/",
        "value": "6413812c4b11b147841ab911"
      } ],
      "name": [ {
        "family": "NUMERPass",
        "given": [ "EdgeAge75Jan1" ]
      } ],
      "gender": "male",
      "birthDate": "1951-01-01"
    },
    "request": {
      "method": "PUT",
      "url": "Patient/1d012d11-4b38-4bdc-bd27-e7d8bcc88c89"
    }
  }, {
    "fullUrl": "https://madie.cms.gov/Condition/82a18da1-5d37-4358-88b8-de7f5ec800b7",
    "resource": {
      "resourceType": "Condition",
      "id": "82a18da1-5d37-4358-88b8-de7f5ec800b7",
      "meta": {
        "profile": [ "http://hl7.org/fhir/us/qicore/StructureDefinition/qicore-condition-problems-health-concerns" ]
      },
      "clinicalStatus": {
        "coding": [ {
          "system": "http://terminology.hl7.org/CodeSystem/condition-clinical",
          "code": "active",
          "display": "active",
          "userSelected": true
        } ]
      },
      "category": [ {
        "coding": [ {
          "system": "http://terminology.hl7.org/CodeSystem/condition-category",
          "code": "problem-list-item",
          "display": "Problem List Item",
          "userSelected": true
        } ]
      } ],
      "code": {
        "coding": [ {
          "system": "http://snomed.info/sct",
          "version": "2021-09",
          "code": "102781000119107",
          "display": "Sensory neuropathy due to type 1 diabetes mellitus (disorder)",
          "userSelected": true
        } ]
      },
      "subject": {
        "reference": "Patient/1d012d11-4b38-4bdc-bd27-e7d8bcc88c89"
      },
      "onsetDateTime": "2025-07-11T08:00:00.000+00:00"
    },
    "request": {
      "method": "PUT",
      "url": "Condition/82a18da1-5d37-4358-88b8-de7f5ec800b7"
    }
  }, {
    "fullUrl": "https://madie.cms.gov/Encounter/a3b10314-eaf6-4489-82d1-d48f35b3f413",
    "resource": {
      "resourceType": "Encounter",
      "id": "a3b10314-eaf6-4489-82d1-d48f35b3f413",
      "meta": {
        "profile": [ "http://hl7.org/fhir/us/qicore/StructureDefinition/qicore-encounter" ]
      },
      "status": "finished",
      "class": {
        "system": "http://terminology.hl7.org/CodeSystem/v3-ActCode",
        "code": "AMB",
        "display": "ambulatory",
        "userSelected": true
      },
      "type": [ {
        "coding": [ {
          "system": "http://snomed.info/sct",
          "version": "2021-09",
          "code": "185460008",
          "display": "Home visit request by patient (procedure)",
          "userSelected": true
        } ]
      } ],
      "subject": {
        "reference": "Patient/1d012d11-4b38-4bdc-bd27-e7d8bcc88c89"
      },
      "period": {
        "start": "2026-03-16T08:00:00.000+00:00",
        "end": "2026-03-16T08:15:00.000+00:00"
      }
    },
    "request": {
      "method": "PUT",
      "url": "Encounter/a3b10314-eaf6-4489-82d1-d48f35b3f413"
    }
  }, {
    "fullUrl": "https://madie.cms.gov/Observation/e5bdf460-f99b-4d9c-a24f-5533b1b9d54c",
    "resource": {
      "resourceType": "Observation",
      "id": "e5bdf460-f99b-4d9c-a24f-5533b1b9d54c",
      "meta": {
        "profile": [ "http://hl7.org/fhir/us/qicore/StructureDefinition/qicore-observation-lab" ]
      },
      "status": "final",
      "category": [ {
        "coding": [ {
          "system": "http://terminology.hl7.org/CodeSystem/observation-category",
          "code": "laboratory",
          "display": "Laboratory",
          "userSelected": true
        } ]
      } ],
      "code": {
        "coding": [ {
          "system": "http://loinc.org",
          "version": "2.71",
          "code": "48642-3",
          "display": "Glomerular filtration rate [Volume Rate/Area] in Serum, Plasma or Blood by Creatinine-based formula (MDRD)/1.73 sq M among non black population",
          "userSelected": true
        } ]
      },
      "subject": {
        "reference": "Patient/1d012d11-4b38-4bdc-bd27-e7d8bcc88c89"
      },
      "effectiveDateTime": "2026-03-16T08:00:00.000+00:00",
      "valueBoolean": true
    },
    "request": {
      "method": "PUT",
      "url": "Observation/e5bdf460-f99b-4d9c-a24f-5533b1b9d54c"
    }
  }, {
    "fullUrl": "https://madie.cms.gov/Observation/52603fa9-35e1-46b3-b788-7776b1146a72",
    "resource": {
      "resourceType": "Observation",
      "id": "52603fa9-35e1-46b3-b788-7776b1146a72",
      "meta": {
        "profile": [ "http://hl7.org/fhir/us/qicore/StructureDefinition/qicore-observation-lab" ]
      },
      "status": "final",
      "category": [ {
        "coding": [ {
          "system": "http://terminology.hl7.org/CodeSystem/observation-category",
          "code": "laboratory",
          "display": "Laboratory",
          "userSelected": true
        } ]
      } ],
      "code": {
        "coding": [ {
          "system": "http://loinc.org",
          "version": "2.71",
          "code": "13705-9",
          "display": "Albumin/Creatinine [Mass Ratio] in 24 hour Urine",
          "userSelected": true
        } ]
      },
      "subject": {
        "reference": "Patient/1d012d11-4b38-4bdc-bd27-e7d8bcc88c89"
      },
      "effectiveDateTime": "2026-03-16T08:00:00.000+00:00",
      "valueQuantity": {
        "value": 30,
        "unit": "mg/g",
        "system": "http://unitsofmeasure.org",
        "code": "mg/g"
      }
    },
    "request": {
      "method": "PUT",
      "url": "Observation/52603fa9-35e1-46b3-b788-7776b1146a72"
    }
  }, {
    "fullUrl": "https://madie.cms.gov/MeasureReport/c8bfacf0-8fc5-4fda-a3f5-f50c328dd33c",
    "resource": {
      "resourceType": "MeasureReport",
      "id": "c8bfacf0-8fc5-4fda-a3f5-f50c328dd33c",
      "meta": {
        "profile": [ "http://hl7.org/fhir/us/cqfmeasures/StructureDefinition/test-case-cqfm" ]
      },
      "contained": [ {
        "resourceType": "Parameters",
        "id": "6d120b40-a36b-4cb7-9e26-fc7b8441f4f9-parameters",
        "parameter": [ {
          "name": "subject",
          "valueString": "1d012d11-4b38-4bdc-bd27-e7d8bcc88c89"
        } ]
      } ],
      "extension": [ {
        "url": "http://hl7.org/fhir/StructureDefinition/cqf-inputParameters",
        "valueReference": {
          "reference": "#6d120b40-a36b-4cb7-9e26-fc7b8441f4f9-parameters"
        }
      }, {
        "url": "http://hl7.org/fhir/us/cqfmeasures/StructureDefinition/cqfm-testCaseDescription",
        "valueMarkdown": "This patient turns 75 years the first day of the measurement period and has a qualifying encounter, active diabetes, and both qualifying labs. This case tests the IPP age criteria."
      } ],
      "modifierExtension": [ {
        "url": "http://hl7.org/fhir/us/cqfmeasures/StructureDefinition/cqfm-isTestCase",
        "valueBoolean": true
      } ],
      "status": "complete",
      "type": "individual",
      "measure": "https://madie.cms.gov/Measure/CMS951FHIRKidneyHealthEval",
      "period": {
        "start": "2026-01-01",
        "end": "2026-12-31"
      },
      "group": [ {
        "id": "Group_1",
        "population": [ {
          "id": "InitialPopulation_1",
          "code": {
            "coding": [ {
              "system": "http://terminology.hl7.org/CodeSystem/measure-population",
              "code": "initial-population",
              "display": "Initial Population"
            } ]
          },
          "count": 1
        }, {
          "id": "Denominator_1",
          "code": {
            "coding": [ {
              "system": "http://terminology.hl7.org/CodeSystem/measure-population",
              "code": "denominator",
              "display": "Denominator"
            } ]
          },
          "count": 1
        }, {
          "id": "DenominatorExclusion_1",
          "code": {
            "coding": [ {
              "system": "http://terminology.hl7.org/CodeSystem/measure-population",
              "code": "denominator-exclusion",
              "display": "Denominator Exclusion"
            } ]
          },
          "count": 0
        }, {
          "id": "Numerator_1",
          "code": {
            "coding": [ {
              "system": "http://terminology.hl7.org/CodeSystem/measure-population",
              "code": "numerator",
              "display": "Numerator"
            } ]
          },
          "count": 1
        } ],
        "measureScore": {
          "value": 1.0
        }
      } ],
      "evaluatedResource": [ {
        "reference": "Patient/1d012d11-4b38-4bdc-bd27-e7d8bcc88c89"
      }, {
        "reference": "Condition/82a18da1-5d37-4358-88b8-de7f5ec800b7"
      }, {
        "reference": "Encounter/a3b10314-eaf6-4489-82d1-d48f35b3f413"
      }, {
        "reference": "Observation/e5bdf460-f99b-4d9c-a24f-5533b1b9d54c"
      }, {
        "reference": "Observation/52603fa9-35e1-46b3-b788-7776b1146a72"
      } ]
    },
    "request": {
      "method": "PUT",
      "url": "MeasureReport/c8bfacf0-8fc5-4fda-a3f5-f50c328dd33c"
    }
  } ]
}