{
  "resourceType": "Bundle",
  "id": "NUMERPass-Enc1ExclEnc2NumerFallDoc",
  "type": "transaction",
  "entry": [ {
    "fullUrl": "https://madie.cms.gov/Claim/ef947db6-ec85-42b1-a5e3-c61f8a08f093",
    "resource": {
      "resourceType": "Claim",
      "id": "ef947db6-ec85-42b1-a5e3-c61f8a08f093",
      "meta": {
        "profile": [ "http://hl7.org/fhir/us/qicore/StructureDefinition/qicore-claim" ]
      },
      "status": "active",
      "type": {
        "coding": [ {
          "system": "http://terminology.hl7.org/CodeSystem/claim-type",
          "code": "professional",
          "display": "Professional"
        } ]
      },
      "use": "claim",
      "patient": {
        "reference": "Patient/0dfafc1a-cf94-4ca1-becf-c1b843896810"
      },
      "created": "2026-11-10",
      "provider": {
        "reference": "Practitioner/5db8e8d1-3b47-42c1-a88a-fad1bea55d7b"
      },
      "priority": {
        "coding": [ {
          "system": "http://terminology.hl7.org/CodeSystem/processpriority",
          "code": "normal"
        } ]
      },
      "diagnosis": [ {
        "sequence": 1,
        "diagnosisCodeableConcept": {
          "coding": [ {
            "system": "http://snomed.info/sct",
            "code": "14047009"
          } ]
        },
        "onAdmission": {
          "coding": [ {
            "system": "https://www.cms.gov/Medicare/Medicare-Fee-for-Service-Payment/HospitalAcqCond/Coding",
            "code": "Y"
          } ]
        }
      } ],
      "insurance": [ {
        "sequence": 1,
        "focal": true,
        "coverage": {
          "reference": "Coverage/59afa56d-24a6-481a-a600-d12d765e908f"
        }
      } ],
      "item": [ {
        "sequence": 1,
        "diagnosisSequence": [ 1, 2 ],
        "productOrService": {
          "coding": [ {
            "system": "http://terminology.hl7.org/CodeSystem/ex-USCLS",
            "code": "1101"
          } ]
        },
        "encounter": [ {
          "reference": "Encounter/fcfaa5f8-7439-470c-a809-ff97fe1e3015"
        } ]
      } ]
    },
    "request": {
      "method": "PUT",
      "url": "Claim/ef947db6-ec85-42b1-a5e3-c61f8a08f093"
    }
  }, {
    "fullUrl": "https://madie.cms.gov/Claim/98b57338-1f2e-4acc-9b19-d8030fb6dda7",
    "resource": {
      "resourceType": "Claim",
      "id": "98b57338-1f2e-4acc-9b19-d8030fb6dda7",
      "meta": {
        "profile": [ "http://hl7.org/fhir/us/qicore/StructureDefinition/qicore-claim" ]
      },
      "status": "active",
      "type": {
        "coding": [ {
          "system": "http://terminology.hl7.org/CodeSystem/claim-type",
          "code": "professional",
          "display": "Professional"
        } ]
      },
      "use": "claim",
      "patient": {
        "reference": "Patient/0dfafc1a-cf94-4ca1-becf-c1b843896810"
      },
      "created": "2026-11-10",
      "provider": {
        "reference": "Practitioner/5db8e8d1-3b47-42c1-a88a-fad1bea55d7b"
      },
      "priority": {
        "coding": [ {
          "system": "http://terminology.hl7.org/CodeSystem/processpriority",
          "code": "normal"
        } ]
      },
      "diagnosis": [ {
        "sequence": 2,
        "diagnosisCodeableConcept": {
          "coding": [ {
            "system": "http://hl7.org/fhir/sid/icd-10-cm",
            "code": "S01.00XA"
          } ]
        },
        "onAdmission": {
          "coding": [ {
            "system": "https://www.cms.gov/Medicare/Medicare-Fee-for-Service-Payment/HospitalAcqCond/Coding",
            "code": "N"
          } ]
        }
      } ],
      "insurance": [ {
        "sequence": 1,
        "focal": true,
        "coverage": {
          "reference": "Coverage/59afa56d-24a6-481a-a600-d12d765e908f"
        }
      } ],
      "item": [ {
        "sequence": 1,
        "diagnosisSequence": [ 1, 2 ],
        "productOrService": {
          "coding": [ {
            "system": "http://terminology.hl7.org/CodeSystem/ex-USCLS",
            "code": "1101"
          } ]
        },
        "encounter": [ {
          "reference": "Encounter/fd3ddce1-de9c-4745-99d0-c6c1ac2bcdca"
        } ]
      } ]
    },
    "request": {
      "method": "PUT",
      "url": "Claim/98b57338-1f2e-4acc-9b19-d8030fb6dda7"
    }
  }, {
    "fullUrl": "https://madie.cms.gov/Claim/45885a5f-f934-43c7-9c61-17ad10457e5e",
    "resource": {
      "resourceType": "Claim",
      "id": "45885a5f-f934-43c7-9c61-17ad10457e5e",
      "meta": {
        "profile": [ "http://hl7.org/fhir/us/qicore/StructureDefinition/qicore-claim" ]
      },
      "status": "active",
      "type": {
        "coding": [ {
          "system": "http://terminology.hl7.org/CodeSystem/claim-type",
          "code": "professional",
          "display": "Professional"
        } ]
      },
      "use": "claim",
      "patient": {
        "reference": "Patient/0dfafc1a-cf94-4ca1-becf-c1b843896810"
      },
      "created": "2026-12-10",
      "provider": {
        "reference": "Practitioner/5db8e8d1-3b47-42c1-a88a-fad1bea55d7b"
      },
      "priority": {
        "coding": [ {
          "system": "http://terminology.hl7.org/CodeSystem/processpriority",
          "code": "normal"
        } ]
      },
      "diagnosis": [ {
        "sequence": 1,
        "diagnosisCodeableConcept": {
          "coding": [ {
            "system": "http://snomed.info/sct",
            "code": "14047009"
          } ]
        },
        "onAdmission": {
          "coding": [ {
            "system": "https://www.cms.gov/Medicare/Medicare-Fee-for-Service-Payment/HospitalAcqCond/Coding",
            "code": "N"
          } ]
        }
      } ],
      "insurance": [ {
        "sequence": 1,
        "focal": true,
        "coverage": {
          "reference": "Coverage/59afa56d-24a6-481a-a600-d12d765e908f"
        }
      } ],
      "item": [ {
        "sequence": 1,
        "diagnosisSequence": [ 1, 2 ],
        "productOrService": {
          "coding": [ {
            "system": "http://terminology.hl7.org/CodeSystem/ex-USCLS",
            "code": "1101"
          } ]
        },
        "encounter": [ {
          "reference": "Encounter/fd3ddce1-de9c-4745-99d0-c6c1ac2bcdca"
        } ]
      } ]
    },
    "request": {
      "method": "PUT",
      "url": "Claim/45885a5f-f934-43c7-9c61-17ad10457e5e"
    }
  }, {
    "fullUrl": "https://madie.cms.gov/Claim/88c577b8-9f1c-4988-a233-2f41b963ae41",
    "resource": {
      "resourceType": "Claim",
      "id": "88c577b8-9f1c-4988-a233-2f41b963ae41",
      "meta": {
        "profile": [ "http://hl7.org/fhir/us/qicore/StructureDefinition/qicore-claim" ]
      },
      "status": "active",
      "type": {
        "coding": [ {
          "system": "http://terminology.hl7.org/CodeSystem/claim-type",
          "code": "professional",
          "display": "Professional"
        } ]
      },
      "use": "claim",
      "patient": {
        "reference": "Patient/0dfafc1a-cf94-4ca1-becf-c1b843896810"
      },
      "created": "2026-12-10",
      "provider": {
        "reference": "Practitioner/5db8e8d1-3b47-42c1-a88a-fad1bea55d7b"
      },
      "priority": {
        "coding": [ {
          "system": "http://terminology.hl7.org/CodeSystem/processpriority",
          "code": "normal"
        } ]
      },
      "diagnosis": [ {
        "sequence": 2,
        "diagnosisCodeableConcept": {
          "coding": [ {
            "system": "http://hl7.org/fhir/sid/icd-10-cm",
            "code": "M80.00XA"
          } ]
        },
        "onAdmission": {
          "coding": [ {
            "system": "https://www.cms.gov/Medicare/Medicare-Fee-for-Service-Payment/HospitalAcqCond/Coding",
            "code": "N"
          } ]
        }
      } ],
      "insurance": [ {
        "sequence": 1,
        "focal": true,
        "coverage": {
          "reference": "Coverage/59afa56d-24a6-481a-a600-d12d765e908f"
        }
      } ],
      "item": [ {
        "sequence": 1,
        "diagnosisSequence": [ 1, 2 ],
        "productOrService": {
          "coding": [ {
            "system": "http://terminology.hl7.org/CodeSystem/ex-USCLS",
            "code": "1101"
          } ]
        },
        "encounter": [ {
          "reference": "Encounter/fd3ddce1-de9c-4745-99d0-c6c1ac2bcdca"
        } ]
      } ]
    },
    "request": {
      "method": "PUT",
      "url": "Claim/88c577b8-9f1c-4988-a233-2f41b963ae41"
    }
  }, {
    "fullUrl": "https://madie.cms.gov/Encounter/fd3ddce1-de9c-4745-99d0-c6c1ac2bcdca",
    "resource": {
      "resourceType": "Encounter",
      "id": "fd3ddce1-de9c-4745-99d0-c6c1ac2bcdca",
      "meta": {
        "profile": [ "http://hl7.org/fhir/us/qicore/StructureDefinition/qicore-encounter" ]
      },
      "status": "finished",
      "class": {
        "system": "http://terminology.hl7.org/CodeSystem/v3-ActCode",
        "code": "IMP",
        "display": "inpatient encounter"
      },
      "type": [ {
        "coding": [ {
          "system": "http://snomed.info/sct",
          "code": "183452005"
        } ]
      } ],
      "subject": {
        "reference": "Patient/0dfafc1a-cf94-4ca1-becf-c1b843896810"
      },
      "period": {
        "start": "2026-12-08T08:00:00.000Z",
        "end": "2026-12-15T08:15:00.000Z"
      },
      "reasonReference": [ {
        "reference": "Condition/6f91cb83-6a53-43fc-91d5-98fc88e2902f"
      }, {
        "reference": "Condition/1aaf2925-f24b-425d-a515-b543c033e701"
      } ]
    },
    "request": {
      "method": "PUT",
      "url": "Encounter/fd3ddce1-de9c-4745-99d0-c6c1ac2bcdca"
    }
  }, {
    "fullUrl": "https://madie.cms.gov/Condition/1aaf2925-f24b-425d-a515-b543c033e701",
    "resource": {
      "resourceType": "Condition",
      "id": "1aaf2925-f24b-425d-a515-b543c033e701",
      "meta": {
        "profile": [ "http://hl7.org/fhir/us/qicore/StructureDefinition/qicore-condition-encounter-diagnosis" ]
      },
      "clinicalStatus": {
        "coding": [ {
          "system": "http://terminology.hl7.org/CodeSystem/condition-clinical",
          "code": "active"
        } ]
      },
      "verificationStatus": {
        "coding": [ {
          "system": "http://terminology.hl7.org/CodeSystem/condition-ver-status",
          "code": "confirmed"
        } ]
      },
      "category": [ {
        "coding": [ {
          "system": "http://terminology.hl7.org/CodeSystem/condition-category",
          "code": "encounter-diagnosis",
          "display": "Encounter Diagnosis"
        } ]
      } ],
      "code": {
        "coding": [ {
          "system": "http://hl7.org/fhir/sid/icd-10-cm",
          "code": "M80.00XA"
        } ]
      },
      "subject": {
        "reference": "Patient/0dfafc1a-cf94-4ca1-becf-c1b843896810"
      },
      "encounter": {
        "reference": "Encounter/fd3ddce1-de9c-4745-99d0-c6c1ac2bcdca"
      }
    },
    "request": {
      "method": "PUT",
      "url": "Condition/1aaf2925-f24b-425d-a515-b543c033e701"
    }
  }, {
    "fullUrl": "https://madie.cms.gov/Condition/6f91cb83-6a53-43fc-91d5-98fc88e2902f",
    "resource": {
      "resourceType": "Condition",
      "id": "6f91cb83-6a53-43fc-91d5-98fc88e2902f",
      "meta": {
        "profile": [ "http://hl7.org/fhir/us/qicore/StructureDefinition/qicore-condition-encounter-diagnosis" ]
      },
      "clinicalStatus": {
        "coding": [ {
          "system": "http://terminology.hl7.org/CodeSystem/condition-clinical",
          "code": "active"
        } ]
      },
      "verificationStatus": {
        "coding": [ {
          "system": "http://terminology.hl7.org/CodeSystem/condition-ver-status",
          "code": "confirmed"
        } ]
      },
      "category": [ {
        "coding": [ {
          "system": "http://terminology.hl7.org/CodeSystem/condition-category",
          "code": "encounter-diagnosis",
          "display": "Encounter Diagnosis"
        } ]
      } ],
      "code": {
        "coding": [ {
          "system": "http://hl7.org/fhir/sid/icd-10-cm",
          "code": "W01.0XXA"
        } ]
      },
      "subject": {
        "reference": "Patient/0dfafc1a-cf94-4ca1-becf-c1b843896810"
      },
      "encounter": {
        "reference": "Encounter/fd3ddce1-de9c-4745-99d0-c6c1ac2bcdca"
      }
    },
    "request": {
      "method": "PUT",
      "url": "Condition/6f91cb83-6a53-43fc-91d5-98fc88e2902f"
    }
  }, {
    "fullUrl": "https://madie.cms.gov/Encounter/fcfaa5f8-7439-470c-a809-ff97fe1e3015",
    "resource": {
      "resourceType": "Encounter",
      "id": "fcfaa5f8-7439-470c-a809-ff97fe1e3015",
      "meta": {
        "profile": [ "http://hl7.org/fhir/us/qicore/StructureDefinition/qicore-encounter" ]
      },
      "status": "finished",
      "class": {
        "system": "http://terminology.hl7.org/CodeSystem/v3-ActCode",
        "code": "IMP",
        "display": "inpatient encounter"
      },
      "type": [ {
        "coding": [ {
          "system": "http://snomed.info/sct",
          "code": "183452005"
        } ]
      } ],
      "subject": {
        "reference": "Patient/0dfafc1a-cf94-4ca1-becf-c1b843896810"
      },
      "period": {
        "start": "2026-11-09T11:00:00.000Z",
        "end": "2026-11-12T08:15:00.000Z"
      },
      "reasonReference": [ {
        "reference": "Condition/46a9e775-c374-41c2-a9dc-7550af2c1c11"
      }, {
        "reference": "Condition/908addb3-8cd2-416a-b9f6-8aaeaf0e761b"
      } ]
    },
    "request": {
      "method": "PUT",
      "url": "Encounter/fcfaa5f8-7439-470c-a809-ff97fe1e3015"
    }
  }, {
    "fullUrl": "https://madie.cms.gov/Encounter/ce5e7e38-8424-41e0-8531-ddc6ca6f800f",
    "resource": {
      "resourceType": "Encounter",
      "id": "ce5e7e38-8424-41e0-8531-ddc6ca6f800f",
      "meta": {
        "profile": [ "http://hl7.org/fhir/us/qicore/StructureDefinition/qicore-encounter" ]
      },
      "status": "finished",
      "class": {
        "system": "http://terminology.hl7.org/CodeSystem/v3-ActCode",
        "code": "IMP",
        "display": "inpatient encounter"
      },
      "type": [ {
        "coding": [ {
          "system": "http://snomed.info/sct",
          "code": "4525004"
        } ]
      } ],
      "subject": {
        "reference": "Patient/0dfafc1a-cf94-4ca1-becf-c1b843896810"
      },
      "period": {
        "start": "2026-11-09T08:00:00.000Z",
        "end": "2026-11-09T10:15:00.000Z"
      }
    },
    "request": {
      "method": "PUT",
      "url": "Encounter/ce5e7e38-8424-41e0-8531-ddc6ca6f800f"
    }
  }, {
    "fullUrl": "https://madie.cms.gov/Condition/908addb3-8cd2-416a-b9f6-8aaeaf0e761b",
    "resource": {
      "resourceType": "Condition",
      "id": "908addb3-8cd2-416a-b9f6-8aaeaf0e761b",
      "meta": {
        "profile": [ "http://hl7.org/fhir/us/qicore/StructureDefinition/qicore-condition-encounter-diagnosis" ]
      },
      "clinicalStatus": {
        "coding": [ {
          "system": "http://terminology.hl7.org/CodeSystem/condition-clinical",
          "code": "active"
        } ]
      },
      "verificationStatus": {
        "coding": [ {
          "system": "http://terminology.hl7.org/CodeSystem/condition-ver-status",
          "code": "confirmed"
        } ]
      },
      "category": [ {
        "coding": [ {
          "system": "http://terminology.hl7.org/CodeSystem/condition-category",
          "code": "encounter-diagnosis",
          "display": "Encounter Diagnosis"
        } ]
      } ],
      "code": {
        "coding": [ {
          "system": "http://hl7.org/fhir/sid/icd-10-cm",
          "code": "S01.00XA"
        } ]
      },
      "subject": {
        "reference": "Patient/0dfafc1a-cf94-4ca1-becf-c1b843896810"
      },
      "encounter": {
        "reference": "Encounter/fcfaa5f8-7439-470c-a809-ff97fe1e3015"
      }
    },
    "request": {
      "method": "PUT",
      "url": "Condition/908addb3-8cd2-416a-b9f6-8aaeaf0e761b"
    }
  }, {
    "fullUrl": "https://madie.cms.gov/Condition/46a9e775-c374-41c2-a9dc-7550af2c1c11",
    "resource": {
      "resourceType": "Condition",
      "id": "46a9e775-c374-41c2-a9dc-7550af2c1c11",
      "meta": {
        "profile": [ "http://hl7.org/fhir/us/qicore/StructureDefinition/qicore-condition-encounter-diagnosis" ]
      },
      "clinicalStatus": {
        "coding": [ {
          "system": "http://terminology.hl7.org/CodeSystem/condition-clinical",
          "code": "active"
        } ]
      },
      "verificationStatus": {
        "coding": [ {
          "system": "http://terminology.hl7.org/CodeSystem/condition-ver-status",
          "code": "confirmed"
        } ]
      },
      "category": [ {
        "coding": [ {
          "system": "http://terminology.hl7.org/CodeSystem/condition-category",
          "code": "encounter-diagnosis",
          "display": "Encounter Diagnosis"
        } ]
      } ],
      "code": {
        "coding": [ {
          "system": "http://snomed.info/sct",
          "code": "14047009"
        } ]
      },
      "subject": {
        "reference": "Patient/0dfafc1a-cf94-4ca1-becf-c1b843896810"
      },
      "encounter": {
        "reference": "Encounter/fcfaa5f8-7439-470c-a809-ff97fe1e3015"
      }
    },
    "request": {
      "method": "PUT",
      "url": "Condition/46a9e775-c374-41c2-a9dc-7550af2c1c11"
    }
  }, {
    "fullUrl": "https://madie.cms.gov/Patient/0dfafc1a-cf94-4ca1-becf-c1b843896810",
    "resource": {
      "resourceType": "Patient",
      "id": "0dfafc1a-cf94-4ca1-becf-c1b843896810",
      "meta": {
        "profile": [ "http://hl7.org/fhir/us/qicore/StructureDefinition/qicore-patient" ]
      },
      "extension": [ {
        "url": "http://hl7.org/fhir/us/core/StructureDefinition/us-core-race",
        "extension": [ {
          "url": "ombCategory",
          "valueCoding": {
            "system": "urn:oid:2.16.840.1.113883.6.238",
            "code": "2054-5",
            "display": "Black or African American",
            "userSelected": true
          }
        }, {
          "url": "text",
          "valueString": "Black or African American"
        } ]
      }, {
        "url": "http://hl7.org/fhir/us/core/StructureDefinition/us-core-ethnicity",
        "extension": [ {
          "url": "ombCategory",
          "valueCoding": {
            "system": "urn:oid:2.16.840.1.113883.6.238",
            "code": "2186-5",
            "display": "Not Hispanic or Latino",
            "userSelected": true
          }
        }, {
          "url": "text",
          "valueString": "Not Hispanic or Latino"
        } ]
      }, {
        "url": "http://hl7.org/fhir/us/core/StructureDefinition/us-core-sex",
        "valueCode": "248152002"
      } ],
      "identifier": [ {
        "type": {
          "coding": [ {
            "system": "http://terminology.hl7.org/CodeSystem/v2-0203",
            "code": "MR"
          } ]
        },
        "system": "https://bonnie-fhir.healthit.gov/",
        "value": "61152a3b98086b7a79cbd7c1"
      } ],
      "active": true,
      "name": [ {
        "use": "usual",
        "family": "NUMERPass",
        "given": [ "Enc1ExclEnc2NumerFallDoc" ]
      } ],
      "gender": "male",
      "birthDate": "1964-12-11"
    },
    "request": {
      "method": "PUT",
      "url": "Patient/0dfafc1a-cf94-4ca1-becf-c1b843896810"
    }
  }, {
    "fullUrl": "https://madie.cms.gov/AdverseEvent/f5d8dbe6-1eea-4a51-a391-4b70e13f0726",
    "resource": {
      "resourceType": "AdverseEvent",
      "id": "f5d8dbe6-1eea-4a51-a391-4b70e13f0726",
      "meta": {
        "profile": [ "http://hl7.org/fhir/us/qicore/StructureDefinition/qicore-adverseevent" ]
      },
      "actuality": "actual",
      "event": {
        "coding": [ {
          "system": "http://snomed.info/sct",
          "code": "14047009"
        } ]
      },
      "subject": {
        "reference": "Patient/0dfafc1a-cf94-4ca1-becf-c1b843896810"
      },
      "encounter": {
        "reference": "Encounter/fd3ddce1-de9c-4745-99d0-c6c1ac2bcdca"
      },
      "date": "2026-12-10T08:00:00.000Z"
    },
    "request": {
      "method": "PUT",
      "url": "AdverseEvent/f5d8dbe6-1eea-4a51-a391-4b70e13f0726"
    }
  }, {
    "fullUrl": "https://madie.cms.gov/Practitioner/5db8e8d1-3b47-42c1-a88a-fad1bea55d7b",
    "resource": {
      "resourceType": "Practitioner",
      "id": "5db8e8d1-3b47-42c1-a88a-fad1bea55d7b",
      "identifier": [ {
        "system": "http://www.cms.gov/identifiers/pracitioners",
        "value": "P12345"
      } ],
      "name": [ {
        "use": "official",
        "family": "Smith",
        "given": [ "John" ]
      } ],
      "qualification": [ {
        "identifier": [ {
          "system": "http://hl7.org/fhir/sid/us-npi",
          "value": "1234567890"
        } ],
        "code": {
          "coding": [ {
            "system": "http://terminology.hl7.org/CodeSystem/v2-0203",
            "code": "MD",
            "display": "Medical License number"
          } ]
        }
      } ]
    },
    "request": {
      "method": "PUT",
      "url": "Practitioner/5db8e8d1-3b47-42c1-a88a-fad1bea55d7b"
    }
  }, {
    "fullUrl": "https://madie.cms.gov/Coverage/59afa56d-24a6-481a-a600-d12d765e908f",
    "resource": {
      "resourceType": "Coverage",
      "id": "59afa56d-24a6-481a-a600-d12d765e908f",
      "status": "active",
      "beneficiary": {
        "reference": "Patient/0dfafc1a-cf94-4ca1-becf-c1b843896810"
      },
      "payor": [ {
        "reference": "Organization/de92d7f2-1558-449f-bf48-4225d8a5d320"
      } ]
    },
    "request": {
      "method": "PUT",
      "url": "Coverage/59afa56d-24a6-481a-a600-d12d765e908f"
    }
  }, {
    "fullUrl": "https://madie.cms.gov/Organization/de92d7f2-1558-449f-bf48-4225d8a5d320",
    "resource": {
      "resourceType": "Organization",
      "id": "de92d7f2-1558-449f-bf48-4225d8a5d320",
      "identifier": [ {
        "system": "http://cms.gov/insurance-ids",
        "value": "AET12345"
      } ],
      "type": [ {
        "coding": [ {
          "system": "http://terminology.hl7.org/CodeSystem/organization-type",
          "code": "prov",
          "display": "Healthcare Provider"
        } ]
      } ],
      "name": "Aetna Insurance",
      "telecom": [ {
        "system": "phone",
        "value": "+1-800-123-4567"
      } ],
      "address": [ {
        "line": [ "123 Main Street" ],
        "city": "Cityville",
        "state": "CA",
        "postalCode": "12345",
        "country": "USA"
      } ]
    },
    "request": {
      "method": "PUT",
      "url": "Organization/de92d7f2-1558-449f-bf48-4225d8a5d320"
    }
  }, {
    "fullUrl": "https://madie.cms.gov/MeasureReport/cd491c44-6ed1-483f-8775-516f92b9c16d",
    "resource": {
      "resourceType": "MeasureReport",
      "id": "cd491c44-6ed1-483f-8775-516f92b9c16d",
      "meta": {
        "profile": [ "http://hl7.org/fhir/us/cqfmeasures/StructureDefinition/test-case-cqfm" ]
      },
      "contained": [ {
        "resourceType": "Parameters",
        "id": "4c3cc2c2-e7f4-4f97-8066-a9a211c9ddd5-parameters",
        "parameter": [ {
          "name": "subject",
          "valueString": "0dfafc1a-cf94-4ca1-becf-c1b843896810"
        } ]
      } ],
      "extension": [ {
        "url": "http://hl7.org/fhir/StructureDefinition/cqf-inputParameters",
        "valueReference": {
          "reference": "#4c3cc2c2-e7f4-4f97-8066-a9a211c9ddd5-parameters"
        }
      }, {
        "url": "http://hl7.org/fhir/us/cqfmeasures/StructureDefinition/cqfm-testCaseDescription",
        "valueMarkdown": "Enc 1: fall POA. Meets exclusion. \nEnc 2: fall documented during enc as adverse event, and mod injury NPOA. Meets Numerator.   \nDENEX = 1, NUMER = 1. "
      } ],
      "modifierExtension": [ {
        "url": "http://hl7.org/fhir/us/cqfmeasures/StructureDefinition/cqfm-isTestCase",
        "valueBoolean": true
      } ],
      "status": "complete",
      "type": "individual",
      "measure": "https://madie.cms.gov/Measure/CMS1017FHIRHHFI",
      "period": {
        "start": "2026-01-01",
        "end": "2026-12-31"
      },
      "group": [ {
        "id": "Group_1",
        "population": [ {
          "id": "InitialPopulation_1",
          "code": {
            "coding": [ {
              "system": "http://terminology.hl7.org/CodeSystem/measure-population",
              "code": "initial-population",
              "display": "Initial Population"
            } ]
          },
          "count": 2
        }, {
          "id": "Denominator_1",
          "code": {
            "coding": [ {
              "system": "http://terminology.hl7.org/CodeSystem/measure-population",
              "code": "denominator",
              "display": "Denominator"
            } ]
          },
          "count": 2
        }, {
          "id": "MeasureObservation_1_1_1",
          "code": {
            "coding": [ {
              "system": "http://terminology.hl7.org/CodeSystem/measure-population",
              "code": "measure-observation",
              "display": "Measure Observation"
            } ]
          },
          "count": 7
        }, {
          "id": "DenominatorExclusion_1",
          "code": {
            "coding": [ {
              "system": "http://terminology.hl7.org/CodeSystem/measure-population",
              "code": "denominator-exclusion",
              "display": "Denominator Exclusion"
            } ]
          },
          "count": 1
        }, {
          "id": "Numerator_1",
          "code": {
            "coding": [ {
              "system": "http://terminology.hl7.org/CodeSystem/measure-population",
              "code": "numerator",
              "display": "Numerator"
            } ]
          },
          "count": 1
        }, {
          "id": "MeasureObservation_1_2_1",
          "code": {
            "coding": [ {
              "system": "http://terminology.hl7.org/CodeSystem/measure-population",
              "code": "measure-observation",
              "display": "Measure Observation"
            } ]
          },
          "count": 1
        }, {
          "id": "NumeratorExclusion_1",
          "code": {
            "coding": [ {
              "system": "http://terminology.hl7.org/CodeSystem/measure-population",
              "code": "numerator-exclusion",
              "display": "Numerator Exclusion"
            } ]
          },
          "count": 0
        } ],
        "measureScore": {
          "value": 0.0
        }
      } ],
      "evaluatedResource": [ {
        "reference": "Claim/ef947db6-ec85-42b1-a5e3-c61f8a08f093"
      }, {
        "reference": "Claim/98b57338-1f2e-4acc-9b19-d8030fb6dda7"
      }, {
        "reference": "Claim/45885a5f-f934-43c7-9c61-17ad10457e5e"
      }, {
        "reference": "Claim/88c577b8-9f1c-4988-a233-2f41b963ae41"
      }, {
        "reference": "Encounter/fd3ddce1-de9c-4745-99d0-c6c1ac2bcdca"
      }, {
        "reference": "Condition/1aaf2925-f24b-425d-a515-b543c033e701"
      }, {
        "reference": "Condition/6f91cb83-6a53-43fc-91d5-98fc88e2902f"
      }, {
        "reference": "Encounter/fcfaa5f8-7439-470c-a809-ff97fe1e3015"
      }, {
        "reference": "Encounter/ce5e7e38-8424-41e0-8531-ddc6ca6f800f"
      }, {
        "reference": "Condition/908addb3-8cd2-416a-b9f6-8aaeaf0e761b"
      }, {
        "reference": "Condition/46a9e775-c374-41c2-a9dc-7550af2c1c11"
      }, {
        "reference": "Patient/0dfafc1a-cf94-4ca1-becf-c1b843896810"
      }, {
        "reference": "AdverseEvent/f5d8dbe6-1eea-4a51-a391-4b70e13f0726"
      }, {
        "reference": "Practitioner/5db8e8d1-3b47-42c1-a88a-fad1bea55d7b"
      }, {
        "reference": "Coverage/59afa56d-24a6-481a-a600-d12d765e908f"
      }, {
        "reference": "Organization/de92d7f2-1558-449f-bf48-4225d8a5d320"
      } ]
    },
    "request": {
      "method": "PUT",
      "url": "MeasureReport/cd491c44-6ed1-483f-8775-516f92b9c16d"
    }
  } ]
}