{
  "resourceType": "Bundle",
  "id": "633c9d040968f8012250fca6",
  "type": "transaction",
  "entry": [ {
    "fullUrl": "https://madie.cms.gov/Patient/e73d1055-c564-4663-9af0-d3ccabeb49c8",
    "resource": {
      "resourceType": "Patient",
      "id": "e73d1055-c564-4663-9af0-d3ccabeb49c8",
      "meta": {
        "profile": [ "http://hl7.org/fhir/us/qicore/StructureDefinition/qicore-patient" ]
      },
      "text": {
        "status": "generated",
        "div": "<div xmlns=\"http://www.w3.org/1999/xhtml\"><div class=\"hapiHeaderText\">CMOdurED_ED=1hrObs=1hrBFEnc <b>DENEXPASS </b></div><table class=\"hapiPropertyTable\"><tbody><tr><td>Identifier</td><td>6154ed3e6029d496bda5b35d3515afbbdc41984dd4c9181d132c9b1c15092843</td></tr><tr><td>Date of birth</td><td><span>18 September 1985</span></td></tr></tbody></table></div>"
      },
      "extension": [ {
        "url": "http://hl7.org/fhir/us/core/StructureDefinition/us-core-race",
        "extension": [ {
          "url": "ombCategory",
          "valueCoding": {
            "system": "urn:oid:2.16.840.1.113883.6.238",
            "code": "1002-5",
            "display": "American Indian or Alaska Native",
            "userSelected": true
          }
        }, {
          "url": "text",
          "valueString": "American Indian or Alaska Native"
        } ]
      }, {
        "url": "http://hl7.org/fhir/us/core/StructureDefinition/us-core-ethnicity",
        "extension": [ {
          "url": "ombCategory",
          "valueCoding": {
            "system": "urn:oid:2.16.840.1.113883.6.238",
            "code": "2135-2",
            "display": "Hispanic or Latino",
            "userSelected": true
          }
        }, {
          "url": "text",
          "valueString": "Hispanic or Latino"
        } ]
      } ],
      "identifier": [ {
        "type": {
          "coding": [ {
            "system": "http://terminology.hl7.org/CodeSystem/v2-0203",
            "code": "MR"
          } ]
        },
        "system": "https://bonnie-fhir.healthit.gov/",
        "value": "633c9d040968f8012250fca6"
      } ],
      "active": true,
      "name": [ {
        "use": "usual",
        "family": "DENEXPass",
        "given": [ "CMOdurED_ED=1hrObs=1hrBFEnc" ]
      } ],
      "gender": "female",
      "birthDate": "1986-09-18"
    },
    "request": {
      "method": "PUT",
      "url": "Patient/e73d1055-c564-4663-9af0-d3ccabeb49c8"
    }
  }, {
    "fullUrl": "https://madie.cms.gov/Condition/0ecf9f1c-4926-4873-bb8e-1dc13e131180",
    "resource": {
      "resourceType": "Condition",
      "id": "0ecf9f1c-4926-4873-bb8e-1dc13e131180",
      "meta": {
        "profile": [ "http://hl7.org/fhir/us/qicore/StructureDefinition/qicore-condition-problems-health-concerns" ]
      },
      "clinicalStatus": {
        "coding": [ {
          "system": "http://terminology.hl7.org/CodeSystem/condition-clinical",
          "code": "inactive"
        } ]
      },
      "verificationStatus": {
        "coding": [ {
          "system": "http://terminology.hl7.org/CodeSystem/condition-ver-status",
          "code": "confirmed"
        } ]
      },
      "category": [ {
        "coding": [ {
          "system": "http://terminology.hl7.org/CodeSystem/condition-category",
          "code": "encounter-diagnosis",
          "display": "Encounter Diagnosis"
        } ]
      } ],
      "code": {
        "coding": [ {
          "system": "http://hl7.org/fhir/sid/icd-10-cm",
          "code": "I48.20"
        }, {
          "system": "http://hl7.org/fhir/sid/icd-10-cm",
          "code": "I48.0"
        }, {
          "system": "http://snomed.info/sct",
          "code": "5370000"
        } ]
      },
      "subject": {
        "reference": "Patient/e73d1055-c564-4663-9af0-d3ccabeb49c8"
      },
      "onsetDateTime": "2026-10-01T09:00:00.000+00:00",
      "abatementDateTime": "2026-10-12T00:15:00.000+00:00"
    },
    "request": {
      "method": "PUT",
      "url": "Condition/0ecf9f1c-4926-4873-bb8e-1dc13e131180"
    }
  }, {
    "fullUrl": "https://madie.cms.gov/Encounter/dbea482f-47c1-43b6-ab6d-6be2ffcdaff8",
    "resource": {
      "resourceType": "Encounter",
      "id": "dbea482f-47c1-43b6-ab6d-6be2ffcdaff8",
      "meta": {
        "profile": [ "http://hl7.org/fhir/us/qicore/StructureDefinition/qicore-encounter" ]
      },
      "status": "finished",
      "class": {
        "system": "http://terminology.hl7.org/CodeSystem/v3-ActCode",
        "code": "EMER",
        "display": "emergency"
      },
      "type": [ {
        "coding": [ {
          "system": "http://snomed.info/sct",
          "code": "4525004"
        } ]
      } ],
      "subject": {
        "reference": "Patient/e73d1055-c564-4663-9af0-d3ccabeb49c8"
      },
      "period": {
        "start": "2026-09-30T07:59:00.000+00:00",
        "end": "2026-09-30T08:00:00.000+00:00"
      },
      "length": {
        "value": 0,
        "unit": "days"
      }
    },
    "request": {
      "method": "PUT",
      "url": "Encounter/dbea482f-47c1-43b6-ab6d-6be2ffcdaff8"
    }
  }, {
    "fullUrl": "https://madie.cms.gov/Encounter/8c555801-1d18-48b6-8253-57be0bd7f213",
    "resource": {
      "resourceType": "Encounter",
      "id": "8c555801-1d18-48b6-8253-57be0bd7f213",
      "meta": {
        "profile": [ "http://hl7.org/fhir/us/qicore/StructureDefinition/qicore-encounter" ]
      },
      "status": "finished",
      "class": {
        "system": "http://terminology.hl7.org/CodeSystem/v3-ActCode",
        "code": "OBSENC",
        "display": "observation encounter"
      },
      "type": [ {
        "coding": [ {
          "system": "http://snomed.info/sct",
          "code": "448951000124107"
        } ]
      } ],
      "subject": {
        "reference": "Patient/e73d1055-c564-4663-9af0-d3ccabeb49c8"
      },
      "period": {
        "start": "2026-09-30T09:00:00.000+00:00",
        "end": "2026-09-30T09:01:00.000+00:00"
      },
      "length": {
        "value": 0,
        "unit": "days"
      }
    },
    "request": {
      "method": "PUT",
      "url": "Encounter/8c555801-1d18-48b6-8253-57be0bd7f213"
    }
  }, {
    "fullUrl": "https://madie.cms.gov/Encounter/ece6ce47-7960-4df6-8c9b-adf3a1a11145",
    "resource": {
      "resourceType": "Encounter",
      "id": "ece6ce47-7960-4df6-8c9b-adf3a1a11145",
      "meta": {
        "profile": [ "http://hl7.org/fhir/us/qicore/StructureDefinition/qicore-encounter" ]
      },
      "status": "finished",
      "class": {
        "system": "http://terminology.hl7.org/CodeSystem/v3-ActCode",
        "code": "IMP",
        "display": "inpatient encounter"
      },
      "type": [ {
        "coding": [ {
          "system": "http://snomed.info/sct",
          "code": "32485007"
        } ]
      } ],
      "subject": {
        "reference": "Patient/e73d1055-c564-4663-9af0-d3ccabeb49c8"
      },
      "period": {
        "start": "2026-09-30T10:01:00.000+00:00",
        "end": "2026-10-12T00:15:00.000+00:00"
      },
      "length": {
        "value": 12,
        "unit": "days"
      },
      "reasonReference": [ {
        "reference": "Condition/0ecf9f1c-4926-4873-bb8e-1dc13e131180"
      } ]
    },
    "request": {
      "method": "PUT",
      "url": "Encounter/ece6ce47-7960-4df6-8c9b-adf3a1a11145"
    }
  }, {
    "fullUrl": "https://madie.cms.gov/claim/5ca62962b8484628b8de1ec5",
    "resource": {
      "resourceType": "Claim",
      "id": "5ca62962b8484628b8de1ec5",
      "meta": {
        "profile": [ "http://hl7.org/fhir/us/qicore/StructureDefinition/qicore-claim" ]
      },
      "status": "active",
      "type": {
        "coding": [ {
          "system": "http://terminology.hl7.org/CodeSystem/claim-type",
          "code": "institutional"
        } ]
      },
      "use": "claim",
      "patient": {
        "reference": "Patient/e73d1055-c564-4663-9af0-d3ccabeb49c8"
      },
      "created": "2026-12-01",
      "provider": {
        "reference": "Practitioner/22f132ca-7424-4813-8b5b-232f928eb452"
      },
      "priority": {
        "coding": [ {
          "system": "http://terminology.hl7.org/CodeSystem/processpriority",
          "code": "normal"
        } ]
      },
      "diagnosis": [ {
        "sequence": 1,
        "diagnosisCodeableConcept": {
          "coding": [ {
            "system": "http://hl7.org/fhir/sid/icd-10-cm",
            "code": "I63.00"
          } ]
        },
        "type": [ {
          "coding": [ {
            "system": "http://terminology.hl7.org/CodeSystem/ex-diagnosistype",
            "code": "principal"
          } ]
        } ]
      } ],
      "insurance": [ {
        "sequence": 1,
        "focal": true,
        "coverage": {
          "reference": "Coverage/5fa041661c76ba66d9959367"
        }
      } ],
      "item": [ {
        "sequence": 1,
        "diagnosisSequence": [ 1 ],
        "productOrService": {
          "coding": [ {
            "system": "http://terminology.hl7.org/CodeSystem/ex-USCLS",
            "code": "99555"
          } ]
        },
        "encounter": [ {
          "reference": "Encounter/ece6ce47-7960-4df6-8c9b-adf3a1a11145"
        } ]
      } ]
    },
    "request": {
      "method": "PUT",
      "url": "Claim/5ca62962b8484628b8de1ec5"
    }
  }, {
    "fullUrl": "https://madie.cms.gov/ServiceRequest/2ad9ae6e-6117-4768-af79-96e06911964d",
    "resource": {
      "resourceType": "ServiceRequest",
      "id": "2ad9ae6e-6117-4768-af79-96e06911964d",
      "meta": {
        "profile": [ "http://hl7.org/fhir/us/qicore/StructureDefinition/qicore-servicerequest" ]
      },
      "status": "active",
      "intent": "order",
      "code": {
        "coding": [ {
          "system": "http://snomed.info/sct",
          "code": "133918004"
        } ]
      },
      "subject": {
        "reference": "Patient/e73d1055-c564-4663-9af0-d3ccabeb49c8"
      },
      "authoredOn": "2026-09-30T08:00:00.000+00:00"
    },
    "request": {
      "method": "PUT",
      "url": "ServiceRequest/2ad9ae6e-6117-4768-af79-96e06911964d"
    }
  }, {
    "fullUrl": "https://madie.cms.gov/Coverage/1dabab8c-c078-4f26-b435-751997b45781",
    "resource": {
      "resourceType": "Coverage",
      "id": "1dabab8c-c078-4f26-b435-751997b45781",
      "meta": {
        "profile": [ "http://hl7.org/fhir/us/qicore/StructureDefinition/qicore-coverage" ]
      },
      "status": "active",
      "subscriberId": "523435",
      "beneficiary": {
        "reference": "Patient/162a5913-9989-42f2-8d6a-ae460e245e4c"
      },
      "relationship": {
        "coding": [ {
          "system": "http://terminology.hl7.org/CodeSystem/subscriber-relationship",
          "code": "self"
        } ]
      },
      "payor": [ {
        "reference": "Organization/31dbdbf1-c7d6-480e-804b-d8d81bfcd8cb"
      } ]
    },
    "request": {
      "method": "PUT",
      "url": "Coverage/1dabab8c-c078-4f26-b435-751997b45781"
    }
  }, {
    "fullUrl": "https://madie.cms.gov/Condition/5fddc8b3-c426-4c79-8ec4-d235361980ac",
    "resource": {
      "resourceType": "Condition",
      "id": "5fddc8b3-c426-4c79-8ec4-d235361980ac",
      "meta": {
        "profile": [ "http://hl7.org/fhir/us/qicore/StructureDefinition/qicore-condition-problems-health-concerns" ]
      },
      "clinicalStatus": {
        "coding": [ {
          "system": "http://terminology.hl7.org/CodeSystem/condition-clinical",
          "code": "active"
        } ]
      },
      "verificationStatus": {
        "coding": [ {
          "system": "http://terminology.hl7.org/CodeSystem/condition-ver-status",
          "code": "confirmed"
        } ]
      },
      "category": [ {
        "coding": [ {
          "system": "http://terminology.hl7.org/CodeSystem/condition-category",
          "code": "encounter-diagnosis",
          "display": "Encounter Diagnosis"
        } ]
      } ],
      "code": {
        "coding": [ {
          "system": "http://snomed.info/sct",
          "version": "2021-09",
          "code": "111297002",
          "display": "Nonparalytic stroke (disorder)",
          "userSelected": true
        } ]
      },
      "subject": {
        "reference": "Patient/e73d1055-c564-4663-9af0-d3ccabeb49c8"
      },
      "recordedDate": "2026-10-13T08:00:00.000+00:00"
    },
    "request": {
      "method": "PUT",
      "url": "Condition/5fddc8b3-c426-4c79-8ec4-d235361980ac"
    }
  }, {
    "fullUrl": "https://madie.cms.gov/Organization/31dbdbf1-c7d6-480e-804b-d8d81bfcd8cb",
    "resource": {
      "resourceType": "Organization",
      "id": "31dbdbf1-c7d6-480e-804b-d8d81bfcd8cb",
      "meta": {
        "profile": [ "http://hl7.org/fhir/us/qicore/StructureDefinition/qicore-organization" ]
      },
      "identifier": [ {
        "use": "temp",
        "system": "urn:oid:2.16.840.1.113883.4.4",
        "value": "21-3259825"
      } ],
      "active": true,
      "type": [ {
        "coding": [ {
          "system": "http://terminology.hl7.org/CodeSystem/organization-type",
          "code": "pay",
          "display": "Payer"
        } ]
      } ],
      "name": "Blue Cross Blue Shield of Texas",
      "telecom": [ {
        "system": "phone",
        "value": "(+1) 972-766-6900"
      } ],
      "address": [ {
        "use": "billing",
        "type": "postal",
        "line": [ "P.O. Box 660044" ],
        "city": "Dallas",
        "state": "TX",
        "postalCode": "75266-0044",
        "country": "USA"
      } ]
    },
    "request": {
      "method": "PUT",
      "url": "Organization/31dbdbf1-c7d6-480e-804b-d8d81bfcd8cb"
    }
  }, {
    "fullUrl": "https://madie.cms.gov/Practitioner/22f132ca-7424-4813-8b5b-232f928eb452",
    "resource": {
      "resourceType": "Practitioner",
      "id": "22f132ca-7424-4813-8b5b-232f928eb452",
      "identifier": [ {
        "system": "http://hl7.org/fhir/sid/us-npi",
        "value": "123456"
      } ],
      "name": [ {
        "family": "Evil",
        "prefix": [ "Dr" ]
      } ]
    },
    "request": {
      "method": "PUT",
      "url": "Practitioner/22f132ca-7424-4813-8b5b-232f928eb452"
    }
  }, {
    "fullUrl": "https://madie.cms.gov/MeasureReport/b9b4a61b-b5bc-4808-9e8e-be3e5f20f2d4",
    "resource": {
      "resourceType": "MeasureReport",
      "id": "b9b4a61b-b5bc-4808-9e8e-be3e5f20f2d4",
      "meta": {
        "profile": [ "http://hl7.org/fhir/us/cqfmeasures/StructureDefinition/test-case-cqfm" ]
      },
      "contained": [ {
        "resourceType": "Parameters",
        "id": "31a11df2-e611-4471-a05e-04001a2cf72c-parameters",
        "parameter": [ {
          "name": "subject",
          "valueString": "e73d1055-c564-4663-9af0-d3ccabeb49c8"
        } ]
      } ],
      "extension": [ {
        "url": "http://hl7.org/fhir/StructureDefinition/cqf-inputParameters",
        "valueReference": {
          "reference": "#31a11df2-e611-4471-a05e-04001a2cf72c-parameters"
        }
      }, {
        "url": "http://hl7.org/fhir/us/cqfmeasures/StructureDefinition/cqfm-testCaseDescription",
        "valueMarkdown": "Patient receives CMO during ED. ED ends 60 min before Obs start and Obs ends 60 min before  inpatient start.  Testing HospitalizationWithObservation function\n"
      } ],
      "modifierExtension": [ {
        "url": "http://hl7.org/fhir/us/cqfmeasures/StructureDefinition/cqfm-isTestCase",
        "valueBoolean": true
      } ],
      "status": "complete",
      "type": "individual",
      "measure": "https://madie.cms.gov/Measure/CMS71FHIRSTKAnticoagAFFlutter",
      "period": {
        "start": "2026-01-01",
        "end": "2026-12-31"
      },
      "group": [ {
        "id": "Group_1",
        "population": [ {
          "id": "InitialPopulation_1",
          "code": {
            "coding": [ {
              "system": "http://terminology.hl7.org/CodeSystem/measure-population",
              "code": "initial-population",
              "display": "Initial Population"
            } ]
          },
          "count": 1
        }, {
          "id": "Denominator_1",
          "code": {
            "coding": [ {
              "system": "http://terminology.hl7.org/CodeSystem/measure-population",
              "code": "denominator",
              "display": "Denominator"
            } ]
          },
          "count": 1
        }, {
          "id": "DenominatorExclusion_1",
          "code": {
            "coding": [ {
              "system": "http://terminology.hl7.org/CodeSystem/measure-population",
              "code": "denominator-exclusion",
              "display": "Denominator Exclusion"
            } ]
          },
          "count": 1
        }, {
          "id": "Numerator_1",
          "code": {
            "coding": [ {
              "system": "http://terminology.hl7.org/CodeSystem/measure-population",
              "code": "numerator",
              "display": "Numerator"
            } ]
          },
          "count": 0
        }, {
          "id": "DenominatorException_1",
          "code": {
            "coding": [ {
              "system": "http://terminology.hl7.org/CodeSystem/measure-population",
              "code": "denominator-exception",
              "display": "Denominator Exception"
            } ]
          },
          "count": 0
        } ],
        "measureScore": {
          "value": 0.0
        }
      } ],
      "evaluatedResource": [ {
        "reference": "Patient/e73d1055-c564-4663-9af0-d3ccabeb49c8"
      }, {
        "reference": "Condition/0ecf9f1c-4926-4873-bb8e-1dc13e131180"
      }, {
        "reference": "Encounter/dbea482f-47c1-43b6-ab6d-6be2ffcdaff8"
      }, {
        "reference": "Encounter/8c555801-1d18-48b6-8253-57be0bd7f213"
      }, {
        "reference": "Encounter/ece6ce47-7960-4df6-8c9b-adf3a1a11145"
      }, {
        "reference": "Claim/5ca62962b8484628b8de1ec5"
      }, {
        "reference": "ServiceRequest/2ad9ae6e-6117-4768-af79-96e06911964d"
      }, {
        "reference": "Coverage/1dabab8c-c078-4f26-b435-751997b45781"
      }, {
        "reference": "Condition/5fddc8b3-c426-4c79-8ec4-d235361980ac"
      }, {
        "reference": "Organization/31dbdbf1-c7d6-480e-804b-d8d81bfcd8cb"
      }, {
        "reference": "Practitioner/22f132ca-7424-4813-8b5b-232f928eb452"
      } ]
    },
    "request": {
      "method": "PUT",
      "url": "MeasureReport/b9b4a61b-b5bc-4808-9e8e-be3e5f20f2d4"
    }
  } ]
}