{
  "resourceType": "Bundle",
  "id": "6491c5ac8187991eac996933",
  "type": "collection",
  "entry": [ {
    "fullUrl": "https://madie.cms.gov/Patient/fbc7c974-0ed5-4441-a147-4c69ec98bf14",
    "resource": {
      "resourceType": "Patient",
      "id": "fbc7c974-0ed5-4441-a147-4c69ec98bf14",
      "meta": {
        "profile": [ "http://hl7.org/fhir/us/qicore/StructureDefinition/qicore-patient" ]
      },
      "extension": [ {
        "url": "http://hl7.org/fhir/us/core/StructureDefinition/us-core-race",
        "extension": [ {
          "url": "ombCategory",
          "valueCoding": {
            "system": "urn:oid:2.16.840.1.113883.6.238",
            "code": "2106-3",
            "display": "White",
            "userSelected": true
          }
        }, {
          "url": "text",
          "valueString": "White"
        } ]
      }, {
        "url": "http://hl7.org/fhir/us/core/StructureDefinition/us-core-ethnicity",
        "extension": [ {
          "url": "ombCategory",
          "valueCoding": {
            "system": "urn:oid:2.16.840.1.113883.6.238",
            "code": "2186-5",
            "display": "Not Hispanic or Latino",
            "userSelected": true
          }
        }, {
          "url": "text",
          "valueString": "Not Hispanic or Latino"
        } ]
      }, {
        "url": "http://hl7.org/fhir/us/core/StructureDefinition/us-core-sex",
        "valueCode": "248153007"
      } ],
      "identifier": [ {
        "type": {
          "coding": [ {
            "system": "http://terminology.hl7.org/CodeSystem/v2-0203",
            "code": "MR"
          } ]
        },
        "system": "https://bonnie-fhir.healthit.gov/",
        "value": "6491c5ac8187991eac996933"
      } ],
      "name": [ {
        "family": "3IPPass",
        "given": [ "EncWithHIVonDateofEnc" ]
      } ],
      "gender": "male",
      "birthDate": "1992-10-21"
    }
  }, {
    "fullUrl": "https://madie.cms.gov/Condition/612f126c-a7f1-4394-bc4f-a98d316214a9",
    "resource": {
      "resourceType": "Condition",
      "id": "612f126c-a7f1-4394-bc4f-a98d316214a9",
      "meta": {
        "profile": [ "http://hl7.org/fhir/us/qicore/StructureDefinition/qicore-condition-problems-health-concerns" ]
      },
      "clinicalStatus": {
        "coding": [ {
          "system": "http://terminology.hl7.org/CodeSystem/condition-clinical",
          "code": "active",
          "display": "active",
          "userSelected": true
        } ]
      },
      "category": [ {
        "coding": [ {
          "system": "http://terminology.hl7.org/CodeSystem/condition-category",
          "code": "problem-list-item",
          "display": "Problem List Item"
        } ]
      } ],
      "code": {
        "coding": [ {
          "system": "http://hl7.org/fhir/sid/icd-9-cm",
          "version": "2013",
          "code": "042",
          "display": "Human immunodeficiency virus [HIV] disease",
          "userSelected": true
        }, {
          "system": "http://snomed.info/sct",
          "version": "http://snomed.info/sct/731000124108/version/20250301",
          "code": "165816005",
          "userSelected": true
        } ]
      },
      "subject": {
        "reference": "Patient/fbc7c974-0ed5-4441-a147-4c69ec98bf14"
      },
      "onsetDateTime": "2026-06-20T08:00:00.000+00:00",
      "recordedDate": "2026-06-20T08:00:00.000+00:00"
    }
  }, {
    "fullUrl": "https://madie.cms.gov/Encounter/d6baae29-8802-40ab-9cca-b5e2816fe155",
    "resource": {
      "resourceType": "Encounter",
      "id": "d6baae29-8802-40ab-9cca-b5e2816fe155",
      "meta": {
        "profile": [ "http://hl7.org/fhir/us/qicore/StructureDefinition/qicore-encounter" ]
      },
      "status": "finished",
      "class": {
        "system": "http://terminology.hl7.org/CodeSystem/v3-ActCode",
        "code": "AMB",
        "display": "ambulatory"
      },
      "type": [ {
        "coding": [ {
          "system": "http://snomed.info/sct",
          "version": "2022-09",
          "code": "281036007",
          "display": "Follow-up consultation (procedure)",
          "userSelected": true
        } ]
      } ],
      "subject": {
        "reference": "Patient/fbc7c974-0ed5-4441-a147-4c69ec98bf14"
      },
      "period": {
        "start": "2026-02-01T08:00:00.000+00:00",
        "end": "2026-02-01T08:35:00.000+00:00"
      }
    }
  }, {
    "fullUrl": "https://madie.cms.gov/Coverage/43bbfaf7-d519-4991-acea-baa8317c414e",
    "resource": {
      "resourceType": "Coverage",
      "id": "43bbfaf7-d519-4991-acea-baa8317c414e",
      "meta": {
        "profile": [ "http://hl7.org/fhir/us/qicore/StructureDefinition/qicore-coverage" ]
      },
      "status": "active",
      "subscriberId": "123456",
      "beneficiary": {
        "reference": "Patient/fbc7c974-0ed5-4441-a147-4c69ec98bf14"
      },
      "relationship": {
        "coding": [ {
          "system": "http://terminology.hl7.org/CodeSystem/subscriber-relationship",
          "code": "self",
          "display": "Self"
        } ]
      },
      "payor": [ {
        "reference": "Organization/218ac4ce-6d0a-4c62-ada2-2ed1744c33ef"
      } ]
    }
  }, {
    "fullUrl": "https://madie.cms.gov/Organization/218ac4ce-6d0a-4c62-ada2-2ed1744c33ef",
    "resource": {
      "resourceType": "Organization",
      "id": "218ac4ce-6d0a-4c62-ada2-2ed1744c33ef",
      "meta": {
        "profile": [ "http://hl7.org/fhir/us/qicore/StructureDefinition/qicore-organization" ]
      },
      "identifier": [ {
        "use": "temp",
        "system": "urn:oid:2.16.840.1.113883.4.4",
        "value": "21-3259825"
      } ],
      "active": true,
      "type": [ {
        "coding": [ {
          "system": "http://terminology.hl7.org/CodeSystem/organization-type",
          "code": "pay",
          "display": "Payer"
        } ]
      } ],
      "name": "Blue Cross Blue Shield of Texas",
      "telecom": [ {
        "system": "phone",
        "value": "(+1) 972-766-6900"
      } ],
      "address": [ {
        "use": "billing",
        "type": "postal",
        "line": [ "P.O. Box 660044" ],
        "city": "Dallas",
        "state": "TX",
        "postalCode": "75266-0044",
        "country": "USA"
      } ]
    }
  }, {
    "fullUrl": "https://madie.cms.gov/Practitioner/3283a55f-a302-4413-a7e9-d6d84a2aeb3c",
    "resource": {
      "resourceType": "Practitioner",
      "id": "3283a55f-a302-4413-a7e9-d6d84a2aeb3c",
      "meta": {
        "profile": [ "http://hl7.org/fhir/us/qicore/StructureDefinition/qicore-practitioner" ]
      },
      "identifier": [ {
        "system": "http://hl7.org/fhir/sid/us-npi",
        "value": "1689411712"
      } ],
      "name": [ {
        "family": "Evil",
        "prefix": [ "Dr" ]
      } ]
    }
  }, {
    "fullUrl": "https://madie.cms.gov/MeasureReport/20d8d207-e687-48d9-b439-461c0cd83da8",
    "resource": {
      "resourceType": "MeasureReport",
      "id": "20d8d207-e687-48d9-b439-461c0cd83da8",
      "meta": {
        "profile": [ "http://hl7.org/fhir/us/cqfmeasures/StructureDefinition/test-case-cqfm" ]
      },
      "contained": [ {
        "resourceType": "Parameters",
        "id": "4748f1e8-8a17-4cb0-b282-8ba7f32b4d49-parameters",
        "parameter": [ {
          "name": "subject",
          "valueString": "fbc7c974-0ed5-4441-a147-4c69ec98bf14"
        } ]
      } ],
      "extension": [ {
        "url": "http://hl7.org/fhir/StructureDefinition/cqf-inputParameters",
        "valueReference": {
          "reference": "#4748f1e8-8a17-4cb0-b282-8ba7f32b4d49-parameters"
        }
      }, {
        "url": "http://hl7.org/fhir/us/cqfmeasures/StructureDefinition/cqfm-testCaseDescription",
        "valueMarkdown": "Patient with HIV diagnosed on date of Enc"
      } ],
      "modifierExtension": [ {
        "url": "http://hl7.org/fhir/us/cqfmeasures/StructureDefinition/cqfm-isTestCase",
        "valueBoolean": true
      } ],
      "status": "complete",
      "type": "individual",
      "measure": "https://madie.cms.gov/Measure/CMS1157FHIRHIVRetention",
      "period": {
        "start": "2026-01-01",
        "end": "2026-12-31"
      },
      "group": [ {
        "id": "Group_1",
        "population": [ {
          "id": "InitialPopulation_1",
          "code": {
            "coding": [ {
              "system": "http://terminology.hl7.org/CodeSystem/measure-population",
              "code": "initial-population",
              "display": "Initial Population"
            } ]
          },
          "count": 1
        }, {
          "id": "Denominator_1",
          "code": {
            "coding": [ {
              "system": "http://terminology.hl7.org/CodeSystem/measure-population",
              "code": "denominator",
              "display": "Denominator"
            } ]
          },
          "count": 1
        }, {
          "id": "Numerator_1",
          "code": {
            "coding": [ {
              "system": "http://terminology.hl7.org/CodeSystem/measure-population",
              "code": "numerator",
              "display": "Numerator"
            } ]
          },
          "count": 0
        } ],
        "measureScore": {
          "value": 1.0
        }
      } ],
      "evaluatedResource": [ {
        "reference": "Patient/fbc7c974-0ed5-4441-a147-4c69ec98bf14"
      }, {
        "reference": "Condition/612f126c-a7f1-4394-bc4f-a98d316214a9"
      }, {
        "reference": "Encounter/d6baae29-8802-40ab-9cca-b5e2816fe155"
      }, {
        "reference": "Coverage/43bbfaf7-d519-4991-acea-baa8317c414e"
      }, {
        "reference": "Organization/218ac4ce-6d0a-4c62-ada2-2ed1744c33ef"
      }, {
        "reference": "Practitioner/3283a55f-a302-4413-a7e9-d6d84a2aeb3c"
      } ]
    }
  } ]
}