{
  "resourceType": "Bundle",
  "id": "649994fdcea95c34d9e57777",
  "type": "collection",
  "entry": [ {
    "fullUrl": "https://madie.cms.gov/Patient/8a74f67d-482c-4cdd-8b71-71d1b14dd432",
    "resource": {
      "resourceType": "Patient",
      "id": "8a74f67d-482c-4cdd-8b71-71d1b14dd432",
      "meta": {
        "profile": [ "http://hl7.org/fhir/us/qicore/StructureDefinition/qicore-patient" ]
      },
      "extension": [ {
        "url": "http://hl7.org/fhir/us/core/StructureDefinition/us-core-race",
        "extension": [ {
          "url": "ombCategory",
          "valueCoding": {
            "system": "urn:oid:2.16.840.1.113883.6.238",
            "code": "2106-3",
            "display": "White"
          }
        }, {
          "url": "text",
          "valueString": "White"
        } ]
      }, {
        "url": "http://hl7.org/fhir/us/core/StructureDefinition/us-core-ethnicity",
        "extension": [ {
          "url": "ombCategory",
          "valueCoding": {
            "system": "urn:oid:2.16.840.1.113883.6.238",
            "code": "2186-5",
            "display": "Not Hispanic or Latino",
            "userSelected": true
          }
        }, {
          "url": "text",
          "valueString": "Not Hispanic or Latino"
        } ]
      } ],
      "identifier": [ {
        "type": {
          "coding": [ {
            "system": "http://terminology.hl7.org/CodeSystem/v2-0203",
            "code": "MR"
          } ]
        },
        "system": "https://bonnie-fhir.healthit.gov/",
        "value": "649994fdcea95c34d9e57777"
      } ],
      "name": [ {
        "family": "NumPass",
        "given": [ "2TestsduringMP1ResultUnder1NotDetected" ]
      } ],
      "gender": "female",
      "birthDate": "1987-05-25"
    }
  }, {
    "fullUrl": "https://madie.cms.gov/Encounter/7b8704a5-8bb2-467d-9b90-c6786a300bc2",
    "resource": {
      "resourceType": "Encounter",
      "id": "7b8704a5-8bb2-467d-9b90-c6786a300bc2",
      "meta": {
        "profile": [ "http://hl7.org/fhir/us/qicore/StructureDefinition/qicore-encounter" ]
      },
      "status": "finished",
      "class": {
        "system": "http://terminology.hl7.org/CodeSystem/v3-ActCode",
        "code": "AMB",
        "display": "ambulatory"
      },
      "type": [ {
        "coding": [ {
          "system": "http://www.ama-assn.org/go/cpt",
          "version": "2023",
          "code": "99381",
          "display": "Initial comprehensive preventive medicine evaluation and management of an individual including an age and gender appropriate history, examination, counseling/anticipatory guidance/risk factor reduction interventions, and the ordering of laboratory/diagnostic procedures, new patient; infant (age younger than 1 year)",
          "userSelected": true
        } ]
      } ],
      "subject": {
        "reference": "Patient/8a74f67d-482c-4cdd-8b71-71d1b14dd432"
      },
      "period": {
        "start": "2026-03-07T10:00:00.000+00:00",
        "end": "2026-03-07T10:30:00.000+00:00"
      }
    }
  }, {
    "fullUrl": "https://madie.cms.gov/Condition/3f3b8671-8f9c-465a-8490-48fd4d5672c7",
    "resource": {
      "resourceType": "Condition",
      "id": "3f3b8671-8f9c-465a-8490-48fd4d5672c7",
      "meta": {
        "profile": [ "http://hl7.org/fhir/us/qicore/StructureDefinition/qicore-condition-problems-health-concerns" ]
      },
      "clinicalStatus": {
        "coding": [ {
          "system": "http://terminology.hl7.org/CodeSystem/condition-clinical",
          "code": "active",
          "display": "active",
          "userSelected": true
        } ]
      },
      "category": [ {
        "coding": [ {
          "system": "http://terminology.hl7.org/CodeSystem/condition-category",
          "code": "problem-list-item",
          "display": "Problem List Item"
        } ]
      } ],
      "code": {
        "coding": [ {
          "system": "http://hl7.org/fhir/sid/icd-9-cm",
          "version": "2013",
          "code": "042",
          "display": "Human immunodeficiency virus [HIV] disease",
          "userSelected": true
        }, {
          "system": "http://snomed.info/sct",
          "version": "http://snomed.info/sct/731000124108/version/20250301",
          "code": "165816005",
          "userSelected": true
        } ]
      },
      "subject": {
        "reference": "Patient/8a74f67d-482c-4cdd-8b71-71d1b14dd432"
      },
      "onsetDateTime": "2020-12-02T12:00:00.000+00:00",
      "recordedDate": "2020-12-02T12:00:00.000+00:00"
    }
  }, {
    "fullUrl": "https://madie.cms.gov/Observation/8da24262-8b13-44a3-aa15-25ba151e65e2",
    "resource": {
      "resourceType": "Observation",
      "id": "8da24262-8b13-44a3-aa15-25ba151e65e2",
      "meta": {
        "profile": [ "http://hl7.org/fhir/us/qicore/StructureDefinition/qicore-observation-lab" ]
      },
      "status": "final",
      "category": [ {
        "coding": [ {
          "system": "http://terminology.hl7.org/CodeSystem/observation-category",
          "code": "laboratory",
          "display": "Laboratory"
        } ]
      }, {
        "coding": [ {
          "system": "http://terminology.hl7.org/CodeSystem/observation-category",
          "code": "survey"
        } ]
      } ],
      "code": {
        "coding": [ {
          "system": "http://loinc.org",
          "version": "2.73",
          "code": "10351-5",
          "display": "HIV 1 RNA [Units/volume] (viral load) in Serum or Plasma by Probe with amplification",
          "userSelected": true
        } ]
      },
      "subject": {
        "reference": "Patient/8a74f67d-482c-4cdd-8b71-71d1b14dd432"
      },
      "effectiveDateTime": "2026-03-07T08:00:00.000+00:00",
      "issued": "2026-03-07T08:00:00.000+00:00",
      "valueQuantity": {
        "value": 145,
        "unit": "{copies}/mL"
      }
    }
  }, {
    "fullUrl": "https://madie.cms.gov/Observation/d452ae6d-486d-4a06-a068-6b175b18bc02",
    "resource": {
      "resourceType": "Observation",
      "id": "d452ae6d-486d-4a06-a068-6b175b18bc02",
      "meta": {
        "profile": [ "http://hl7.org/fhir/us/qicore/StructureDefinition/qicore-observation-lab" ]
      },
      "status": "final",
      "category": [ {
        "coding": [ {
          "system": "http://terminology.hl7.org/CodeSystem/observation-category",
          "code": "laboratory",
          "display": "Laboratory"
        } ]
      }, {
        "coding": [ {
          "system": "http://terminology.hl7.org/CodeSystem/observation-category",
          "code": "survey"
        } ]
      } ],
      "code": {
        "coding": [ {
          "system": "http://loinc.org",
          "version": "2.73",
          "code": "10351-5",
          "display": "HIV 1 RNA [Units/volume] (viral load) in Serum or Plasma by Probe with amplification",
          "userSelected": true
        } ]
      },
      "subject": {
        "reference": "Patient/8a74f67d-482c-4cdd-8b71-71d1b14dd432"
      },
      "effectiveDateTime": "2026-12-31T08:02:00.000+00:00",
      "issued": "2026-12-31T08:02:00.000+00:00",
      "valueCodeableConcept": {
        "coding": [ {
          "system": "http://snomed.info/sct",
          "code": "260415000",
          "display": "Not detected (qualifier value)",
          "userSelected": true
        } ]
      }
    }
  }, {
    "fullUrl": "https://madie.cms.gov/Coverage/ee826958-b2a2-496c-9035-ac59ada6bedb",
    "resource": {
      "resourceType": "Coverage",
      "id": "ee826958-b2a2-496c-9035-ac59ada6bedb",
      "meta": {
        "profile": [ "http://hl7.org/fhir/us/qicore/StructureDefinition/qicore-coverage" ]
      },
      "status": "active",
      "subscriberId": "123456",
      "beneficiary": {
        "reference": "Patient/8a74f67d-482c-4cdd-8b71-71d1b14dd432"
      },
      "relationship": {
        "coding": [ {
          "system": "http://terminology.hl7.org/CodeSystem/subscriber-relationship",
          "code": "self",
          "display": "Self"
        } ]
      },
      "payor": [ {
        "reference": "Organization/494ed22d-95a1-4eab-95ae-c7240e367fa4"
      } ]
    }
  }, {
    "fullUrl": "https://madie.cms.gov/Organization/494ed22d-95a1-4eab-95ae-c7240e367fa4",
    "resource": {
      "resourceType": "Organization",
      "id": "494ed22d-95a1-4eab-95ae-c7240e367fa4",
      "meta": {
        "profile": [ "http://hl7.org/fhir/us/qicore/StructureDefinition/qicore-organization" ]
      },
      "identifier": [ {
        "use": "temp",
        "system": "urn:oid:2.16.840.1.113883.4.4",
        "value": "21-3259825"
      } ],
      "active": true,
      "type": [ {
        "coding": [ {
          "system": "http://terminology.hl7.org/CodeSystem/organization-type",
          "code": "pay",
          "display": "Payer"
        } ]
      } ],
      "name": "Blue Cross Blue Shield of Texas",
      "telecom": [ {
        "system": "phone",
        "value": "(+1) 972-766-6900"
      } ],
      "address": [ {
        "use": "billing",
        "type": "postal",
        "line": [ "P.O. Box 660044" ],
        "city": "Dallas",
        "state": "TX",
        "postalCode": "75266-0044",
        "country": "USA"
      } ]
    }
  }, {
    "fullUrl": "https://madie.cms.gov/Practitioner/0e16b55f-22dc-4f79-86bf-6215606e4855",
    "resource": {
      "resourceType": "Practitioner",
      "id": "0e16b55f-22dc-4f79-86bf-6215606e4855",
      "meta": {
        "profile": [ "http://hl7.org/fhir/us/qicore/StructureDefinition/qicore-practitioner" ]
      },
      "identifier": [ {
        "system": "http://hl7.org/fhir/sid/us-npi",
        "value": "1689411712"
      } ],
      "name": [ {
        "family": "Evil",
        "prefix": [ "Dr" ]
      } ]
    }
  }, {
    "fullUrl": "https://madie.cms.gov/MeasureReport/d2fb67e9-da39-48ee-b02c-ed867930effd",
    "resource": {
      "resourceType": "MeasureReport",
      "id": "d2fb67e9-da39-48ee-b02c-ed867930effd",
      "meta": {
        "profile": [ "http://hl7.org/fhir/us/cqfmeasures/StructureDefinition/test-case-cqfm" ]
      },
      "contained": [ {
        "resourceType": "Parameters",
        "id": "2d72eaed-d309-4441-9ef8-53c43f214967-parameters",
        "parameter": [ {
          "name": "subject",
          "valueString": "8a74f67d-482c-4cdd-8b71-71d1b14dd432"
        } ]
      } ],
      "extension": [ {
        "url": "http://hl7.org/fhir/StructureDefinition/cqf-inputParameters",
        "valueReference": {
          "reference": "#2d72eaed-d309-4441-9ef8-53c43f214967-parameters"
        }
      }, {
        "url": "http://hl7.org/fhir/us/cqfmeasures/StructureDefinition/cqfm-testCaseDescription",
        "valueMarkdown": "Patient with qualifying encounter during MP and a diagnosis of HIV years before start of MP, with 2 tests during MP - 1 with result < 200 and 1 not detected "
      } ],
      "modifierExtension": [ {
        "url": "http://hl7.org/fhir/us/cqfmeasures/StructureDefinition/cqfm-isTestCase",
        "valueBoolean": true
      } ],
      "status": "complete",
      "type": "individual",
      "measure": "https://madie.cms.gov/Measure/CMS314FHIRHIVViralSuppression",
      "period": {
        "start": "2026-01-01",
        "end": "2026-12-31"
      },
      "group": [ {
        "id": "Group_1",
        "population": [ {
          "id": "InitialPopulation_1",
          "code": {
            "coding": [ {
              "system": "http://terminology.hl7.org/CodeSystem/measure-population",
              "code": "initial-population",
              "display": "Initial Population"
            } ]
          },
          "count": 1
        }, {
          "id": "Denominator_1",
          "code": {
            "coding": [ {
              "system": "http://terminology.hl7.org/CodeSystem/measure-population",
              "code": "denominator",
              "display": "Denominator"
            } ]
          },
          "count": 1
        }, {
          "id": "Numerator_1",
          "code": {
            "coding": [ {
              "system": "http://terminology.hl7.org/CodeSystem/measure-population",
              "code": "numerator",
              "display": "Numerator"
            } ]
          },
          "count": 1
        } ],
        "measureScore": {
          "value": 1.0
        }
      } ],
      "evaluatedResource": [ {
        "reference": "Patient/8a74f67d-482c-4cdd-8b71-71d1b14dd432"
      }, {
        "reference": "Encounter/7b8704a5-8bb2-467d-9b90-c6786a300bc2"
      }, {
        "reference": "Condition/3f3b8671-8f9c-465a-8490-48fd4d5672c7"
      }, {
        "reference": "Observation/8da24262-8b13-44a3-aa15-25ba151e65e2"
      }, {
        "reference": "Observation/d452ae6d-486d-4a06-a068-6b175b18bc02"
      }, {
        "reference": "Coverage/ee826958-b2a2-496c-9035-ac59ada6bedb"
      }, {
        "reference": "Organization/494ed22d-95a1-4eab-95ae-c7240e367fa4"
      }, {
        "reference": "Practitioner/0e16b55f-22dc-4f79-86bf-6215606e4855"
      } ]
    }
  } ]
}