{
  "resourceType": "Bundle",
  "id": "DENOMPass-RVNeurologicDisorderDxPOA",
  "type": "transaction",
  "entry": [ {
    "fullUrl": "https://madie.cms.gov/Claim/a9569c65-7149-449f-870d-b0de21edbf02",
    "resource": {
      "resourceType": "Claim",
      "id": "a9569c65-7149-449f-870d-b0de21edbf02",
      "meta": {
        "profile": [ "http://hl7.org/fhir/us/qicore/StructureDefinition/qicore-claim" ]
      },
      "status": "active",
      "type": {
        "coding": [ {
          "system": "http://terminology.hl7.org/CodeSystem/claim-type",
          "code": "professional",
          "display": "Professional"
        } ]
      },
      "use": "claim",
      "patient": {
        "reference": "Patient/9897529f-07ba-42c6-a7b2-5d856a925a6a"
      },
      "created": "2026-12-12",
      "provider": {
        "reference": "Practitioner/e579bf08-1b0a-4784-a6f3-4826f05410de"
      },
      "priority": {
        "coding": [ {
          "system": "http://terminology.hl7.org/CodeSystem/processpriority",
          "code": "normal"
        } ]
      },
      "diagnosis": [ {
        "sequence": 1,
        "diagnosisCodeableConcept": {
          "coding": [ {
            "system": "http://hl7.org/fhir/sid/icd-10-cm",
            "code": "G11.11"
          } ]
        },
        "onAdmission": {
          "coding": [ {
            "system": "https://www.cms.gov/Medicare/Medicare-Fee-for-Service-Payment/HospitalAcqCond/Coding",
            "code": "Y"
          } ]
        }
      } ],
      "insurance": [ {
        "sequence": 1,
        "focal": true,
        "coverage": {
          "reference": "Coverage/3bb4e49d-d4c0-4963-a500-0cb620836afa"
        }
      } ],
      "item": [ {
        "sequence": 1,
        "diagnosisSequence": [ 1, 2 ],
        "productOrService": {
          "coding": [ {
            "system": "http://terminology.hl7.org/CodeSystem/ex-USCLS",
            "code": "1101"
          } ]
        },
        "encounter": [ {
          "reference": "Encounter/d2736d3d-0c3e-40ca-ba89-03348f3ddfc7"
        } ]
      } ]
    },
    "request": {
      "method": "PUT",
      "url": "Claim/a9569c65-7149-449f-870d-b0de21edbf02"
    }
  }, {
    "fullUrl": "https://madie.cms.gov/Patient/9897529f-07ba-42c6-a7b2-5d856a925a6a",
    "resource": {
      "resourceType": "Patient",
      "id": "9897529f-07ba-42c6-a7b2-5d856a925a6a",
      "meta": {
        "profile": [ "http://hl7.org/fhir/us/qicore/StructureDefinition/qicore-patient" ]
      },
      "extension": [ {
        "url": "http://hl7.org/fhir/us/core/StructureDefinition/us-core-race",
        "extension": [ {
          "url": "ombCategory",
          "valueCoding": {
            "system": "urn:oid:2.16.840.1.113883.6.238",
            "code": "1002-5",
            "display": "American Indian or Alaska Native",
            "userSelected": true
          }
        }, {
          "url": "text",
          "valueString": "American Indian or Alaska Native"
        } ]
      }, {
        "url": "http://hl7.org/fhir/us/core/StructureDefinition/us-core-ethnicity",
        "extension": [ {
          "url": "ombCategory",
          "valueCoding": {
            "system": "urn:oid:2.16.840.1.113883.6.238",
            "code": "2135-2",
            "display": "Hispanic or Latino",
            "userSelected": true
          }
        }, {
          "url": "text",
          "valueString": "Hispanic or Latino"
        } ]
      } ],
      "identifier": [ {
        "type": {
          "coding": [ {
            "system": "http://terminology.hl7.org/CodeSystem/v2-0203",
            "code": "MR"
          } ]
        },
        "system": "https://bonnie-fhir.healthit.gov/",
        "value": "61152a3b98086b7a79cbd7c1"
      } ],
      "active": true,
      "name": [ {
        "use": "usual",
        "family": "DENOMPass",
        "given": [ "RVDeliriumDxPOA" ]
      } ],
      "gender": "female",
      "birthDate": "1964-12-11"
    },
    "request": {
      "method": "PUT",
      "url": "Patient/9897529f-07ba-42c6-a7b2-5d856a925a6a"
    }
  }, {
    "fullUrl": "https://madie.cms.gov/Encounter/d2736d3d-0c3e-40ca-ba89-03348f3ddfc7",
    "resource": {
      "resourceType": "Encounter",
      "id": "d2736d3d-0c3e-40ca-ba89-03348f3ddfc7",
      "meta": {
        "profile": [ "http://hl7.org/fhir/us/qicore/StructureDefinition/qicore-encounter" ]
      },
      "status": "finished",
      "class": {
        "system": "http://terminology.hl7.org/CodeSystem/v3-ActCode",
        "code": "IMP",
        "display": "inpatient encounter"
      },
      "type": [ {
        "coding": [ {
          "system": "http://snomed.info/sct",
          "code": "183452005",
          "display": "Emergency hospital admission"
        } ]
      } ],
      "subject": {
        "reference": "Patient/9897529f-07ba-42c6-a7b2-5d856a925a6a"
      },
      "period": {
        "start": "2026-11-12T08:00:00.000+00:00",
        "end": "2026-11-18T08:01:00.000+00:00"
      },
      "length": {
        "value": 6,
        "unit": "days"
      }
    },
    "request": {
      "method": "PUT",
      "url": "Encounter/d2736d3d-0c3e-40ca-ba89-03348f3ddfc7"
    }
  }, {
    "fullUrl": "https://madie.cms.gov/Practitioner/e579bf08-1b0a-4784-a6f3-4826f05410de",
    "resource": {
      "resourceType": "Practitioner",
      "id": "e579bf08-1b0a-4784-a6f3-4826f05410de",
      "identifier": [ {
        "system": "http://www.cms.gov/identifiers/pracitioners",
        "value": "P12345"
      } ],
      "name": [ {
        "use": "official",
        "family": "Smith",
        "given": [ "John" ]
      } ],
      "qualification": [ {
        "identifier": [ {
          "system": "http://hl7.org/fhir/sid/us-npi",
          "value": "1234567890"
        } ],
        "code": {
          "coding": [ {
            "system": "http://terminology.hl7.org/CodeSystem/v2-0203",
            "code": "MD",
            "display": "Medical License number"
          } ]
        }
      } ]
    },
    "request": {
      "method": "PUT",
      "url": "Practitioner/e579bf08-1b0a-4784-a6f3-4826f05410de"
    }
  }, {
    "fullUrl": "https://madie.cms.gov/Coverage/3bb4e49d-d4c0-4963-a500-0cb620836afa",
    "resource": {
      "resourceType": "Coverage",
      "id": "3bb4e49d-d4c0-4963-a500-0cb620836afa",
      "status": "active",
      "beneficiary": {
        "reference": "Patient/9897529f-07ba-42c6-a7b2-5d856a925a6a"
      },
      "payor": [ {
        "reference": "Organization/a60f4885-ecae-4096-b135-4c1d440fe78e"
      } ]
    },
    "request": {
      "method": "PUT",
      "url": "Coverage/3bb4e49d-d4c0-4963-a500-0cb620836afa"
    }
  }, {
    "fullUrl": "https://madie.cms.gov/Organization/a60f4885-ecae-4096-b135-4c1d440fe78e",
    "resource": {
      "resourceType": "Organization",
      "id": "a60f4885-ecae-4096-b135-4c1d440fe78e",
      "identifier": [ {
        "system": "http://cms.gov/insurance-ids",
        "value": "AET12345"
      } ],
      "type": [ {
        "coding": [ {
          "system": "http://terminology.hl7.org/CodeSystem/organization-type",
          "code": "prov",
          "display": "Healthcare Provider"
        } ]
      } ],
      "name": "Aetna Insurance",
      "telecom": [ {
        "system": "phone",
        "value": "+1-800-123-4567"
      } ],
      "address": [ {
        "line": [ "123 Main Street" ],
        "city": "Cityville",
        "state": "CA",
        "postalCode": "12345",
        "country": "USA"
      } ]
    },
    "request": {
      "method": "PUT",
      "url": "Organization/a60f4885-ecae-4096-b135-4c1d440fe78e"
    }
  }, {
    "fullUrl": "https://madie.cms.gov/MeasureReport/e3d20846-af96-45f7-88c8-d85c74a4ba32",
    "resource": {
      "resourceType": "MeasureReport",
      "id": "e3d20846-af96-45f7-88c8-d85c74a4ba32",
      "meta": {
        "profile": [ "http://hl7.org/fhir/us/cqfmeasures/StructureDefinition/test-case-cqfm" ]
      },
      "contained": [ {
        "resourceType": "Parameters",
        "id": "03a6a238-3d7b-4009-8d75-85df82acf1fa-parameters",
        "parameter": [ {
          "name": "subject",
          "valueString": "9897529f-07ba-42c6-a7b2-5d856a925a6a"
        } ]
      } ],
      "extension": [ {
        "url": "http://hl7.org/fhir/StructureDefinition/cqf-inputParameters",
        "valueReference": {
          "reference": "#03a6a238-3d7b-4009-8d75-85df82acf1fa-parameters"
        }
      }, {
        "url": "http://hl7.org/fhir/us/cqfmeasures/StructureDefinition/cqfm-testCaseDescription",
        "valueMarkdown": "Encounter with Neurologic Disorder dx POA = Y. Meets RV"
      } ],
      "modifierExtension": [ {
        "url": "http://hl7.org/fhir/us/cqfmeasures/StructureDefinition/cqfm-isTestCase",
        "valueBoolean": true
      } ],
      "status": "complete",
      "type": "individual",
      "measure": "https://madie.cms.gov/Measure/CMS1017FHIRHHFI",
      "period": {
        "start": "2026-01-01",
        "end": "2026-12-31"
      },
      "group": [ {
        "id": "Group_1",
        "population": [ {
          "id": "InitialPopulation_1",
          "code": {
            "coding": [ {
              "system": "http://terminology.hl7.org/CodeSystem/measure-population",
              "code": "initial-population",
              "display": "Initial Population"
            } ]
          },
          "count": 1
        }, {
          "id": "Denominator_1",
          "code": {
            "coding": [ {
              "system": "http://terminology.hl7.org/CodeSystem/measure-population",
              "code": "denominator",
              "display": "Denominator"
            } ]
          },
          "count": 1
        }, {
          "id": "DenominatorExclusion_1",
          "code": {
            "coding": [ {
              "system": "http://terminology.hl7.org/CodeSystem/measure-population",
              "code": "denominator-exclusion",
              "display": "Denominator Exclusion"
            } ]
          },
          "count": 0
        }, {
          "id": "Numerator_1",
          "code": {
            "coding": [ {
              "system": "http://terminology.hl7.org/CodeSystem/measure-population",
              "code": "numerator",
              "display": "Numerator"
            } ]
          },
          "count": 0
        }, {
          "id": "NumeratorExclusion_1",
          "code": {
            "coding": [ {
              "system": "http://terminology.hl7.org/CodeSystem/measure-population",
              "code": "numerator-exclusion",
              "display": "Numerator Exclusion"
            } ]
          },
          "count": 0
        }, {
          "id": "MeasureObservation_1_1_1",
          "code": {
            "coding": [ {
              "system": "http://terminology.hl7.org/CodeSystem/measure-population",
              "code": "measure-observation",
              "display": "Measure Observation"
            } ]
          },
          "count": 6
        } ],
        "measureScore": {
          "value": 0.0
        }
      } ],
      "evaluatedResource": [ {
        "reference": "Claim/a9569c65-7149-449f-870d-b0de21edbf02"
      }, {
        "reference": "Patient/9897529f-07ba-42c6-a7b2-5d856a925a6a"
      }, {
        "reference": "Encounter/d2736d3d-0c3e-40ca-ba89-03348f3ddfc7"
      }, {
        "reference": "Practitioner/e579bf08-1b0a-4784-a6f3-4826f05410de"
      }, {
        "reference": "Coverage/3bb4e49d-d4c0-4963-a500-0cb620836afa"
      }, {
        "reference": "Organization/a60f4885-ecae-4096-b135-4c1d440fe78e"
      } ]
    },
    "request": {
      "method": "PUT",
      "url": "MeasureReport/e3d20846-af96-45f7-88c8-d85c74a4ba32"
    }
  } ]
}