{
  "resourceType": "Bundle",
  "id": "6499b4f7f75cf8dae8f2f3d5",
  "type": "collection",
  "entry": [ {
    "fullUrl": "https://madie.cms.gov/Patient/8d786705-7605-4c33-a5d4-0ef145a3bcbc",
    "resource": {
      "resourceType": "Patient",
      "id": "8d786705-7605-4c33-a5d4-0ef145a3bcbc",
      "meta": {
        "profile": [ "http://hl7.org/fhir/us/qicore/StructureDefinition/qicore-patient" ]
      },
      "extension": [ {
        "url": "http://hl7.org/fhir/us/core/StructureDefinition/us-core-race",
        "extension": [ {
          "url": "ombCategory",
          "valueCoding": {
            "system": "urn:oid:2.16.840.1.113883.6.238",
            "code": "2054-5",
            "display": "Black or African American",
            "userSelected": true
          }
        }, {
          "url": "text",
          "valueString": "Black or African American"
        } ]
      }, {
        "url": "http://hl7.org/fhir/us/core/StructureDefinition/us-core-ethnicity",
        "extension": [ {
          "url": "ombCategory",
          "valueCoding": {
            "system": "urn:oid:2.16.840.1.113883.6.238",
            "code": "2135-2",
            "display": "Hispanic or Latino",
            "userSelected": true
          }
        }, {
          "url": "text",
          "valueString": "Hispanic or Latino"
        } ]
      } ],
      "identifier": [ {
        "type": {
          "coding": [ {
            "system": "http://terminology.hl7.org/CodeSystem/v2-0203",
            "code": "MR"
          } ]
        },
        "system": "https://bonnie-fhir.healthit.gov/",
        "value": "6499b4f7f75cf8dae8f2f3d5"
      } ],
      "name": [ {
        "family": "NumPass",
        "given": [ "2VLTestsduringMPwithMostRecentResultUnder" ]
      } ],
      "gender": "male",
      "birthDate": "1987-05-25"
    }
  }, {
    "fullUrl": "https://madie.cms.gov/Condition/1670ce93-9c26-41ef-bbe8-7b774adff305",
    "resource": {
      "resourceType": "Condition",
      "id": "1670ce93-9c26-41ef-bbe8-7b774adff305",
      "meta": {
        "profile": [ "http://hl7.org/fhir/us/qicore/StructureDefinition/qicore-condition-problems-health-concerns" ]
      },
      "clinicalStatus": {
        "coding": [ {
          "system": "http://terminology.hl7.org/CodeSystem/condition-clinical",
          "code": "active",
          "display": "active",
          "userSelected": true
        } ]
      },
      "category": [ {
        "coding": [ {
          "system": "http://terminology.hl7.org/CodeSystem/condition-category",
          "code": "problem-list-item",
          "display": "Problem List Item"
        } ]
      } ],
      "code": {
        "coding": [ {
          "system": "http://hl7.org/fhir/sid/icd-9-cm",
          "version": "2013",
          "code": "042",
          "display": "Human immunodeficiency virus [HIV] disease",
          "userSelected": true
        }, {
          "system": "http://snomed.info/sct",
          "version": "http://snomed.info/sct/731000124108/version/20250301",
          "code": "165816005",
          "userSelected": true
        } ]
      },
      "subject": {
        "reference": "Patient/8d786705-7605-4c33-a5d4-0ef145a3bcbc"
      },
      "onsetDateTime": "2024-01-01T12:00:00.000+00:00",
      "recordedDate": "2024-01-01T12:00:00.000+00:00"
    }
  }, {
    "fullUrl": "https://madie.cms.gov/Encounter/22a5ee03-3586-45b8-b086-ff1a1e16b157",
    "resource": {
      "resourceType": "Encounter",
      "id": "22a5ee03-3586-45b8-b086-ff1a1e16b157",
      "meta": {
        "profile": [ "http://hl7.org/fhir/us/qicore/StructureDefinition/qicore-encounter" ]
      },
      "status": "finished",
      "class": {
        "system": "http://terminology.hl7.org/CodeSystem/v3-ActCode",
        "code": "AMB",
        "display": "ambulatory"
      },
      "type": [ {
        "coding": [ {
          "system": "http://www.ama-assn.org/go/cpt",
          "version": "2023",
          "code": "99395",
          "display": "Periodic comprehensive preventive medicine reevaluation and management of an individual including an age and gender appropriate history, examination, counseling/anticipatory guidance/risk factor reduction interventions, and the ordering of laboratory/diagnostic procedures, established patient; 18-39 years",
          "userSelected": true
        } ]
      } ],
      "subject": {
        "reference": "Patient/8d786705-7605-4c33-a5d4-0ef145a3bcbc"
      },
      "period": {
        "start": "2026-01-01T11:00:00.000+00:00",
        "end": "2026-01-01T11:22:00.000+00:00"
      }
    }
  }, {
    "fullUrl": "https://madie.cms.gov/Observation/fdae3afb-c14f-49f4-a123-74e5c4a97f08",
    "resource": {
      "resourceType": "Observation",
      "id": "fdae3afb-c14f-49f4-a123-74e5c4a97f08",
      "meta": {
        "profile": [ "http://hl7.org/fhir/us/qicore/StructureDefinition/qicore-observation-lab" ]
      },
      "status": "final",
      "category": [ {
        "coding": [ {
          "system": "http://terminology.hl7.org/CodeSystem/observation-category",
          "code": "laboratory",
          "display": "Laboratory"
        } ]
      }, {
        "coding": [ {
          "system": "http://terminology.hl7.org/CodeSystem/observation-category",
          "code": "survey"
        } ]
      } ],
      "code": {
        "coding": [ {
          "system": "http://loinc.org",
          "version": "2.73",
          "code": "10351-5",
          "display": "HIV 1 RNA [Units/volume] (viral load) in Serum or Plasma by Probe with amplification",
          "userSelected": true
        } ]
      },
      "subject": {
        "reference": "Patient/8d786705-7605-4c33-a5d4-0ef145a3bcbc"
      },
      "effectiveDateTime": "2026-08-28T07:59:00.000+00:00",
      "issued": "2026-08-28T07:59:00.000+00:00",
      "valueQuantity": {
        "value": 199,
        "unit": "{copies}/mL"
      }
    }
  }, {
    "fullUrl": "https://madie.cms.gov/Observation/00d70b89-1a62-44a4-9051-1d957c3d66f1",
    "resource": {
      "resourceType": "Observation",
      "id": "00d70b89-1a62-44a4-9051-1d957c3d66f1",
      "meta": {
        "profile": [ "http://hl7.org/fhir/us/qicore/StructureDefinition/qicore-observation-lab" ]
      },
      "status": "final",
      "category": [ {
        "coding": [ {
          "system": "http://terminology.hl7.org/CodeSystem/observation-category",
          "code": "laboratory",
          "display": "Laboratory"
        } ]
      }, {
        "coding": [ {
          "system": "http://terminology.hl7.org/CodeSystem/observation-category",
          "code": "survey"
        } ]
      } ],
      "code": {
        "coding": [ {
          "system": "http://loinc.org",
          "code": "51780-5",
          "userSelected": true
        } ]
      },
      "subject": {
        "reference": "Patient/8d786705-7605-4c33-a5d4-0ef145a3bcbc"
      },
      "effectiveDateTime": "2026-01-01T08:00:00.000+00:00",
      "issued": "2026-01-01T08:00:00.000+00:00",
      "valueQuantity": {
        "value": 201,
        "unit": "{copies}/mL"
      }
    }
  }, {
    "fullUrl": "https://madie.cms.gov/Coverage/c0aa7d5e-a39d-4f94-86dc-7eb71794f6b7",
    "resource": {
      "resourceType": "Coverage",
      "id": "c0aa7d5e-a39d-4f94-86dc-7eb71794f6b7",
      "meta": {
        "profile": [ "http://hl7.org/fhir/us/qicore/StructureDefinition/qicore-coverage" ]
      },
      "status": "active",
      "subscriberId": "123456",
      "beneficiary": {
        "reference": "Patient/8d786705-7605-4c33-a5d4-0ef145a3bcbc"
      },
      "relationship": {
        "coding": [ {
          "system": "http://terminology.hl7.org/CodeSystem/subscriber-relationship",
          "code": "self",
          "display": "Self"
        } ]
      },
      "payor": [ {
        "reference": "Organization/c156f9b9-a19a-4c06-b13c-bc80e1dc830d"
      } ]
    }
  }, {
    "fullUrl": "https://madie.cms.gov/Organization/c156f9b9-a19a-4c06-b13c-bc80e1dc830d",
    "resource": {
      "resourceType": "Organization",
      "id": "c156f9b9-a19a-4c06-b13c-bc80e1dc830d",
      "meta": {
        "profile": [ "http://hl7.org/fhir/us/qicore/StructureDefinition/qicore-organization" ]
      },
      "identifier": [ {
        "use": "temp",
        "system": "urn:oid:2.16.840.1.113883.4.4",
        "value": "21-3259825"
      } ],
      "active": true,
      "type": [ {
        "coding": [ {
          "system": "http://terminology.hl7.org/CodeSystem/organization-type",
          "code": "pay",
          "display": "Payer"
        } ]
      } ],
      "name": "Blue Cross Blue Shield of Texas",
      "telecom": [ {
        "system": "phone",
        "value": "(+1) 972-766-6900"
      } ],
      "address": [ {
        "use": "billing",
        "type": "postal",
        "line": [ "P.O. Box 660044" ],
        "city": "Dallas",
        "state": "TX",
        "postalCode": "75266-0044",
        "country": "USA"
      } ]
    }
  }, {
    "fullUrl": "https://madie.cms.gov/Practitioner/f92fb718-298d-44f7-b7c5-7db2639c537b",
    "resource": {
      "resourceType": "Practitioner",
      "id": "f92fb718-298d-44f7-b7c5-7db2639c537b",
      "meta": {
        "profile": [ "http://hl7.org/fhir/us/qicore/StructureDefinition/qicore-practitioner" ]
      },
      "identifier": [ {
        "system": "http://hl7.org/fhir/sid/us-npi",
        "value": "1689411712"
      } ],
      "name": [ {
        "family": "Evil",
        "prefix": [ "Dr" ]
      } ]
    }
  }, {
    "fullUrl": "https://madie.cms.gov/MeasureReport/3f574043-7261-4ebc-bafa-e653c76e0287",
    "resource": {
      "resourceType": "MeasureReport",
      "id": "3f574043-7261-4ebc-bafa-e653c76e0287",
      "meta": {
        "profile": [ "http://hl7.org/fhir/us/cqfmeasures/StructureDefinition/test-case-cqfm" ]
      },
      "contained": [ {
        "resourceType": "Parameters",
        "id": "9e2f049f-09b9-4a6b-9bc6-7bc1b95d332a-parameters",
        "parameter": [ {
          "name": "subject",
          "valueString": "8d786705-7605-4c33-a5d4-0ef145a3bcbc"
        } ]
      } ],
      "extension": [ {
        "url": "http://hl7.org/fhir/StructureDefinition/cqf-inputParameters",
        "valueReference": {
          "reference": "#9e2f049f-09b9-4a6b-9bc6-7bc1b95d332a-parameters"
        }
      }, {
        "url": "http://hl7.org/fhir/us/cqfmeasures/StructureDefinition/cqfm-testCaseDescription",
        "valueMarkdown": "Patient with a diagnosis of HIV on Jan 1 years before MP and a qualifying encounter on Jan 1 of the MP with TWO viral load tests - 1) Jan 1 with result > 200, 2) Aug 28 < 200"
      } ],
      "modifierExtension": [ {
        "url": "http://hl7.org/fhir/us/cqfmeasures/StructureDefinition/cqfm-isTestCase",
        "valueBoolean": true
      } ],
      "status": "complete",
      "type": "individual",
      "measure": "https://madie.cms.gov/Measure/CMS314FHIRHIVViralSuppression",
      "period": {
        "start": "2026-01-01",
        "end": "2026-12-31"
      },
      "group": [ {
        "id": "Group_1",
        "population": [ {
          "id": "InitialPopulation_1",
          "code": {
            "coding": [ {
              "system": "http://terminology.hl7.org/CodeSystem/measure-population",
              "code": "initial-population",
              "display": "Initial Population"
            } ]
          },
          "count": 1
        }, {
          "id": "Denominator_1",
          "code": {
            "coding": [ {
              "system": "http://terminology.hl7.org/CodeSystem/measure-population",
              "code": "denominator",
              "display": "Denominator"
            } ]
          },
          "count": 1
        }, {
          "id": "Numerator_1",
          "code": {
            "coding": [ {
              "system": "http://terminology.hl7.org/CodeSystem/measure-population",
              "code": "numerator",
              "display": "Numerator"
            } ]
          },
          "count": 1
        } ],
        "measureScore": {
          "value": 1.0
        }
      } ],
      "evaluatedResource": [ {
        "reference": "Patient/8d786705-7605-4c33-a5d4-0ef145a3bcbc"
      }, {
        "reference": "Condition/1670ce93-9c26-41ef-bbe8-7b774adff305"
      }, {
        "reference": "Encounter/22a5ee03-3586-45b8-b086-ff1a1e16b157"
      }, {
        "reference": "Observation/fdae3afb-c14f-49f4-a123-74e5c4a97f08"
      }, {
        "reference": "Observation/00d70b89-1a62-44a4-9051-1d957c3d66f1"
      }, {
        "reference": "Coverage/c0aa7d5e-a39d-4f94-86dc-7eb71794f6b7"
      }, {
        "reference": "Organization/c156f9b9-a19a-4c06-b13c-bc80e1dc830d"
      }, {
        "reference": "Practitioner/f92fb718-298d-44f7-b7c5-7db2639c537b"
      } ]
    }
  } ]
}