{
  "resourceType": "Bundle",
  "id": "612e6aee02c62a011f2ebccf",
  "type": "transaction",
  "entry": [ {
    "fullUrl": "https://madie.cms.gov/Patient/b6d4f313-21b9-4cd8-9e6f-b682d176a73f",
    "resource": {
      "resourceType": "Patient",
      "id": "b6d4f313-21b9-4cd8-9e6f-b682d176a73f",
      "meta": {
        "profile": [ "http://hl7.org/fhir/us/qicore/StructureDefinition/qicore-patient" ]
      },
      "text": {
        "status": "generated",
        "div": "<div xmlns=\"http://www.w3.org/1999/xhtml\"><div class=\"hapiHeaderText\">TestMultipleOccur_1inDen1inNum <b>NUMERPASS </b></div><table class=\"hapiPropertyTable\"><tbody><tr><td>Identifier</td><td>3dff356c8720a84124e00f025cdf399b9398c53f7885da6a8793a56d4f59a3df</td></tr><tr><td>Date of birth</td><td><span>02 January 1974</span></td></tr></tbody></table></div>"
      },
      "extension": [ {
        "url": "http://hl7.org/fhir/us/core/StructureDefinition/us-core-race",
        "extension": [ {
          "url": "ombCategory",
          "valueCoding": {
            "system": "urn:oid:2.16.840.1.113883.6.238",
            "code": "1002-5",
            "display": "American Indian or Alaska Native",
            "userSelected": true
          }
        }, {
          "url": "text",
          "valueString": "American Indian or Alaska Native"
        } ]
      }, {
        "url": "http://hl7.org/fhir/us/core/StructureDefinition/us-core-ethnicity",
        "extension": [ {
          "url": "ombCategory",
          "valueCoding": {
            "system": "urn:oid:2.16.840.1.113883.6.238",
            "code": "2135-2",
            "display": "Hispanic or Latino",
            "userSelected": true
          }
        }, {
          "url": "text",
          "valueString": "Hispanic or Latino"
        } ]
      } ],
      "identifier": [ {
        "type": {
          "coding": [ {
            "system": "http://terminology.hl7.org/CodeSystem/v2-0203",
            "code": "MR"
          } ]
        },
        "system": "https://bonnie-fhir.healthit.gov/",
        "value": "612e6aee02c62a011f2ebccf"
      } ],
      "active": true,
      "name": [ {
        "use": "usual",
        "family": "NUMERPass",
        "given": [ "TestMultipleOccur1inDen1inNum" ]
      } ],
      "gender": "male",
      "birthDate": "1975-01-02"
    },
    "request": {
      "method": "PUT",
      "url": "Patient/b6d4f313-21b9-4cd8-9e6f-b682d176a73f"
    }
  }, {
    "fullUrl": "https://madie.cms.gov/Encounter/05bbe232-cda9-405c-985a-559e8741bdc0",
    "resource": {
      "resourceType": "Encounter",
      "id": "05bbe232-cda9-405c-985a-559e8741bdc0",
      "meta": {
        "profile": [ "http://hl7.org/fhir/us/qicore/StructureDefinition/qicore-encounter" ]
      },
      "status": "finished",
      "class": {
        "system": "http://terminology.hl7.org/CodeSystem/v3-ActCode",
        "code": "IMP",
        "display": "inpatient encounter"
      },
      "type": [ {
        "coding": [ {
          "system": "http://snomed.info/sct",
          "code": "183452005"
        } ]
      } ],
      "subject": {
        "reference": "Patient/b6d4f313-21b9-4cd8-9e6f-b682d176a73f"
      },
      "period": {
        "start": "2026-04-01T08:00:00.000+00:00",
        "end": "2026-04-05T08:15:00.000+00:00"
      },
      "length": {
        "value": 4,
        "unit": "days"
      }
    },
    "request": {
      "method": "PUT",
      "url": "Encounter/05bbe232-cda9-405c-985a-559e8741bdc0"
    }
  }, {
    "fullUrl": "https://madie.cms.gov/Encounter/925a48d3-e6f6-4cbf-8c83-d3c70d0f1713",
    "resource": {
      "resourceType": "Encounter",
      "id": "925a48d3-e6f6-4cbf-8c83-d3c70d0f1713",
      "meta": {
        "profile": [ "http://hl7.org/fhir/us/qicore/StructureDefinition/qicore-encounter" ]
      },
      "status": "finished",
      "class": {
        "system": "http://terminology.hl7.org/CodeSystem/v3-ActCode",
        "code": "IMP",
        "display": "inpatient encounter"
      },
      "type": [ {
        "coding": [ {
          "system": "http://snomed.info/sct",
          "code": "8715000"
        } ]
      } ],
      "subject": {
        "reference": "Patient/b6d4f313-21b9-4cd8-9e6f-b682d176a73f"
      },
      "period": {
        "start": "2026-11-01T08:00:00.000+00:00",
        "end": "2026-11-26T08:15:00.000+00:00"
      },
      "length": {
        "value": 25,
        "unit": "days"
      }
    },
    "request": {
      "method": "PUT",
      "url": "Encounter/925a48d3-e6f6-4cbf-8c83-d3c70d0f1713"
    }
  }, {
    "fullUrl": "https://madie.cms.gov/Coverage/77ac0aff-a332-400f-b248-526a22e672f4",
    "resource": {
      "resourceType": "Coverage",
      "id": "77ac0aff-a332-400f-b248-526a22e672f4",
      "status": "active",
      "beneficiary": {
        "reference": "Patient/b6d4f313-21b9-4cd8-9e6f-b682d176a73f"
      },
      "period": {
        "start": "1975-01-02T08:00:00.000+00:00"
      },
      "payor": [ {
        "reference": "Organization/d1979048-b8e1-419d-bb89-e029259b6db5"
      } ]
    },
    "request": {
      "method": "PUT",
      "url": "Coverage/77ac0aff-a332-400f-b248-526a22e672f4"
    }
  }, {
    "fullUrl": "https://madie.cms.gov/MedicationAdministration/87c0d7ef-b05a-4c5c-a2e4-9fe13c4ab7db",
    "resource": {
      "resourceType": "MedicationAdministration",
      "id": "87c0d7ef-b05a-4c5c-a2e4-9fe13c4ab7db",
      "meta": {
        "profile": [ "http://hl7.org/fhir/us/qicore/StructureDefinition/qicore-medicationadministration" ]
      },
      "status": "completed",
      "medicationCodeableConcept": {
        "coding": [ {
          "system": "http://www.nlm.nih.gov/research/umls/rxnorm",
          "code": "200349"
        } ]
      },
      "subject": {
        "reference": "Patient/b6d4f313-21b9-4cd8-9e6f-b682d176a73f"
      },
      "effectivePeriod": {
        "start": "2026-11-01T09:00:00.000+00:00"
      }
    },
    "request": {
      "method": "PUT",
      "url": "MedicationAdministration/87c0d7ef-b05a-4c5c-a2e4-9fe13c4ab7db"
    }
  }, {
    "fullUrl": "https://madie.cms.gov/Procedure/6b18895d-cd92-4acb-880c-723d5f86e19b",
    "resource": {
      "resourceType": "Procedure",
      "id": "6b18895d-cd92-4acb-880c-723d5f86e19b",
      "meta": {
        "profile": [ "http://hl7.org/fhir/us/qicore/StructureDefinition/qicore-procedure" ]
      },
      "extension": [ {
        "url": "http://hl7.org/fhir/us/qicore/StructureDefinition/qicore-recorded",
        "valueDateTime": "2013-11-03T13:35:00.000+00:00"
      } ],
      "status": "completed",
      "code": {
        "coding": [ {
          "system": "http://snomed.info/sct",
          "version": "2025-03",
          "code": "442410008",
          "display": "Application of venous foot pump (procedure)",
          "userSelected": true
        } ]
      },
      "subject": {
        "reference": "Patient/b6d4f313-21b9-4cd8-9e6f-b682d176a73f"
      },
      "performedDateTime": "2026-11-02T08:00:00.000+00:00"
    },
    "request": {
      "method": "PUT",
      "url": "Procedure/6b18895d-cd92-4acb-880c-723d5f86e19b"
    }
  }, {
    "fullUrl": "https://madie.cms.gov/Organization/d1979048-b8e1-419d-bb89-e029259b6db5",
    "resource": {
      "resourceType": "Organization",
      "id": "d1979048-b8e1-419d-bb89-e029259b6db5",
      "meta": {
        "profile": [ "http://hl7.org/fhir/us/qicore/StructureDefinition/qicore-organization" ]
      },
      "identifier": [ {
        "use": "temp",
        "system": "urn:oid:2.16.840.1.113883.4.4",
        "value": "21-3259825"
      } ],
      "active": true,
      "type": [ {
        "coding": [ {
          "system": "http://terminology.hl7.org/CodeSystem/organization-type",
          "code": "pay",
          "display": "Payer"
        } ]
      } ],
      "name": "Blue Cross Blue Shield of Texas",
      "telecom": [ {
        "system": "phone",
        "value": "(+1) 972-766-6900"
      } ],
      "address": [ {
        "use": "billing",
        "type": "postal",
        "line": [ "P.O. Box 660044" ],
        "city": "Dallas",
        "state": "TX",
        "postalCode": "75266-0044",
        "country": "USA"
      } ]
    },
    "request": {
      "method": "PUT",
      "url": "Organization/d1979048-b8e1-419d-bb89-e029259b6db5"
    }
  }, {
    "fullUrl": "https://madie.cms.gov/Practitioner/f1b156e1-ea15-420f-b1fa-7d2d065b990a",
    "resource": {
      "resourceType": "Practitioner",
      "id": "f1b156e1-ea15-420f-b1fa-7d2d065b990a",
      "identifier": [ {
        "system": "http://hl7.org/fhir/sid/us-npi",
        "value": "123456"
      } ],
      "name": [ {
        "family": "Evil",
        "prefix": [ "Dr" ]
      } ]
    },
    "request": {
      "method": "PUT",
      "url": "Practitioner/f1b156e1-ea15-420f-b1fa-7d2d065b990a"
    }
  }, {
    "fullUrl": "https://madie.cms.gov/MeasureReport/3f50b5b7-71da-413b-a129-e2f1dab6b0eb",
    "resource": {
      "resourceType": "MeasureReport",
      "id": "3f50b5b7-71da-413b-a129-e2f1dab6b0eb",
      "meta": {
        "profile": [ "http://hl7.org/fhir/us/cqfmeasures/StructureDefinition/test-case-cqfm" ]
      },
      "contained": [ {
        "resourceType": "Parameters",
        "id": "007669fc-fef1-49d2-a646-d3c25620cefc-parameters",
        "parameter": [ {
          "name": "subject",
          "valueString": "b6d4f313-21b9-4cd8-9e6f-b682d176a73f"
        } ]
      } ],
      "extension": [ {
        "url": "http://hl7.org/fhir/StructureDefinition/cqf-inputParameters",
        "valueReference": {
          "reference": "#007669fc-fef1-49d2-a646-d3c25620cefc-parameters"
        }
      }, {
        "url": "http://hl7.org/fhir/us/cqfmeasures/StructureDefinition/cqfm-testCaseDescription",
        "valueMarkdown": "TestMultipleOccur - 2 occurrences. 1 in Den due to Dvc applied >1 day after Adm and 1 in Numerator\n"
      } ],
      "modifierExtension": [ {
        "url": "http://hl7.org/fhir/us/cqfmeasures/StructureDefinition/cqfm-isTestCase",
        "valueBoolean": true
      } ],
      "status": "complete",
      "type": "individual",
      "measure": "https://madie.cms.gov/Measure/CMS108FHIRVTEProphylaxis",
      "period": {
        "start": "2026-01-01",
        "end": "2026-12-31"
      },
      "group": [ {
        "id": "Group_1",
        "population": [ {
          "id": "InitialPopulation_1",
          "code": {
            "coding": [ {
              "system": "http://terminology.hl7.org/CodeSystem/measure-population",
              "code": "initial-population",
              "display": "Initial Population"
            } ]
          },
          "count": 2
        }, {
          "id": "Denominator_1",
          "code": {
            "coding": [ {
              "system": "http://terminology.hl7.org/CodeSystem/measure-population",
              "code": "denominator",
              "display": "Denominator"
            } ]
          },
          "count": 2
        }, {
          "id": "DenominatorExclusion_1",
          "code": {
            "coding": [ {
              "system": "http://terminology.hl7.org/CodeSystem/measure-population",
              "code": "denominator-exclusion",
              "display": "Denominator Exclusion"
            } ]
          },
          "count": 0
        }, {
          "id": "Numerator_1",
          "code": {
            "coding": [ {
              "system": "http://terminology.hl7.org/CodeSystem/measure-population",
              "code": "numerator",
              "display": "Numerator"
            } ]
          },
          "count": 1
        } ],
        "measureScore": {
          "value": 0.0
        }
      } ],
      "evaluatedResource": [ {
        "reference": "Patient/b6d4f313-21b9-4cd8-9e6f-b682d176a73f"
      }, {
        "reference": "Encounter/05bbe232-cda9-405c-985a-559e8741bdc0"
      }, {
        "reference": "Encounter/925a48d3-e6f6-4cbf-8c83-d3c70d0f1713"
      }, {
        "reference": "Coverage/77ac0aff-a332-400f-b248-526a22e672f4"
      }, {
        "reference": "MedicationAdministration/87c0d7ef-b05a-4c5c-a2e4-9fe13c4ab7db"
      }, {
        "reference": "Procedure/6b18895d-cd92-4acb-880c-723d5f86e19b"
      }, {
        "reference": "Organization/d1979048-b8e1-419d-bb89-e029259b6db5"
      }, {
        "reference": "Practitioner/f1b156e1-ea15-420f-b1fa-7d2d065b990a"
      } ]
    },
    "request": {
      "method": "PUT",
      "url": "MeasureReport/3f50b5b7-71da-413b-a129-e2f1dab6b0eb"
    }
  } ]
}