{
  "resourceType": "Bundle",
  "id": "61152a3b98086b7a79cbd7c1",
  "type": "transaction",
  "entry": [ {
    "fullUrl": "https://madie.cms.gov/Patient/b3041236-6bfd-46ce-9da9-aea81c0abf5b",
    "resource": {
      "resourceType": "Patient",
      "id": "b3041236-6bfd-46ce-9da9-aea81c0abf5b",
      "meta": {
        "profile": [ "http://hl7.org/fhir/us/qicore/StructureDefinition/qicore-patient" ]
      },
      "text": {
        "status": "generated",
        "div": "<div xmlns=\"http://www.w3.org/1999/xhtml\"><div class=\"hapiHeaderText\">LabTestLT40 <b>NUMERPASS </b></div><table class=\"hapiPropertyTable\"><tbody><tr><td>Identifier</td><td>586d4a6e02bdc77ad4ccc45b11df2e6217c10e5956f9696833b6e57a5da29f4d</td></tr><tr><td>Date of birth</td><td><span>31 July 1992</span></td></tr></tbody></table></div>"
      },
      "extension": [ {
        "url": "http://hl7.org/fhir/us/core/StructureDefinition/us-core-race",
        "extension": [ {
          "url": "ombCategory",
          "valueCoding": {
            "system": "urn:oid:2.16.840.1.113883.6.238",
            "code": "1002-5",
            "display": "American Indian or Alaska Native",
            "userSelected": true
          }
        }, {
          "url": "text",
          "valueString": "American Indian or Alaska Native"
        } ]
      }, {
        "url": "http://hl7.org/fhir/us/core/StructureDefinition/us-core-ethnicity",
        "extension": [ {
          "url": "ombCategory",
          "valueCoding": {
            "system": "urn:oid:2.16.840.1.113883.6.238",
            "code": "2135-2",
            "display": "Hispanic or Latino",
            "userSelected": true
          }
        }, {
          "url": "text",
          "valueString": "Hispanic or Latino"
        } ]
      } ],
      "identifier": [ {
        "type": {
          "coding": [ {
            "system": "http://terminology.hl7.org/CodeSystem/v2-0203",
            "code": "MR"
          } ]
        },
        "system": "https://bonnie-fhir.healthit.gov/",
        "value": "61152a3b98086b7a79cbd7c1"
      } ],
      "active": true,
      "name": [ {
        "use": "usual",
        "family": "CMSNUMERPass",
        "given": [ "LabTestLT40" ]
      } ],
      "gender": "female",
      "birthDate": "1993-07-31"
    },
    "request": {
      "method": "PUT",
      "url": "Patient/b3041236-6bfd-46ce-9da9-aea81c0abf5b"
    }
  }, {
    "fullUrl": "https://madie.cms.gov/Coverage/1c030070-c429-4472-908c-3c69771b3240",
    "resource": {
      "resourceType": "Coverage",
      "id": "1c030070-c429-4472-908c-3c69771b3240",
      "meta": {
        "profile": [ "http://hl7.org/fhir/us/qicore/StructureDefinition/qicore-coverage" ]
      },
      "identifier": [ {
        "system": "http://benefitsinc.com/certificate",
        "value": "12345"
      } ],
      "status": "active",
      "type": {
        "coding": [ {
          "system": "https://nahdo.org/sopt",
          "version": "1.0.1",
          "code": "1",
          "display": "MEDICARE",
          "userSelected": true
        } ]
      },
      "subscriberId": "AB9876",
      "beneficiary": {
        "reference": "Patient/b3041236-6bfd-46ce-9da9-aea81c0abf5b"
      },
      "relationship": {
        "coding": [ {
          "system": "http://terminology.hl7.org/CodeSystem/subscriber-relationship",
          "code": "self"
        } ]
      },
      "payor": [ {
        "reference": "Organization/123456"
      } ]
    },
    "request": {
      "method": "PUT",
      "url": "Coverage/1c030070-c429-4472-908c-3c69771b3240"
    }
  }, {
    "fullUrl": "https://madie.cms.gov/Encounter/2c9afd3d-5149-4050-93d3-5ba8beebe5fb",
    "resource": {
      "resourceType": "Encounter",
      "id": "2c9afd3d-5149-4050-93d3-5ba8beebe5fb",
      "meta": {
        "profile": [ "http://hl7.org/fhir/us/qicore/StructureDefinition/qicore-encounter" ]
      },
      "status": "finished",
      "class": {
        "system": "http://terminology.hl7.org/CodeSystem/v3-ActCode",
        "code": "IMP",
        "display": "inpatient encounter"
      },
      "type": [ {
        "coding": [ {
          "system": "http://snomed.info/sct",
          "code": "183452005"
        } ]
      } ],
      "subject": {
        "reference": "Patient/b3041236-6bfd-46ce-9da9-aea81c0abf5b"
      },
      "period": {
        "start": "2026-01-11T08:00:00.000Z",
        "end": "2026-01-15T21:00:00.000Z"
      },
      "length": {
        "value": 0,
        "unit": "days"
      }
    },
    "request": {
      "method": "PUT",
      "url": "Encounter/2c9afd3d-5149-4050-93d3-5ba8beebe5fb"
    }
  }, {
    "fullUrl": "https://madie.cms.gov/MedicationAdministration/011ef1ba-4bfa-42b0-81a8-8d309d96169f",
    "resource": {
      "resourceType": "MedicationAdministration",
      "id": "011ef1ba-4bfa-42b0-81a8-8d309d96169f",
      "meta": {
        "profile": [ "http://hl7.org/fhir/us/qicore/StructureDefinition/qicore-medicationadministration" ]
      },
      "status": "completed",
      "medicationCodeableConcept": {
        "coding": [ {
          "system": "http://www.nlm.nih.gov/research/umls/rxnorm",
          "code": "1361493",
          "display": "glimepiride 6 MG Oral Tablet",
          "userSelected": true
        } ]
      },
      "subject": {
        "reference": "Patient/b3041236-6bfd-46ce-9da9-aea81c0abf5b"
      },
      "effectivePeriod": {
        "start": "2026-01-11T08:00:00.000Z",
        "end": "2026-01-11T09:00:00.000Z"
      }
    },
    "request": {
      "method": "PUT",
      "url": "MedicationAdministration/011ef1ba-4bfa-42b0-81a8-8d309d96169f"
    }
  }, {
    "fullUrl": "https://madie.cms.gov/Observation/998fe270-ddb8-49c9-8573-b857c057397b",
    "resource": {
      "resourceType": "Observation",
      "id": "998fe270-ddb8-49c9-8573-b857c057397b",
      "meta": {
        "profile": [ "http://hl7.org/fhir/us/qicore/StructureDefinition/qicore-observation-lab" ]
      },
      "status": "final",
      "category": [ {
        "coding": [ {
          "system": "http://terminology.hl7.org/CodeSystem/observation-category",
          "code": "laboratory",
          "display": "Laboratory"
        } ]
      } ],
      "code": {
        "coding": [ {
          "system": "http://loinc.org",
          "version": "2.72",
          "code": "1556-0",
          "display": "Fasting glucose [Mass/volume] in Capillary blood",
          "userSelected": true
        } ]
      },
      "subject": {
        "reference": "Patient/b3041236-6bfd-46ce-9da9-aea81c0abf5b"
      },
      "effectiveDateTime": "2026-01-12T07:00:00.000Z",
      "valueQuantity": {
        "value": 39,
        "unit": "mg/dL"
      }
    },
    "request": {
      "method": "PUT",
      "url": "Observation/998fe270-ddb8-49c9-8573-b857c057397b"
    }
  }, {
    "fullUrl": "https://madie.cms.gov/MeasureReport/35197b1c-17eb-40bd-bb50-f6a970f10f4d",
    "resource": {
      "resourceType": "MeasureReport",
      "id": "35197b1c-17eb-40bd-bb50-f6a970f10f4d",
      "meta": {
        "profile": [ "http://hl7.org/fhir/us/cqfmeasures/StructureDefinition/test-case-cqfm" ]
      },
      "contained": [ {
        "resourceType": "Parameters",
        "id": "838eb1a9-1009-4652-9807-8ebfe8f4413c-parameters",
        "parameter": [ {
          "name": "subject",
          "valueString": "b3041236-6bfd-46ce-9da9-aea81c0abf5b"
        } ]
      } ],
      "extension": [ {
        "url": "http://hl7.org/fhir/StructureDefinition/cqf-inputParameters",
        "valueReference": {
          "reference": "#838eb1a9-1009-4652-9807-8ebfe8f4413c-parameters"
        }
      }, {
        "url": "http://hl7.org/fhir/us/cqfmeasures/StructureDefinition/cqfm-testCaseDescription",
        "valueMarkdown": "IP encounter, hypoglycemic administered, 1 glucose lab test with result LT 40. Meets Numerator.\n\n(CMS #4)"
      } ],
      "modifierExtension": [ {
        "url": "http://hl7.org/fhir/us/cqfmeasures/StructureDefinition/cqfm-isTestCase",
        "valueBoolean": true
      } ],
      "status": "complete",
      "type": "individual",
      "measure": "https://madie.cms.gov/Measure/NHSNGlycemicControlHypoglycemiaInitialPopulation",
      "period": {
        "start": "2026-01-01",
        "end": "2026-12-31"
      },
      "group": [ {
        "id": "Group_1",
        "population": [ {
          "id": "InitialPopulation_1",
          "code": {
            "coding": [ {
              "system": "http://terminology.hl7.org/CodeSystem/measure-population",
              "code": "initial-population",
              "display": "Initial Population"
            } ]
          },
          "count": 1
        } ],
        "measureScore": {
          "value": 0.0
        }
      } ],
      "evaluatedResource": [ {
        "reference": "Patient/b3041236-6bfd-46ce-9da9-aea81c0abf5b"
      }, {
        "reference": "Coverage/1c030070-c429-4472-908c-3c69771b3240"
      }, {
        "reference": "Encounter/2c9afd3d-5149-4050-93d3-5ba8beebe5fb"
      }, {
        "reference": "MedicationAdministration/011ef1ba-4bfa-42b0-81a8-8d309d96169f"
      }, {
        "reference": "Observation/998fe270-ddb8-49c9-8573-b857c057397b"
      } ]
    },
    "request": {
      "method": "PUT",
      "url": "MeasureReport/35197b1c-17eb-40bd-bb50-f6a970f10f4d"
    }
  } ]
}