{
  "resourceType": "Bundle",
  "id": "tests-DENOM-TwoEncountersOneWithMed-bundle",
  "type": "transaction",
  "entry": [ {
    "fullUrl": "https://madie.cms.gov/Encounter/6d34edf5-e14b-4fb3-a63a-d373e8418ee5",
    "resource": {
      "resourceType": "Encounter",
      "id": "6d34edf5-e14b-4fb3-a63a-d373e8418ee5",
      "meta": {
        "profile": [ "http://hl7.org/fhir/us/qicore/StructureDefinition/qicore-encounter" ]
      },
      "status": "finished",
      "class": {
        "system": "http://terminology.hl7.org/CodeSystem/v3-ActCode",
        "code": "IMP",
        "display": "Inpatient encounter"
      },
      "type": [ {
        "coding": [ {
          "system": "http://snomed.info/sct",
          "code": "183452005",
          "display": "Emergency hospital admission"
        } ]
      } ],
      "subject": {
        "reference": "Patient/0e6e69d4-03d4-4f3d-80d2-802995c3a221"
      },
      "period": {
        "start": "2026-01-11T08:00:00.000Z",
        "end": "2026-01-13T09:00:00.000Z"
      }
    },
    "request": {
      "method": "PUT",
      "url": "Encounter/6d34edf5-e14b-4fb3-a63a-d373e8418ee5"
    }
  }, {
    "fullUrl": "https://madie.cms.gov/Encounter/050b6ccd-9dde-45d8-874e-2fb9e1af43f9",
    "resource": {
      "resourceType": "Encounter",
      "id": "050b6ccd-9dde-45d8-874e-2fb9e1af43f9",
      "meta": {
        "profile": [ "http://hl7.org/fhir/us/qicore/StructureDefinition/qicore-encounter" ]
      },
      "status": "finished",
      "class": {
        "system": "http://terminology.hl7.org/CodeSystem/v3-ActCode",
        "code": "IMP",
        "display": "Inpatient encounter"
      },
      "type": [ {
        "coding": [ {
          "system": "http://snomed.info/sct",
          "code": "183452005",
          "display": "Emergency hospital admission"
        } ]
      } ],
      "subject": {
        "reference": "Patient/0e6e69d4-03d4-4f3d-80d2-802995c3a221"
      },
      "period": {
        "start": "2026-01-01T08:00:00.000Z",
        "end": "2026-01-04T09:00:00.000Z"
      }
    },
    "request": {
      "method": "PUT",
      "url": "Encounter/050b6ccd-9dde-45d8-874e-2fb9e1af43f9"
    }
  }, {
    "fullUrl": "https://madie.cms.gov/MedicationAdministration/9fbb1303-21af-4aa6-8469-4974289c53be",
    "resource": {
      "resourceType": "MedicationAdministration",
      "id": "9fbb1303-21af-4aa6-8469-4974289c53be",
      "meta": {
        "profile": [ "http://hl7.org/fhir/us/qicore/StructureDefinition/qicore-medicationadministration" ]
      },
      "status": "completed",
      "medicationCodeableConcept": {
        "coding": [ {
          "system": "http://www.nlm.nih.gov/research/umls/rxnorm",
          "code": "1731315",
          "display": "3 ML insulin, regular, human 500 UNT/ML Pen Injector"
        } ]
      },
      "subject": {
        "reference": "Patient/0e6e69d4-03d4-4f3d-80d2-802995c3a221"
      },
      "effectivePeriod": {
        "start": "2026-01-11T08:00:00.000Z",
        "end": "2026-01-11T09:00:00.000Z"
      }
    },
    "request": {
      "method": "PUT",
      "url": "MedicationAdministration/9fbb1303-21af-4aa6-8469-4974289c53be"
    }
  }, {
    "fullUrl": "https://madie.cms.gov/Patient/0e6e69d4-03d4-4f3d-80d2-802995c3a221",
    "resource": {
      "resourceType": "Patient",
      "id": "0e6e69d4-03d4-4f3d-80d2-802995c3a221",
      "meta": {
        "profile": [ "http://hl7.org/fhir/us/qicore/StructureDefinition/qicore-patient" ]
      },
      "extension": [ {
        "url": "http://hl7.org/fhir/us/core/StructureDefinition/us-core-race",
        "extension": [ {
          "url": "ombCategory",
          "valueCoding": {
            "system": "urn:oid:2.16.840.1.113883.6.238",
            "code": "2106-3",
            "display": "White"
          }
        }, {
          "url": "text",
          "valueString": "White"
        } ]
      }, {
        "url": "http://hl7.org/fhir/us/core/StructureDefinition/us-core-ethnicity",
        "extension": [ {
          "url": "ombCategory",
          "valueCoding": {
            "system": "urn:oid:2.16.840.1.113883.6.238",
            "code": "2135-2",
            "display": "Hispanic or Latino"
          }
        }, {
          "url": "text",
          "valueString": "Hispanic or Latino"
        } ]
      }, {
        "url": "http://hl7.org/fhir/us/core/StructureDefinition/us-core-sex",
        "valueCode": "248153007"
      } ],
      "identifier": [ {
        "system": "http://hospital.smarthealthit.org",
        "value": "999999999"
      } ],
      "name": [ {
        "family": "CMSDENOMPass",
        "given": [ "TwoEncountersOneWithMed" ]
      } ],
      "gender": "female",
      "birthDate": "1956-01-01"
    },
    "request": {
      "method": "PUT",
      "url": "Patient/0e6e69d4-03d4-4f3d-80d2-802995c3a221"
    }
  }, {
    "fullUrl": "https://madie.cms.gov/MeasureReport/5b1c450d-7e8a-4639-ab58-8db3a98d9c4f",
    "resource": {
      "resourceType": "MeasureReport",
      "id": "5b1c450d-7e8a-4639-ab58-8db3a98d9c4f",
      "meta": {
        "profile": [ "http://hl7.org/fhir/us/cqfmeasures/StructureDefinition/test-case-cqfm" ]
      },
      "contained": [ {
        "resourceType": "Parameters",
        "id": "6f94adbd-7e29-4fb7-9929-dab119ad92e9-parameters",
        "parameter": [ {
          "name": "subject",
          "valueString": "0e6e69d4-03d4-4f3d-80d2-802995c3a221"
        } ]
      } ],
      "extension": [ {
        "url": "http://hl7.org/fhir/StructureDefinition/cqf-inputParameters",
        "valueReference": {
          "reference": "#6f94adbd-7e29-4fb7-9929-dab119ad92e9-parameters"
        }
      }, {
        "url": "http://hl7.org/fhir/us/cqfmeasures/StructureDefinition/cqfm-testCaseDescription",
        "valueMarkdown": "Two encounters, one with meds administered, one without meds, no lab tests. Denom = 1 for first encounter. Doesn't meet denom in second encounter due to no meds during 2nd encounter.\n\n(CMS #8)"
      } ],
      "modifierExtension": [ {
        "url": "http://hl7.org/fhir/us/cqfmeasures/StructureDefinition/cqfm-isTestCase",
        "valueBoolean": true
      } ],
      "status": "complete",
      "type": "individual",
      "measure": "https://madie.cms.gov/Measure/NHSNGlycemicControlHypoglycemiaInitialPopulation",
      "period": {
        "start": "2026-01-01",
        "end": "2026-12-31"
      },
      "group": [ {
        "id": "Group_1",
        "population": [ {
          "id": "InitialPopulation_1",
          "code": {
            "coding": [ {
              "system": "http://terminology.hl7.org/CodeSystem/measure-population",
              "code": "initial-population",
              "display": "Initial Population"
            } ]
          },
          "count": 1
        } ],
        "measureScore": {
          "value": 0.0
        }
      } ],
      "evaluatedResource": [ {
        "reference": "Encounter/6d34edf5-e14b-4fb3-a63a-d373e8418ee5"
      }, {
        "reference": "Encounter/050b6ccd-9dde-45d8-874e-2fb9e1af43f9"
      }, {
        "reference": "MedicationAdministration/9fbb1303-21af-4aa6-8469-4974289c53be"
      }, {
        "reference": "Patient/0e6e69d4-03d4-4f3d-80d2-802995c3a221"
      } ]
    },
    "request": {
      "method": "PUT",
      "url": "MeasureReport/5b1c450d-7e8a-4639-ab58-8db3a98d9c4f"
    }
  } ]
}