{
  "resourceType": "Bundle",
  "id": "tests-3731688f-4261-42cc-943a-202b69beab97-bundle",
  "type": "transaction",
  "entry": [ {
    "fullUrl": "https://madie.cms.gov/Encounter/7a1c2bc7-b6ca-42b7-bb41-5be3218e0541",
    "resource": {
      "resourceType": "Encounter",
      "id": "7a1c2bc7-b6ca-42b7-bb41-5be3218e0541",
      "meta": {
        "profile": [ "http://hl7.org/fhir/us/qicore/StructureDefinition/qicore-encounter" ]
      },
      "status": "finished",
      "class": {
        "system": "http://terminology.hl7.org/CodeSystem/v3-ActCode",
        "code": "IMP",
        "display": "inpatient encounter"
      },
      "type": [ {
        "coding": [ {
          "system": "http://snomed.info/sct",
          "code": "183452005"
        } ]
      } ],
      "subject": {
        "reference": "Patient/3731688f-4261-42cc-943a-202b69beab97"
      },
      "period": {
        "start": "2026-11-04T08:00:00.000+00:00",
        "end": "2026-11-12T08:15:00.000+00:00"
      }
    },
    "request": {
      "method": "PUT",
      "url": "Encounter/7a1c2bc7-b6ca-42b7-bb41-5be3218e0541"
    }
  }, {
    "fullUrl": "https://madie.cms.gov/Observation/27bbf3ff-3feb-4b35-bfda-4e6f0c82d98d",
    "resource": {
      "resourceType": "Observation",
      "id": "27bbf3ff-3feb-4b35-bfda-4e6f0c82d98d",
      "meta": {
        "profile": [ "http://hl7.org/fhir/us/qicore/StructureDefinition/qicore-observation-lab" ]
      },
      "status": "final",
      "category": [ {
        "coding": [ {
          "system": "http://terminology.hl7.org/CodeSystem/observation-category",
          "code": "laboratory",
          "display": "Laboratory"
        } ]
      } ],
      "code": {
        "coding": [ {
          "system": "http://loinc.org",
          "version": "2.72",
          "code": "2160-0",
          "display": "Creatinine [Mass/volume] in Serum or Plasma",
          "userSelected": true
        } ]
      },
      "subject": {
        "reference": "Patient/3731688f-4261-42cc-943a-202b69beab97"
      },
      "effectiveDateTime": "2026-10-01T08:01:00.000+00:00",
      "issued": "2026-10-01T08:31:00.000+00:00",
      "valueQuantity": {
        "value": 1.14,
        "unit": "mg/dL",
        "system": "http://unitsofmeasure.org",
        "code": "mg/dL"
      }
    },
    "request": {
      "method": "PUT",
      "url": "Observation/27bbf3ff-3feb-4b35-bfda-4e6f0c82d98d"
    }
  }, {
    "fullUrl": "https://madie.cms.gov/Observation/dfeabd36-a07c-4470-b9f4-0cbc4f2b9511",
    "resource": {
      "resourceType": "Observation",
      "id": "dfeabd36-a07c-4470-b9f4-0cbc4f2b9511",
      "meta": {
        "profile": [ "http://hl7.org/fhir/us/qicore/StructureDefinition/qicore-observation-lab" ]
      },
      "status": "final",
      "category": [ {
        "coding": [ {
          "system": "http://terminology.hl7.org/CodeSystem/observation-category",
          "code": "laboratory",
          "display": "Laboratory"
        } ]
      } ],
      "code": {
        "coding": [ {
          "system": "http://loinc.org",
          "code": "2160-0",
          "display": "Creatinine [Mass/volume] in Serum or Plasma"
        } ]
      },
      "subject": {
        "reference": "Patient/3731688f-4261-42cc-943a-202b69beab97"
      },
      "effectiveDateTime": "2026-10-01T07:00:00.000+00:00",
      "issued": "2026-10-01T07:30:00.000+00:00",
      "valueQuantity": {
        "value": 1,
        "unit": "mg/dL",
        "system": "http://unitsofmeasure.org",
        "code": "mg/dL"
      }
    },
    "request": {
      "method": "PUT",
      "url": "Observation/dfeabd36-a07c-4470-b9f4-0cbc4f2b9511"
    }
  }, {
    "fullUrl": "https://madie.cms.gov/Observation/57e53b0b-c828-44c1-ab3c-43a5d948d31c",
    "resource": {
      "resourceType": "Observation",
      "id": "57e53b0b-c828-44c1-ab3c-43a5d948d31c",
      "meta": {
        "profile": [ "http://hl7.org/fhir/us/qicore/StructureDefinition/qicore-observation-lab" ]
      },
      "status": "final",
      "category": [ {
        "coding": [ {
          "system": "http://terminology.hl7.org/CodeSystem/observation-category",
          "code": "laboratory",
          "display": "Laboratory"
        } ]
      } ],
      "code": {
        "coding": [ {
          "system": "http://loinc.org",
          "version": "2.72",
          "code": "2160-0",
          "display": "Creatinine [Mass/volume] in Serum or Plasma",
          "userSelected": true
        } ]
      },
      "subject": {
        "reference": "Patient/3731688f-4261-42cc-943a-202b69beab97"
      },
      "effectiveDateTime": "2026-11-05T09:00:00.000+00:00",
      "issued": "2026-11-05T09:30:00.000+00:00",
      "valueQuantity": {
        "value": 0.7,
        "unit": "mg/dL",
        "system": "http://unitsofmeasure.org",
        "code": "mg/dL"
      }
    },
    "request": {
      "method": "PUT",
      "url": "Observation/57e53b0b-c828-44c1-ab3c-43a5d948d31c"
    }
  }, {
    "fullUrl": "https://madie.cms.gov/Observation/12fa3766-e38e-4402-bd5f-a980b7727609",
    "resource": {
      "resourceType": "Observation",
      "id": "12fa3766-e38e-4402-bd5f-a980b7727609",
      "meta": {
        "profile": [ "http://hl7.org/fhir/us/qicore/StructureDefinition/qicore-observation-lab" ]
      },
      "status": "final",
      "category": [ {
        "coding": [ {
          "system": "http://terminology.hl7.org/CodeSystem/observation-category",
          "code": "laboratory",
          "display": "Laboratory"
        } ]
      } ],
      "code": {
        "coding": [ {
          "system": "http://loinc.org",
          "version": "2.72",
          "code": "2160-0",
          "display": "Creatinine [Mass/volume] in Serum or Plasma",
          "userSelected": true
        } ]
      },
      "subject": {
        "reference": "Patient/3731688f-4261-42cc-943a-202b69beab97"
      },
      "effectiveDateTime": "2026-11-07T09:00:00.000+00:00",
      "issued": "2026-11-07T09:30:00.000+00:00",
      "valueQuantity": {
        "value": 0.7,
        "unit": "mg/dL",
        "system": "http://unitsofmeasure.org",
        "code": "mg/dL"
      }
    },
    "request": {
      "method": "PUT",
      "url": "Observation/12fa3766-e38e-4402-bd5f-a980b7727609"
    }
  }, {
    "fullUrl": "https://madie.cms.gov/Observation/40167034-4d8d-4df3-8d73-3c7b8871690b",
    "resource": {
      "resourceType": "Observation",
      "id": "40167034-4d8d-4df3-8d73-3c7b8871690b",
      "meta": {
        "profile": [ "http://hl7.org/fhir/us/qicore/StructureDefinition/qicore-observation-lab" ]
      },
      "status": "final",
      "category": [ {
        "coding": [ {
          "system": "http://terminology.hl7.org/CodeSystem/observation-category",
          "code": "laboratory",
          "display": "Laboratory"
        } ]
      } ],
      "code": {
        "coding": [ {
          "system": "http://loinc.org",
          "version": "2.72",
          "code": "2160-0",
          "display": "Creatinine [Mass/volume] in Serum or Plasma",
          "userSelected": true
        } ]
      },
      "subject": {
        "reference": "Patient/3731688f-4261-42cc-943a-202b69beab97"
      },
      "effectiveDateTime": "2026-10-01T07:35:00.000+00:00",
      "issued": "2026-10-01T08:05:00.000+00:00",
      "valueQuantity": {
        "value": 1.12,
        "unit": "mg/dL",
        "system": "http://unitsofmeasure.org",
        "code": "mg/dL"
      }
    },
    "request": {
      "method": "PUT",
      "url": "Observation/40167034-4d8d-4df3-8d73-3c7b8871690b"
    }
  }, {
    "fullUrl": "https://madie.cms.gov/Coverage/2edaa6d5-df60-401c-871c-b59d8e24acab",
    "resource": {
      "resourceType": "Coverage",
      "id": "2edaa6d5-df60-401c-871c-b59d8e24acab",
      "meta": {
        "profile": [ "http://hl7.org/fhir/us/qicore/StructureDefinition/qicore-coverage" ]
      },
      "status": "active",
      "type": {
        "coding": [ {
          "system": "https://nahdo.org/sopt",
          "version": "9.2",
          "code": "211",
          "display": "Medicaid HMO"
        } ]
      },
      "beneficiary": {
        "reference": "Patient/3731688f-4261-42cc-943a-202b69beab97"
      },
      "period": {
        "start": "2024-12-01T00:00:00.000+00:00"
      },
      "payor": [ {
        "reference": "Organization/368870ed-6a0f-42bc-a5ce-1e7b316de0ca"
      } ]
    },
    "request": {
      "method": "PUT",
      "url": "Coverage/2edaa6d5-df60-401c-871c-b59d8e24acab"
    }
  }, {
    "fullUrl": "https://madie.cms.gov/Encounter/94ba0bc6-8260-4979-b2e1-40ceb900c15e",
    "resource": {
      "resourceType": "Encounter",
      "id": "94ba0bc6-8260-4979-b2e1-40ceb900c15e",
      "meta": {
        "profile": [ "http://hl7.org/fhir/us/qicore/StructureDefinition/qicore-encounter" ]
      },
      "status": "finished",
      "class": {
        "system": "http://terminology.hl7.org/CodeSystem/v3-ActCode",
        "code": "IMP",
        "display": "inpatient encounter"
      },
      "type": [ {
        "coding": [ {
          "system": "http://snomed.info/sct",
          "code": "183452005"
        } ]
      } ],
      "subject": {
        "reference": "Patient/3731688f-4261-42cc-943a-202b69beab97"
      },
      "period": {
        "start": "2026-09-29T20:01:00.000+00:00",
        "end": "2026-10-03T20:00:00.000+00:00"
      }
    },
    "request": {
      "method": "PUT",
      "url": "Encounter/94ba0bc6-8260-4979-b2e1-40ceb900c15e"
    }
  }, {
    "fullUrl": "https://madie.cms.gov/Patient/3731688f-4261-42cc-943a-202b69beab97",
    "resource": {
      "resourceType": "Patient",
      "id": "3731688f-4261-42cc-943a-202b69beab97",
      "meta": {
        "profile": [ "http://hl7.org/fhir/us/qicore/StructureDefinition/qicore-patient" ]
      },
      "text": {
        "status": "generated",
        "div": "<div xmlns=\"http://www.w3.org/1999/xhtml\"><div class=\"hapiHeaderText\">Turns 18 day of Encounter <b>DENEXPass </b></div><table class=\"hapiPropertyTable\"><tbody><tr><td>Identifier</td><td>f0eda1c9668fdacdcad3378589bf6e0a71e7dec1618f14fca4d442ec96e402b1</td></tr><tr><td>Date of birth</td><td><span>29 September 2006</span></td></tr></tbody></table></div>"
      },
      "extension": [ {
        "url": "http://hl7.org/fhir/us/core/StructureDefinition/us-core-race",
        "extension": [ {
          "url": "ombCategory",
          "valueCoding": {
            "system": "urn:oid:2.16.840.1.113883.6.238",
            "code": "1002-5",
            "display": "American Indian or Alaska Native",
            "userSelected": true
          }
        }, {
          "url": "text",
          "valueString": "American Indian or Alaska Native"
        } ]
      }, {
        "url": "http://hl7.org/fhir/us/core/StructureDefinition/us-core-ethnicity",
        "extension": [ {
          "url": "ombCategory",
          "valueCoding": {
            "system": "urn:oid:2.16.840.1.113883.6.238",
            "code": "2135-2",
            "display": "Hispanic or Latino",
            "userSelected": true
          }
        }, {
          "url": "text",
          "valueString": "Hispanic or Latino"
        } ]
      }, {
        "url": "http://hl7.org/fhir/us/core/StructureDefinition/us-core-sex",
        "valueCode": "248152002"
      } ],
      "identifier": [ {
        "type": {
          "coding": [ {
            "system": "http://terminology.hl7.org/CodeSystem/v2-0203",
            "code": "MR"
          } ]
        },
        "system": "http://bonnie-fhir.healthit.gov/",
        "value": "DENEXPass-TwoEncFemaleeGFRLowAndHigh"
      } ],
      "active": true,
      "name": [ {
        "use": "usual",
        "family": "DENEXPass",
        "given": [ "TwoEncFemaleeGFRLowAndHigh" ]
      } ],
      "gender": "female",
      "birthDate": "1983-10-10"
    },
    "request": {
      "method": "PUT",
      "url": "Patient/3731688f-4261-42cc-943a-202b69beab97"
    }
  }, {
    "fullUrl": "https://madie.cms.gov/Observation/87011fae-cec9-4e76-8304-e2175e9176ab",
    "resource": {
      "resourceType": "Observation",
      "id": "87011fae-cec9-4e76-8304-e2175e9176ab",
      "meta": {
        "profile": [ "http://hl7.org/fhir/us/qicore/StructureDefinition/qicore-observation-lab" ]
      },
      "status": "final",
      "category": [ {
        "coding": [ {
          "system": "http://terminology.hl7.org/CodeSystem/observation-category",
          "code": "laboratory",
          "display": "Laboratory"
        } ]
      } ],
      "code": {
        "coding": [ {
          "system": "http://loinc.org",
          "code": "2160-0",
          "display": "Creatinine [Mass/volume] in Serum or Plasma"
        } ]
      },
      "subject": {
        "reference": "Patient/3731688f-4261-42cc-943a-202b69beab97"
      },
      "effectiveDateTime": "2026-11-04T09:00:00.000+00:00",
      "issued": "2026-11-04T09:30:00.000+00:00",
      "valueQuantity": {
        "value": 1.5,
        "unit": "mg/dL",
        "system": "http://unitsofmeasure.org",
        "code": "mg/dL"
      }
    },
    "request": {
      "method": "PUT",
      "url": "Observation/87011fae-cec9-4e76-8304-e2175e9176ab"
    }
  }, {
    "fullUrl": "https://madie.cms.gov/Organization/368870ed-6a0f-42bc-a5ce-1e7b316de0ca",
    "resource": {
      "resourceType": "Organization",
      "id": "368870ed-6a0f-42bc-a5ce-1e7b316de0ca",
      "meta": {
        "profile": [ "http://hl7.org/fhir/us/qicore/StructureDefinition/qicore-organization" ]
      },
      "identifier": [ {
        "use": "temp",
        "system": "urn:oid:2.16.840.1.113883.4.4",
        "value": "21-3259825"
      } ],
      "active": true,
      "type": [ {
        "coding": [ {
          "system": "http://terminology.hl7.org/CodeSystem/organization-type",
          "code": "pay",
          "display": "Payer"
        } ]
      } ],
      "name": "Blue Cross Blue Shield of Texas",
      "telecom": [ {
        "system": "phone",
        "value": "(+1) 972-766-6900"
      } ],
      "address": [ {
        "use": "billing",
        "type": "postal",
        "line": [ "P.O. Box 660044" ],
        "city": "Dallas",
        "state": "TX",
        "postalCode": "75266-0044",
        "country": "USA"
      } ]
    },
    "request": {
      "method": "PUT",
      "url": "Organization/368870ed-6a0f-42bc-a5ce-1e7b316de0ca"
    }
  }, {
    "fullUrl": "https://madie.cms.gov/MeasureReport/e3a9d456-d045-497d-afa7-fc521dc37b81",
    "resource": {
      "resourceType": "MeasureReport",
      "id": "e3a9d456-d045-497d-afa7-fc521dc37b81",
      "meta": {
        "profile": [ "http://hl7.org/fhir/us/cqfmeasures/StructureDefinition/test-case-cqfm" ]
      },
      "contained": [ {
        "resourceType": "Parameters",
        "id": "a3f07901-e123-425a-b394-86d6d9c830cc-parameters",
        "parameter": [ {
          "name": "subject",
          "valueString": "3731688f-4261-42cc-943a-202b69beab97"
        } ]
      } ],
      "extension": [ {
        "url": "http://hl7.org/fhir/us/cqfmeasures/StructureDefinition/cqfm-inputParameters",
        "valueReference": {
          "reference": "#a3f07901-e123-425a-b394-86d6d9c830cc-parameters"
        }
      }, {
        "url": "http://hl7.org/fhir/us/cqfmeasures/StructureDefinition/cqfm-testCaseDescription",
        "valueMarkdown": "IP Female Enc #1 with eGFR of 63. SCr is within first 24 hours.\nVScode: Denominator Exclusion=[Encounter(id=DENEXPass-TwoEncFemaleeGFRLowAndHigh-03)]"
      } ],
      "modifierExtension": [ {
        "url": "http://hl7.org/fhir/us/cqfmeasures/StructureDefinition/cqfm-isTestCase",
        "valueBoolean": true
      } ],
      "status": "complete",
      "type": "individual",
      "measure": "https://madie.cms.gov/Measure/CMS832HHAKIFHIR",
      "period": {
        "start": "2026-01-01",
        "end": "2026-12-31"
      },
      "group": [ {
        "id": "67b50f879214df46de2f1fdb",
        "population": [ {
          "id": "DA0D3694-7F57-4FB9-8410-1F64E44CA01E",
          "code": {
            "coding": [ {
              "system": "http://terminology.hl7.org/CodeSystem/measure-population",
              "code": "initial-population",
              "display": "Initial Population"
            } ]
          },
          "count": 2
        }, {
          "id": "624D8554-9CB0-4BF0-882D-05C4F88BCC2C",
          "code": {
            "coding": [ {
              "system": "http://terminology.hl7.org/CodeSystem/measure-population",
              "code": "denominator",
              "display": "Denominator"
            } ]
          },
          "count": 2
        }, {
          "id": "000FF050-D4A2-4C8B-8123-4538D35D5441",
          "code": {
            "coding": [ {
              "system": "http://terminology.hl7.org/CodeSystem/measure-population",
              "code": "denominator-exclusion",
              "display": "Denominator Exclusion"
            } ]
          },
          "count": 1
        }, {
          "id": "01644D07-D9F8-403E-A66D-109ABA29BB6E",
          "code": {
            "coding": [ {
              "system": "http://terminology.hl7.org/CodeSystem/measure-population",
              "code": "numerator",
              "display": "Numerator"
            } ]
          },
          "count": 0
        } ],
        "measureScore": {
          "value": 0
        }
      } ],
      "evaluatedResource": [ {
        "reference": "Patient/3731688f-4261-42cc-943a-202b69beab97"
      }, {
        "reference": "Encounter/0a12996b-fa87-41b9-9bba-bc9f1540eae5"
      }, {
        "reference": "Encounter/94ba0bc6-8260-4979-b2e1-40ceb900c15e"
      }, {
        "reference": "Encounter/7a1c2bc7-b6ca-42b7-bb41-5be3218e0541"
      }, {
        "reference": "Observation/12fa3766-e38e-4402-bd5f-a980b7727609"
      }, {
        "reference": "Observation/57e53b0b-c828-44c1-ab3c-43a5d948d31c"
      }, {
        "reference": "Observation/87011fae-cec9-4e76-8304-e2175e9176ab"
      }, {
        "reference": "Observation/27bbf3ff-3feb-4b35-bfda-4e6f0c82d98d"
      }, {
        "reference": "Observation/dfeabd36-a07c-4470-b9f4-0cbc4f2b9511"
      }, {
        "reference": "Observation/40167034-4d8d-4df3-8d73-3c7b8871690b"
      }, {
        "reference": "Coverage/2edaa6d5-df60-401c-871c-b59d8e24acab"
      }, {
        "reference": "Organization/368870ed-6a0f-42bc-a5ce-1e7b316de0ca"
      } ]
    },
    "request": {
      "method": "PUT",
      "url": "MeasureReport/e3a9d456-d045-497d-afa7-fc521dc37b81"
    }
  }, {
    "fullUrl": "https://madie.cms.gov/Encounter/0a12996b-fa87-41b9-9bba-bc9f1540eae5",
    "resource": {
      "resourceType": "Encounter",
      "id": "0a12996b-fa87-41b9-9bba-bc9f1540eae5",
      "meta": {
        "profile": [ "http://hl7.org/fhir/us/qicore/StructureDefinition/qicore-encounter" ]
      },
      "status": "finished",
      "class": {
        "system": "http://terminology.hl7.org/CodeSystem/v3-ActCode",
        "code": "EMER",
        "display": "emergency"
      },
      "type": [ {
        "coding": [ {
          "system": "http://snomed.info/sct",
          "code": "4525004"
        } ]
      } ],
      "subject": {
        "reference": "Patient/3731688f-4261-42cc-943a-202b69beab97"
      },
      "period": {
        "start": "2026-09-29T08:00:00.000+00:00",
        "end": "2026-09-29T20:00:00.000+00:00"
      }
    },
    "request": {
      "method": "PUT",
      "url": "Encounter/0a12996b-fa87-41b9-9bba-bc9f1540eae5"
    }
  }, {
    "fullUrl": "https://madie.cms.gov/MeasureReport/793b6283-8363-4132-a511-e96b524c64fe",
    "resource": {
      "resourceType": "MeasureReport",
      "id": "793b6283-8363-4132-a511-e96b524c64fe",
      "meta": {
        "profile": [ "http://hl7.org/fhir/us/cqfmeasures/StructureDefinition/test-case-cqfm" ]
      },
      "contained": [ {
        "resourceType": "Parameters",
        "id": "1acd81f7-ae55-45eb-a4ea-0cc9d98fb0a6-parameters",
        "parameter": [ {
          "name": "subject",
          "valueString": "3731688f-4261-42cc-943a-202b69beab97"
        } ]
      } ],
      "extension": [ {
        "url": "http://hl7.org/fhir/StructureDefinition/cqf-inputParameters",
        "valueReference": {
          "reference": "#1acd81f7-ae55-45eb-a4ea-0cc9d98fb0a6-parameters"
        }
      }, {
        "url": "http://hl7.org/fhir/us/cqfmeasures/StructureDefinition/cqfm-testCaseDescription",
        "valueMarkdown": "IP Female Enc #1 with eGFR of 63. SCr is within first 24 hours.\nVScode: Denominator Exclusion=[Encounter(id=DENEXPass-TwoEncFemaleeGFRLowAndHigh-03)]"
      } ],
      "modifierExtension": [ {
        "url": "http://hl7.org/fhir/us/cqfmeasures/StructureDefinition/cqfm-isTestCase",
        "valueBoolean": true
      } ],
      "status": "complete",
      "type": "individual",
      "measure": "https://madie.cms.gov/Measure/CMS832FHIRHHAKI",
      "period": {
        "start": "2026-01-01",
        "end": "2026-12-31"
      },
      "group": [ {
        "id": "Group_1",
        "population": [ {
          "id": "InitialPopulation_1",
          "code": {
            "coding": [ {
              "system": "http://terminology.hl7.org/CodeSystem/measure-population",
              "code": "initial-population",
              "display": "Initial Population"
            } ]
          },
          "count": 2
        }, {
          "id": "Denominator_1",
          "code": {
            "coding": [ {
              "system": "http://terminology.hl7.org/CodeSystem/measure-population",
              "code": "denominator",
              "display": "Denominator"
            } ]
          },
          "count": 2
        }, {
          "id": "DenominatorExclusion_1",
          "code": {
            "coding": [ {
              "system": "http://terminology.hl7.org/CodeSystem/measure-population",
              "code": "denominator-exclusion",
              "display": "Denominator Exclusion"
            } ]
          },
          "count": 1
        }, {
          "id": "Numerator_1",
          "code": {
            "coding": [ {
              "system": "http://terminology.hl7.org/CodeSystem/measure-population",
              "code": "numerator",
              "display": "Numerator"
            } ]
          },
          "count": 0
        } ],
        "measureScore": {
          "value": 0.0
        }
      } ],
      "evaluatedResource": [ {
        "reference": "Encounter/7a1c2bc7-b6ca-42b7-bb41-5be3218e0541"
      }, {
        "reference": "Observation/27bbf3ff-3feb-4b35-bfda-4e6f0c82d98d"
      }, {
        "reference": "Observation/dfeabd36-a07c-4470-b9f4-0cbc4f2b9511"
      }, {
        "reference": "Observation/57e53b0b-c828-44c1-ab3c-43a5d948d31c"
      }, {
        "reference": "Observation/12fa3766-e38e-4402-bd5f-a980b7727609"
      }, {
        "reference": "Observation/40167034-4d8d-4df3-8d73-3c7b8871690b"
      }, {
        "reference": "Coverage/2edaa6d5-df60-401c-871c-b59d8e24acab"
      }, {
        "reference": "Encounter/94ba0bc6-8260-4979-b2e1-40ceb900c15e"
      }, {
        "reference": "Patient/3731688f-4261-42cc-943a-202b69beab97"
      }, {
        "reference": "Observation/87011fae-cec9-4e76-8304-e2175e9176ab"
      }, {
        "reference": "Organization/368870ed-6a0f-42bc-a5ce-1e7b316de0ca"
      }, {
        "reference": "MeasureReport/e3a9d456-d045-497d-afa7-fc521dc37b81"
      }, {
        "reference": "Encounter/0a12996b-fa87-41b9-9bba-bc9f1540eae5"
      } ]
    },
    "request": {
      "method": "PUT",
      "url": "MeasureReport/793b6283-8363-4132-a511-e96b524c64fe"
    }
  } ]
}