{
  "resourceType": "Bundle",
  "id": "6101649198086b4fedf65dff",
  "type": "collection",
  "entry": [ {
    "fullUrl": "https://madie.cms.gov/Patient/4c234ec0-3f89-4d55-b767-219d1130f634",
    "resource": {
      "resourceType": "Patient",
      "id": "4c234ec0-3f89-4d55-b767-219d1130f634",
      "meta": {
        "profile": [ "http://hl7.org/fhir/us/qicore/StructureDefinition/qicore-patient" ]
      },
      "extension": [ {
        "url": "http://hl7.org/fhir/us/core/StructureDefinition/us-core-race",
        "extension": [ {
          "url": "ombCategory",
          "valueCoding": {
            "system": "urn:oid:2.16.840.1.113883.6.238",
            "code": "2106-3",
            "display": "White"
          }
        }, {
          "url": "detailed",
          "valueCoding": {
            "system": "urn:oid:2.16.840.1.113883.6.238",
            "code": "2036-2",
            "display": "Filipino"
          }
        }, {
          "url": "text",
          "valueString": "Mixed"
        } ]
      }, {
        "url": "http://hl7.org/fhir/us/core/StructureDefinition/us-core-ethnicity",
        "extension": [ {
          "url": "ombCategory",
          "valueCoding": {
            "system": "urn:oid:2.16.840.1.113883.6.238",
            "code": "2135-2",
            "display": "Hispanic or Latino"
          }
        }, {
          "url": "detailed",
          "valueCoding": {
            "system": "urn:oid:2.16.840.1.113883.6.238",
            "code": "2148-5",
            "display": "Mexican"
          }
        }, {
          "url": "text",
          "valueString": "Hispanic or Latino"
        } ]
      }, {
        "url": "http://hl7.org/fhir/us/core/StructureDefinition/us-core-sex",
        "valueCode": "248153007"
      } ],
      "identifier": [ {
        "type": {
          "coding": [ {
            "system": "http://terminology.hl7.org/CodeSystem/v2-0203",
            "code": "MR"
          } ]
        },
        "system": "https://bonnie-fhir.healthit.gov/",
        "value": "71351661616151"
      } ],
      "active": true,
      "name": [ {
        "use": "usual",
        "family": "NUMERPass",
        "given": [ "USSImprovementof4AndMorbidObesityDxBeforeMPEdge" ]
      } ],
      "gender": "male",
      "birthDate": "1948-02-19"
    }
  }, {
    "fullUrl": "https://madie.cms.gov/Observation/fbd0577e-307e-41a4-8309-f22026260119",
    "resource": {
      "resourceType": "Observation",
      "id": "fbd0577e-307e-41a4-8309-f22026260119",
      "meta": {
        "profile": [ "http://hl7.org/fhir/us/qicore/StructureDefinition/qicore-observation-screening-assessment" ]
      },
      "status": "final",
      "category": [ {
        "coding": [ {
          "system": "http://terminology.hl7.org/CodeSystem/observation-category",
          "code": "survey",
          "display": "Survey"
        } ]
      } ],
      "code": {
        "coding": [ {
          "system": "http://loinc.org",
          "version": "2.76",
          "code": "80976-4"
        } ]
      },
      "subject": {
        "reference": "Patient/4c234ec0-3f89-4d55-b767-219d1130f634"
      },
      "effectivePeriod": {
        "start": "2026-01-06T08:00:00.000+00:00"
      },
      "valueInteger": 12
    }
  }, {
    "fullUrl": "https://madie.cms.gov/Observation/dc627841-3df5-4c02-9b14-b14a08c8fc8a",
    "resource": {
      "resourceType": "Observation",
      "id": "dc627841-3df5-4c02-9b14-b14a08c8fc8a",
      "meta": {
        "profile": [ "http://hl7.org/fhir/us/qicore/StructureDefinition/qicore-observation-screening-assessment" ]
      },
      "status": "final",
      "category": [ {
        "coding": [ {
          "system": "http://terminology.hl7.org/CodeSystem/observation-category",
          "code": "survey",
          "display": "Survey"
        } ]
      } ],
      "code": {
        "coding": [ {
          "system": "http://loinc.org",
          "version": "2.76",
          "code": "80976-4"
        } ]
      },
      "subject": {
        "reference": "Patient/4c234ec0-3f89-4d55-b767-219d1130f634"
      },
      "effectivePeriod": {
        "start": "2026-08-06T08:00:00.000+00:00"
      },
      "valueInteger": 8
    }
  }, {
    "fullUrl": "https://madie.cms.gov/Condition/9af14cd2-6fb9-4fab-9a84-b712af6554ed",
    "resource": {
      "resourceType": "Condition",
      "id": "9af14cd2-6fb9-4fab-9a84-b712af6554ed",
      "meta": {
        "profile": [ "http://hl7.org/fhir/us/qicore/StructureDefinition/qicore-condition-problems-health-concerns" ]
      },
      "clinicalStatus": {
        "coding": [ {
          "system": "http://terminology.hl7.org/CodeSystem/condition-clinical",
          "code": "resolved"
        } ]
      },
      "verificationStatus": {
        "coding": [ {
          "system": "http://terminology.hl7.org/CodeSystem/condition-ver-status",
          "code": "confirmed"
        } ]
      },
      "category": [ {
        "coding": [ {
          "system": "http://terminology.hl7.org/CodeSystem/condition-category",
          "code": "problem-list-item",
          "display": "Problem List Item"
        } ]
      } ],
      "code": {
        "coding": [ {
          "system": "http://hl7.org/fhir/sid/icd-10-cm",
          "version": "2024",
          "code": "Z68.42"
        } ]
      },
      "subject": {
        "reference": "Patient/4c234ec0-3f89-4d55-b767-219d1130f634"
      },
      "onsetDateTime": "2024-02-28T08:00:00.000+00:00",
      "abatementDateTime": "2025-06-28T08:15:00.000+00:00"
    }
  }, {
    "fullUrl": "https://madie.cms.gov/Condition/bd0d0c83-852e-479b-a506-41098c0b63d6",
    "resource": {
      "resourceType": "Condition",
      "id": "bd0d0c83-852e-479b-a506-41098c0b63d6",
      "meta": {
        "profile": [ "http://hl7.org/fhir/us/qicore/StructureDefinition/qicore-condition-problems-health-concerns" ]
      },
      "clinicalStatus": {
        "coding": [ {
          "system": "http://terminology.hl7.org/CodeSystem/condition-clinical",
          "code": "active"
        } ]
      },
      "verificationStatus": {
        "coding": [ {
          "system": "http://terminology.hl7.org/CodeSystem/condition-ver-status",
          "code": "confirmed"
        } ]
      },
      "category": [ {
        "coding": [ {
          "system": "http://terminology.hl7.org/CodeSystem/condition-category",
          "code": "problem-list-item",
          "display": "Problem List Item"
        } ]
      } ],
      "code": {
        "coding": [ {
          "system": "http://hl7.org/fhir/sid/icd-10-cm",
          "version": "2024",
          "code": "N40.1"
        } ]
      },
      "subject": {
        "reference": "Patient/4c234ec0-3f89-4d55-b767-219d1130f634"
      },
      "onsetPeriod": {
        "start": "2025-12-31T08:00:00.000+00:00"
      }
    }
  }, {
    "fullUrl": "https://madie.cms.gov/Encounter/eb6531f7-2896-490a-b0dc-a963f714a6e9",
    "resource": {
      "resourceType": "Encounter",
      "id": "eb6531f7-2896-490a-b0dc-a963f714a6e9",
      "meta": {
        "profile": [ "http://hl7.org/fhir/us/qicore/StructureDefinition/qicore-encounter" ]
      },
      "status": "finished",
      "class": {
        "system": "http://terminology.hl7.org/CodeSystem/v3-ActCode",
        "code": "AMB",
        "display": "ambulatory"
      },
      "type": [ {
        "coding": [ {
          "system": "http://www.ama-assn.org/go/cpt",
          "version": "2024",
          "code": "99213"
        } ]
      } ],
      "subject": {
        "reference": "Patient/4c234ec0-3f89-4d55-b767-219d1130f634"
      },
      "period": {
        "start": "2026-01-06T08:00:00.000+00:00",
        "end": "2026-01-06T08:15:00.000+00:00"
      }
    }
  }, {
    "fullUrl": "https://madie.cms.gov/Coverage/f8fc46c4-db4b-4776-a5a0-5e5ceff5d912",
    "resource": {
      "resourceType": "Coverage",
      "id": "f8fc46c4-db4b-4776-a5a0-5e5ceff5d912",
      "meta": {
        "profile": [ "http://hl7.org/fhir/us/qicore/StructureDefinition/qicore-coverage" ]
      },
      "identifier": [ {
        "system": "http://benefitsinc.com/certificate",
        "value": "12345"
      } ],
      "status": "active",
      "type": {
        "coding": [ {
          "system": "https://nahdo.org/sopt",
          "version": "9.2",
          "code": "59",
          "display": "Other Private Insurance"
        } ]
      },
      "subscriberId": "123456",
      "beneficiary": {
        "reference": "Patient/4c234ec0-3f89-4d55-b767-219d1130f634"
      },
      "dependent": "0",
      "relationship": {
        "coding": [ {
          "system": "http://terminology.hl7.org/CodeSystem/subscriber-relationship",
          "code": "self"
        } ]
      },
      "period": {
        "start": "2017-05-23",
        "end": "2026-05-23"
      },
      "payor": [ {
        "reference": "Organization/a64524a3-ddbc-4b59-9a22-aaae433924f6"
      } ],
      "order": 9
    }
  }, {
    "fullUrl": "https://madie.cms.gov/Organization/a64524a3-ddbc-4b59-9a22-aaae433924f6",
    "resource": {
      "resourceType": "Organization",
      "id": "a64524a3-ddbc-4b59-9a22-aaae433924f6",
      "meta": {
        "profile": [ "http://hl7.org/fhir/us/qicore/StructureDefinition/qicore-organization" ]
      },
      "identifier": [ {
        "use": "temp",
        "system": "http://terminology.hl7.org/NamingSystem/USEIN",
        "value": "48915164351354"
      } ],
      "active": true,
      "type": [ {
        "coding": [ {
          "system": "http://terminology.hl7.org/CodeSystem/organization-type",
          "code": "team",
          "display": "Organizational team"
        } ]
      } ],
      "name": "Good Healthcare, LLC",
      "telecom": [ {
        "system": "phone",
        "value": "(+1) 901-683-7777"
      }, {
        "system": "fax",
        "value": "(+1) 901-683-6622"
      }, {
        "system": "email",
        "value": "BetterYourHealth@GoodHealthcare.com"
      } ],
      "address": [ {
        "line": [ "3651 Wentrow Blvd, Suite 227" ],
        "city": "Germantown",
        "state": "TN",
        "postalCode": "38138",
        "country": "USA"
      } ]
    }
  }, {
    "fullUrl": "https://madie.cms.gov/MeasureReport/47a91ced-cb5f-44c0-9417-e8efa33a4b08",
    "resource": {
      "resourceType": "MeasureReport",
      "id": "47a91ced-cb5f-44c0-9417-e8efa33a4b08",
      "meta": {
        "profile": [ "http://hl7.org/fhir/us/cqfmeasures/StructureDefinition/test-case-cqfm" ]
      },
      "contained": [ {
        "resourceType": "Parameters",
        "id": "12a39194-679c-4828-b4f8-e3b56170e02f-parameters",
        "parameter": [ {
          "name": "subject",
          "valueString": "4c234ec0-3f89-4d55-b767-219d1130f634"
        } ]
      } ],
      "extension": [ {
        "url": "http://hl7.org/fhir/StructureDefinition/cqf-inputParameters",
        "valueReference": {
          "reference": "#12a39194-679c-4828-b4f8-e3b56170e02f-parameters"
        }
      }, {
        "url": "http://hl7.org/fhir/us/cqfmeasures/StructureDefinition/cqfm-testCaseDescription",
        "valueMarkdown": "Male pt with initial dx BPH 6 months prior to Measurement Period and USS assessment within 1/mo of diagnosis with followup USS assessment and qualifying MP visit who has documented improvement of 4 points in USS"
      } ],
      "modifierExtension": [ {
        "url": "http://hl7.org/fhir/us/cqfmeasures/StructureDefinition/cqfm-isTestCase",
        "valueBoolean": true
      } ],
      "status": "complete",
      "type": "individual",
      "measure": "https://madie.cms.gov/Measure/CMS771FHIRUrinarySymptomScoreBPH",
      "period": {
        "start": "2026-01-01",
        "end": "2026-12-31"
      },
      "group": [ {
        "id": "Group_1",
        "population": [ {
          "id": "InitialPopulation_1",
          "code": {
            "coding": [ {
              "system": "http://terminology.hl7.org/CodeSystem/measure-population",
              "code": "initial-population",
              "display": "Initial Population"
            } ]
          },
          "count": 1
        }, {
          "id": "Denominator_1",
          "code": {
            "coding": [ {
              "system": "http://terminology.hl7.org/CodeSystem/measure-population",
              "code": "denominator",
              "display": "Denominator"
            } ]
          },
          "count": 1
        }, {
          "id": "DenominatorExclusion_1",
          "code": {
            "coding": [ {
              "system": "http://terminology.hl7.org/CodeSystem/measure-population",
              "code": "denominator-exclusion",
              "display": "Denominator Exclusion"
            } ]
          },
          "count": 0
        }, {
          "id": "Numerator_1",
          "code": {
            "coding": [ {
              "system": "http://terminology.hl7.org/CodeSystem/measure-population",
              "code": "numerator",
              "display": "Numerator"
            } ]
          },
          "count": 1
        } ],
        "measureScore": {
          "value": 1.0
        }
      } ],
      "evaluatedResource": [ {
        "reference": "Patient/4c234ec0-3f89-4d55-b767-219d1130f634"
      }, {
        "reference": "Observation/fbd0577e-307e-41a4-8309-f22026260119"
      }, {
        "reference": "Observation/dc627841-3df5-4c02-9b14-b14a08c8fc8a"
      }, {
        "reference": "Condition/9af14cd2-6fb9-4fab-9a84-b712af6554ed"
      }, {
        "reference": "Condition/bd0d0c83-852e-479b-a506-41098c0b63d6"
      }, {
        "reference": "Encounter/eb6531f7-2896-490a-b0dc-a963f714a6e9"
      }, {
        "reference": "Coverage/f8fc46c4-db4b-4776-a5a0-5e5ceff5d912"
      }, {
        "reference": "Organization/a64524a3-ddbc-4b59-9a22-aaae433924f6"
      } ]
    }
  } ]
}