{
  "resourceType": "Bundle",
  "id": "62fa5823f4a8c3cd9f4553a0",
  "type": "transaction",
  "entry": [ {
    "fullUrl": "https://madie.cms.gov/Patient/ff43a29d-e740-44ba-9452-63d1ba2b0709",
    "resource": {
      "resourceType": "Patient",
      "id": "ff43a29d-e740-44ba-9452-63d1ba2b0709",
      "meta": {
        "profile": [ "http://hl7.org/fhir/us/qicore/StructureDefinition/qicore-patient" ]
      },
      "extension": [ {
        "url": "http://hl7.org/fhir/us/core/StructureDefinition/us-core-race",
        "extension": [ {
          "url": "ombCategory",
          "valueCoding": {
            "system": "urn:oid:2.16.840.1.113883.6.238",
            "code": "2106-3",
            "display": "White",
            "userSelected": true
          }
        }, {
          "url": "text",
          "valueString": "White"
        } ]
      }, {
        "url": "http://hl7.org/fhir/us/core/StructureDefinition/us-core-ethnicity",
        "extension": [ {
          "url": "ombCategory",
          "valueCoding": {
            "system": "urn:oid:2.16.840.1.113883.6.238",
            "code": "2186-5",
            "display": "Not Hispanic or Latino",
            "userSelected": true
          }
        }, {
          "url": "text",
          "valueString": "Not Hispanic or Latino"
        } ]
      } ],
      "identifier": [ {
        "type": {
          "coding": [ {
            "system": "http://terminology.hl7.org/CodeSystem/v2-0203",
            "code": "MR"
          } ]
        },
        "system": "https://bonnie-fhir.healthit.gov/",
        "value": "62fa5823f4a8c3cd9f4553a0"
      } ],
      "name": [ {
        "family": "DENEXPass",
        "given": [ "EndStageRenalHospice" ]
      } ],
      "gender": "male",
      "birthDate": "1991-12-01"
    },
    "request": {
      "method": "PUT",
      "url": "Patient/ff43a29d-e740-44ba-9452-63d1ba2b0709"
    }
  }, {
    "fullUrl": "https://madie.cms.gov/Condition/b8146eee-996e-41ef-bf9d-1bdb164736cf",
    "resource": {
      "resourceType": "Condition",
      "id": "b8146eee-996e-41ef-bf9d-1bdb164736cf",
      "meta": {
        "profile": [ "http://hl7.org/fhir/us/qicore/StructureDefinition/qicore-condition-problems-health-concerns" ]
      },
      "clinicalStatus": {
        "coding": [ {
          "system": "http://terminology.hl7.org/CodeSystem/condition-clinical",
          "code": "active",
          "display": "Active",
          "userSelected": true
        } ]
      },
      "category": [ {
        "coding": [ {
          "system": "http://terminology.hl7.org/CodeSystem/condition-category",
          "code": "problem-list-item",
          "display": "Problem List Item",
          "userSelected": true
        } ]
      } ],
      "code": {
        "coding": [ {
          "system": "http://snomed.info/sct",
          "version": "2021-09",
          "code": "102781000119107",
          "display": "Sensory neuropathy due to type 1 diabetes mellitus (disorder)",
          "userSelected": true
        } ]
      },
      "subject": {
        "reference": "Patient/ff43a29d-e740-44ba-9452-63d1ba2b0709"
      },
      "onsetDateTime": "2024-06-15T08:00:00.000+00:00"
    },
    "request": {
      "method": "PUT",
      "url": "Condition/b8146eee-996e-41ef-bf9d-1bdb164736cf"
    }
  }, {
    "fullUrl": "https://madie.cms.gov/Encounter/0b97bc92-94b6-481c-9282-2d65c9920483",
    "resource": {
      "resourceType": "Encounter",
      "id": "0b97bc92-94b6-481c-9282-2d65c9920483",
      "meta": {
        "profile": [ "http://hl7.org/fhir/us/qicore/StructureDefinition/qicore-encounter" ]
      },
      "status": "finished",
      "class": {
        "system": "http://terminology.hl7.org/CodeSystem/v3-ActCode",
        "code": "AMB",
        "display": "ambulatory",
        "userSelected": true
      },
      "type": [ {
        "coding": [ {
          "system": "http://snomed.info/sct",
          "version": "2021-09",
          "code": "185463005",
          "display": "Visit out of hours (procedure)",
          "userSelected": true
        } ]
      } ],
      "subject": {
        "reference": "Patient/ff43a29d-e740-44ba-9452-63d1ba2b0709"
      },
      "period": {
        "start": "2026-08-15T08:00:00.000+00:00",
        "end": "2026-08-15T08:15:00.000+00:00"
      }
    },
    "request": {
      "method": "PUT",
      "url": "Encounter/0b97bc92-94b6-481c-9282-2d65c9920483"
    }
  }, {
    "fullUrl": "https://madie.cms.gov/Observation/8bfb7e78-0adf-474d-88b3-a53f6299d91e",
    "resource": {
      "resourceType": "Observation",
      "id": "8bfb7e78-0adf-474d-88b3-a53f6299d91e",
      "meta": {
        "profile": [ "http://hl7.org/fhir/us/qicore/StructureDefinition/qicore-observation-lab" ]
      },
      "status": "final",
      "category": [ {
        "coding": [ {
          "system": "http://terminology.hl7.org/CodeSystem/observation-category",
          "code": "laboratory",
          "display": "Laboratory",
          "userSelected": true
        } ]
      } ],
      "code": {
        "coding": [ {
          "system": "http://loinc.org",
          "version": "2.71",
          "code": "48642-3",
          "display": "Glomerular filtration rate [Volume Rate/Area] in Serum, Plasma or Blood by Creatinine-based formula (MDRD)/1.73 sq M among non black population",
          "userSelected": true
        } ]
      },
      "subject": {
        "reference": "Patient/ff43a29d-e740-44ba-9452-63d1ba2b0709"
      },
      "effectiveDateTime": "2026-08-15T08:00:00.000+00:00",
      "valueBoolean": true
    },
    "request": {
      "method": "PUT",
      "url": "Observation/8bfb7e78-0adf-474d-88b3-a53f6299d91e"
    }
  }, {
    "fullUrl": "https://madie.cms.gov/Observation/a56e3aa0-5640-4233-9511-53fe012e937d",
    "resource": {
      "resourceType": "Observation",
      "id": "a56e3aa0-5640-4233-9511-53fe012e937d",
      "meta": {
        "profile": [ "http://hl7.org/fhir/us/qicore/StructureDefinition/qicore-observation-lab" ]
      },
      "status": "amended",
      "category": [ {
        "coding": [ {
          "system": "http://terminology.hl7.org/CodeSystem/observation-category",
          "code": "laboratory",
          "display": "Laboratory",
          "userSelected": true
        } ]
      } ],
      "code": {
        "coding": [ {
          "system": "http://loinc.org",
          "version": "2.71",
          "code": "13705-9",
          "display": "Albumin/Creatinine [Mass Ratio] in 24 hour Urine",
          "userSelected": true
        } ]
      },
      "subject": {
        "reference": "Patient/ff43a29d-e740-44ba-9452-63d1ba2b0709"
      },
      "effectiveDateTime": "2026-08-15T08:00:00.000+00:00",
      "valueBoolean": true
    },
    "request": {
      "method": "PUT",
      "url": "Observation/a56e3aa0-5640-4233-9511-53fe012e937d"
    }
  }, {
    "fullUrl": "https://madie.cms.gov/Condition/e9ff7012-abfd-414d-9057-1135dc6e4144",
    "resource": {
      "resourceType": "Condition",
      "id": "e9ff7012-abfd-414d-9057-1135dc6e4144",
      "meta": {
        "profile": [ "http://hl7.org/fhir/us/qicore/StructureDefinition/qicore-condition-encounter-diagnosis" ]
      },
      "clinicalStatus": {
        "coding": [ {
          "system": "http://terminology.hl7.org/CodeSystem/condition-clinical",
          "code": "active",
          "display": "active",
          "userSelected": true
        } ]
      },
      "category": [ {
        "coding": [ {
          "system": "http://terminology.hl7.org/CodeSystem/condition-category",
          "code": "encounter-diagnosis",
          "display": "Encounter Diagnosis",
          "userSelected": true
        } ]
      } ],
      "code": {
        "coding": [ {
          "system": "http://snomed.info/sct",
          "version": "2021-09",
          "code": "236434000",
          "display": "End stage renal failure untreated by renal replacement therapy (disorder)",
          "userSelected": true
        } ]
      },
      "subject": {
        "reference": "Patient/ff43a29d-e740-44ba-9452-63d1ba2b0709"
      },
      "onsetDateTime": "2026-08-15T08:00:00.000+00:00",
      "recordedDate": "2026-08-15T08:00:00.000+00:00"
    },
    "request": {
      "method": "PUT",
      "url": "Condition/e9ff7012-abfd-414d-9057-1135dc6e4144"
    }
  }, {
    "fullUrl": "https://madie.cms.gov/Encounter/bdd49b5a-d4eb-4e60-a318-6f35ae2942e0",
    "resource": {
      "resourceType": "Encounter",
      "id": "bdd49b5a-d4eb-4e60-a318-6f35ae2942e0",
      "meta": {
        "profile": [ "http://hl7.org/fhir/us/qicore/StructureDefinition/qicore-encounter" ]
      },
      "status": "finished",
      "class": {
        "system": "http://terminology.hl7.org/CodeSystem/v3-ActCode",
        "code": "AMB",
        "display": "ambulatory",
        "userSelected": true
      },
      "type": [ {
        "coding": [ {
          "system": "http://snomed.info/sct",
          "version": "2021-09",
          "code": "444971000124105",
          "display": "Annual wellness visit (procedure)",
          "userSelected": true
        } ]
      } ],
      "subject": {
        "reference": "Patient/ff43a29d-e740-44ba-9452-63d1ba2b0709"
      },
      "period": {
        "start": "2026-08-15T08:00:00.000+00:00",
        "end": "2026-08-15T08:15:00.000+00:00"
      }
    },
    "request": {
      "method": "PUT",
      "url": "Encounter/bdd49b5a-d4eb-4e60-a318-6f35ae2942e0"
    }
  }, {
    "fullUrl": "https://madie.cms.gov/Encounter/2822fd7e-33e8-4b3e-8de8-68bedc029ee1",
    "resource": {
      "resourceType": "Encounter",
      "id": "2822fd7e-33e8-4b3e-8de8-68bedc029ee1",
      "meta": {
        "profile": [ "http://hl7.org/fhir/us/qicore/StructureDefinition/qicore-encounter" ]
      },
      "status": "finished",
      "class": {
        "system": "http://terminology.hl7.org/CodeSystem/v3-ActCode",
        "code": "AMB",
        "display": "ambulatory",
        "userSelected": true
      },
      "type": [ {
        "coding": [ {
          "system": "http://snomed.info/sct",
          "version": "2021-09",
          "code": "281036007",
          "display": "Follow-up consultation (procedure)",
          "userSelected": true
        } ]
      } ],
      "subject": {
        "reference": "Patient/ff43a29d-e740-44ba-9452-63d1ba2b0709"
      },
      "period": {
        "end": "2026-08-15T08:15:00.000+00:00"
      }
    },
    "request": {
      "method": "PUT",
      "url": "Encounter/2822fd7e-33e8-4b3e-8de8-68bedc029ee1"
    }
  }, {
    "fullUrl": "https://madie.cms.gov/Encounter/aff50602-67bf-40c8-9ca2-aeaa3abf15b5",
    "resource": {
      "resourceType": "Encounter",
      "id": "aff50602-67bf-40c8-9ca2-aeaa3abf15b5",
      "meta": {
        "profile": [ "http://hl7.org/fhir/us/qicore/StructureDefinition/qicore-encounter" ]
      },
      "status": "finished",
      "class": {
        "system": "http://terminology.hl7.org/CodeSystem/v3-ActCode",
        "code": "AMB",
        "display": "ambulatory",
        "userSelected": true
      },
      "type": [ {
        "coding": [ {
          "system": "http://snomed.info/sct",
          "version": "2021-09",
          "code": "183919006",
          "display": "Urgent admission to hospice (procedure)",
          "userSelected": true
        } ]
      } ],
      "subject": {
        "reference": "Patient/ff43a29d-e740-44ba-9452-63d1ba2b0709"
      },
      "period": {
        "start": "2026-08-15T08:00:00.000+00:00",
        "end": "2026-08-15T08:15:00.000+00:00"
      }
    },
    "request": {
      "method": "PUT",
      "url": "Encounter/aff50602-67bf-40c8-9ca2-aeaa3abf15b5"
    }
  }, {
    "fullUrl": "https://madie.cms.gov/MeasureReport/803f2bb4-2bee-4345-b7ba-0e711864da18",
    "resource": {
      "resourceType": "MeasureReport",
      "id": "803f2bb4-2bee-4345-b7ba-0e711864da18",
      "meta": {
        "profile": [ "http://hl7.org/fhir/us/cqfmeasures/StructureDefinition/test-case-cqfm" ]
      },
      "contained": [ {
        "resourceType": "Parameters",
        "id": "7b942e63-7b50-4e42-a5e7-d4ec3a92605a-parameters",
        "parameter": [ {
          "name": "subject",
          "valueString": "ff43a29d-e740-44ba-9452-63d1ba2b0709"
        } ]
      } ],
      "extension": [ {
        "url": "http://hl7.org/fhir/StructureDefinition/cqf-inputParameters",
        "valueReference": {
          "reference": "#7b942e63-7b50-4e42-a5e7-d4ec3a92605a-parameters"
        }
      }, {
        "url": "http://hl7.org/fhir/us/cqfmeasures/StructureDefinition/cqfm-testCaseDescription",
        "valueMarkdown": "This patient has diabetes and a kidney health evaluation with both labs, plus end stage renal disease and a hospice encounter. This case tests the denominator exclusions."
      } ],
      "modifierExtension": [ {
        "url": "http://hl7.org/fhir/us/cqfmeasures/StructureDefinition/cqfm-isTestCase",
        "valueBoolean": true
      } ],
      "status": "complete",
      "type": "individual",
      "measure": "https://madie.cms.gov/Measure/CMS951FHIRKidneyHealthEval",
      "period": {
        "start": "2026-01-01",
        "end": "2026-12-31"
      },
      "group": [ {
        "id": "Group_1",
        "population": [ {
          "id": "InitialPopulation_1",
          "code": {
            "coding": [ {
              "system": "http://terminology.hl7.org/CodeSystem/measure-population",
              "code": "initial-population",
              "display": "Initial Population"
            } ]
          },
          "count": 1
        }, {
          "id": "Denominator_1",
          "code": {
            "coding": [ {
              "system": "http://terminology.hl7.org/CodeSystem/measure-population",
              "code": "denominator",
              "display": "Denominator"
            } ]
          },
          "count": 1
        }, {
          "id": "DenominatorExclusion_1",
          "code": {
            "coding": [ {
              "system": "http://terminology.hl7.org/CodeSystem/measure-population",
              "code": "denominator-exclusion",
              "display": "Denominator Exclusion"
            } ]
          },
          "count": 1
        }, {
          "id": "Numerator_1",
          "code": {
            "coding": [ {
              "system": "http://terminology.hl7.org/CodeSystem/measure-population",
              "code": "numerator",
              "display": "Numerator"
            } ]
          },
          "count": 0
        } ],
        "measureScore": {
          "value": 1.0
        }
      } ],
      "evaluatedResource": [ {
        "reference": "Patient/ff43a29d-e740-44ba-9452-63d1ba2b0709"
      }, {
        "reference": "Condition/b8146eee-996e-41ef-bf9d-1bdb164736cf"
      }, {
        "reference": "Encounter/0b97bc92-94b6-481c-9282-2d65c9920483"
      }, {
        "reference": "Observation/8bfb7e78-0adf-474d-88b3-a53f6299d91e"
      }, {
        "reference": "Observation/a56e3aa0-5640-4233-9511-53fe012e937d"
      }, {
        "reference": "Condition/e9ff7012-abfd-414d-9057-1135dc6e4144"
      }, {
        "reference": "Encounter/bdd49b5a-d4eb-4e60-a318-6f35ae2942e0"
      }, {
        "reference": "Encounter/2822fd7e-33e8-4b3e-8de8-68bedc029ee1"
      }, {
        "reference": "Encounter/aff50602-67bf-40c8-9ca2-aeaa3abf15b5"
      } ]
    },
    "request": {
      "method": "PUT",
      "url": "MeasureReport/803f2bb4-2bee-4345-b7ba-0e711864da18"
    }
  } ]
}