{
  "resourceType": "Bundle",
  "id": "DENEXFail-HospiceEncEndsB4MP",
  "type": "transaction",
  "entry": [ {
    "fullUrl": "https://madie.cms.gov/Patient/8e477157-81e8-4b7b-ba79-4a441a2a1109",
    "resource": {
      "resourceType": "Patient",
      "id": "8e477157-81e8-4b7b-ba79-4a441a2a1109",
      "meta": {
        "profile": [ "http://hl7.org/fhir/us/qicore/StructureDefinition/qicore-patient" ]
      },
      "extension": [ {
        "url": "http://hl7.org/fhir/us/core/StructureDefinition/us-core-race",
        "extension": [ {
          "url": "ombCategory",
          "valueCoding": {
            "system": "urn:oid:2.16.840.1.113883.6.238",
            "code": "2028-9",
            "display": "Asian"
          }
        }, {
          "url": "text",
          "valueString": "Asian"
        } ]
      }, {
        "url": "http://hl7.org/fhir/us/core/StructureDefinition/us-core-ethnicity",
        "extension": [ {
          "url": "ombCategory",
          "valueCoding": {
            "system": "urn:oid:2.16.840.1.113883.6.238",
            "code": "2135-2",
            "display": "Hispanic or Latino"
          }
        }, {
          "url": "text",
          "valueString": "Hispanic or Latino"
        } ]
      } ],
      "identifier": [ {
        "system": "http://hospital.smarthealthit.org",
        "value": "999999995"
      } ],
      "name": [ {
        "family": "IPFail",
        "given": [ "HospiceEncEndsB4MP" ]
      } ],
      "gender": "female",
      "birthDate": "2007-12-31"
    },
    "request": {
      "method": "PUT",
      "url": "Patient/8e477157-81e8-4b7b-ba79-4a441a2a1109"
    }
  }, {
    "fullUrl": "https://madie.cms.gov/Encounter/15559e3b-8e81-4b50-83d7-3f4740a3c948",
    "resource": {
      "resourceType": "Encounter",
      "id": "15559e3b-8e81-4b50-83d7-3f4740a3c948",
      "meta": {
        "profile": [ "http://hl7.org/fhir/us/qicore/StructureDefinition/qicore-encounter" ]
      },
      "status": "finished",
      "class": {
        "system": "http://terminology.hl7.org/CodeSystem/v3-ActCode",
        "code": "AMB",
        "display": "ambulatory"
      },
      "type": [ {
        "coding": [ {
          "system": "http://snomed.info/sct",
          "code": "3391000175108",
          "display": "Office visit for pediatric care and assessment (procedure)"
        } ]
      } ],
      "subject": {
        "reference": "Patient/8e477157-81e8-4b7b-ba79-4a441a2a1109"
      },
      "period": {
        "start": "2026-01-01T00:00:00.000+00:00",
        "end": "2026-01-01T01:00:00.000+00:00"
      }
    },
    "request": {
      "method": "PUT",
      "url": "Encounter/15559e3b-8e81-4b50-83d7-3f4740a3c948"
    }
  }, {
    "fullUrl": "https://madie.cms.gov/Condition/e2dda9c7-6f25-42d1-a164-ebae0c21fe79",
    "resource": {
      "resourceType": "Condition",
      "id": "e2dda9c7-6f25-42d1-a164-ebae0c21fe79",
      "meta": {
        "profile": [ "http://hl7.org/fhir/us/qicore/StructureDefinition/qicore-condition-encounter-diagnosis" ]
      },
      "clinicalStatus": {
        "coding": [ {
          "system": "http://terminology.hl7.org/CodeSystem/condition-clinical",
          "code": "active"
        } ]
      },
      "category": [ {
        "coding": [ {
          "system": "http://terminology.hl7.org/CodeSystem/condition-category",
          "code": "encounter-diagnosis",
          "display": "Encounter Diagnosis"
        } ]
      } ],
      "code": {
        "coding": [ {
          "system": "http://snomed.info/sct",
          "code": "371125006",
          "display": "Labile essential hypertension (disorder)"
        } ]
      },
      "subject": {
        "reference": "Patient/8e477157-81e8-4b7b-ba79-4a441a2a1109"
      },
      "onsetDateTime": "2026-06-30T23:59:59.000+00:00"
    },
    "request": {
      "method": "PUT",
      "url": "Condition/e2dda9c7-6f25-42d1-a164-ebae0c21fe79"
    }
  }, {
    "fullUrl": "https://madie.cms.gov/Encounter/f610c194-5a12-42c7-a87f-ab842153cd35",
    "resource": {
      "resourceType": "Encounter",
      "id": "f610c194-5a12-42c7-a87f-ab842153cd35",
      "meta": {
        "profile": [ "http://hl7.org/fhir/us/qicore/StructureDefinition/qicore-encounter" ]
      },
      "status": "finished",
      "class": {
        "system": "http://terminology.hl7.org/CodeSystem/v3-ActCode",
        "code": "AMB",
        "display": "ambulatory"
      },
      "type": [ {
        "coding": [ {
          "system": "http://snomed.info/sct",
          "code": "183921001",
          "display": "Admission to hospice for respite (procedure)"
        } ]
      } ],
      "subject": {
        "reference": "Patient/8e477157-81e8-4b7b-ba79-4a441a2a1109"
      },
      "period": {
        "start": "2025-12-31T21:59:59.000+00:00",
        "end": "2025-12-31T23:59:59.000+00:00"
      }
    },
    "request": {
      "method": "PUT",
      "url": "Encounter/f610c194-5a12-42c7-a87f-ab842153cd35"
    }
  }, {
    "fullUrl": "https://madie.cms.gov/MeasureReport/c97552ce-def4-4566-ad61-e13c9f1aed8a",
    "resource": {
      "resourceType": "MeasureReport",
      "id": "c97552ce-def4-4566-ad61-e13c9f1aed8a",
      "meta": {
        "profile": [ "http://hl7.org/fhir/us/cqfmeasures/StructureDefinition/test-case-cqfm" ]
      },
      "contained": [ {
        "resourceType": "Parameters",
        "id": "fb0faf3d-a8b4-43a3-a205-ea3a469cf710-parameters",
        "parameter": [ {
          "name": "subject",
          "valueString": "8e477157-81e8-4b7b-ba79-4a441a2a1109"
        } ]
      } ],
      "extension": [ {
        "url": "http://hl7.org/fhir/StructureDefinition/cqf-inputParameters",
        "valueReference": {
          "reference": "#fb0faf3d-a8b4-43a3-a205-ea3a469cf710-parameters"
        }
      }, {
        "url": "http://hl7.org/fhir/us/cqfmeasures/StructureDefinition/cqfm-testCaseDescription",
        "valueMarkdown": "Hospice encounter ends before MP"
      } ],
      "modifierExtension": [ {
        "url": "http://hl7.org/fhir/us/cqfmeasures/StructureDefinition/cqfm-isTestCase",
        "valueBoolean": true
      } ],
      "status": "complete",
      "type": "individual",
      "measure": "https://madie.cms.gov/Measure/CMS165FHIRControllingHighBP",
      "period": {
        "start": "2026-01-01",
        "end": "2026-12-31"
      },
      "group": [ {
        "id": "Group_1",
        "population": [ {
          "id": "InitialPopulation_1",
          "code": {
            "coding": [ {
              "system": "http://terminology.hl7.org/CodeSystem/measure-population",
              "code": "initial-population",
              "display": "Initial Population"
            } ]
          },
          "count": 1
        }, {
          "id": "Denominator_1",
          "code": {
            "coding": [ {
              "system": "http://terminology.hl7.org/CodeSystem/measure-population",
              "code": "denominator",
              "display": "Denominator"
            } ]
          },
          "count": 1
        }, {
          "id": "DenominatorExclusion_1",
          "code": {
            "coding": [ {
              "system": "http://terminology.hl7.org/CodeSystem/measure-population",
              "code": "denominator-exclusion",
              "display": "Denominator Exclusion"
            } ]
          },
          "count": 0
        }, {
          "id": "Numerator_1",
          "code": {
            "coding": [ {
              "system": "http://terminology.hl7.org/CodeSystem/measure-population",
              "code": "numerator",
              "display": "Numerator"
            } ]
          },
          "count": 0
        } ],
        "measureScore": {
          "value": 1.0
        }
      } ],
      "evaluatedResource": [ {
        "reference": "Patient/8e477157-81e8-4b7b-ba79-4a441a2a1109"
      }, {
        "reference": "Encounter/15559e3b-8e81-4b50-83d7-3f4740a3c948"
      }, {
        "reference": "Condition/e2dda9c7-6f25-42d1-a164-ebae0c21fe79"
      }, {
        "reference": "Encounter/f610c194-5a12-42c7-a87f-ab842153cd35"
      } ]
    },
    "request": {
      "method": "PUT",
      "url": "MeasureReport/c97552ce-def4-4566-ad61-e13c9f1aed8a"
    }
  } ]
}