{
  "resourceType": "Bundle",
  "id": "62fd4b650968f8012246afa2",
  "type": "collection",
  "entry": [ {
    "fullUrl": "https://madie.cms.gov/Patient/408f74fc-488e-4d0e-8d4b-cd3f17955b31",
    "resource": {
      "resourceType": "Patient",
      "id": "408f74fc-488e-4d0e-8d4b-cd3f17955b31",
      "meta": {
        "profile": [ "http://hl7.org/fhir/us/qicore/StructureDefinition/qicore-patient" ]
      },
      "extension": [ {
        "url": "http://hl7.org/fhir/us/core/StructureDefinition/us-core-race",
        "extension": [ {
          "url": "ombCategory",
          "valueCoding": {
            "system": "urn:oid:2.16.840.1.113883.6.238",
            "code": "1002-5",
            "display": "American Indian or Alaska Native",
            "userSelected": true
          }
        }, {
          "url": "text",
          "valueString": "American Indian or Alaska Native"
        } ]
      }, {
        "url": "http://hl7.org/fhir/us/core/StructureDefinition/us-core-ethnicity",
        "extension": [ {
          "url": "ombCategory",
          "valueCoding": {
            "system": "urn:oid:2.16.840.1.113883.6.238",
            "code": "2135-2",
            "display": "Hispanic or Latino",
            "userSelected": true
          }
        }, {
          "url": "text",
          "valueString": "Hispanic or Latino"
        } ]
      } ],
      "identifier": [ {
        "type": {
          "coding": [ {
            "system": "http://terminology.hl7.org/CodeSystem/v2-0203",
            "code": "MR"
          } ]
        },
        "system": "https://bonnie-fhir.healthit.gov/",
        "value": "62fd4b650968f8012246afa2"
      } ],
      "name": [ {
        "family": "NUMERPass",
        "given": [ "ConsReportOverlapsEndsAfterReferral" ]
      } ],
      "gender": "female",
      "birthDate": "1990-12-31"
    }
  }, {
    "fullUrl": "https://madie.cms.gov/Encounter/1aff9333-430e-4d25-a160-c183cd139715",
    "resource": {
      "resourceType": "Encounter",
      "id": "1aff9333-430e-4d25-a160-c183cd139715",
      "meta": {
        "profile": [ "http://hl7.org/fhir/us/qicore/StructureDefinition/qicore-encounter" ]
      },
      "status": "finished",
      "class": {
        "system": "http://terminology.hl7.org/CodeSystem/v3-ActCode",
        "code": "AMB",
        "display": "ambulatory"
      },
      "type": [ {
        "coding": [ {
          "system": "http://www.ama-assn.org/go/cpt",
          "version": "2021",
          "code": "99395",
          "display": "Periodic comprehensive preventive medicine reevaluation and management of an individual including an age and gender appropriate history, examination, counseling/anticipatory guidance/risk factor reduction interventions, and the ordering of laboratory/diagnostic procedures, established patient; 18-39 years",
          "userSelected": true
        } ]
      } ],
      "subject": {
        "reference": "Patient/408f74fc-488e-4d0e-8d4b-cd3f17955b31"
      },
      "period": {
        "start": "2026-01-01T00:00:00Z",
        "end": "2026-01-01T02:15:00Z"
      }
    }
  }, {
    "fullUrl": "https://madie.cms.gov/Task/8aad5852-6023-450b-a111-ecbd2b031e64",
    "resource": {
      "resourceType": "Task",
      "id": "8aad5852-6023-450b-a111-ecbd2b031e64",
      "meta": {
        "profile": [ "http://hl7.org/fhir/us/qicore/StructureDefinition/qicore-task" ]
      },
      "identifier": [ {
        "use": "official",
        "system": "http:/goodhealth.org/identifiers",
        "value": "20170201-002"
      } ],
      "basedOn": [ {
        "reference": "ServiceRequest/654c119a-ec09-4410-be83-48c5cb163a8a"
      } ],
      "status": "completed",
      "intent": "order",
      "priority": "routine",
      "code": {
        "coding": [ {
          "system": "http://hl7.org/fhir/CodeSystem/task-code",
          "code": "fulfill",
          "display": "Fulfill the focal request",
          "userSelected": true
        } ]
      },
      "for": {
        "reference": "Patient/408f74fc-488e-4d0e-8d4b-cd3f17955b31"
      },
      "executionPeriod": {
        "start": "2026-10-31T23:58:00Z",
        "end": "2026-11-01T00:01:00Z"
      },
      "reasonCode": {
        "coding": [ {
          "system": "http://loinc.org",
          "version": "2.72",
          "code": "11488-4",
          "display": "Consult note",
          "userSelected": true
        } ]
      }
    }
  }, {
    "fullUrl": "https://madie.cms.gov/ServiceRequest/654c119a-ec09-4410-be83-48c5cb163a8a",
    "resource": {
      "resourceType": "ServiceRequest",
      "id": "654c119a-ec09-4410-be83-48c5cb163a8a",
      "meta": {
        "profile": [ "http://hl7.org/fhir/us/qicore/StructureDefinition/qicore-servicerequest" ]
      },
      "status": "active",
      "intent": "order",
      "code": {
        "coding": [ {
          "system": "http://snomed.info/sct",
          "version": "http://snomed.info/sct/731000124108/version/20250301",
          "code": "103696004",
          "display": "Patient referral to specialist (procedure)",
          "userSelected": true
        } ]
      },
      "subject": {
        "reference": "Patient/408f74fc-488e-4d0e-8d4b-cd3f17955b31"
      },
      "authoredOn": "2026-10-31T23:59:00Z"
    }
  }, {
    "fullUrl": "https://madie.cms.gov/Coverage/728b467b-3a82-47a0-b623-ec3876fda49d",
    "resource": {
      "resourceType": "Coverage",
      "id": "728b467b-3a82-47a0-b623-ec3876fda49d",
      "meta": {
        "profile": [ "http://hl7.org/fhir/us/qicore/StructureDefinition/qicore-coverage" ]
      },
      "status": "active",
      "subscriberId": "123456",
      "beneficiary": {
        "reference": "Patient/408f74fc-488e-4d0e-8d4b-cd3f17955b31"
      },
      "relationship": {
        "coding": [ {
          "system": "http://terminology.hl7.org/CodeSystem/subscriber-relationship",
          "code": "self",
          "display": "Self"
        } ]
      },
      "payor": [ {
        "reference": "Organization/6c511e8a-36b7-447a-9367-cbc4dac0a7ef"
      } ]
    }
  }, {
    "fullUrl": "https://madie.cms.gov/Organization/6c511e8a-36b7-447a-9367-cbc4dac0a7ef",
    "resource": {
      "resourceType": "Organization",
      "id": "6c511e8a-36b7-447a-9367-cbc4dac0a7ef",
      "meta": {
        "profile": [ "http://hl7.org/fhir/us/qicore/StructureDefinition/qicore-organization" ]
      },
      "identifier": [ {
        "use": "temp",
        "system": "urn:oid:2.16.840.1.113883.4.4",
        "value": "21-3259825"
      } ],
      "active": true,
      "type": [ {
        "coding": [ {
          "system": "http://terminology.hl7.org/CodeSystem/organization-type",
          "code": "pay",
          "display": "Payer"
        } ]
      } ],
      "name": "Blue Cross Blue Shield of Texas",
      "telecom": [ {
        "system": "phone",
        "value": "(+1) 972-766-6900"
      } ],
      "address": [ {
        "use": "billing",
        "type": "postal",
        "line": [ "P.O. Box 660044" ],
        "city": "Dallas",
        "state": "TX",
        "postalCode": "75266-0044",
        "country": "USA"
      } ]
    }
  }, {
    "fullUrl": "https://madie.cms.gov/Practitioner/99b1cc9e-ff0f-4a66-94dc-2963ed491b92",
    "resource": {
      "resourceType": "Practitioner",
      "id": "99b1cc9e-ff0f-4a66-94dc-2963ed491b92",
      "meta": {
        "profile": [ "http://hl7.org/fhir/us/qicore/StructureDefinition/qicore-practitioner" ]
      },
      "identifier": [ {
        "system": "http://hl7.org/fhir/sid/us-npi",
        "value": "1689411712"
      } ],
      "name": [ {
        "family": "Evil",
        "prefix": [ "Dr" ]
      } ]
    }
  }, {
    "fullUrl": "https://madie.cms.gov/MeasureReport/10c4f7ab-5b2c-4ebe-8593-43e7196a62b2",
    "resource": {
      "resourceType": "MeasureReport",
      "id": "10c4f7ab-5b2c-4ebe-8593-43e7196a62b2",
      "meta": {
        "profile": [ "http://hl7.org/fhir/us/cqfmeasures/StructureDefinition/test-case-cqfm" ]
      },
      "contained": [ {
        "resourceType": "Parameters",
        "id": "803a1c34-39d9-47d8-a87e-24d59259b759-parameters",
        "parameter": [ {
          "name": "subject",
          "valueString": "408f74fc-488e-4d0e-8d4b-cd3f17955b31"
        } ]
      } ],
      "extension": [ {
        "url": "http://hl7.org/fhir/StructureDefinition/cqf-inputParameters",
        "valueReference": {
          "reference": "#803a1c34-39d9-47d8-a87e-24d59259b759-parameters"
        }
      }, {
        "url": "http://hl7.org/fhir/us/cqfmeasures/StructureDefinition/cqfm-testCaseDescription",
        "valueMarkdown": "Encounter during MP  Referral (\"202x-10-31T23:59:00.000+00:00\") during Referral period.  Consult report overlaps and ends after referral date  (\"start\" : \"202x-10-31T23:58:00.000+00:00\", \"end\" : \"202x-11-01T00:01:00.000+00:00\")\n"
      } ],
      "modifierExtension": [ {
        "url": "http://hl7.org/fhir/us/cqfmeasures/StructureDefinition/cqfm-isTestCase",
        "valueBoolean": true
      } ],
      "status": "complete",
      "type": "individual",
      "measure": "https://madie.cms.gov/Measure/CMS50FHIRReceiptofSpecialistReport",
      "period": {
        "start": "2026-01-01",
        "end": "2026-12-31"
      },
      "group": [ {
        "id": "Group_1",
        "population": [ {
          "id": "InitialPopulation_1",
          "code": {
            "coding": [ {
              "system": "http://terminology.hl7.org/CodeSystem/measure-population",
              "code": "initial-population",
              "display": "Initial Population"
            } ]
          },
          "count": 1
        }, {
          "id": "Denominator_1",
          "code": {
            "coding": [ {
              "system": "http://terminology.hl7.org/CodeSystem/measure-population",
              "code": "denominator",
              "display": "Denominator"
            } ]
          },
          "count": 1
        }, {
          "id": "Numerator_1",
          "code": {
            "coding": [ {
              "system": "http://terminology.hl7.org/CodeSystem/measure-population",
              "code": "numerator",
              "display": "Numerator"
            } ]
          },
          "count": 1
        } ],
        "measureScore": {
          "value": 1.0
        }
      } ],
      "evaluatedResource": [ {
        "reference": "Patient/408f74fc-488e-4d0e-8d4b-cd3f17955b31"
      }, {
        "reference": "Encounter/1aff9333-430e-4d25-a160-c183cd139715"
      }, {
        "reference": "Task/8aad5852-6023-450b-a111-ecbd2b031e64"
      }, {
        "reference": "ServiceRequest/654c119a-ec09-4410-be83-48c5cb163a8a"
      }, {
        "reference": "Coverage/728b467b-3a82-47a0-b623-ec3876fda49d"
      }, {
        "reference": "Organization/6c511e8a-36b7-447a-9367-cbc4dac0a7ef"
      }, {
        "reference": "Practitioner/99b1cc9e-ff0f-4a66-94dc-2963ed491b92"
      } ]
    }
  } ]
}