{
  "resourceType": "Bundle",
  "id": "863a80a15a66f70123c5664p",
  "type": "transaction",
  "entry": [ {
    "fullUrl": "https://madie.cms.gov/Patient/98100d78-c85e-4574-8213-bd06bf45b581",
    "resource": {
      "resourceType": "Patient",
      "id": "98100d78-c85e-4574-8213-bd06bf45b581",
      "meta": {
        "profile": [ "http://hl7.org/fhir/us/qicore/StructureDefinition/qicore-patient" ]
      },
      "extension": [ {
        "url": "http://hl7.org/fhir/us/core/StructureDefinition/us-core-race",
        "extension": [ {
          "url": "ombCategory",
          "valueCoding": {
            "system": "urn:oid:2.16.840.1.113883.6.238",
            "code": "2028-9",
            "display": "Asian",
            "userSelected": true
          }
        }, {
          "url": "text",
          "valueString": "Asian"
        } ]
      }, {
        "url": "http://hl7.org/fhir/us/core/StructureDefinition/us-core-ethnicity",
        "extension": [ {
          "url": "ombCategory",
          "valueCoding": {
            "system": "urn:oid:2.16.840.1.113883.6.238",
            "code": "2186-5",
            "display": "Not Hispanic or Latino",
            "userSelected": true
          }
        }, {
          "url": "text",
          "valueString": "Not Hispanic or Latino"
        } ]
      } ],
      "identifier": [ {
        "system": "http://hospital.smarthealthit.org",
        "value": "999999999"
      } ],
      "name": [ {
        "family": "NUMERFail",
        "given": [ "AntagonistbeforeOpioidEnds" ]
      } ],
      "gender": "male",
      "birthDate": "1992-08-01"
    },
    "request": {
      "method": "PUT",
      "url": "Patient/98100d78-c85e-4574-8213-bd06bf45b581"
    }
  }, {
    "fullUrl": "https://madie.cms.gov/Encounter/ba8d6872-eff8-47ee-a469-1253c870be90",
    "resource": {
      "resourceType": "Encounter",
      "id": "ba8d6872-eff8-47ee-a469-1253c870be90",
      "meta": {
        "profile": [ "http://hl7.org/fhir/us/qicore/StructureDefinition/qicore-encounter" ]
      },
      "status": "finished",
      "class": {
        "system": "http://terminology.hl7.org/CodeSystem/v3-ActCode",
        "code": "IMP",
        "display": "inpatient encounter"
      },
      "type": [ {
        "coding": [ {
          "system": "http://snomed.info/sct",
          "code": "183452005"
        } ]
      } ],
      "subject": {
        "reference": "Patient/98100d78-c85e-4574-8213-bd06bf45b581"
      },
      "period": {
        "start": "2026-02-12T08:00:00.000+00:00",
        "end": "2026-02-15T08:15:00.000+00:00"
      }
    },
    "request": {
      "method": "PUT",
      "url": "Encounter/ba8d6872-eff8-47ee-a469-1253c870be90"
    }
  }, {
    "fullUrl": "https://madie.cms.gov/MedicationAdministration/2c358eca-76b6-4cac-b769-31cc949a9ae9",
    "resource": {
      "resourceType": "MedicationAdministration",
      "id": "2c358eca-76b6-4cac-b769-31cc949a9ae9",
      "meta": {
        "profile": [ "http://hl7.org/fhir/us/qicore/StructureDefinition/qicore-medicationadministration" ]
      },
      "status": "completed",
      "medicationCodeableConcept": {
        "coding": [ {
          "system": "http://www.nlm.nih.gov/research/umls/rxnorm",
          "code": "1010600",
          "display": "Opioids, All"
        } ]
      },
      "subject": {
        "reference": "Patient/98100d78-c85e-4574-8213-bd06bf45b581"
      },
      "effectivePeriod": {
        "start": "2026-02-13T08:15:00.000+00:00",
        "end": "2026-02-13T08:30:00.000+00:00"
      }
    },
    "request": {
      "method": "PUT",
      "url": "MedicationAdministration/2c358eca-76b6-4cac-b769-31cc949a9ae9"
    }
  }, {
    "fullUrl": "https://madie.cms.gov/MedicationAdministration/fa04d1e3-a519-472a-9a43-19e1251591db",
    "resource": {
      "resourceType": "MedicationAdministration",
      "id": "fa04d1e3-a519-472a-9a43-19e1251591db",
      "meta": {
        "profile": [ "http://hl7.org/fhir/us/qicore/StructureDefinition/qicore-medicationadministration" ]
      },
      "status": "completed",
      "medicationCodeableConcept": {
        "coding": [ {
          "system": "http://www.nlm.nih.gov/research/umls/rxnorm",
          "code": "1191234",
          "display": "Opioid Antagonist"
        } ]
      },
      "subject": {
        "reference": "Patient/98100d78-c85e-4574-8213-bd06bf45b581"
      },
      "effectiveDateTime": "2026-02-13T08:15:00.000+00:00",
      "dosage": {
        "route": {
          "coding": [ {
            "system": "http://snomed.info/sct",
            "code": "34206005",
            "display": "Subcutaneous route"
          } ]
        }
      }
    },
    "request": {
      "method": "PUT",
      "url": "MedicationAdministration/fa04d1e3-a519-472a-9a43-19e1251591db"
    }
  }, {
    "fullUrl": "https://madie.cms.gov/Coverage/f5573127-3bc4-4dea-8717-7604ef5f9102",
    "resource": {
      "resourceType": "Coverage",
      "id": "f5573127-3bc4-4dea-8717-7604ef5f9102",
      "meta": {
        "profile": [ "http://hl7.org/fhir/us/qicore/StructureDefinition/qicore-coverage" ]
      },
      "status": "active",
      "subscriberId": "523435",
      "beneficiary": {
        "reference": "Patient/98100d78-c85e-4574-8213-bd06bf45b581"
      },
      "relationship": {
        "coding": [ {
          "system": "http://terminology.hl7.org/CodeSystem/subscriber-relationship",
          "code": "self"
        } ]
      },
      "payor": [ {
        "reference": "Organization/615a5e82-2057-4810-ae19-b7ac0f91c602"
      } ]
    },
    "request": {
      "method": "PUT",
      "url": "Coverage/f5573127-3bc4-4dea-8717-7604ef5f9102"
    }
  }, {
    "fullUrl": "https://madie.cms.gov/Organization/615a5e82-2057-4810-ae19-b7ac0f91c602",
    "resource": {
      "resourceType": "Organization",
      "id": "615a5e82-2057-4810-ae19-b7ac0f91c602",
      "meta": {
        "profile": [ "http://hl7.org/fhir/us/qicore/StructureDefinition/qicore-organization" ]
      },
      "identifier": [ {
        "use": "temp",
        "system": "urn:oid:2.16.840.1.113883.4.4",
        "value": "21-3259825"
      } ],
      "active": true,
      "type": [ {
        "coding": [ {
          "system": "http://terminology.hl7.org/CodeSystem/organization-type",
          "code": "pay",
          "display": "Payer"
        } ]
      } ],
      "name": "Blue Cross Blue Shield of Texas",
      "telecom": [ {
        "system": "phone",
        "value": "(+1) 972-766-6900"
      } ],
      "address": [ {
        "use": "billing",
        "type": "postal",
        "line": [ "P.O. Box 660044" ],
        "city": "Dallas",
        "state": "TX",
        "postalCode": "75266-0044",
        "country": "USA"
      } ]
    },
    "request": {
      "method": "PUT",
      "url": "Organization/615a5e82-2057-4810-ae19-b7ac0f91c602"
    }
  }, {
    "fullUrl": "https://madie.cms.gov/MeasureReport/3d54c79e-5245-48b8-b166-62d26df3b872",
    "resource": {
      "resourceType": "MeasureReport",
      "id": "3d54c79e-5245-48b8-b166-62d26df3b872",
      "meta": {
        "profile": [ "http://hl7.org/fhir/us/cqfmeasures/StructureDefinition/test-case-cqfm" ]
      },
      "contained": [ {
        "resourceType": "Parameters",
        "id": "f88d61e2-f4d6-41e6-87eb-bef14cb05a29-parameters",
        "parameter": [ {
          "name": "subject",
          "valueString": "98100d78-c85e-4574-8213-bd06bf45b581"
        } ]
      } ],
      "extension": [ {
        "url": "http://hl7.org/fhir/StructureDefinition/cqf-inputParameters",
        "valueReference": {
          "reference": "#f88d61e2-f4d6-41e6-87eb-bef14cb05a29-parameters"
        }
      }, {
        "url": "http://hl7.org/fhir/us/cqfmeasures/StructureDefinition/cqfm-testCaseDescription",
        "valueMarkdown": "Encounter-1 2/12 - 2/15, MedAdmin-1 2/13 Opioid 0815-0830, MedAdmin-2 2/31 Antagonist at 0815, before opioid administration ends"
      } ],
      "modifierExtension": [ {
        "url": "http://hl7.org/fhir/us/cqfmeasures/StructureDefinition/cqfm-isTestCase",
        "valueBoolean": true
      } ],
      "status": "complete",
      "type": "individual",
      "measure": "https://madie.cms.gov/Measure/CMS819FHIRHHORAE",
      "period": {
        "start": "2026-01-01",
        "end": "2026-12-31"
      },
      "group": [ {
        "id": "Group_1",
        "population": [ {
          "id": "InitialPopulation_1",
          "code": {
            "coding": [ {
              "system": "http://terminology.hl7.org/CodeSystem/measure-population",
              "code": "initial-population",
              "display": "Initial Population"
            } ]
          },
          "count": 1
        }, {
          "id": "Denominator_1",
          "code": {
            "coding": [ {
              "system": "http://terminology.hl7.org/CodeSystem/measure-population",
              "code": "denominator",
              "display": "Denominator"
            } ]
          },
          "count": 1
        }, {
          "id": "Numerator_1",
          "code": {
            "coding": [ {
              "system": "http://terminology.hl7.org/CodeSystem/measure-population",
              "code": "numerator",
              "display": "Numerator"
            } ]
          },
          "count": 0
        } ],
        "measureScore": {
          "value": 0.0
        }
      } ],
      "evaluatedResource": [ {
        "reference": "Patient/98100d78-c85e-4574-8213-bd06bf45b581"
      }, {
        "reference": "Encounter/ba8d6872-eff8-47ee-a469-1253c870be90"
      }, {
        "reference": "MedicationAdministration/2c358eca-76b6-4cac-b769-31cc949a9ae9"
      }, {
        "reference": "MedicationAdministration/fa04d1e3-a519-472a-9a43-19e1251591db"
      }, {
        "reference": "Coverage/f5573127-3bc4-4dea-8717-7604ef5f9102"
      }, {
        "reference": "Organization/615a5e82-2057-4810-ae19-b7ac0f91c602"
      } ]
    },
    "request": {
      "method": "PUT",
      "url": "MeasureReport/3d54c79e-5245-48b8-b166-62d26df3b872"
    }
  } ]
}