{
  "resourceType": "Bundle",
  "id": "612e6b2902c62a011f2ecaf3",
  "type": "transaction",
  "entry": [ {
    "fullUrl": "https://madie.cms.gov/Patient/a8083d97-85af-4e1e-8770-30c49a287194",
    "resource": {
      "resourceType": "Patient",
      "id": "a8083d97-85af-4e1e-8770-30c49a287194",
      "meta": {
        "profile": [ "http://hl7.org/fhir/us/qicore/StructureDefinition/qicore-patient" ]
      },
      "text": {
        "status": "generated",
        "div": "<div xmlns=\"http://www.w3.org/1999/xhtml\"><div class=\"hapiHeaderText\">VTERiskAssEndEDendOnIPEncStart <b>NUMERPASS </b></div><table class=\"hapiPropertyTable\"><tbody><tr><td>Identifier</td><td>9eeaae30f2c13f342ba722a8c92cd6bf</td></tr><tr><td>Date of birth</td><td><span>02 January 1974</span></td></tr></tbody></table></div>"
      },
      "extension": [ {
        "url": "http://hl7.org/fhir/us/core/StructureDefinition/us-core-race",
        "extension": [ {
          "url": "ombCategory",
          "valueCoding": {
            "system": "urn:oid:2.16.840.1.113883.6.238",
            "code": "1002-5",
            "display": "American Indian or Alaska Native",
            "userSelected": true
          }
        }, {
          "url": "text",
          "valueString": "American Indian or Alaska Native"
        } ]
      }, {
        "url": "http://hl7.org/fhir/us/core/StructureDefinition/us-core-ethnicity",
        "extension": [ {
          "url": "ombCategory",
          "valueCoding": {
            "system": "urn:oid:2.16.840.1.113883.6.238",
            "code": "2135-2",
            "display": "Hispanic or Latino",
            "userSelected": true
          }
        }, {
          "url": "text",
          "valueString": "Hispanic or Latino"
        } ]
      } ],
      "identifier": [ {
        "type": {
          "coding": [ {
            "system": "http://terminology.hl7.org/CodeSystem/v2-0203",
            "code": "MR"
          } ]
        },
        "system": "https://bonnie-fhir.healthit.gov/",
        "value": "612e6b2902c62a011f2ecaf3"
      } ],
      "active": true,
      "name": [ {
        "use": "usual",
        "family": "NUMERPass",
        "given": [ "VTERiskAssEndEDendOnIPEncStart" ]
      } ],
      "gender": "male",
      "birthDate": "1975-01-02"
    },
    "request": {
      "method": "PUT",
      "url": "Patient/a8083d97-85af-4e1e-8770-30c49a287194"
    }
  }, {
    "fullUrl": "https://madie.cms.gov/Encounter/891cf79a-16eb-485c-b1b4-4deb42607699",
    "resource": {
      "resourceType": "Encounter",
      "id": "891cf79a-16eb-485c-b1b4-4deb42607699",
      "meta": {
        "profile": [ "http://hl7.org/fhir/us/qicore/StructureDefinition/qicore-encounter" ]
      },
      "status": "finished",
      "class": {
        "system": "http://terminology.hl7.org/CodeSystem/v3-ActCode",
        "code": "EMER",
        "display": "emergency"
      },
      "type": [ {
        "coding": [ {
          "system": "http://snomed.info/sct",
          "code": "4525004"
        } ]
      } ],
      "subject": {
        "reference": "Patient/a8083d97-85af-4e1e-8770-30c49a287194"
      },
      "period": {
        "start": "2026-11-01T06:00:00.000+00:00",
        "end": "2026-11-01T08:00:00.000+00:00"
      },
      "length": {
        "value": 0,
        "unit": "days"
      }
    },
    "request": {
      "method": "PUT",
      "url": "Encounter/891cf79a-16eb-485c-b1b4-4deb42607699"
    }
  }, {
    "fullUrl": "https://madie.cms.gov/Encounter/33117ccf-39a4-48d5-8c9c-0f86217a8a89",
    "resource": {
      "resourceType": "Encounter",
      "id": "33117ccf-39a4-48d5-8c9c-0f86217a8a89",
      "meta": {
        "profile": [ "http://hl7.org/fhir/us/qicore/StructureDefinition/qicore-encounter" ]
      },
      "status": "finished",
      "class": {
        "system": "http://terminology.hl7.org/CodeSystem/v3-ActCode",
        "code": "IMP",
        "display": "inpatient encounter"
      },
      "type": [ {
        "coding": [ {
          "system": "http://snomed.info/sct",
          "code": "8715000"
        } ]
      } ],
      "subject": {
        "reference": "Patient/a8083d97-85af-4e1e-8770-30c49a287194"
      },
      "period": {
        "start": "2026-11-01T08:00:00.000+00:00",
        "end": "2026-11-26T08:15:00.000+00:00"
      },
      "length": {
        "value": 25,
        "unit": "days"
      }
    },
    "request": {
      "method": "PUT",
      "url": "Encounter/33117ccf-39a4-48d5-8c9c-0f86217a8a89"
    }
  }, {
    "fullUrl": "https://madie.cms.gov/Observation/045df62f-f237-4c1a-b4a5-d1b9a8667221",
    "resource": {
      "resourceType": "Observation",
      "id": "045df62f-f237-4c1a-b4a5-d1b9a8667221",
      "meta": {
        "profile": [ "http://hl7.org/fhir/us/qicore/StructureDefinition/qicore-simple-observation" ]
      },
      "status": "final",
      "category": [ {
        "coding": [ {
          "system": "http://terminology.hl7.org/CodeSystem/observation-category",
          "code": "exam",
          "display": "Exam",
          "userSelected": true
        } ]
      } ],
      "code": {
        "coding": [ {
          "system": "http://loinc.org",
          "code": "72136-5"
        } ]
      },
      "subject": {
        "reference": "Patient/a8083d97-85af-4e1e-8770-30c49a287194"
      },
      "effectivePeriod": {
        "end": "2026-11-01T07:15:00.000+00:00"
      },
      "valueCodeableConcept": {
        "coding": [ {
          "system": "http://snomed.info/sct",
          "code": "260362008",
          "display": "Low Risk"
        } ]
      }
    },
    "request": {
      "method": "PUT",
      "url": "Observation/045df62f-f237-4c1a-b4a5-d1b9a8667221"
    }
  }, {
    "fullUrl": "https://madie.cms.gov/Coverage/54547090-46c7-4b18-9144-391976f15dbd",
    "resource": {
      "resourceType": "Coverage",
      "id": "54547090-46c7-4b18-9144-391976f15dbd",
      "status": "active",
      "beneficiary": {
        "reference": "Patient/a8083d97-85af-4e1e-8770-30c49a287194"
      },
      "period": {
        "start": "1975-01-02T08:00:00.000+00:00"
      },
      "payor": [ {
        "reference": "Organization/f958d16e-f486-4f66-80f6-43de9640c1b6"
      } ]
    },
    "request": {
      "method": "PUT",
      "url": "Coverage/54547090-46c7-4b18-9144-391976f15dbd"
    }
  }, {
    "fullUrl": "https://madie.cms.gov/Organization/f958d16e-f486-4f66-80f6-43de9640c1b6",
    "resource": {
      "resourceType": "Organization",
      "id": "f958d16e-f486-4f66-80f6-43de9640c1b6",
      "meta": {
        "profile": [ "http://hl7.org/fhir/us/qicore/StructureDefinition/qicore-organization" ]
      },
      "identifier": [ {
        "use": "temp",
        "system": "urn:oid:2.16.840.1.113883.4.4",
        "value": "21-3259825"
      } ],
      "active": true,
      "type": [ {
        "coding": [ {
          "system": "http://terminology.hl7.org/CodeSystem/organization-type",
          "code": "pay",
          "display": "Payer"
        } ]
      } ],
      "name": "Blue Cross Blue Shield of Texas",
      "telecom": [ {
        "system": "phone",
        "value": "(+1) 972-766-6900"
      } ],
      "address": [ {
        "use": "billing",
        "type": "postal",
        "line": [ "P.O. Box 660044" ],
        "city": "Dallas",
        "state": "TX",
        "postalCode": "75266-0044",
        "country": "USA"
      } ]
    },
    "request": {
      "method": "PUT",
      "url": "Organization/f958d16e-f486-4f66-80f6-43de9640c1b6"
    }
  }, {
    "fullUrl": "https://madie.cms.gov/Practitioner/526ce433-c0e3-49be-a26b-d917706624e4",
    "resource": {
      "resourceType": "Practitioner",
      "id": "526ce433-c0e3-49be-a26b-d917706624e4",
      "identifier": [ {
        "system": "http://hl7.org/fhir/sid/us-npi",
        "value": "123456"
      } ],
      "name": [ {
        "family": "Evil",
        "prefix": [ "Dr" ]
      } ]
    },
    "request": {
      "method": "PUT",
      "url": "Practitioner/526ce433-c0e3-49be-a26b-d917706624e4"
    }
  }, {
    "fullUrl": "https://madie.cms.gov/MeasureReport/f70fbc87-d366-4f68-937e-bf028db59937",
    "resource": {
      "resourceType": "MeasureReport",
      "id": "f70fbc87-d366-4f68-937e-bf028db59937",
      "meta": {
        "profile": [ "http://hl7.org/fhir/us/cqfmeasures/StructureDefinition/test-case-cqfm" ]
      },
      "contained": [ {
        "resourceType": "Parameters",
        "id": "d21420c6-4ca8-4d0d-ab05-e085a332c6f3-parameters",
        "parameter": [ {
          "name": "subject",
          "valueString": "a8083d97-85af-4e1e-8770-30c49a287194"
        } ]
      } ],
      "extension": [ {
        "url": "http://hl7.org/fhir/StructureDefinition/cqf-inputParameters",
        "valueReference": {
          "reference": "#d21420c6-4ca8-4d0d-ab05-e085a332c6f3-parameters"
        }
      }, {
        "url": "http://hl7.org/fhir/us/cqfmeasures/StructureDefinition/cqfm-testCaseDescription",
        "valueMarkdown": "\">18, LOS<120 day,Risk, RCA period end (with start datetime is null)in ED, and ED.end = IP.start\n\"\n"
      } ],
      "modifierExtension": [ {
        "url": "http://hl7.org/fhir/us/cqfmeasures/StructureDefinition/cqfm-isTestCase",
        "valueBoolean": true
      } ],
      "status": "complete",
      "type": "individual",
      "measure": "https://madie.cms.gov/Measure/CMS108FHIRVTEProphylaxis",
      "period": {
        "start": "2026-01-01",
        "end": "2026-12-31"
      },
      "group": [ {
        "id": "Group_1",
        "population": [ {
          "id": "InitialPopulation_1",
          "code": {
            "coding": [ {
              "system": "http://terminology.hl7.org/CodeSystem/measure-population",
              "code": "initial-population",
              "display": "Initial Population"
            } ]
          },
          "count": 1
        }, {
          "id": "Denominator_1",
          "code": {
            "coding": [ {
              "system": "http://terminology.hl7.org/CodeSystem/measure-population",
              "code": "denominator",
              "display": "Denominator"
            } ]
          },
          "count": 1
        }, {
          "id": "DenominatorExclusion_1",
          "code": {
            "coding": [ {
              "system": "http://terminology.hl7.org/CodeSystem/measure-population",
              "code": "denominator-exclusion",
              "display": "Denominator Exclusion"
            } ]
          },
          "count": 0
        }, {
          "id": "Numerator_1",
          "code": {
            "coding": [ {
              "system": "http://terminology.hl7.org/CodeSystem/measure-population",
              "code": "numerator",
              "display": "Numerator"
            } ]
          },
          "count": 1
        } ],
        "measureScore": {
          "value": 0.0
        }
      } ],
      "evaluatedResource": [ {
        "reference": "Patient/a8083d97-85af-4e1e-8770-30c49a287194"
      }, {
        "reference": "Encounter/891cf79a-16eb-485c-b1b4-4deb42607699"
      }, {
        "reference": "Encounter/33117ccf-39a4-48d5-8c9c-0f86217a8a89"
      }, {
        "reference": "Observation/045df62f-f237-4c1a-b4a5-d1b9a8667221"
      }, {
        "reference": "Coverage/54547090-46c7-4b18-9144-391976f15dbd"
      }, {
        "reference": "Organization/f958d16e-f486-4f66-80f6-43de9640c1b6"
      }, {
        "reference": "Practitioner/526ce433-c0e3-49be-a26b-d917706624e4"
      } ]
    },
    "request": {
      "method": "PUT",
      "url": "MeasureReport/f70fbc87-d366-4f68-937e-bf028db59937"
    }
  } ]
}