{
  "resourceType": "Bundle",
  "id": "DENEXPass-MechCompDxOverlapsTHAProcInt",
  "type": "collection",
  "entry": [ {
    "fullUrl": "https://madie.cms.gov/Patient/fda5d4a4-d610-472f-a5f8-c4a31a25c170",
    "resource": {
      "resourceType": "Patient",
      "id": "fda5d4a4-d610-472f-a5f8-c4a31a25c170",
      "meta": {
        "profile": [ "http://hl7.org/fhir/us/qicore/StructureDefinition/qicore-patient" ]
      },
      "extension": [ {
        "url": "http://hl7.org/fhir/us/core/StructureDefinition/us-core-race",
        "extension": [ {
          "url": "ombCategory",
          "valueCoding": {
            "system": "urn:oid:2.16.840.1.113883.6.238",
            "code": "2028-9",
            "display": "Asian"
          }
        }, {
          "url": "text",
          "valueString": "Asian"
        } ]
      }, {
        "url": "http://hl7.org/fhir/us/core/StructureDefinition/us-core-ethnicity",
        "extension": [ {
          "url": "ombCategory",
          "valueCoding": {
            "system": "urn:oid:2.16.840.1.113883.6.238",
            "code": "2135-2",
            "display": "Hispanic or Latino"
          }
        }, {
          "url": "text",
          "valueString": "Hispanic or Latino"
        } ]
      } ],
      "identifier": [ {
        "system": "http://hospital.smarthealthit.org",
        "value": "999999995"
      } ],
      "name": [ {
        "family": "Bertha",
        "given": [ "Betty" ]
      } ],
      "gender": "female",
      "birthDate": "2007-01-01"
    }
  }, {
    "fullUrl": "https://madie.cms.gov/Procedure/3d1ed47f-ed2a-41c7-83a9-f445d2416417",
    "resource": {
      "resourceType": "Procedure",
      "id": "3d1ed47f-ed2a-41c7-83a9-f445d2416417",
      "meta": {
        "profile": [ "http://hl7.org/fhir/us/qicore/StructureDefinition/qicore-procedure" ]
      },
      "extension": [ {
        "url": "http://hl7.org/fhir/us/qicore/StructureDefinition/qicore-recorded",
        "valueDateTime": "2026-01-15T00:00:00.000+00:00"
      } ],
      "status": "completed",
      "code": {
        "coding": [ {
          "system": "http://www.cms.gov/Medicare/Coding/ICD10",
          "code": "0SR9019",
          "display": "Replacement of Right Hip Joint with Metal Synthetic Substitute, Cemented, Open Approach"
        } ]
      },
      "subject": {
        "reference": "Patient/fda5d4a4-d610-472f-a5f8-c4a31a25c170"
      },
      "performedPeriod": {
        "start": "2024-11-01T00:00:00.000+00:00",
        "end": "2024-11-01T01:00:00.000+00:00"
      }
    }
  }, {
    "fullUrl": "https://madie.cms.gov/Encounter/eccf14a8-41d6-4806-9694-e3273f8ccd4a",
    "resource": {
      "resourceType": "Encounter",
      "id": "eccf14a8-41d6-4806-9694-e3273f8ccd4a",
      "meta": {
        "profile": [ "http://hl7.org/fhir/us/qicore/StructureDefinition/qicore-encounter" ]
      },
      "status": "finished",
      "class": {
        "system": "http://terminology.hl7.org/CodeSystem/v3-ActCode",
        "code": "AMB",
        "display": "ambulatory"
      },
      "type": [ {
        "coding": [ {
          "system": "http://snomed.info/sct",
          "version": "http://snomed.info/sct/731000124108/version/20250301",
          "code": "281036007",
          "display": "Follow-up consultation (procedure)"
        } ]
      } ],
      "subject": {
        "reference": "Patient/fda5d4a4-d610-472f-a5f8-c4a31a25c170"
      },
      "period": {
        "start": "2025-11-01T00:00:00.000+00:00",
        "end": "2025-11-01T01:15:00.000+00:00"
      }
    }
  }, {
    "fullUrl": "https://madie.cms.gov/Condition/37915997-388f-4464-b8ca-d361cb7d6e58",
    "resource": {
      "resourceType": "Condition",
      "id": "37915997-388f-4464-b8ca-d361cb7d6e58",
      "meta": {
        "profile": [ "http://hl7.org/fhir/us/qicore/StructureDefinition/qicore-condition-encounter-diagnosis" ]
      },
      "clinicalStatus": {
        "coding": [ {
          "system": "http://terminology.hl7.org/CodeSystem/condition-clinical",
          "code": "active"
        } ]
      },
      "category": [ {
        "coding": [ {
          "system": "http://terminology.hl7.org/CodeSystem/condition-category",
          "code": "encounter-diagnosis",
          "display": "Encounter Diagnosis"
        } ]
      } ],
      "code": {
        "coding": [ {
          "system": "http://snomed.info/sct",
          "version": "http://snomed.info/sct/731000124108/version/20250301",
          "code": "12077001000119100",
          "display": "Dislocation of left hip joint prosthesis"
        } ]
      },
      "subject": {
        "reference": "Patient/fda5d4a4-d610-472f-a5f8-c4a31a25c170"
      },
      "onsetDateTime": "2024-11-01T00:00:00.000+00:00"
    }
  }, {
    "fullUrl": "https://madie.cms.gov/MeasureReport/aea5c95b-a013-4e85-bd8c-1035c7b399da",
    "resource": {
      "resourceType": "MeasureReport",
      "id": "aea5c95b-a013-4e85-bd8c-1035c7b399da",
      "meta": {
        "profile": [ "http://hl7.org/fhir/us/cqfmeasures/StructureDefinition/test-case-cqfm" ]
      },
      "contained": [ {
        "resourceType": "Parameters",
        "id": "cf3abb22-2081-4311-819f-f3102a462cf3-parameters",
        "parameter": [ {
          "name": "subject",
          "valueString": "fda5d4a4-d610-472f-a5f8-c4a31a25c170"
        } ]
      } ],
      "extension": [ {
        "url": "http://hl7.org/fhir/StructureDefinition/cqf-inputParameters",
        "valueReference": {
          "reference": "#cf3abb22-2081-4311-819f-f3102a462cf3-parameters"
        }
      }, {
        "url": "http://hl7.org/fhir/us/cqfmeasures/StructureDefinition/cqfm-testCaseDescription",
        "valueMarkdown": "Patient has Dx of Mechanical Complications that overlaps THAProcedure Interval"
      } ],
      "modifierExtension": [ {
        "url": "http://hl7.org/fhir/us/cqfmeasures/StructureDefinition/cqfm-isTestCase",
        "valueBoolean": true
      } ],
      "status": "complete",
      "type": "individual",
      "measure": "https://madie.cms.gov/Measure/CMS56FHIRFuncStatHipReplacement",
      "period": {
        "start": "2026-01-01",
        "end": "2026-12-31"
      },
      "group": [ {
        "id": "Group_1",
        "population": [ {
          "id": "InitialPopulation_1",
          "code": {
            "coding": [ {
              "system": "http://terminology.hl7.org/CodeSystem/measure-population",
              "code": "initial-population",
              "display": "Initial Population"
            } ]
          },
          "count": 1
        }, {
          "id": "Denominator_1",
          "code": {
            "coding": [ {
              "system": "http://terminology.hl7.org/CodeSystem/measure-population",
              "code": "denominator",
              "display": "Denominator"
            } ]
          },
          "count": 1
        }, {
          "id": "DenominatorExclusion_1",
          "code": {
            "coding": [ {
              "system": "http://terminology.hl7.org/CodeSystem/measure-population",
              "code": "denominator-exclusion",
              "display": "Denominator Exclusion"
            } ]
          },
          "count": 1
        }, {
          "id": "Numerator_1",
          "code": {
            "coding": [ {
              "system": "http://terminology.hl7.org/CodeSystem/measure-population",
              "code": "numerator",
              "display": "Numerator"
            } ]
          },
          "count": 0
        } ],
        "measureScore": {
          "value": 1.0
        }
      } ],
      "evaluatedResource": [ {
        "reference": "Patient/fda5d4a4-d610-472f-a5f8-c4a31a25c170"
      }, {
        "reference": "Procedure/3d1ed47f-ed2a-41c7-83a9-f445d2416417"
      }, {
        "reference": "Encounter/eccf14a8-41d6-4806-9694-e3273f8ccd4a"
      }, {
        "reference": "Condition/37915997-388f-4464-b8ca-d361cb7d6e58"
      } ]
    }
  } ]
}