{
  "resourceType": "Bundle",
  "id": "62fd4b6a0968f8012246b316",
  "type": "collection",
  "entry": [ {
    "fullUrl": "https://madie.cms.gov/Patient/929d656d-006c-46c3-81c5-6ca1c82146d2",
    "resource": {
      "resourceType": "Patient",
      "id": "929d656d-006c-46c3-81c5-6ca1c82146d2",
      "meta": {
        "profile": [ "http://hl7.org/fhir/us/qicore/StructureDefinition/qicore-patient" ]
      },
      "extension": [ {
        "url": "http://hl7.org/fhir/us/core/StructureDefinition/us-core-race",
        "extension": [ {
          "url": "ombCategory",
          "valueCoding": {
            "system": "urn:oid:2.16.840.1.113883.6.238",
            "code": "1002-5",
            "display": "American Indian or Alaska Native",
            "userSelected": true
          }
        }, {
          "url": "text",
          "valueString": "American Indian or Alaska Native"
        } ]
      }, {
        "url": "http://hl7.org/fhir/us/core/StructureDefinition/us-core-ethnicity",
        "extension": [ {
          "url": "ombCategory",
          "valueCoding": {
            "system": "urn:oid:2.16.840.1.113883.6.238",
            "code": "2135-2",
            "display": "Hispanic or Latino",
            "userSelected": true
          }
        }, {
          "url": "text",
          "valueString": "Hispanic or Latino"
        } ]
      } ],
      "identifier": [ {
        "type": {
          "coding": [ {
            "system": "http://terminology.hl7.org/CodeSystem/v2-0203",
            "code": "MR"
          } ]
        },
        "system": "https://bonnie-fhir.healthit.gov/",
        "value": "62fd4b6a0968f8012246b316"
      } ],
      "name": [ {
        "family": "NUMERFail",
        "given": [ "2ndReferralWithConsReport" ]
      } ],
      "gender": "female",
      "birthDate": "1990-12-31"
    }
  }, {
    "fullUrl": "https://madie.cms.gov/Task/dd739d48-0d3c-47b2-a286-2b5246b2a977",
    "resource": {
      "resourceType": "Task",
      "id": "dd739d48-0d3c-47b2-a286-2b5246b2a977",
      "meta": {
        "profile": [ "http://hl7.org/fhir/us/qicore/StructureDefinition/qicore-task" ]
      },
      "identifier": [ {
        "use": "official",
        "system": "http:/goodhealth.org/identifiers",
        "value": "20170201-002"
      } ],
      "basedOn": [ {
        "reference": "ServiceRequest/44a90252-3965-448e-9ab2-8c206fc1cde7"
      } ],
      "status": "completed",
      "intent": "order",
      "priority": "routine",
      "code": {
        "coding": [ {
          "system": "http://loinc.org",
          "version": "2.72",
          "code": "11488-4",
          "display": "Consult note",
          "userSelected": true
        } ]
      },
      "for": {
        "reference": "Patient/929d656d-006c-46c3-81c5-6ca1c82146d2"
      },
      "executionPeriod": {
        "start": "2026-06-06T08:00:00.000+00:00",
        "end": "2026-06-06T08:15:00.000+00:00"
      }
    }
  }, {
    "fullUrl": "https://madie.cms.gov/ServiceRequest/44a90252-3965-448e-9ab2-8c206fc1cde7",
    "resource": {
      "resourceType": "ServiceRequest",
      "id": "44a90252-3965-448e-9ab2-8c206fc1cde7",
      "meta": {
        "profile": [ "http://hl7.org/fhir/us/qicore/StructureDefinition/qicore-servicerequest" ]
      },
      "status": "active",
      "intent": "order",
      "code": {
        "coding": [ {
          "system": "http://snomed.info/sct",
          "version": "http://snomed.info/sct/731000124108/version/20250301",
          "code": "103696004",
          "display": "Patient referral to specialist (procedure)",
          "userSelected": true
        } ]
      },
      "subject": {
        "reference": "Patient/929d656d-006c-46c3-81c5-6ca1c82146d2"
      },
      "authoredOn": "2026-06-06T08:00:00.000+00:00"
    }
  }, {
    "fullUrl": "https://madie.cms.gov/Task/789f8535-226d-451c-a8ec-421c46d3882b",
    "resource": {
      "resourceType": "Task",
      "id": "789f8535-226d-451c-a8ec-421c46d3882b",
      "meta": {
        "profile": [ "http://hl7.org/fhir/us/qicore/StructureDefinition/qicore-task" ]
      },
      "identifier": [ {
        "use": "official",
        "system": "http:/goodhealth.org/identifiers",
        "value": "20170201-002"
      } ],
      "basedOn": [ {
        "reference": "ServiceRequest/f54ba05f-af54-450e-b249-ceb82040f495"
      } ],
      "status": "failed",
      "intent": "order",
      "priority": "routine",
      "code": {
        "coding": [ {
          "system": "http://loinc.org",
          "version": "2.72",
          "code": "11488-4",
          "display": "Consult note",
          "userSelected": true
        } ]
      },
      "for": {
        "reference": "Patient/929d656d-006c-46c3-81c5-6ca1c82146d2"
      },
      "executionPeriod": {
        "start": "2026-06-09T08:00:00.000+00:00",
        "end": "2026-06-09T08:15:00.000+00:00"
      }
    }
  }, {
    "fullUrl": "https://madie.cms.gov/ServiceRequest/f54ba05f-af54-450e-b249-ceb82040f495",
    "resource": {
      "resourceType": "ServiceRequest",
      "id": "f54ba05f-af54-450e-b249-ceb82040f495",
      "meta": {
        "profile": [ "http://hl7.org/fhir/us/qicore/StructureDefinition/qicore-servicerequest" ]
      },
      "status": "active",
      "intent": "order",
      "code": {
        "coding": [ {
          "system": "http://snomed.info/sct",
          "version": "http://snomed.info/sct/731000124108/version/20250301",
          "code": "103696004",
          "display": "Patient referral to specialist (procedure)",
          "userSelected": true
        } ]
      },
      "subject": {
        "reference": "Patient/929d656d-006c-46c3-81c5-6ca1c82146d2"
      },
      "authoredOn": "2026-01-09T08:00:00.000+00:00"
    }
  }, {
    "fullUrl": "https://madie.cms.gov/Encounter/dcd26544-0e34-4b96-994f-d052897fb86d",
    "resource": {
      "resourceType": "Encounter",
      "id": "dcd26544-0e34-4b96-994f-d052897fb86d",
      "meta": {
        "profile": [ "http://hl7.org/fhir/us/qicore/StructureDefinition/qicore-encounter" ]
      },
      "status": "finished",
      "class": {
        "system": "http://terminology.hl7.org/CodeSystem/v3-ActCode",
        "code": "AMB",
        "display": "ambulatory"
      },
      "type": [ {
        "coding": [ {
          "system": "http://snomed.info/sct",
          "version": "2022-03",
          "code": "359960003",
          "display": "Ophthalmologic examination and evaluation under general anesthesia, limited (procedure)",
          "userSelected": true
        } ]
      } ],
      "subject": {
        "reference": "Patient/929d656d-006c-46c3-81c5-6ca1c82146d2"
      },
      "period": {
        "start": "2026-05-27T08:00:00.000+00:00",
        "end": "2026-05-27T09:15:00.000+00:00"
      }
    }
  }, {
    "fullUrl": "https://madie.cms.gov/Coverage/b694860a-c9c0-422f-893c-3ebf347963f9",
    "resource": {
      "resourceType": "Coverage",
      "id": "b694860a-c9c0-422f-893c-3ebf347963f9",
      "meta": {
        "profile": [ "http://hl7.org/fhir/us/qicore/StructureDefinition/qicore-coverage" ]
      },
      "status": "active",
      "subscriberId": "123456",
      "beneficiary": {
        "reference": "Patient/929d656d-006c-46c3-81c5-6ca1c82146d2"
      },
      "relationship": {
        "coding": [ {
          "system": "http://terminology.hl7.org/CodeSystem/subscriber-relationship",
          "code": "self",
          "display": "Self"
        } ]
      },
      "payor": [ {
        "reference": "Organization/9cca060f-2059-4fcc-96da-2f6501e0af94"
      } ]
    }
  }, {
    "fullUrl": "https://madie.cms.gov/Organization/9cca060f-2059-4fcc-96da-2f6501e0af94",
    "resource": {
      "resourceType": "Organization",
      "id": "9cca060f-2059-4fcc-96da-2f6501e0af94",
      "meta": {
        "profile": [ "http://hl7.org/fhir/us/qicore/StructureDefinition/qicore-organization" ]
      },
      "identifier": [ {
        "use": "temp",
        "system": "urn:oid:2.16.840.1.113883.4.4",
        "value": "21-3259825"
      } ],
      "active": true,
      "type": [ {
        "coding": [ {
          "system": "http://terminology.hl7.org/CodeSystem/organization-type",
          "code": "pay",
          "display": "Payer"
        } ]
      } ],
      "name": "Blue Cross Blue Shield of Texas",
      "telecom": [ {
        "system": "phone",
        "value": "(+1) 972-766-6900"
      } ],
      "address": [ {
        "use": "billing",
        "type": "postal",
        "line": [ "P.O. Box 660044" ],
        "city": "Dallas",
        "state": "TX",
        "postalCode": "75266-0044",
        "country": "USA"
      } ]
    }
  }, {
    "fullUrl": "https://madie.cms.gov/Practitioner/d4263b26-d845-41ce-a6d3-54a7f8f4decf",
    "resource": {
      "resourceType": "Practitioner",
      "id": "d4263b26-d845-41ce-a6d3-54a7f8f4decf",
      "meta": {
        "profile": [ "http://hl7.org/fhir/us/qicore/StructureDefinition/qicore-practitioner" ]
      },
      "identifier": [ {
        "system": "http://hl7.org/fhir/sid/us-npi",
        "value": "1689411712"
      } ],
      "name": [ {
        "family": "Evil",
        "prefix": [ "Dr" ]
      } ]
    }
  }, {
    "fullUrl": "https://madie.cms.gov/MeasureReport/cbb4175c-7cb0-437d-8b49-70ca424312ce",
    "resource": {
      "resourceType": "MeasureReport",
      "id": "cbb4175c-7cb0-437d-8b49-70ca424312ce",
      "meta": {
        "profile": [ "http://hl7.org/fhir/us/cqfmeasures/StructureDefinition/test-case-cqfm" ]
      },
      "contained": [ {
        "resourceType": "Parameters",
        "id": "4bbc05fa-6f28-4bbf-bd92-bb21cee480e2-parameters",
        "parameter": [ {
          "name": "subject",
          "valueString": "929d656d-006c-46c3-81c5-6ca1c82146d2"
        } ]
      } ],
      "extension": [ {
        "url": "http://hl7.org/fhir/StructureDefinition/cqf-inputParameters",
        "valueReference": {
          "reference": "#4bbc05fa-6f28-4bbf-bd92-bb21cee480e2-parameters"
        }
      }, {
        "url": "http://hl7.org/fhir/us/cqfmeasures/StructureDefinition/cqfm-testCaseDescription",
        "valueMarkdown": "Patient with Preventive Care Services encounter with 2nd referral closed.  First referral not closed,  status of failed. "
      } ],
      "modifierExtension": [ {
        "url": "http://hl7.org/fhir/us/cqfmeasures/StructureDefinition/cqfm-isTestCase",
        "valueBoolean": true
      } ],
      "status": "complete",
      "type": "individual",
      "measure": "https://madie.cms.gov/Measure/CMS50FHIRReceiptofSpecialistReport",
      "period": {
        "start": "2026-01-01",
        "end": "2026-12-31"
      },
      "group": [ {
        "id": "Group_1",
        "population": [ {
          "id": "InitialPopulation_1",
          "code": {
            "coding": [ {
              "system": "http://terminology.hl7.org/CodeSystem/measure-population",
              "code": "initial-population",
              "display": "Initial Population"
            } ]
          },
          "count": 1
        }, {
          "id": "Denominator_1",
          "code": {
            "coding": [ {
              "system": "http://terminology.hl7.org/CodeSystem/measure-population",
              "code": "denominator",
              "display": "Denominator"
            } ]
          },
          "count": 1
        }, {
          "id": "Numerator_1",
          "code": {
            "coding": [ {
              "system": "http://terminology.hl7.org/CodeSystem/measure-population",
              "code": "numerator",
              "display": "Numerator"
            } ]
          },
          "count": 0
        } ],
        "measureScore": {
          "value": 1.0
        }
      } ],
      "evaluatedResource": [ {
        "reference": "Patient/929d656d-006c-46c3-81c5-6ca1c82146d2"
      }, {
        "reference": "Task/dd739d48-0d3c-47b2-a286-2b5246b2a977"
      }, {
        "reference": "ServiceRequest/44a90252-3965-448e-9ab2-8c206fc1cde7"
      }, {
        "reference": "Task/789f8535-226d-451c-a8ec-421c46d3882b"
      }, {
        "reference": "ServiceRequest/f54ba05f-af54-450e-b249-ceb82040f495"
      }, {
        "reference": "Encounter/dcd26544-0e34-4b96-994f-d052897fb86d"
      }, {
        "reference": "Coverage/b694860a-c9c0-422f-893c-3ebf347963f9"
      }, {
        "reference": "Organization/9cca060f-2059-4fcc-96da-2f6501e0af94"
      }, {
        "reference": "Practitioner/d4263b26-d845-41ce-a6d3-54a7f8f4decf"
      } ]
    }
  } ]
}