{
  "resourceType": "Bundle",
  "id": "6109650598086b538055a108",
  "type": "transaction",
  "entry": [ {
    "fullUrl": "https://madie.cms.gov/Patient/970a0429-b9e6-4295-a831-24bce2bf813f",
    "resource": {
      "resourceType": "Patient",
      "id": "970a0429-b9e6-4295-a831-24bce2bf813f",
      "meta": {
        "profile": [ "http://hl7.org/fhir/us/qicore/StructureDefinition/qicore-patient" ]
      },
      "text": {
        "status": "generated",
        "div": "<div xmlns=\"http://www.w3.org/1999/xhtml\"><div class=\"hapiHeaderText\">Age17AtStartMP <b>IPPFAIL </b></div><table class=\"hapiPropertyTable\"><tbody><tr><td>Identifier</td><td>313ec60f1f411a43b176d65c99f547504942224148394584268af437cb1ae473</td></tr><tr><td>Date of birth</td><td><span>01 January 1995</span></td></tr></tbody></table></div>"
      },
      "extension": [ {
        "url": "http://hl7.org/fhir/us/core/StructureDefinition/us-core-race",
        "extension": [ {
          "url": "ombCategory",
          "valueCoding": {
            "system": "urn:oid:2.16.840.1.113883.6.238",
            "code": "2054-5",
            "display": "Black or African American",
            "userSelected": true
          }
        }, {
          "url": "text",
          "valueString": "Black or African American"
        } ]
      }, {
        "url": "http://hl7.org/fhir/us/core/StructureDefinition/us-core-ethnicity",
        "extension": [ {
          "url": "ombCategory",
          "valueCoding": {
            "system": "urn:oid:2.16.840.1.113883.6.238",
            "code": "2186-5",
            "display": "Not Hispanic or Latino",
            "userSelected": true
          }
        }, {
          "url": "text",
          "valueString": "Not Hispanic or Latino"
        } ]
      } ],
      "identifier": [ {
        "type": {
          "coding": [ {
            "system": "http://terminology.hl7.org/CodeSystem/v2-0203",
            "code": "MR"
          } ]
        },
        "system": "https://bonnie-fhir.healthit.gov/",
        "value": "6109650598086b538055a108"
      } ],
      "active": true,
      "name": [ {
        "use": "usual",
        "family": "IPFail",
        "given": [ "Age6YrAtStartMP" ]
      } ],
      "gender": "male",
      "birthDate": "2021-09-01"
    },
    "request": {
      "method": "PUT",
      "url": "Patient/970a0429-b9e6-4295-a831-24bce2bf813f"
    }
  }, {
    "fullUrl": "https://madie.cms.gov/Encounter/4b0abbec-4bc9-429d-8547-e5e7eb1d4c13",
    "resource": {
      "resourceType": "Encounter",
      "id": "4b0abbec-4bc9-429d-8547-e5e7eb1d4c13",
      "status": "finished",
      "class": {
        "system": "http://terminology.hl7.org/CodeSystem/v3-ActCode",
        "code": "AMB",
        "display": "ambulatory",
        "userSelected": true
      },
      "type": [ {
        "coding": [ {
          "system": "http://www.ama-assn.org/go/cpt",
          "code": "90832"
        } ]
      } ],
      "subject": {
        "reference": "Patient/970a0429-b9e6-4295-a831-24bce2bf813f"
      },
      "period": {
        "start": "2027-07-12T11:45:00.000+00:00",
        "end": "2027-07-12T11:45:00.000+00:00"
      },
      "length": {
        "value": 0.0,
        "unit": "days"
      },
      "diagnosis": [ {
        "condition": {
          "reference": "Condition/d06cc9a8-8270-42fd-a7e7-05df7538541a"
        },
        "use": {
          "coding": [ {
            "system": "http://snomed.info/sct",
            "code": "10811161000119107",
            "display": "Major Depressive Disorder-Active"
          } ]
        }
      } ]
    },
    "request": {
      "method": "PUT",
      "url": "Encounter/4b0abbec-4bc9-429d-8547-e5e7eb1d4c13"
    }
  }, {
    "fullUrl": "https://madie.cms.gov/Procedure/63a56425-a790-4e84-bf19-a729a5beb0ec",
    "resource": {
      "resourceType": "Procedure",
      "id": "63a56425-a790-4e84-bf19-a729a5beb0ec",
      "status": "completed",
      "code": {
        "coding": [ {
          "system": "http://snomed.info/sct",
          "code": "225337009"
        } ]
      },
      "subject": {
        "reference": "Patient/970a0429-b9e6-4295-a831-24bce2bf813f"
      },
      "performedPeriod": {
        "start": "2027-07-12T11:46:00.000+00:00",
        "end": "2027-07-12T11:49:00.000+00:00"
      }
    },
    "request": {
      "method": "PUT",
      "url": "Procedure/63a56425-a790-4e84-bf19-a729a5beb0ec"
    }
  }, {
    "fullUrl": "https://madie.cms.gov/Condition/d06cc9a8-8270-42fd-a7e7-05df7538541a",
    "resource": {
      "resourceType": "Condition",
      "id": "d06cc9a8-8270-42fd-a7e7-05df7538541a",
      "category": [ {
        "coding": [ {
          "system": "http://terminology.hl7.org/CodeSystem/condition-category",
          "code": "encounter-diagnosis",
          "display": "encounter-diagnosis",
          "userSelected": true
        } ]
      } ],
      "code": {
        "coding": [ {
          "system": "http://snomed.info/sct",
          "code": "10811161000119107",
          "userSelected": true
        } ]
      },
      "subject": {
        "reference": "Patient/970a0429-b9e6-4295-a831-24bce2bf813f"
      },
      "recordedDate": "2027-08-17T08:00:00.000+00:00"
    },
    "request": {
      "method": "PUT",
      "url": "Condition/d06cc9a8-8270-42fd-a7e7-05df7538541a"
    }
  }, {
    "fullUrl": "https://madie.cms.gov/Coverage/88ca5034-a5f0-461a-a052-332a011899a3",
    "resource": {
      "resourceType": "Coverage",
      "id": "88ca5034-a5f0-461a-a052-332a011899a3",
      "status": "active",
      "type": {
        "coding": [ {
          "system": "http://www.nlm.nih.gov/research/umls/sop",
          "code": "141",
          "userSelected": true
        } ]
      },
      "beneficiary": {
        "reference": "Patient/970a0429-b9e6-4295-a831-24bce2bf813f"
      },
      "period": {
        "start": "2027-03-29T08:00:00.000+00:00",
        "end": "2027-11-29T08:15:00.000+00:00"
      },
      "payor": [ {
        "reference": "Organization/86a30eff-5fd4-4911-b399-a7db10ac5cd5"
      } ]
    },
    "request": {
      "method": "PUT",
      "url": "Coverage/88ca5034-a5f0-461a-a052-332a011899a3"
    }
  }, {
    "fullUrl": "https://madie.cms.gov/Organization/86a30eff-5fd4-4911-b399-a7db10ac5cd5",
    "resource": {
      "resourceType": "Organization",
      "id": "86a30eff-5fd4-4911-b399-a7db10ac5cd5",
      "meta": {
        "profile": [ "http://hl7.org/fhir/us/qicore/StructureDefinition/qicore-organization" ]
      },
      "identifier": [ {
        "use": "temp",
        "system": "urn:oid:2.16.840.1.113883.4.4",
        "value": "21-3259825"
      } ],
      "active": true,
      "type": [ {
        "coding": [ {
          "system": "http://terminology.hl7.org/CodeSystem/organization-type",
          "code": "pay",
          "display": "Payer"
        } ]
      } ],
      "name": "Blue Cross Blue Shield of Texas",
      "telecom": [ {
        "system": "phone",
        "value": "(+1) 972-766-6900"
      } ],
      "address": [ {
        "use": "billing",
        "type": "postal",
        "line": [ "P.O. Box 660044" ],
        "city": "Dallas",
        "state": "TX",
        "postalCode": "75266-0044",
        "country": "USA"
      } ]
    },
    "request": {
      "method": "PUT",
      "url": "Organization/86a30eff-5fd4-4911-b399-a7db10ac5cd5"
    }
  }, {
    "fullUrl": "https://madie.cms.gov/Practitioner/c65d60a9-9608-4c53-b517-8ef208cc8d7d",
    "resource": {
      "resourceType": "Practitioner",
      "id": "c65d60a9-9608-4c53-b517-8ef208cc8d7d",
      "identifier": [ {
        "system": "http://hl7.org/fhir/sid/us-npi",
        "value": "123456"
      } ],
      "name": [ {
        "family": "Evil",
        "prefix": [ "Dr" ]
      } ]
    },
    "request": {
      "method": "PUT",
      "url": "Practitioner/c65d60a9-9608-4c53-b517-8ef208cc8d7d"
    }
  }, {
    "fullUrl": "https://madie.cms.gov/MeasureReport/fd15bb39-d8ff-4b5b-87bb-8151bf41f4c6",
    "resource": {
      "resourceType": "MeasureReport",
      "id": "fd15bb39-d8ff-4b5b-87bb-8151bf41f4c6",
      "meta": {
        "profile": [ "http://hl7.org/fhir/us/cqfmeasures/StructureDefinition/test-case-cqfm" ]
      },
      "contained": [ {
        "resourceType": "Parameters",
        "id": "82f14a91-d77d-4175-b67c-f77e587d0acb-parameters",
        "parameter": [ {
          "name": "subject",
          "valueString": "970a0429-b9e6-4295-a831-24bce2bf813f"
        } ]
      } ],
      "extension": [ {
        "url": "http://hl7.org/fhir/StructureDefinition/cqf-inputParameters",
        "valueReference": {
          "reference": "#82f14a91-d77d-4175-b67c-f77e587d0acb-parameters"
        }
      }, {
        "url": "http://hl7.org/fhir/us/cqfmeasures/StructureDefinition/cqfm-testCaseDescription",
        "valueMarkdown": "Patient is 6 years, 4 months at start of MP with  Psychoanalysis encounter and Depression Diagnosis recorded during MP"
      } ],
      "modifierExtension": [ {
        "url": "http://hl7.org/fhir/us/cqfmeasures/StructureDefinition/cqfm-isTestCase",
        "valueBoolean": true
      } ],
      "status": "complete",
      "type": "individual",
      "measure": "https://madie.cms.gov/Measure/CMS177FHIRChildMDDSuicideAssmt",
      "period": {
        "start": "2026-01-01",
        "end": "2026-12-31"
      },
      "group": [ {
        "id": "Group_1",
        "population": [ {
          "id": "InitialPopulation_1",
          "code": {
            "coding": [ {
              "system": "http://terminology.hl7.org/CodeSystem/measure-population",
              "code": "initial-population",
              "display": "Initial Population"
            } ]
          },
          "count": 0
        }, {
          "id": "Denominator_1",
          "code": {
            "coding": [ {
              "system": "http://terminology.hl7.org/CodeSystem/measure-population",
              "code": "denominator",
              "display": "Denominator"
            } ]
          },
          "count": 0
        }, {
          "id": "Numerator_1",
          "code": {
            "coding": [ {
              "system": "http://terminology.hl7.org/CodeSystem/measure-population",
              "code": "numerator",
              "display": "Numerator"
            } ]
          },
          "count": 0
        } ],
        "measureScore": {
          "value": 0.0
        }
      } ],
      "evaluatedResource": [ {
        "reference": "Patient/970a0429-b9e6-4295-a831-24bce2bf813f"
      }, {
        "reference": "Encounter/4b0abbec-4bc9-429d-8547-e5e7eb1d4c13"
      }, {
        "reference": "Procedure/63a56425-a790-4e84-bf19-a729a5beb0ec"
      }, {
        "reference": "Condition/d06cc9a8-8270-42fd-a7e7-05df7538541a"
      }, {
        "reference": "Coverage/88ca5034-a5f0-461a-a052-332a011899a3"
      }, {
        "reference": "Organization/86a30eff-5fd4-4911-b399-a7db10ac5cd5"
      }, {
        "reference": "Practitioner/c65d60a9-9608-4c53-b517-8ef208cc8d7d"
      } ]
    },
    "request": {
      "method": "PUT",
      "url": "MeasureReport/fd15bb39-d8ff-4b5b-87bb-8151bf41f4c6"
    }
  } ]
}