{
  "resourceType": "Bundle",
  "id": "IPPass-PreventiveCareEstablishedVisit",
  "type": "transaction",
  "entry": [ {
    "fullUrl": "https://madie.cms.gov/Patient/946c9d68-dc7a-449a-a113-d76a735e3403",
    "resource": {
      "resourceType": "Patient",
      "id": "946c9d68-dc7a-449a-a113-d76a735e3403",
      "meta": {
        "profile": [ "http://hl7.org/fhir/us/qicore/StructureDefinition/qicore-patient" ]
      },
      "extension": [ {
        "url": "http://hl7.org/fhir/us/core/StructureDefinition/us-core-race",
        "extension": [ {
          "url": "ombCategory",
          "valueCoding": {
            "system": "urn:oid:2.16.840.1.113883.6.238",
            "code": "2028-9",
            "display": "Asian",
            "userSelected": true
          }
        }, {
          "url": "text",
          "valueString": "Asian"
        } ]
      }, {
        "url": "http://hl7.org/fhir/us/core/StructureDefinition/us-core-ethnicity",
        "extension": [ {
          "url": "ombCategory",
          "valueCoding": {
            "system": "urn:oid:2.16.840.1.113883.6.238",
            "code": "2135-2",
            "display": "Hispanic or Latino",
            "userSelected": true
          }
        }, {
          "url": "text",
          "valueString": "Hispanic or Latino"
        } ]
      } ],
      "identifier": [ {
        "type": {
          "coding": [ {
            "system": "http://terminology.hl7.org/CodeSystem/v2-0203",
            "code": "MR"
          } ]
        },
        "system": "http://hospital.smarthealthit.org",
        "value": "999999995"
      } ],
      "name": [ {
        "family": "Bertha",
        "given": [ "Betty" ]
      } ],
      "gender": "male",
      "birthDate": "2021-01-01"
    },
    "request": {
      "method": "PUT",
      "url": "Patient/946c9d68-dc7a-449a-a113-d76a735e3403"
    }
  }, {
    "fullUrl": "https://madie.cms.gov/Encounter/69d607ec-73a9-4a1a-83c6-3459be83282a",
    "resource": {
      "resourceType": "Encounter",
      "id": "69d607ec-73a9-4a1a-83c6-3459be83282a",
      "meta": {
        "profile": [ "http://hl7.org/fhir/us/qicore/StructureDefinition/qicore-encounter" ]
      },
      "status": "finished",
      "class": {
        "system": "http://terminology.hl7.org/CodeSystem/v3-ActCode",
        "code": "AMB",
        "display": "ambulatory"
      },
      "type": [ {
        "coding": [ {
          "system": "http://www.ama-assn.org/go/cpt",
          "code": "99393",
          "display": "Periodic comprehensive preventive medicine reevaluation and management of an individual including an age and gender appropriate history, examination, counseling/anticipatory guidance/risk factor reduction interventions, and the ordering of laboratory/diagnostic procedures, established patient; late childhood (age 5 through 11 years)"
        } ]
      } ],
      "subject": {
        "reference": "Patient/946c9d68-dc7a-449a-a113-d76a735e3403"
      },
      "period": {
        "start": "2026-10-11T00:00:00.000+00:00",
        "end": "2026-10-11T23:59:59.000+00:00"
      }
    },
    "request": {
      "method": "PUT",
      "url": "Encounter/69d607ec-73a9-4a1a-83c6-3459be83282a"
    }
  }, {
    "fullUrl": "https://madie.cms.gov/Condition/1bbc59ad-62a9-4b60-97cc-070596f7813a",
    "resource": {
      "resourceType": "Condition",
      "id": "1bbc59ad-62a9-4b60-97cc-070596f7813a",
      "meta": {
        "profile": [ "http://hl7.org/fhir/us/qicore/StructureDefinition/qicore-condition-encounter-diagnosis" ]
      },
      "clinicalStatus": {
        "coding": [ {
          "system": "http://terminology.hl7.org/CodeSystem/condition-clinical",
          "code": "active"
        } ]
      },
      "category": [ {
        "coding": [ {
          "system": "http://terminology.hl7.org/CodeSystem/condition-category",
          "code": "encounter-diagnosis",
          "display": "Encounter Diagnosis"
        } ]
      } ],
      "code": {
        "coding": [ {
          "system": "http://snomed.info/sct",
          "code": "17741008",
          "display": "Acute tonsillitis (disorder)"
        } ]
      },
      "subject": {
        "reference": "Patient/946c9d68-dc7a-449a-a113-d76a735e3403"
      },
      "onsetDateTime": "2026-10-11T12:48:00.000+00:00"
    },
    "request": {
      "method": "PUT",
      "url": "Condition/1bbc59ad-62a9-4b60-97cc-070596f7813a"
    }
  }, {
    "fullUrl": "https://madie.cms.gov/MedicationRequest/2743a1a2-0014-4bf4-b7ff-84c63b7400dd",
    "resource": {
      "resourceType": "MedicationRequest",
      "id": "2743a1a2-0014-4bf4-b7ff-84c63b7400dd",
      "meta": {
        "profile": [ "http://hl7.org/fhir/us/qicore/StructureDefinition/qicore-medicationrequest" ]
      },
      "status": "completed",
      "intent": "order",
      "category": [ {
        "coding": [ {
          "system": "http://terminology.hl7.org/CodeSystem/medicationrequest-category",
          "code": "discharge",
          "display": "Discharge"
        } ]
      } ],
      "medicationCodeableConcept": {
        "coding": [ {
          "system": "http://www.nlm.nih.gov/research/umls/rxnorm",
          "code": "141963",
          "display": "azithromycin 40 MG/ML Oral Suspension",
          "userSelected": true
        } ]
      },
      "subject": {
        "reference": "Patient/946c9d68-dc7a-449a-a113-d76a735e3403"
      },
      "authoredOn": "2026-10-12T00:00:00.000+00:00",
      "requester": {
        "reference": "Practitioner/example"
      },
      "dosageInstruction": [ {
        "timing": {
          "repeat": {
            "boundsPeriod": {
              "start": "2026-10-12T00:00:00.000+00:00",
              "end": "2026-10-20T00:00:00.000+00:00"
            }
          }
        }
      } ]
    },
    "request": {
      "method": "PUT",
      "url": "MedicationRequest/2743a1a2-0014-4bf4-b7ff-84c63b7400dd"
    }
  }, {
    "fullUrl": "https://madie.cms.gov/MeasureReport/6f820759-6301-408c-90de-753e9e170e90",
    "resource": {
      "resourceType": "MeasureReport",
      "id": "6f820759-6301-408c-90de-753e9e170e90",
      "meta": {
        "profile": [ "http://hl7.org/fhir/us/cqfmeasures/StructureDefinition/test-case-cqfm" ]
      },
      "contained": [ {
        "resourceType": "Parameters",
        "id": "a40d2d84-522b-4c29-b4f8-833138653003-parameters",
        "parameter": [ {
          "name": "subject",
          "valueString": "946c9d68-dc7a-449a-a113-d76a735e3403"
        } ]
      } ],
      "extension": [ {
        "url": "http://hl7.org/fhir/StructureDefinition/cqf-inputParameters",
        "valueReference": {
          "reference": "#a40d2d84-522b-4c29-b4f8-833138653003-parameters"
        }
      }, {
        "url": "http://hl7.org/fhir/us/cqfmeasures/StructureDefinition/cqfm-testCaseDescription",
        "valueMarkdown": "Qualifying encounter is Preventive Care, Established Office Visit, 0 to 17"
      } ],
      "modifierExtension": [ {
        "url": "http://hl7.org/fhir/us/cqfmeasures/StructureDefinition/cqfm-isTestCase",
        "valueBoolean": true
      } ],
      "status": "complete",
      "type": "individual",
      "measure": "https://madie.cms.gov/Measure/CMS146FHIRApproTestPharyngitis",
      "period": {
        "start": "2026-01-01",
        "end": "2026-12-31"
      },
      "group": [ {
        "id": "Group_1",
        "population": [ {
          "id": "InitialPopulation_1",
          "code": {
            "coding": [ {
              "system": "http://terminology.hl7.org/CodeSystem/measure-population",
              "code": "initial-population",
              "display": "Initial Population"
            } ]
          },
          "count": 1
        }, {
          "id": "Denominator_1",
          "code": {
            "coding": [ {
              "system": "http://terminology.hl7.org/CodeSystem/measure-population",
              "code": "denominator",
              "display": "Denominator"
            } ]
          },
          "count": 1
        }, {
          "id": "DenominatorExclusion_1",
          "code": {
            "coding": [ {
              "system": "http://terminology.hl7.org/CodeSystem/measure-population",
              "code": "denominator-exclusion",
              "display": "Denominator Exclusion"
            } ]
          },
          "count": 0
        }, {
          "id": "Numerator_1",
          "code": {
            "coding": [ {
              "system": "http://terminology.hl7.org/CodeSystem/measure-population",
              "code": "numerator",
              "display": "Numerator"
            } ]
          },
          "count": 0
        } ],
        "measureScore": {
          "value": 0.0
        },
        "stratifier": [ {
          "id": "Stratification_1_1",
          "code": [ {
            "text": "Strata-1"
          } ],
          "stratum": [ {
            "value": {
              "text": "Strata-1"
            },
            "population": [ {
              "id": "InitialPopulation_1",
              "code": {
                "coding": [ {
                  "system": "http://terminology.hl7.org/CodeSystem/measure-population",
                  "code": "initial-population",
                  "display": "Initial Population"
                } ]
              },
              "count": 1
            } ]
          } ]
        }, {
          "id": "Stratification_1_2",
          "code": [ {
            "text": "Strata-2"
          } ],
          "stratum": [ {
            "value": {
              "text": "Strata-2"
            },
            "population": [ {
              "id": "InitialPopulation_1",
              "code": {
                "coding": [ {
                  "system": "http://terminology.hl7.org/CodeSystem/measure-population",
                  "code": "initial-population",
                  "display": "Initial Population"
                } ]
              },
              "count": 1
            } ]
          } ]
        }, {
          "id": "Stratification_1_3",
          "code": [ {
            "text": "Strata-3"
          } ],
          "stratum": [ {
            "value": {
              "text": "Strata-3"
            },
            "population": [ {
              "id": "InitialPopulation_1",
              "code": {
                "coding": [ {
                  "system": "http://terminology.hl7.org/CodeSystem/measure-population",
                  "code": "initial-population",
                  "display": "Initial Population"
                } ]
              },
              "count": 1
            } ]
          } ]
        } ]
      } ],
      "evaluatedResource": [ {
        "reference": "Patient/946c9d68-dc7a-449a-a113-d76a735e3403"
      }, {
        "reference": "Encounter/69d607ec-73a9-4a1a-83c6-3459be83282a"
      }, {
        "reference": "Condition/1bbc59ad-62a9-4b60-97cc-070596f7813a"
      }, {
        "reference": "MedicationRequest/2743a1a2-0014-4bf4-b7ff-84c63b7400dd"
      } ]
    },
    "request": {
      "method": "PUT",
      "url": "MeasureReport/6f820759-6301-408c-90de-753e9e170e90"
    }
  } ]
}