{
  "resourceType": "Bundle",
  "id": "60f82c2f98086b570510e2ab",
  "type": "transaction",
  "entry": [ {
    "fullUrl": "https://madie.cms.gov/Patient/dd40e582-8c3f-44a2-b781-84acead6120f",
    "resource": {
      "resourceType": "Patient",
      "id": "dd40e582-8c3f-44a2-b781-84acead6120f",
      "meta": {
        "profile": [ "http://hl7.org/fhir/us/qicore/StructureDefinition/qicore-patient" ]
      },
      "text": {
        "status": "generated",
        "div": "<div xmlns=\"http://www.w3.org/1999/xhtml\"><div class=\"hapiHeaderText\">INRDayOfObs_ED&gt;1hrObs&gt;1hrBFEncDayOf <b>DENEXCEPASS </b></div><table class=\"hapiPropertyTable\"><tbody><tr><td>Identifier</td><td>b0367ad2370c96a56a23cd881813021fde2c7ef482bca50c0100c8faeb808f24</td></tr><tr><td>Date of birth</td><td><span>26 September 1975</span></td></tr></tbody></table></div>"
      },
      "extension": [ {
        "url": "http://hl7.org/fhir/us/core/StructureDefinition/us-core-race",
        "extension": [ {
          "url": "ombCategory",
          "valueCoding": {
            "system": "urn:oid:2.16.840.1.113883.6.238",
            "code": "2054-5",
            "display": "Black or African American",
            "userSelected": true
          }
        }, {
          "url": "text",
          "valueString": "Black or African American"
        } ]
      }, {
        "url": "http://hl7.org/fhir/us/core/StructureDefinition/us-core-ethnicity",
        "extension": [ {
          "url": "ombCategory",
          "valueCoding": {
            "system": "urn:oid:2.16.840.1.113883.6.238",
            "code": "2186-5",
            "display": "Not Hispanic or Latino",
            "userSelected": true
          }
        }, {
          "url": "text",
          "valueString": "Not Hispanic or Latino"
        } ]
      } ],
      "identifier": [ {
        "type": {
          "coding": [ {
            "system": "http://terminology.hl7.org/CodeSystem/v2-0203",
            "code": "MR"
          } ]
        },
        "system": "https://bonnie-fhir.healthit.gov/",
        "value": "60f82c2f98086b570510e2ab"
      } ],
      "active": true,
      "name": [ {
        "use": "usual",
        "family": "DENEXCEPass",
        "given": [ "INRDayOfObs_ED>1hrObs>1hrBFEncDayOf" ]
      } ],
      "gender": "female",
      "birthDate": "1976-09-26"
    },
    "request": {
      "method": "PUT",
      "url": "Patient/dd40e582-8c3f-44a2-b781-84acead6120f"
    }
  }, {
    "fullUrl": "https://madie.cms.gov/Encounter/5ec7e10e-5aa7-4d99-a990-123fac8f9b45",
    "resource": {
      "resourceType": "Encounter",
      "id": "5ec7e10e-5aa7-4d99-a990-123fac8f9b45",
      "meta": {
        "profile": [ "http://hl7.org/fhir/us/qicore/StructureDefinition/qicore-encounter" ]
      },
      "status": "finished",
      "class": {
        "system": "http://terminology.hl7.org/CodeSystem/v3-ActCode",
        "code": "EMER",
        "display": "emergency",
        "userSelected": true
      },
      "type": [ {
        "coding": [ {
          "system": "http://snomed.info/sct",
          "code": "4525004"
        } ]
      } ],
      "subject": {
        "reference": "Patient/dd40e582-8c3f-44a2-b781-84acead6120f"
      },
      "period": {
        "start": "2026-10-10T06:15:00.000+00:00",
        "end": "2026-10-10T06:30:00.000+00:00"
      },
      "length": {
        "value": 0,
        "unit": "days"
      }
    },
    "request": {
      "method": "PUT",
      "url": "Encounter/5ec7e10e-5aa7-4d99-a990-123fac8f9b45"
    }
  }, {
    "fullUrl": "https://madie.cms.gov/Encounter/06ecee1e-5874-4e48-88b6-6739132adecb",
    "resource": {
      "resourceType": "Encounter",
      "id": "06ecee1e-5874-4e48-88b6-6739132adecb",
      "meta": {
        "profile": [ "http://hl7.org/fhir/us/qicore/StructureDefinition/qicore-encounter" ]
      },
      "status": "finished",
      "class": {
        "system": "http://terminology.hl7.org/CodeSystem/v3-ActCode",
        "code": "OBSENC",
        "display": "observation encounter",
        "userSelected": true
      },
      "type": [ {
        "coding": [ {
          "system": "http://snomed.info/sct",
          "code": "448851000124103"
        } ]
      } ],
      "subject": {
        "reference": "Patient/dd40e582-8c3f-44a2-b781-84acead6120f"
      },
      "period": {
        "start": "2026-10-10T07:31:00.000+00:00",
        "end": "2026-10-10T07:35:00.000+00:00"
      },
      "length": {
        "value": 0,
        "unit": "days"
      }
    },
    "request": {
      "method": "PUT",
      "url": "Encounter/06ecee1e-5874-4e48-88b6-6739132adecb"
    }
  }, {
    "fullUrl": "https://madie.cms.gov/Encounter/15225f60-7296-4e14-955f-80705eeb40e4",
    "resource": {
      "resourceType": "Encounter",
      "id": "15225f60-7296-4e14-955f-80705eeb40e4",
      "meta": {
        "profile": [ "http://hl7.org/fhir/us/qicore/StructureDefinition/qicore-encounter" ]
      },
      "status": "finished",
      "class": {
        "system": "http://terminology.hl7.org/CodeSystem/v3-ActCode",
        "code": "IMP",
        "display": "inpatient encounter",
        "userSelected": true
      },
      "type": [ {
        "coding": [ {
          "system": "http://snomed.info/sct",
          "code": "32485007"
        } ]
      } ],
      "subject": {
        "reference": "Patient/dd40e582-8c3f-44a2-b781-84acead6120f"
      },
      "period": {
        "start": "2026-10-10T08:36:00.000+00:00",
        "end": "2026-10-15T11:30:00.000+00:00"
      },
      "length": {
        "value": 5,
        "unit": "days"
      },
      "reasonReference": [ {
        "reference": "Condition/590721d0-a766-453a-9596-ebc8666c7993"
      } ]
    },
    "request": {
      "method": "PUT",
      "url": "Encounter/15225f60-7296-4e14-955f-80705eeb40e4"
    }
  }, {
    "fullUrl": "https://madie.cms.gov/claim/5ca62962b8484628b8de1ec5",
    "resource": {
      "resourceType": "Claim",
      "id": "5ca62962b8484628b8de1ec5",
      "meta": {
        "profile": [ "http://hl7.org/fhir/us/qicore/StructureDefinition/qicore-claim" ]
      },
      "status": "active",
      "type": {
        "coding": [ {
          "system": "http://terminology.hl7.org/CodeSystem/claim-type",
          "code": "institutional"
        } ]
      },
      "use": "claim",
      "patient": {
        "reference": "Patient/d170a0a8-b5ad-4303-b6df-e304dd5f92ad"
      },
      "created": "2026-12-01",
      "provider": {
        "reference": "Practitioner/practitioner-123456"
      },
      "priority": {
        "coding": [ {
          "system": "http://terminology.hl7.org/CodeSystem/processpriority",
          "code": "normal"
        } ]
      },
      "diagnosis": [ {
        "sequence": 1,
        "diagnosisCodeableConcept": {
          "coding": [ {
            "system": "http://hl7.org/fhir/sid/icd-10-cm",
            "code": "I63.00"
          } ]
        },
        "type": [ {
          "coding": [ {
            "system": "http://terminology.hl7.org/CodeSystem/ex-diagnosistype",
            "code": "principal"
          } ]
        } ]
      } ],
      "insurance": [ {
        "sequence": 1,
        "focal": true,
        "coverage": {
          "reference": "Coverage/5fa041661c76ba66d9959367"
        }
      } ],
      "item": [ {
        "sequence": 1,
        "diagnosisSequence": [ 1 ],
        "productOrService": {
          "coding": [ {
            "system": "http://terminology.hl7.org/CodeSystem/ex-USCLS",
            "code": "99555"
          } ]
        },
        "encounter": [ {
          "reference": "Encounter/15225f60-7296-4e14-955f-80705eeb40e4"
        } ]
      } ]
    },
    "request": {
      "method": "PUT",
      "url": "Claim/5ca62962b8484628b8de1ec5"
    }
  }, {
    "fullUrl": "https://madie.cms.gov/Observation/15b18bee-aedc-48c7-97d3-1ada0cd2b06f",
    "resource": {
      "resourceType": "Observation",
      "id": "15b18bee-aedc-48c7-97d3-1ada0cd2b06f",
      "meta": {
        "profile": [ "http://hl7.org/fhir/us/qicore/StructureDefinition/qicore-observation-lab" ]
      },
      "status": "final",
      "category": [ {
        "coding": [ {
          "system": "http://terminology.hl7.org/CodeSystem/observation-category",
          "code": "laboratory",
          "display": "Laboratory"
        } ]
      } ],
      "code": {
        "coding": [ {
          "system": "http://loinc.org",
          "code": "34714-6"
        } ]
      },
      "subject": {
        "reference": "Patient/dd40e582-8c3f-44a2-b781-84acead6120f"
      },
      "effectivePeriod": {
        "start": "2026-10-10T07:31:00.000+00:00"
      },
      "issued": "2026-10-10T06:14:00.000+00:00",
      "valueQuantity": {
        "value": 3.6
      }
    },
    "request": {
      "method": "PUT",
      "url": "Observation/15b18bee-aedc-48c7-97d3-1ada0cd2b06f"
    }
  }, {
    "fullUrl": "https://madie.cms.gov/Coverage/4ecbcd10-29a9-4e38-8a30-874b74ec4089",
    "resource": {
      "resourceType": "Coverage",
      "id": "4ecbcd10-29a9-4e38-8a30-874b74ec4089",
      "status": "active",
      "beneficiary": {
        "reference": "Patient/dd40e582-8c3f-44a2-b781-84acead6120f"
      },
      "period": {
        "start": "1976-09-26T08:00:00.000+00:00"
      },
      "payor": [ {
        "reference": "Organization/de6bbbf6-c93e-496c-9b08-a053398ea442"
      } ]
    },
    "request": {
      "method": "PUT",
      "url": "Coverage/4ecbcd10-29a9-4e38-8a30-874b74ec4089"
    }
  }, {
    "fullUrl": "https://madie.cms.gov/Condition/590721d0-a766-453a-9596-ebc8666c7993",
    "resource": {
      "resourceType": "Condition",
      "id": "590721d0-a766-453a-9596-ebc8666c7993",
      "meta": {
        "profile": [ "http://hl7.org/fhir/us/qicore/StructureDefinition/qicore-condition-encounter-diagnosis" ]
      },
      "clinicalStatus": {
        "coding": [ {
          "system": "http://terminology.hl7.org/CodeSystem/condition-clinical",
          "code": "active"
        } ]
      },
      "verificationStatus": {
        "coding": [ {
          "system": "http://terminology.hl7.org/CodeSystem/condition-ver-status",
          "code": "confirmed"
        } ]
      },
      "category": [ {
        "coding": [ {
          "system": "http://terminology.hl7.org/CodeSystem/condition-category",
          "code": "encounter-diagnosis",
          "display": "Encounter Diagnosis"
        } ]
      } ],
      "code": {
        "coding": [ {
          "system": "http://snomed.info/sct",
          "version": "2020-09",
          "code": "111297002",
          "display": "Nonparalytic stroke (disorder)",
          "userSelected": true
        } ]
      },
      "subject": {
        "reference": "Patient/dd40e582-8c3f-44a2-b781-84acead6120f"
      },
      "recordedDate": "2026-08-06T08:00:00.000+00:00"
    },
    "request": {
      "method": "PUT",
      "url": "Condition/590721d0-a766-453a-9596-ebc8666c7993"
    }
  }, {
    "fullUrl": "https://madie.cms.gov/Organization/de6bbbf6-c93e-496c-9b08-a053398ea442",
    "resource": {
      "resourceType": "Organization",
      "id": "de6bbbf6-c93e-496c-9b08-a053398ea442",
      "meta": {
        "profile": [ "http://hl7.org/fhir/us/qicore/StructureDefinition/qicore-organization" ]
      },
      "identifier": [ {
        "use": "temp",
        "system": "urn:oid:2.16.840.1.113883.4.4",
        "value": "21-3259825"
      } ],
      "active": true,
      "type": [ {
        "coding": [ {
          "system": "http://terminology.hl7.org/CodeSystem/organization-type",
          "code": "pay",
          "display": "Payer"
        } ]
      } ],
      "name": "Blue Cross Blue Shield of Texas",
      "telecom": [ {
        "system": "phone",
        "value": "(+1) 972-766-6900"
      } ],
      "address": [ {
        "use": "billing",
        "type": "postal",
        "line": [ "P.O. Box 660044" ],
        "city": "Dallas",
        "state": "TX",
        "postalCode": "75266-0044",
        "country": "USA"
      } ]
    },
    "request": {
      "method": "PUT",
      "url": "Organization/de6bbbf6-c93e-496c-9b08-a053398ea442"
    }
  }, {
    "fullUrl": "https://madie.cms.gov/MeasureReport/79091535-3736-45a0-a59f-530f1e1843c5",
    "resource": {
      "resourceType": "MeasureReport",
      "id": "79091535-3736-45a0-a59f-530f1e1843c5",
      "meta": {
        "profile": [ "http://hl7.org/fhir/us/cqfmeasures/StructureDefinition/test-case-cqfm" ]
      },
      "contained": [ {
        "resourceType": "Parameters",
        "id": "095f4194-4345-4786-8435-a774be5d9c99-parameters",
        "parameter": [ {
          "name": "subject",
          "valueString": "dd40e582-8c3f-44a2-b781-84acead6120f"
        } ]
      } ],
      "extension": [ {
        "url": "http://hl7.org/fhir/StructureDefinition/cqf-inputParameters",
        "valueReference": {
          "reference": "#095f4194-4345-4786-8435-a774be5d9c99-parameters"
        }
      }, {
        "url": "http://hl7.org/fhir/us/cqfmeasures/StructureDefinition/cqfm-testCaseDescription",
        "valueMarkdown": "Patient receives INR of 3.6 the day of Obs start. Ed ends 61 min before OBs start, Obs ends 61 min before IP start on the same day. Testing Day of operator with HospitalizationWithObservation function.\n"
      } ],
      "modifierExtension": [ {
        "url": "http://hl7.org/fhir/us/cqfmeasures/StructureDefinition/cqfm-isTestCase",
        "valueBoolean": true
      } ],
      "status": "complete",
      "type": "individual",
      "measure": "https://madie.cms.gov/Measure/CMS72FHIRSTKAntithromboticDay2",
      "period": {
        "start": "2026-01-01",
        "end": "2026-12-31"
      },
      "group": [ {
        "id": "Group_1",
        "population": [ {
          "id": "InitialPopulation_1",
          "code": {
            "coding": [ {
              "system": "http://terminology.hl7.org/CodeSystem/measure-population",
              "code": "initial-population",
              "display": "Initial Population"
            } ]
          },
          "count": 1
        }, {
          "id": "Denominator_1",
          "code": {
            "coding": [ {
              "system": "http://terminology.hl7.org/CodeSystem/measure-population",
              "code": "denominator",
              "display": "Denominator"
            } ]
          },
          "count": 1
        }, {
          "id": "DenominatorExclusion_1",
          "code": {
            "coding": [ {
              "system": "http://terminology.hl7.org/CodeSystem/measure-population",
              "code": "denominator-exclusion",
              "display": "Denominator Exclusion"
            } ]
          },
          "count": 0
        }, {
          "id": "Numerator_1",
          "code": {
            "coding": [ {
              "system": "http://terminology.hl7.org/CodeSystem/measure-population",
              "code": "numerator",
              "display": "Numerator"
            } ]
          },
          "count": 0
        }, {
          "id": "DenominatorException_1",
          "code": {
            "coding": [ {
              "system": "http://terminology.hl7.org/CodeSystem/measure-population",
              "code": "denominator-exception",
              "display": "Denominator Exception"
            } ]
          },
          "count": 1
        } ],
        "measureScore": {
          "value": 0.0
        }
      } ],
      "evaluatedResource": [ {
        "reference": "Patient/dd40e582-8c3f-44a2-b781-84acead6120f"
      }, {
        "reference": "Encounter/5ec7e10e-5aa7-4d99-a990-123fac8f9b45"
      }, {
        "reference": "Encounter/06ecee1e-5874-4e48-88b6-6739132adecb"
      }, {
        "reference": "Encounter/15225f60-7296-4e14-955f-80705eeb40e4"
      }, {
        "reference": "Claim/5ca62962b8484628b8de1ec5"
      }, {
        "reference": "Observation/15b18bee-aedc-48c7-97d3-1ada0cd2b06f"
      }, {
        "reference": "Coverage/4ecbcd10-29a9-4e38-8a30-874b74ec4089"
      }, {
        "reference": "Condition/590721d0-a766-453a-9596-ebc8666c7993"
      }, {
        "reference": "Organization/de6bbbf6-c93e-496c-9b08-a053398ea442"
      } ]
    },
    "request": {
      "method": "PUT",
      "url": "MeasureReport/79091535-3736-45a0-a59f-530f1e1843c5"
    }
  } ]
}