{
  "resourceType": "Bundle",
  "id": "612e6b3f02c62a011f2ed070",
  "type": "transaction",
  "entry": [ {
    "fullUrl": "https://madie.cms.gov/Patient/898693f7-3efa-4240-bc7f-cfe7019a594b",
    "resource": {
      "resourceType": "Patient",
      "id": "898693f7-3efa-4240-bc7f-cfe7019a594b",
      "meta": {
        "profile": [ "http://hl7.org/fhir/us/qicore/StructureDefinition/qicore-patient" ]
      },
      "text": {
        "status": "generated",
        "div": "<div xmlns=\"http://www.w3.org/1999/xhtml\"><div class=\"hapiHeaderText\">ICU3DaysAfterAdmit <b>DENEXFAIL </b></div><table class=\"hapiPropertyTable\"><tbody><tr><td>Identifier</td><td>e27e5563554c3f0106e7e2711362df0d</td></tr><tr><td>Date of birth</td><td><span>02 January 1974</span></td></tr></tbody></table></div>"
      },
      "extension": [ {
        "url": "http://hl7.org/fhir/us/core/StructureDefinition/us-core-race",
        "extension": [ {
          "url": "ombCategory",
          "valueCoding": {
            "system": "urn:oid:2.16.840.1.113883.6.238",
            "code": "1002-5",
            "display": "American Indian or Alaska Native",
            "userSelected": true
          }
        }, {
          "url": "text",
          "valueString": "American Indian or Alaska Native"
        } ]
      }, {
        "url": "http://hl7.org/fhir/us/core/StructureDefinition/us-core-ethnicity",
        "extension": [ {
          "url": "ombCategory",
          "valueCoding": {
            "system": "urn:oid:2.16.840.1.113883.6.238",
            "code": "2135-2",
            "display": "Hispanic or Latino",
            "userSelected": true
          }
        }, {
          "url": "text",
          "valueString": "Hispanic or Latino"
        } ]
      } ],
      "identifier": [ {
        "type": {
          "coding": [ {
            "system": "http://terminology.hl7.org/CodeSystem/v2-0203",
            "code": "MR"
          } ]
        },
        "system": "https://bonnie-fhir.healthit.gov/",
        "value": "612e6b3f02c62a011f2ed070"
      } ],
      "active": true,
      "name": [ {
        "use": "usual",
        "family": "DENEXFail",
        "given": [ "ICU3DaysAfterAdmit" ]
      } ],
      "gender": "male",
      "birthDate": "1975-01-02"
    },
    "request": {
      "method": "PUT",
      "url": "Patient/898693f7-3efa-4240-bc7f-cfe7019a594b"
    }
  }, {
    "fullUrl": "https://madie.cms.gov/Encounter/af8310ae-eee0-43a3-a153-9290d7870beb",
    "resource": {
      "resourceType": "Encounter",
      "id": "af8310ae-eee0-43a3-a153-9290d7870beb",
      "meta": {
        "profile": [ "http://hl7.org/fhir/us/qicore/StructureDefinition/qicore-encounter" ]
      },
      "status": "finished",
      "class": {
        "system": "http://terminology.hl7.org/CodeSystem/v3-ActCode",
        "code": "IMP",
        "display": "inpatient encounter"
      },
      "type": [ {
        "coding": [ {
          "system": "http://snomed.info/sct",
          "code": "8715000"
        } ]
      } ],
      "subject": {
        "reference": "Patient/898693f7-3efa-4240-bc7f-cfe7019a594b"
      },
      "period": {
        "start": "2026-11-01T08:00:00.000+00:00",
        "end": "2026-11-26T08:15:00.000+00:00"
      },
      "length": {
        "value": 25.0,
        "unit": "days"
      },
      "location": [ {
        "location": {
          "reference": "Location/29156782-3aa6-48bc-b86b-2e96e357c833"
        },
        "period": {
          "start": "2026-11-03T11:00:00.000+00:00",
          "end": "2026-11-05T00:15:00.000+00:00"
        }
      } ]
    },
    "request": {
      "method": "PUT",
      "url": "Encounter/af8310ae-eee0-43a3-a153-9290d7870beb"
    }
  }, {
    "fullUrl": "https://madie.cms.gov/Coverage/67973155-bc02-4203-b331-8a7763e9c04f",
    "resource": {
      "resourceType": "Coverage",
      "id": "67973155-bc02-4203-b331-8a7763e9c04f",
      "status": "active",
      "beneficiary": {
        "reference": "Patient/898693f7-3efa-4240-bc7f-cfe7019a594b"
      },
      "period": {
        "start": "1975-01-02T08:00:00.000+00:00"
      },
      "payor": [ {
        "reference": "Organization/126028d4-72d4-45b3-818d-08ee8fd77856"
      } ]
    },
    "request": {
      "method": "PUT",
      "url": "Coverage/67973155-bc02-4203-b331-8a7763e9c04f"
    }
  }, {
    "fullUrl": "https://madie.cms.gov/Location/29156782-3aa6-48bc-b86b-2e96e357c833",
    "resource": {
      "resourceType": "Location",
      "id": "29156782-3aa6-48bc-b86b-2e96e357c833",
      "meta": {
        "profile": [ "http://hl7.org/fhir/us/qicore/StructureDefinition/qicore-location" ]
      },
      "identifier": [ {
        "use": "usual",
        "system": "http://exampleoflocation.com",
        "value": "B1-S.F2"
      } ],
      "name": "Medical Surgical East, first floor",
      "type": [ {
        "coding": [ {
          "system": "http://cts.nlm.nih.gov/fhir/cs/hsloc",
          "version": "2020",
          "code": "1025-6",
          "display": "Trauma Critical Care",
          "userSelected": true
        } ]
      } ]
    },
    "request": {
      "method": "PUT",
      "url": "Location/29156782-3aa6-48bc-b86b-2e96e357c833"
    }
  }, {
    "fullUrl": "https://madie.cms.gov/Organization/126028d4-72d4-45b3-818d-08ee8fd77856",
    "resource": {
      "resourceType": "Organization",
      "id": "126028d4-72d4-45b3-818d-08ee8fd77856",
      "meta": {
        "profile": [ "http://hl7.org/fhir/us/qicore/StructureDefinition/qicore-organization" ]
      },
      "identifier": [ {
        "use": "temp",
        "system": "urn:oid:2.16.840.1.113883.4.4",
        "value": "21-3259825"
      } ],
      "active": true,
      "type": [ {
        "coding": [ {
          "system": "http://terminology.hl7.org/CodeSystem/organization-type",
          "code": "pay",
          "display": "Payer"
        } ]
      } ],
      "name": "Blue Cross Blue Shield of Texas",
      "telecom": [ {
        "system": "phone",
        "value": "(+1) 972-766-6900"
      } ],
      "address": [ {
        "use": "billing",
        "type": "postal",
        "line": [ "P.O. Box 660044" ],
        "city": "Dallas",
        "state": "TX",
        "postalCode": "75266-0044",
        "country": "USA"
      } ]
    },
    "request": {
      "method": "PUT",
      "url": "Organization/126028d4-72d4-45b3-818d-08ee8fd77856"
    }
  }, {
    "fullUrl": "https://madie.cms.gov/Practitioner/65086be6-9678-432b-83fe-c156d90d512a",
    "resource": {
      "resourceType": "Practitioner",
      "id": "65086be6-9678-432b-83fe-c156d90d512a",
      "identifier": [ {
        "system": "http://hl7.org/fhir/sid/us-npi",
        "value": "123456"
      } ],
      "name": [ {
        "family": "Evil",
        "prefix": [ "Dr" ]
      } ]
    },
    "request": {
      "method": "PUT",
      "url": "Practitioner/65086be6-9678-432b-83fe-c156d90d512a"
    }
  }, {
    "fullUrl": "https://madie.cms.gov/MeasureReport/f64a968d-5cc3-4a91-9a5e-86bc388698b6",
    "resource": {
      "resourceType": "MeasureReport",
      "id": "f64a968d-5cc3-4a91-9a5e-86bc388698b6",
      "meta": {
        "profile": [ "http://hl7.org/fhir/us/cqfmeasures/StructureDefinition/test-case-cqfm" ]
      },
      "contained": [ {
        "resourceType": "Parameters",
        "id": "52b880eb-5a33-47ef-90eb-5071e1151eec-parameters",
        "parameter": [ {
          "name": "subject",
          "valueString": "898693f7-3efa-4240-bc7f-cfe7019a594b"
        } ]
      } ],
      "extension": [ {
        "url": "http://hl7.org/fhir/StructureDefinition/cqf-inputParameters",
        "valueReference": {
          "reference": "#52b880eb-5a33-47ef-90eb-5071e1151eec-parameters"
        }
      }, {
        "url": "http://hl7.org/fhir/us/cqfmeasures/StructureDefinition/cqfm-testCaseDescription",
        "valueMarkdown": "ICU admission > 1 day after start of IP encounter\n"
      } ],
      "modifierExtension": [ {
        "url": "http://hl7.org/fhir/us/cqfmeasures/StructureDefinition/cqfm-isTestCase",
        "valueBoolean": true
      } ],
      "status": "complete",
      "type": "individual",
      "measure": "https://madie.cms.gov/Measure/CMS108FHIRVTEProphylaxis",
      "period": {
        "start": "2026-01-01",
        "end": "2026-12-31"
      },
      "group": [ {
        "id": "Group_1",
        "population": [ {
          "id": "InitialPopulation_1",
          "code": {
            "coding": [ {
              "system": "http://terminology.hl7.org/CodeSystem/measure-population",
              "code": "initial-population",
              "display": "Initial Population"
            } ]
          },
          "count": 1
        }, {
          "id": "Denominator_1",
          "code": {
            "coding": [ {
              "system": "http://terminology.hl7.org/CodeSystem/measure-population",
              "code": "denominator",
              "display": "Denominator"
            } ]
          },
          "count": 1
        }, {
          "id": "DenominatorExclusion_1",
          "code": {
            "coding": [ {
              "system": "http://terminology.hl7.org/CodeSystem/measure-population",
              "code": "denominator-exclusion",
              "display": "Denominator Exclusion"
            } ]
          },
          "count": 0
        }, {
          "id": "Numerator_1",
          "code": {
            "coding": [ {
              "system": "http://terminology.hl7.org/CodeSystem/measure-population",
              "code": "numerator",
              "display": "Numerator"
            } ]
          },
          "count": 0
        } ],
        "measureScore": {
          "value": 0.0
        }
      } ],
      "evaluatedResource": [ {
        "reference": "Patient/898693f7-3efa-4240-bc7f-cfe7019a594b"
      }, {
        "reference": "Encounter/af8310ae-eee0-43a3-a153-9290d7870beb"
      }, {
        "reference": "Coverage/67973155-bc02-4203-b331-8a7763e9c04f"
      }, {
        "reference": "Location/29156782-3aa6-48bc-b86b-2e96e357c833"
      }, {
        "reference": "Organization/126028d4-72d4-45b3-818d-08ee8fd77856"
      }, {
        "reference": "Practitioner/65086be6-9678-432b-83fe-c156d90d512a"
      } ]
    },
    "request": {
      "method": "PUT",
      "url": "MeasureReport/f64a968d-5cc3-4a91-9a5e-86bc388698b6"
    }
  } ]
}