{
  "resourceType": "Bundle",
  "id": "64137bcb4b11b147841ab8fa",
  "type": "transaction",
  "entry": [ {
    "fullUrl": "https://madie.cms.gov/Patient/f4d1182a-1c06-4c62-a0be-1f994c4343b3",
    "resource": {
      "resourceType": "Patient",
      "id": "f4d1182a-1c06-4c62-a0be-1f994c4343b3",
      "meta": {
        "profile": [ "http://hl7.org/fhir/us/qicore/StructureDefinition/qicore-patient" ]
      },
      "extension": [ {
        "url": "http://hl7.org/fhir/us/core/StructureDefinition/us-core-race",
        "extension": [ {
          "url": "ombCategory",
          "valueCoding": {
            "system": "urn:oid:2.16.840.1.113883.6.238",
            "code": "1002-5",
            "display": "American Indian or Alaska Native",
            "userSelected": true
          }
        }, {
          "url": "text",
          "valueString": "American Indian or Alaska Native"
        } ]
      }, {
        "url": "http://hl7.org/fhir/us/core/StructureDefinition/us-core-ethnicity",
        "extension": [ {
          "url": "ombCategory",
          "valueCoding": {
            "system": "urn:oid:2.16.840.1.113883.6.238",
            "code": "2135-2",
            "display": "Hispanic or Latino",
            "userSelected": true
          }
        }, {
          "url": "text",
          "valueString": "Hispanic or Latino"
        } ]
      } ],
      "identifier": [ {
        "type": {
          "coding": [ {
            "system": "http://terminology.hl7.org/CodeSystem/v2-0203",
            "code": "MR"
          } ]
        },
        "system": "https://bonnie-fhir.healthit.gov/",
        "value": "64137bcb4b11b147841ab8fa"
      } ],
      "name": [ {
        "family": "DENOMPass",
        "given": [ "EdgeAge18Jan1" ]
      } ],
      "gender": "female",
      "birthDate": "2008-01-01"
    },
    "request": {
      "method": "PUT",
      "url": "Patient/f4d1182a-1c06-4c62-a0be-1f994c4343b3"
    }
  }, {
    "fullUrl": "https://madie.cms.gov/Condition/eb2b12a0-745e-4c4e-9196-910239322b99",
    "resource": {
      "resourceType": "Condition",
      "id": "eb2b12a0-745e-4c4e-9196-910239322b99",
      "meta": {
        "profile": [ "http://hl7.org/fhir/us/qicore/StructureDefinition/qicore-condition-encounter-diagnosis" ]
      },
      "clinicalStatus": {
        "coding": [ {
          "system": "http://terminology.hl7.org/CodeSystem/condition-clinical",
          "code": "active",
          "display": "active",
          "userSelected": true
        } ]
      },
      "category": [ {
        "coding": [ {
          "system": "http://terminology.hl7.org/CodeSystem/condition-category",
          "code": "encounter-diagnosis",
          "display": "Encounter Diagnosis",
          "userSelected": true
        } ]
      } ],
      "code": {
        "coding": [ {
          "system": "http://snomed.info/sct",
          "version": "2021-09",
          "code": "102781000119107",
          "display": "Sensory neuropathy due to type 1 diabetes mellitus (disorder)",
          "userSelected": true
        } ]
      },
      "subject": {
        "reference": "Patient/f4d1182a-1c06-4c62-a0be-1f994c4343b3"
      },
      "onsetDateTime": "2019-01-18T08:00:00.000+00:00"
    },
    "request": {
      "method": "PUT",
      "url": "Condition/eb2b12a0-745e-4c4e-9196-910239322b99"
    }
  }, {
    "fullUrl": "https://madie.cms.gov/Encounter/9f6a382a-e29e-4443-a0f7-575b2fd03c9f",
    "resource": {
      "resourceType": "Encounter",
      "id": "9f6a382a-e29e-4443-a0f7-575b2fd03c9f",
      "meta": {
        "profile": [ "http://hl7.org/fhir/us/qicore/StructureDefinition/qicore-encounter" ]
      },
      "status": "finished",
      "class": {
        "system": "http://terminology.hl7.org/CodeSystem/v3-ActCode",
        "code": "AMB",
        "display": "ambulatory",
        "userSelected": true
      },
      "type": [ {
        "coding": [ {
          "system": "http://snomed.info/sct",
          "version": "2021-09",
          "code": "281036007",
          "display": "Follow-up consultation (procedure)",
          "userSelected": true
        } ]
      } ],
      "subject": {
        "reference": "Patient/f4d1182a-1c06-4c62-a0be-1f994c4343b3"
      },
      "period": {
        "start": "2026-03-16T08:00:00.000+00:00",
        "end": "2026-03-16T08:15:00.000+00:00"
      }
    },
    "request": {
      "method": "PUT",
      "url": "Encounter/9f6a382a-e29e-4443-a0f7-575b2fd03c9f"
    }
  }, {
    "fullUrl": "https://madie.cms.gov/MeasureReport/093f7e5c-36d7-4d4d-903a-dc44236897b2",
    "resource": {
      "resourceType": "MeasureReport",
      "id": "093f7e5c-36d7-4d4d-903a-dc44236897b2",
      "meta": {
        "profile": [ "http://hl7.org/fhir/us/cqfmeasures/StructureDefinition/test-case-cqfm" ]
      },
      "contained": [ {
        "resourceType": "Parameters",
        "id": "c320f431-518d-4e3c-aa83-18e86efd9f56-parameters",
        "parameter": [ {
          "name": "subject",
          "valueString": "f4d1182a-1c06-4c62-a0be-1f994c4343b3"
        } ]
      } ],
      "extension": [ {
        "url": "http://hl7.org/fhir/StructureDefinition/cqf-inputParameters",
        "valueReference": {
          "reference": "#c320f431-518d-4e3c-aa83-18e86efd9f56-parameters"
        }
      }, {
        "url": "http://hl7.org/fhir/us/cqfmeasures/StructureDefinition/cqfm-testCaseDescription",
        "valueMarkdown": "This patient is 18 years old with a qualifying encounter and active diabetes diagnosis. This case tests the denominator criteria."
      } ],
      "modifierExtension": [ {
        "url": "http://hl7.org/fhir/us/cqfmeasures/StructureDefinition/cqfm-isTestCase",
        "valueBoolean": true
      } ],
      "status": "complete",
      "type": "individual",
      "measure": "https://madie.cms.gov/Measure/CMS951FHIRKidneyHealthEval",
      "period": {
        "start": "2026-01-01",
        "end": "2026-12-31"
      },
      "group": [ {
        "id": "Group_1",
        "population": [ {
          "id": "InitialPopulation_1",
          "code": {
            "coding": [ {
              "system": "http://terminology.hl7.org/CodeSystem/measure-population",
              "code": "initial-population",
              "display": "Initial Population"
            } ]
          },
          "count": 1
        }, {
          "id": "Denominator_1",
          "code": {
            "coding": [ {
              "system": "http://terminology.hl7.org/CodeSystem/measure-population",
              "code": "denominator",
              "display": "Denominator"
            } ]
          },
          "count": 1
        }, {
          "id": "DenominatorExclusion_1",
          "code": {
            "coding": [ {
              "system": "http://terminology.hl7.org/CodeSystem/measure-population",
              "code": "denominator-exclusion",
              "display": "Denominator Exclusion"
            } ]
          },
          "count": 0
        }, {
          "id": "Numerator_1",
          "code": {
            "coding": [ {
              "system": "http://terminology.hl7.org/CodeSystem/measure-population",
              "code": "numerator",
              "display": "Numerator"
            } ]
          },
          "count": 0
        } ],
        "measureScore": {
          "value": 1.0
        }
      } ],
      "evaluatedResource": [ {
        "reference": "Patient/f4d1182a-1c06-4c62-a0be-1f994c4343b3"
      }, {
        "reference": "Condition/eb2b12a0-745e-4c4e-9196-910239322b99"
      }, {
        "reference": "Encounter/9f6a382a-e29e-4443-a0f7-575b2fd03c9f"
      } ]
    },
    "request": {
      "method": "PUT",
      "url": "MeasureReport/093f7e5c-36d7-4d4d-903a-dc44236897b2"
    }
  } ]
}