{
  "resourceType": "Bundle",
  "id": "62fd4b720968f82603aac8e3",
  "type": "collection",
  "entry": [ {
    "fullUrl": "https://madie.cms.gov/Patient/854f73d5-2461-4c12-b214-c4a3ceecfe36",
    "resource": {
      "resourceType": "Patient",
      "id": "854f73d5-2461-4c12-b214-c4a3ceecfe36",
      "meta": {
        "profile": [ "http://hl7.org/fhir/us/qicore/StructureDefinition/qicore-patient" ]
      },
      "extension": [ {
        "url": "http://hl7.org/fhir/us/core/StructureDefinition/us-core-race",
        "extension": [ {
          "url": "ombCategory",
          "valueCoding": {
            "system": "urn:oid:2.16.840.1.113883.6.238",
            "code": "1002-5",
            "display": "American Indian or Alaska Native",
            "userSelected": true
          }
        }, {
          "url": "text",
          "valueString": "American Indian or Alaska Native"
        } ]
      }, {
        "url": "http://hl7.org/fhir/us/core/StructureDefinition/us-core-ethnicity",
        "extension": [ {
          "url": "ombCategory",
          "valueCoding": {
            "system": "urn:oid:2.16.840.1.113883.6.238",
            "code": "2135-2",
            "display": "Hispanic or Latino",
            "userSelected": true
          }
        }, {
          "url": "text",
          "valueString": "Hispanic or Latino"
        } ]
      } ],
      "identifier": [ {
        "type": {
          "coding": [ {
            "system": "http://terminology.hl7.org/CodeSystem/v2-0203",
            "code": "MR"
          } ]
        },
        "system": "https://bonnie-fhir.healthit.gov/",
        "value": "62fd4b720968f82603aac8e3"
      } ],
      "name": [ {
        "family": "IPFail",
        "given": [ "NoEncounter" ]
      } ],
      "gender": "male",
      "birthDate": "1990-12-31"
    }
  }, {
    "fullUrl": "https://madie.cms.gov/ServiceRequest/cd192297-5639-4d06-89ea-cb9ac5f96dc4",
    "resource": {
      "resourceType": "ServiceRequest",
      "id": "cd192297-5639-4d06-89ea-cb9ac5f96dc4",
      "meta": {
        "profile": [ "http://hl7.org/fhir/us/qicore/StructureDefinition/qicore-servicerequest" ]
      },
      "status": "active",
      "intent": "order",
      "code": {
        "coding": [ {
          "system": "http://snomed.info/sct",
          "version": "http://snomed.info/sct/731000124108/version/20250301",
          "code": "103696004",
          "display": "Patient referral to specialist (procedure)",
          "userSelected": true
        } ]
      },
      "subject": {
        "reference": "Patient/854f73d5-2461-4c12-b214-c4a3ceecfe36"
      },
      "authoredOn": "2026-01-01T00:00:00.000+00:00"
    }
  }, {
    "fullUrl": "https://madie.cms.gov/Coverage/5dec94ab-9f29-4b18-b082-2f9858e1361a",
    "resource": {
      "resourceType": "Coverage",
      "id": "5dec94ab-9f29-4b18-b082-2f9858e1361a",
      "meta": {
        "profile": [ "http://hl7.org/fhir/us/qicore/StructureDefinition/qicore-coverage" ]
      },
      "status": "active",
      "subscriberId": "123456",
      "beneficiary": {
        "reference": "Patient/854f73d5-2461-4c12-b214-c4a3ceecfe36"
      },
      "relationship": {
        "coding": [ {
          "system": "http://terminology.hl7.org/CodeSystem/subscriber-relationship",
          "code": "self",
          "display": "Self"
        } ]
      },
      "payor": [ {
        "reference": "Organization/8668c3f0-9883-4c71-8098-db048ce79526"
      } ]
    }
  }, {
    "fullUrl": "https://madie.cms.gov/Organization/8668c3f0-9883-4c71-8098-db048ce79526",
    "resource": {
      "resourceType": "Organization",
      "id": "8668c3f0-9883-4c71-8098-db048ce79526",
      "meta": {
        "profile": [ "http://hl7.org/fhir/us/qicore/StructureDefinition/qicore-organization" ]
      },
      "identifier": [ {
        "use": "temp",
        "system": "urn:oid:2.16.840.1.113883.4.4",
        "value": "21-3259825"
      } ],
      "active": true,
      "type": [ {
        "coding": [ {
          "system": "http://terminology.hl7.org/CodeSystem/organization-type",
          "code": "pay",
          "display": "Payer"
        } ]
      } ],
      "name": "Blue Cross Blue Shield of Texas",
      "telecom": [ {
        "system": "phone",
        "value": "(+1) 972-766-6900"
      } ],
      "address": [ {
        "use": "billing",
        "type": "postal",
        "line": [ "P.O. Box 660044" ],
        "city": "Dallas",
        "state": "TX",
        "postalCode": "75266-0044",
        "country": "USA"
      } ]
    }
  }, {
    "fullUrl": "https://madie.cms.gov/Practitioner/c7e1b831-fcfc-4a60-9909-4dbd5caf3c8e",
    "resource": {
      "resourceType": "Practitioner",
      "id": "c7e1b831-fcfc-4a60-9909-4dbd5caf3c8e",
      "meta": {
        "profile": [ "http://hl7.org/fhir/us/qicore/StructureDefinition/qicore-practitioner" ]
      },
      "identifier": [ {
        "system": "http://hl7.org/fhir/sid/us-npi",
        "value": "1689411712"
      } ],
      "name": [ {
        "family": "Evil",
        "prefix": [ "Dr" ]
      } ]
    }
  }, {
    "fullUrl": "https://madie.cms.gov/MeasureReport/a589227f-f9c4-4dcb-a117-583785f39485",
    "resource": {
      "resourceType": "MeasureReport",
      "id": "a589227f-f9c4-4dcb-a117-583785f39485",
      "meta": {
        "profile": [ "http://hl7.org/fhir/us/cqfmeasures/StructureDefinition/test-case-cqfm" ]
      },
      "contained": [ {
        "resourceType": "Parameters",
        "id": "1e532783-d1b5-4bf1-8fc6-79abdb66c463-parameters",
        "parameter": [ {
          "name": "subject",
          "valueString": "854f73d5-2461-4c12-b214-c4a3ceecfe36"
        } ]
      } ],
      "extension": [ {
        "url": "http://hl7.org/fhir/StructureDefinition/cqf-inputParameters",
        "valueReference": {
          "reference": "#1e532783-d1b5-4bf1-8fc6-79abdb66c463-parameters"
        }
      }, {
        "url": "http://hl7.org/fhir/us/cqfmeasures/StructureDefinition/cqfm-testCaseDescription",
        "valueMarkdown": "Valid Referral during referral period (\"202x-01-01T00:00:00.000+00:00\") with status finished and intent order.  No eligible encounter.\n"
      } ],
      "modifierExtension": [ {
        "url": "http://hl7.org/fhir/us/cqfmeasures/StructureDefinition/cqfm-isTestCase",
        "valueBoolean": true
      } ],
      "status": "complete",
      "type": "individual",
      "measure": "https://madie.cms.gov/Measure/CMS50FHIRReceiptofSpecialistReport",
      "period": {
        "start": "2026-01-01",
        "end": "2026-12-31"
      },
      "group": [ {
        "id": "Group_1",
        "population": [ {
          "id": "InitialPopulation_1",
          "code": {
            "coding": [ {
              "system": "http://terminology.hl7.org/CodeSystem/measure-population",
              "code": "initial-population",
              "display": "Initial Population"
            } ]
          },
          "count": 0
        }, {
          "id": "Denominator_1",
          "code": {
            "coding": [ {
              "system": "http://terminology.hl7.org/CodeSystem/measure-population",
              "code": "denominator",
              "display": "Denominator"
            } ]
          },
          "count": 0
        }, {
          "id": "Numerator_1",
          "code": {
            "coding": [ {
              "system": "http://terminology.hl7.org/CodeSystem/measure-population",
              "code": "numerator",
              "display": "Numerator"
            } ]
          },
          "count": 0
        } ],
        "measureScore": {
          "value": 1.0
        }
      } ],
      "evaluatedResource": [ {
        "reference": "Patient/854f73d5-2461-4c12-b214-c4a3ceecfe36"
      }, {
        "reference": "ServiceRequest/cd192297-5639-4d06-89ea-cb9ac5f96dc4"
      }, {
        "reference": "Coverage/5dec94ab-9f29-4b18-b082-2f9858e1361a"
      }, {
        "reference": "Organization/8668c3f0-9883-4c71-8098-db048ce79526"
      }, {
        "reference": "Practitioner/c7e1b831-fcfc-4a60-9909-4dbd5caf3c8e"
      } ]
    }
  } ]
}