{
  "resourceType": "Bundle",
  "id": "62c880ec0111a60120dc21f6",
  "type": "transaction",
  "entry": [ {
    "fullUrl": "https://madie.cms.gov/Patient/338b6de7-9fdb-4e6b-a0cf-571459f31127",
    "resource": {
      "resourceType": "Patient",
      "id": "338b6de7-9fdb-4e6b-a0cf-571459f31127",
      "meta": {
        "profile": [ "http://hl7.org/fhir/us/qicore/StructureDefinition/qicore-patient" ]
      },
      "extension": [ {
        "url": "http://hl7.org/fhir/us/core/StructureDefinition/us-core-race",
        "extension": [ {
          "url": "ombCategory",
          "valueCoding": {
            "system": "urn:oid:2.16.840.1.113883.6.238",
            "code": "1002-5",
            "display": "American Indian or Alaska Native",
            "userSelected": true
          }
        }, {
          "url": "text",
          "valueString": "American Indian or Alaska Native"
        } ]
      }, {
        "url": "http://hl7.org/fhir/us/core/StructureDefinition/us-core-ethnicity",
        "extension": [ {
          "url": "ombCategory",
          "valueCoding": {
            "system": "urn:oid:2.16.840.1.113883.6.238",
            "code": "2135-2",
            "display": "Hispanic or Latino",
            "userSelected": true
          }
        }, {
          "url": "text",
          "valueString": "Hispanic or Latino"
        } ]
      } ],
      "identifier": [ {
        "type": {
          "coding": [ {
            "system": "http://terminology.hl7.org/CodeSystem/v2-0203",
            "code": "MR"
          } ]
        },
        "system": "https://bonnie-fhir.healthit.gov/",
        "value": "62c880ec0111a60120dc21f6"
      } ],
      "active": true,
      "name": [ {
        "use": "usual",
        "family": "NUMERFailPop2",
        "given": [ "PainAssess7DaysPriorRadTx" ]
      } ],
      "gender": "male",
      "birthDate": "1952-02-10"
    },
    "request": {
      "method": "PUT",
      "url": "Patient/338b6de7-9fdb-4e6b-a0cf-571459f31127"
    }
  }, {
    "fullUrl": "https://madie.cms.gov/Observation/75478fb0-1cf7-4f14-8e37-c7ca412cd27b",
    "resource": {
      "resourceType": "Observation",
      "id": "75478fb0-1cf7-4f14-8e37-c7ca412cd27b",
      "meta": {
        "profile": [ "http://hl7.org/fhir/us/qicore/StructureDefinition/qicore-observation-screening-assessment" ]
      },
      "status": "final",
      "category": [ {
        "coding": [ {
          "system": "http://terminology.hl7.org/CodeSystem/observation-category",
          "code": "survey",
          "display": "Survey"
        } ],
        "text": "Survey"
      } ],
      "code": {
        "coding": [ {
          "system": "http://loinc.org",
          "code": "38208-5"
        } ]
      },
      "subject": {
        "reference": "Patient/338b6de7-9fdb-4e6b-a0cf-571459f31127"
      },
      "effectiveDateTime": "2026-04-29T08:00:00.000+00:00",
      "valueInteger": 9
    },
    "request": {
      "method": "PUT",
      "url": "Observation/75478fb0-1cf7-4f14-8e37-c7ca412cd27b"
    }
  }, {
    "fullUrl": "https://madie.cms.gov/Condition/64e312a1-3d6f-4132-9213-ebb7b7b65f2c",
    "resource": {
      "resourceType": "Condition",
      "id": "64e312a1-3d6f-4132-9213-ebb7b7b65f2c",
      "meta": {
        "profile": [ "http://hl7.org/fhir/us/qicore/StructureDefinition/qicore-condition-problems-health-concerns" ]
      },
      "clinicalStatus": {
        "coding": [ {
          "system": "http://terminology.hl7.org/CodeSystem/condition-clinical",
          "code": "active",
          "display": "Active",
          "userSelected": true
        } ]
      },
      "verificationStatus": {
        "coding": [ {
          "system": "http://terminology.hl7.org/CodeSystem/condition-ver-status",
          "code": "confirmed",
          "display": "Confirmed"
        } ]
      },
      "category": [ {
        "coding": [ {
          "system": "http://terminology.hl7.org/CodeSystem/condition-category",
          "code": "problem-list-item",
          "display": "Problem List Item"
        } ]
      } ],
      "code": {
        "coding": [ {
          "system": "http://snomed.info/sct",
          "code": "107691000119101"
        } ]
      },
      "subject": {
        "reference": "Patient/338b6de7-9fdb-4e6b-a0cf-571459f31127"
      },
      "onsetDateTime": "2022-05-06T10:45:00.000+00:00"
    },
    "request": {
      "method": "PUT",
      "url": "Condition/64e312a1-3d6f-4132-9213-ebb7b7b65f2c"
    }
  }, {
    "fullUrl": "https://madie.cms.gov/Coverage/7e611446-009d-48d0-a422-9d3ff2b8c015",
    "resource": {
      "resourceType": "Coverage",
      "id": "7e611446-009d-48d0-a422-9d3ff2b8c015",
      "meta": {
        "profile": [ "http://hl7.org/fhir/us/qicore/StructureDefinition/qicore-coverage" ]
      },
      "status": "active",
      "beneficiary": {
        "reference": "Patient/338b6de7-9fdb-4e6b-a0cf-571459f31127"
      },
      "period": {
        "start": "1976-04-25T08:00:00.000+00:00"
      },
      "payor": [ {
        "reference": "Organization/a3277341-314e-431d-841d-278b5a66053b"
      } ]
    },
    "request": {
      "method": "PUT",
      "url": "Coverage/7e611446-009d-48d0-a422-9d3ff2b8c015"
    }
  }, {
    "fullUrl": "https://madie.cms.gov/Encounter/e943aee1-d589-4f08-9657-ceeab1fb1076",
    "resource": {
      "resourceType": "Encounter",
      "id": "e943aee1-d589-4f08-9657-ceeab1fb1076",
      "meta": {
        "profile": [ "http://hl7.org/fhir/us/qicore/StructureDefinition/qicore-encounter" ]
      },
      "status": "finished",
      "class": {
        "system": "http://terminology.hl7.org/CodeSystem/v3-ActCode",
        "code": "AMB",
        "display": "ambulatory",
        "userSelected": true
      },
      "type": [ {
        "coding": [ {
          "system": "http://www.ama-assn.org/go/cpt",
          "version": "2023",
          "code": "77427",
          "display": "Radiation treatment management, 5 treatments",
          "userSelected": true
        } ]
      } ],
      "subject": {
        "reference": "Patient/338b6de7-9fdb-4e6b-a0cf-571459f31127"
      },
      "period": {
        "start": "2026-05-06T12:45:00.000+00:00",
        "end": "2026-05-06T13:00:00.000+00:00"
      }
    },
    "request": {
      "method": "PUT",
      "url": "Encounter/e943aee1-d589-4f08-9657-ceeab1fb1076"
    }
  }, {
    "fullUrl": "https://madie.cms.gov/Organization/a3277341-314e-431d-841d-278b5a66053b",
    "resource": {
      "resourceType": "Organization",
      "id": "a3277341-314e-431d-841d-278b5a66053b",
      "meta": {
        "profile": [ "http://hl7.org/fhir/us/qicore/StructureDefinition/qicore-organization" ]
      },
      "identifier": [ {
        "use": "temp",
        "system": "urn:oid:2.16.840.1.113883.4.4",
        "value": "21-3259825"
      } ],
      "active": true,
      "type": [ {
        "coding": [ {
          "system": "http://terminology.hl7.org/CodeSystem/organization-type",
          "code": "pay",
          "display": "Payer"
        } ]
      } ],
      "name": "Blue Cross Blue Shield of Texas",
      "telecom": [ {
        "system": "phone",
        "value": "(+1) 972-766-6900"
      } ],
      "address": [ {
        "use": "billing",
        "type": "postal",
        "line": [ "P.O. Box 660044" ],
        "city": "Dallas",
        "state": "TX",
        "postalCode": "75266-0044",
        "country": "USA"
      } ]
    },
    "request": {
      "method": "PUT",
      "url": "Organization/a3277341-314e-431d-841d-278b5a66053b"
    }
  }, {
    "fullUrl": "https://madie.cms.gov/Practitioner/5c52c0b6-e18f-4a0b-943f-7df517922210",
    "resource": {
      "resourceType": "Practitioner",
      "id": "5c52c0b6-e18f-4a0b-943f-7df517922210",
      "meta": {
        "profile": [ "http://hl7.org/fhir/us/qicore/StructureDefinition/qicore-practitioner" ]
      },
      "identifier": [ {
        "system": "http://hl7.org/fhir/sid/us-npi",
        "value": "1234567890"
      } ],
      "name": [ {
        "family": "Evil",
        "prefix": [ "Dr" ]
      } ]
    },
    "request": {
      "method": "PUT",
      "url": "Practitioner/5c52c0b6-e18f-4a0b-943f-7df517922210"
    }
  }, {
    "fullUrl": "https://madie.cms.gov/MeasureReport/facc1989-4f06-45ed-bf12-b5968de8d795",
    "resource": {
      "resourceType": "MeasureReport",
      "id": "facc1989-4f06-45ed-bf12-b5968de8d795",
      "meta": {
        "profile": [ "http://hl7.org/fhir/us/cqfmeasures/StructureDefinition/test-case-cqfm" ]
      },
      "contained": [ {
        "resourceType": "Parameters",
        "id": "6ade80ed-6a3a-4fa2-8fe6-b9e21584cbc4-parameters",
        "parameter": [ {
          "name": "subject",
          "valueString": "338b6de7-9fdb-4e6b-a0cf-571459f31127"
        } ]
      } ],
      "extension": [ {
        "url": "http://hl7.org/fhir/StructureDefinition/cqf-inputParameters",
        "valueReference": {
          "reference": "#6ade80ed-6a3a-4fa2-8fe6-b9e21584cbc4-parameters"
        }
      }, {
        "url": "http://hl7.org/fhir/us/cqfmeasures/StructureDefinition/cqfm-testCaseDescription",
        "valueMarkdown": "Patient with cancer diagnosis that overlaps radiation treatment management during measurement period. Pain intensity assessment was performed 7 days before radiation treatment management.\n"
      } ],
      "modifierExtension": [ {
        "url": "http://hl7.org/fhir/us/cqfmeasures/StructureDefinition/cqfm-isTestCase",
        "valueBoolean": true
      } ],
      "status": "complete",
      "type": "individual",
      "measure": "https://madie.cms.gov/Measure/CMS157FHIRPainIntensityQuantified",
      "period": {
        "start": "2026-01-01",
        "end": "2026-12-31"
      },
      "group": [ {
        "id": "Group_1",
        "population": [ {
          "id": "InitialPopulation_1",
          "code": {
            "coding": [ {
              "system": "http://terminology.hl7.org/CodeSystem/measure-population",
              "code": "initial-population",
              "display": "Initial Population"
            } ]
          },
          "count": 0
        }, {
          "id": "Denominator_1",
          "code": {
            "coding": [ {
              "system": "http://terminology.hl7.org/CodeSystem/measure-population",
              "code": "denominator",
              "display": "Denominator"
            } ]
          },
          "count": 0
        }, {
          "id": "Numerator_1",
          "code": {
            "coding": [ {
              "system": "http://terminology.hl7.org/CodeSystem/measure-population",
              "code": "numerator",
              "display": "Numerator"
            } ]
          },
          "count": 0
        } ],
        "measureScore": {
          "value": 0.0
        }
      }, {
        "id": "Group_2",
        "population": [ {
          "id": "InitialPopulation_2",
          "code": {
            "coding": [ {
              "system": "http://terminology.hl7.org/CodeSystem/measure-population",
              "code": "initial-population",
              "display": "Initial Population"
            } ]
          },
          "count": 1
        }, {
          "id": "Denominator_2",
          "code": {
            "coding": [ {
              "system": "http://terminology.hl7.org/CodeSystem/measure-population",
              "code": "denominator",
              "display": "Denominator"
            } ]
          },
          "count": 1
        }, {
          "id": "Numerator_2",
          "code": {
            "coding": [ {
              "system": "http://terminology.hl7.org/CodeSystem/measure-population",
              "code": "numerator",
              "display": "Numerator"
            } ]
          },
          "count": 0
        } ],
        "measureScore": {
          "value": 0.0
        }
      } ],
      "evaluatedResource": [ {
        "reference": "Patient/338b6de7-9fdb-4e6b-a0cf-571459f31127"
      }, {
        "reference": "Observation/75478fb0-1cf7-4f14-8e37-c7ca412cd27b"
      }, {
        "reference": "Condition/64e312a1-3d6f-4132-9213-ebb7b7b65f2c"
      }, {
        "reference": "Coverage/7e611446-009d-48d0-a422-9d3ff2b8c015"
      }, {
        "reference": "Encounter/e943aee1-d589-4f08-9657-ceeab1fb1076"
      }, {
        "reference": "Organization/a3277341-314e-431d-841d-278b5a66053b"
      }, {
        "reference": "Practitioner/5c52c0b6-e18f-4a0b-943f-7df517922210"
      } ]
    },
    "request": {
      "method": "PUT",
      "url": "MeasureReport/facc1989-4f06-45ed-bf12-b5968de8d795"
    }
  } ]
}