{
  "resourceType": "Bundle",
  "id": "64d11fec1252352a0771c3bc",
  "type": "transaction",
  "entry": [ {
    "fullUrl": "https://madie.cms.gov/Patient/00a4eb1e-5529-46a3-9373-037c6e0f2859",
    "resource": {
      "resourceType": "Patient",
      "id": "00a4eb1e-5529-46a3-9373-037c6e0f2859",
      "meta": {
        "profile": [ "http://hl7.org/fhir/us/qicore/StructureDefinition/qicore-patient" ]
      },
      "extension": [ {
        "url": "http://hl7.org/fhir/us/core/StructureDefinition/us-core-race",
        "extension": [ {
          "url": "ombCategory",
          "valueCoding": {
            "system": "urn:oid:2.16.840.1.113883.6.238",
            "code": "1002-5",
            "display": "American Indian or Alaska Native",
            "userSelected": true
          }
        }, {
          "url": "text",
          "valueString": "American Indian or Alaska Native"
        } ]
      }, {
        "url": "http://hl7.org/fhir/us/core/StructureDefinition/us-core-ethnicity",
        "extension": [ {
          "url": "ombCategory",
          "valueCoding": {
            "system": "urn:oid:2.16.840.1.113883.6.238",
            "code": "2186-5",
            "display": "Not Hispanic or Latino",
            "userSelected": true
          }
        }, {
          "url": "text",
          "valueString": "Not Hispanic or Latino"
        } ]
      } ],
      "identifier": [ {
        "type": {
          "coding": [ {
            "system": "http://terminology.hl7.org/CodeSystem/v2-0203",
            "code": "MR"
          } ]
        },
        "system": "https://bonnie-fhir.healthit.gov/",
        "value": "64d11fec1252352a0771c3bc"
      } ],
      "name": [ {
        "family": "IPFail",
        "given": [ "Age16NoEnc" ]
      } ],
      "gender": "female",
      "birthDate": "2008-01-02"
    },
    "request": {
      "method": "PUT",
      "url": "Patient/00a4eb1e-5529-46a3-9373-037c6e0f2859"
    }
  }, {
    "fullUrl": "https://madie.cms.gov/Coverage/cf7677bc-9bf1-4bf1-9637-405479a8eab0",
    "resource": {
      "resourceType": "Coverage",
      "id": "cf7677bc-9bf1-4bf1-9637-405479a8eab0",
      "status": "active",
      "type": {
        "coding": [ {
          "system": "http://www.nlm.nih.gov/research/umls/sop",
          "code": "81",
          "userSelected": true
        } ]
      },
      "beneficiary": {
        "reference": "Patient/00a4eb1e-5529-46a3-9373-037c6e0f2859"
      },
      "period": {
        "start": "2027-01-01T08:00:00.000+00:00",
        "end": "2027-12-31T08:15:00.000+00:00"
      },
      "payor": [ {
        "reference": "Organization/00c0157e-b174-4a05-817a-9554b890be65"
      } ]
    },
    "request": {
      "method": "PUT",
      "url": "Coverage/cf7677bc-9bf1-4bf1-9637-405479a8eab0"
    }
  }, {
    "fullUrl": "https://madie.cms.gov/Organization/00c0157e-b174-4a05-817a-9554b890be65",
    "resource": {
      "resourceType": "Organization",
      "id": "00c0157e-b174-4a05-817a-9554b890be65",
      "meta": {
        "profile": [ "http://hl7.org/fhir/us/qicore/StructureDefinition/qicore-organization" ]
      },
      "identifier": [ {
        "use": "temp",
        "system": "urn:oid:2.16.840.1.113883.4.4",
        "value": "21-3259825"
      } ],
      "active": true,
      "type": [ {
        "coding": [ {
          "system": "http://terminology.hl7.org/CodeSystem/organization-type",
          "code": "pay",
          "display": "Payer"
        } ]
      } ],
      "name": "Blue Cross Blue Shield of Texas",
      "telecom": [ {
        "system": "phone",
        "value": "(+1) 972-766-6900"
      } ],
      "address": [ {
        "use": "billing",
        "type": "postal",
        "line": [ "P.O. Box 660044" ],
        "city": "Dallas",
        "state": "TX",
        "postalCode": "75266-0044",
        "country": "USA"
      } ]
    },
    "request": {
      "method": "PUT",
      "url": "Organization/00c0157e-b174-4a05-817a-9554b890be65"
    }
  }, {
    "fullUrl": "https://madie.cms.gov/Practitioner/ee43f9d0-0154-44aa-82f6-8a1a55af7ea5",
    "resource": {
      "resourceType": "Practitioner",
      "id": "ee43f9d0-0154-44aa-82f6-8a1a55af7ea5",
      "identifier": [ {
        "system": "http://hl7.org/fhir/sid/us-npi",
        "value": "123456"
      } ],
      "name": [ {
        "family": "Evil",
        "prefix": [ "Dr" ]
      } ]
    },
    "request": {
      "method": "PUT",
      "url": "Practitioner/ee43f9d0-0154-44aa-82f6-8a1a55af7ea5"
    }
  }, {
    "fullUrl": "https://madie.cms.gov/MeasureReport/7cb87476-ffb8-42f6-acbc-e77940e4ff9a",
    "resource": {
      "resourceType": "MeasureReport",
      "id": "7cb87476-ffb8-42f6-acbc-e77940e4ff9a",
      "meta": {
        "profile": [ "http://hl7.org/fhir/us/cqfmeasures/StructureDefinition/test-case-cqfm" ]
      },
      "contained": [ {
        "resourceType": "Parameters",
        "id": "f7cc3ecf-7c5d-43fa-a7cd-a760a9667efb-parameters",
        "parameter": [ {
          "name": "subject",
          "valueString": "00a4eb1e-5529-46a3-9373-037c6e0f2859"
        } ]
      } ],
      "extension": [ {
        "url": "http://hl7.org/fhir/StructureDefinition/cqf-inputParameters",
        "valueReference": {
          "reference": "#f7cc3ecf-7c5d-43fa-a7cd-a760a9667efb-parameters"
        }
      }, {
        "url": "http://hl7.org/fhir/us/cqfmeasures/StructureDefinition/cqfm-testCaseDescription",
        "valueMarkdown": "Patient is less than 17 at start of MP, but has no encounter recorded in MP - Testing timing"
      } ],
      "modifierExtension": [ {
        "url": "http://hl7.org/fhir/us/cqfmeasures/StructureDefinition/cqfm-isTestCase",
        "valueBoolean": true
      } ],
      "status": "complete",
      "type": "individual",
      "measure": "https://madie.cms.gov/Measure/CMS177FHIRChildMDDSuicideAssmt",
      "period": {
        "start": "2026-01-01",
        "end": "2026-12-31"
      },
      "group": [ {
        "id": "Group_1",
        "population": [ {
          "id": "InitialPopulation_1",
          "code": {
            "coding": [ {
              "system": "http://terminology.hl7.org/CodeSystem/measure-population",
              "code": "initial-population",
              "display": "Initial Population"
            } ]
          },
          "count": 0
        }, {
          "id": "Denominator_1",
          "code": {
            "coding": [ {
              "system": "http://terminology.hl7.org/CodeSystem/measure-population",
              "code": "denominator",
              "display": "Denominator"
            } ]
          },
          "count": 0
        }, {
          "id": "Numerator_1",
          "code": {
            "coding": [ {
              "system": "http://terminology.hl7.org/CodeSystem/measure-population",
              "code": "numerator",
              "display": "Numerator"
            } ]
          },
          "count": 0
        } ],
        "measureScore": {
          "value": 0.0
        }
      } ],
      "evaluatedResource": [ {
        "reference": "Patient/00a4eb1e-5529-46a3-9373-037c6e0f2859"
      }, {
        "reference": "Coverage/cf7677bc-9bf1-4bf1-9637-405479a8eab0"
      }, {
        "reference": "Organization/00c0157e-b174-4a05-817a-9554b890be65"
      }, {
        "reference": "Practitioner/ee43f9d0-0154-44aa-82f6-8a1a55af7ea5"
      } ]
    },
    "request": {
      "method": "PUT",
      "url": "MeasureReport/7cb87476-ffb8-42f6-acbc-e77940e4ff9a"
    }
  } ]
}