{
  "resourceType": "Bundle",
  "id": "62c880ec0111a60120dc21fb",
  "type": "transaction",
  "entry": [ {
    "fullUrl": "https://madie.cms.gov/Patient/d4b441fb-5b3a-40f7-ada1-ecf06376f4fb",
    "resource": {
      "resourceType": "Patient",
      "id": "d4b441fb-5b3a-40f7-ada1-ecf06376f4fb",
      "meta": {
        "profile": [ "http://hl7.org/fhir/us/qicore/StructureDefinition/qicore-patient" ]
      },
      "extension": [ {
        "url": "http://hl7.org/fhir/us/core/StructureDefinition/us-core-race",
        "extension": [ {
          "url": "ombCategory",
          "valueCoding": {
            "system": "urn:oid:2.16.840.1.113883.6.238",
            "code": "1002-5",
            "display": "American Indian or Alaska Native",
            "userSelected": true
          }
        }, {
          "url": "text",
          "valueString": "American Indian or Alaska Native"
        } ]
      }, {
        "url": "http://hl7.org/fhir/us/core/StructureDefinition/us-core-ethnicity",
        "extension": [ {
          "url": "ombCategory",
          "valueCoding": {
            "system": "urn:oid:2.16.840.1.113883.6.238",
            "code": "2135-2",
            "display": "Hispanic or Latino",
            "userSelected": true
          }
        }, {
          "url": "text",
          "valueString": "Hispanic or Latino"
        } ]
      } ],
      "identifier": [ {
        "type": {
          "coding": [ {
            "system": "http://terminology.hl7.org/CodeSystem/v2-0203",
            "code": "MR"
          } ]
        },
        "system": "https://bonnie-fhir.healthit.gov/",
        "value": "62c880ec0111a60120dc21fb"
      } ],
      "active": true,
      "name": [ {
        "use": "usual",
        "family": "IPPPassPop1",
        "given": [ "Chemo30DaysBeforeANDSameDayAsEnc" ]
      } ],
      "gender": "female",
      "birthDate": "1938-05-13"
    },
    "request": {
      "method": "PUT",
      "url": "Patient/d4b441fb-5b3a-40f7-ada1-ecf06376f4fb"
    }
  }, {
    "fullUrl": "https://madie.cms.gov/Condition/9f21f142-9cbd-4192-82da-bc7a9eb9666f",
    "resource": {
      "resourceType": "Condition",
      "id": "9f21f142-9cbd-4192-82da-bc7a9eb9666f",
      "meta": {
        "profile": [ "http://hl7.org/fhir/us/qicore/StructureDefinition/qicore-condition-problems-health-concerns" ]
      },
      "clinicalStatus": {
        "coding": [ {
          "system": "http://terminology.hl7.org/CodeSystem/condition-clinical",
          "code": "active",
          "display": "active",
          "userSelected": true
        } ]
      },
      "verificationStatus": {
        "coding": [ {
          "system": "http://terminology.hl7.org/CodeSystem/condition-ver-status",
          "code": "confirmed",
          "display": "Confirmed"
        } ]
      },
      "category": [ {
        "coding": [ {
          "system": "http://terminology.hl7.org/CodeSystem/condition-category",
          "code": "problem-list-item",
          "display": "Problem List Item"
        } ]
      } ],
      "code": {
        "coding": [ {
          "system": "http://hl7.org/fhir/sid/icd-10-cm",
          "code": "C40.00"
        } ]
      },
      "subject": {
        "reference": "Patient/d4b441fb-5b3a-40f7-ada1-ecf06376f4fb"
      },
      "onsetDateTime": "2024-05-01T13:30:00.000+00:00"
    },
    "request": {
      "method": "PUT",
      "url": "Condition/9f21f142-9cbd-4192-82da-bc7a9eb9666f"
    }
  }, {
    "fullUrl": "https://madie.cms.gov/Encounter/db7fe4f7-bcea-4566-90e8-0b51e527cfe5",
    "resource": {
      "resourceType": "Encounter",
      "id": "db7fe4f7-bcea-4566-90e8-0b51e527cfe5",
      "meta": {
        "profile": [ "http://hl7.org/fhir/us/qicore/StructureDefinition/qicore-encounter" ]
      },
      "status": "finished",
      "class": {
        "system": "http://terminology.hl7.org/CodeSystem/v3-ActCode",
        "code": "AMB",
        "display": "ambulatory",
        "userSelected": true
      },
      "type": [ {
        "coding": [ {
          "system": "http://www.ama-assn.org/go/cpt",
          "code": "99203"
        } ]
      } ],
      "subject": {
        "reference": "Patient/d4b441fb-5b3a-40f7-ada1-ecf06376f4fb"
      },
      "period": {
        "start": "2026-01-31T14:00:00.000+00:00",
        "end": "2026-01-31T15:00:00.000+00:00"
      }
    },
    "request": {
      "method": "PUT",
      "url": "Encounter/db7fe4f7-bcea-4566-90e8-0b51e527cfe5"
    }
  }, {
    "fullUrl": "https://madie.cms.gov/Coverage/e1626d9a-738c-4aad-9417-b5e074b0aaea",
    "resource": {
      "resourceType": "Coverage",
      "id": "e1626d9a-738c-4aad-9417-b5e074b0aaea",
      "meta": {
        "profile": [ "http://hl7.org/fhir/us/qicore/StructureDefinition/qicore-coverage" ]
      },
      "status": "active",
      "beneficiary": {
        "reference": "Patient/d4b441fb-5b3a-40f7-ada1-ecf06376f4fb"
      },
      "period": {
        "start": "1938-05-13T08:00:00.000+00:00"
      },
      "payor": [ {
        "reference": "Organization/0ae168ba-4396-4f00-b35d-fcfc85a0bd43"
      } ]
    },
    "request": {
      "method": "PUT",
      "url": "Coverage/e1626d9a-738c-4aad-9417-b5e074b0aaea"
    }
  }, {
    "fullUrl": "https://madie.cms.gov/Procedure/120104fb-e36e-4cd1-830f-87d2a1bed1f6",
    "resource": {
      "resourceType": "Procedure",
      "id": "120104fb-e36e-4cd1-830f-87d2a1bed1f6",
      "meta": {
        "profile": [ "http://hl7.org/fhir/us/qicore/StructureDefinition/qicore-procedure" ]
      },
      "extension": [ {
        "url": "http://hl7.org/fhir/us/qicore/StructureDefinition/qicore-recorded",
        "valueDateTime": "2026-01-01T12:35:00.000+00:00"
      } ],
      "status": "completed",
      "code": {
        "coding": [ {
          "system": "http://snomed.info/sct",
          "code": "169396008"
        } ]
      },
      "subject": {
        "reference": "Patient/d4b441fb-5b3a-40f7-ada1-ecf06376f4fb"
      },
      "performedPeriod": {
        "start": "2026-01-01T08:00:00.000+00:00",
        "end": "2026-01-01T08:15:00.000+00:00"
      }
    },
    "request": {
      "method": "PUT",
      "url": "Procedure/120104fb-e36e-4cd1-830f-87d2a1bed1f6"
    }
  }, {
    "fullUrl": "https://madie.cms.gov/Procedure/b5c51bcf-c7c1-42e7-b609-ee403a85800b",
    "resource": {
      "resourceType": "Procedure",
      "id": "b5c51bcf-c7c1-42e7-b609-ee403a85800b",
      "meta": {
        "profile": [ "http://hl7.org/fhir/us/qicore/StructureDefinition/qicore-procedure" ]
      },
      "extension": [ {
        "url": "http://hl7.org/fhir/us/qicore/StructureDefinition/qicore-recorded",
        "valueDateTime": "2026-01-31T12:35:00.000+00:00"
      } ],
      "status": "completed",
      "code": {
        "coding": [ {
          "system": "http://snomed.info/sct",
          "code": "169396008"
        } ]
      },
      "subject": {
        "reference": "Patient/d4b441fb-5b3a-40f7-ada1-ecf06376f4fb"
      },
      "performedPeriod": {
        "start": "2026-01-31T08:00:00.000+00:00",
        "end": "2026-01-31T08:15:00.000+00:00"
      }
    },
    "request": {
      "method": "PUT",
      "url": "Procedure/b5c51bcf-c7c1-42e7-b609-ee403a85800b"
    }
  }, {
    "fullUrl": "https://madie.cms.gov/Organization/0ae168ba-4396-4f00-b35d-fcfc85a0bd43",
    "resource": {
      "resourceType": "Organization",
      "id": "0ae168ba-4396-4f00-b35d-fcfc85a0bd43",
      "meta": {
        "profile": [ "http://hl7.org/fhir/us/qicore/StructureDefinition/qicore-organization" ]
      },
      "identifier": [ {
        "use": "temp",
        "system": "urn:oid:2.16.840.1.113883.4.4",
        "value": "21-3259825"
      } ],
      "active": true,
      "type": [ {
        "coding": [ {
          "system": "http://terminology.hl7.org/CodeSystem/organization-type",
          "code": "pay",
          "display": "Payer"
        } ]
      } ],
      "name": "Blue Cross Blue Shield of Texas",
      "telecom": [ {
        "system": "phone",
        "value": "(+1) 972-766-6900"
      } ],
      "address": [ {
        "use": "billing",
        "type": "postal",
        "line": [ "P.O. Box 660044" ],
        "city": "Dallas",
        "state": "TX",
        "postalCode": "75266-0044",
        "country": "USA"
      } ]
    },
    "request": {
      "method": "PUT",
      "url": "Organization/0ae168ba-4396-4f00-b35d-fcfc85a0bd43"
    }
  }, {
    "fullUrl": "https://madie.cms.gov/Practitioner/bf2cdbc6-636a-48be-a05d-80be62789ee6",
    "resource": {
      "resourceType": "Practitioner",
      "id": "bf2cdbc6-636a-48be-a05d-80be62789ee6",
      "meta": {
        "profile": [ "http://hl7.org/fhir/us/qicore/StructureDefinition/qicore-practitioner" ]
      },
      "identifier": [ {
        "system": "http://hl7.org/fhir/sid/us-npi",
        "value": "1234567890"
      } ],
      "name": [ {
        "family": "Evil",
        "prefix": [ "Dr" ]
      } ]
    },
    "request": {
      "method": "PUT",
      "url": "Practitioner/bf2cdbc6-636a-48be-a05d-80be62789ee6"
    }
  }, {
    "fullUrl": "https://madie.cms.gov/MeasureReport/72e35d1c-2e54-4a52-ac2e-430785c31ee5",
    "resource": {
      "resourceType": "MeasureReport",
      "id": "72e35d1c-2e54-4a52-ac2e-430785c31ee5",
      "meta": {
        "profile": [ "http://hl7.org/fhir/us/cqfmeasures/StructureDefinition/test-case-cqfm" ]
      },
      "contained": [ {
        "resourceType": "Parameters",
        "id": "a426b3f5-9013-44d7-b3c2-0329b28e4765-parameters",
        "parameter": [ {
          "name": "subject",
          "valueString": "d4b441fb-5b3a-40f7-ada1-ecf06376f4fb"
        } ]
      } ],
      "extension": [ {
        "url": "http://hl7.org/fhir/StructureDefinition/cqf-inputParameters",
        "valueReference": {
          "reference": "#a426b3f5-9013-44d7-b3c2-0329b28e4765-parameters"
        }
      }, {
        "url": "http://hl7.org/fhir/us/cqfmeasures/StructureDefinition/cqfm-testCaseDescription",
        "valueMarkdown": "Patient with cancer diagnosis that overlaps the office visit during measurement period. Chemotherapy received 30 days before the office visit and another chemo same day of office visit. "
      } ],
      "modifierExtension": [ {
        "url": "http://hl7.org/fhir/us/cqfmeasures/StructureDefinition/cqfm-isTestCase",
        "valueBoolean": true
      } ],
      "status": "complete",
      "type": "individual",
      "measure": "https://madie.cms.gov/Measure/CMS157FHIRPainIntensityQuantified",
      "period": {
        "start": "2026-01-01",
        "end": "2026-12-31"
      },
      "group": [ {
        "id": "Group_1",
        "population": [ {
          "id": "InitialPopulation_1",
          "code": {
            "coding": [ {
              "system": "http://terminology.hl7.org/CodeSystem/measure-population",
              "code": "initial-population",
              "display": "Initial Population"
            } ]
          },
          "count": 1
        }, {
          "id": "Denominator_1",
          "code": {
            "coding": [ {
              "system": "http://terminology.hl7.org/CodeSystem/measure-population",
              "code": "denominator",
              "display": "Denominator"
            } ]
          },
          "count": 1
        }, {
          "id": "Numerator_1",
          "code": {
            "coding": [ {
              "system": "http://terminology.hl7.org/CodeSystem/measure-population",
              "code": "numerator",
              "display": "Numerator"
            } ]
          },
          "count": 0
        } ],
        "measureScore": {
          "value": 0.0
        }
      }, {
        "id": "Group_2",
        "population": [ {
          "id": "InitialPopulation_2",
          "code": {
            "coding": [ {
              "system": "http://terminology.hl7.org/CodeSystem/measure-population",
              "code": "initial-population",
              "display": "Initial Population"
            } ]
          },
          "count": 0
        }, {
          "id": "Denominator_2",
          "code": {
            "coding": [ {
              "system": "http://terminology.hl7.org/CodeSystem/measure-population",
              "code": "denominator",
              "display": "Denominator"
            } ]
          },
          "count": 0
        }, {
          "id": "Numerator_2",
          "code": {
            "coding": [ {
              "system": "http://terminology.hl7.org/CodeSystem/measure-population",
              "code": "numerator",
              "display": "Numerator"
            } ]
          },
          "count": 0
        } ],
        "measureScore": {
          "value": 0.0
        }
      } ],
      "evaluatedResource": [ {
        "reference": "Patient/d4b441fb-5b3a-40f7-ada1-ecf06376f4fb"
      }, {
        "reference": "Condition/9f21f142-9cbd-4192-82da-bc7a9eb9666f"
      }, {
        "reference": "Encounter/db7fe4f7-bcea-4566-90e8-0b51e527cfe5"
      }, {
        "reference": "Coverage/e1626d9a-738c-4aad-9417-b5e074b0aaea"
      }, {
        "reference": "Procedure/120104fb-e36e-4cd1-830f-87d2a1bed1f6"
      }, {
        "reference": "Procedure/b5c51bcf-c7c1-42e7-b609-ee403a85800b"
      }, {
        "reference": "Organization/0ae168ba-4396-4f00-b35d-fcfc85a0bd43"
      }, {
        "reference": "Practitioner/bf2cdbc6-636a-48be-a05d-80be62789ee6"
      } ]
    },
    "request": {
      "method": "PUT",
      "url": "MeasureReport/72e35d1c-2e54-4a52-ac2e-430785c31ee5"
    }
  } ]
}