{
  "resourceType": "Bundle",
  "id": "649445728572d953d016cf75",
  "type": "collection",
  "entry": [ {
    "fullUrl": "https://madie.cms.gov/Patient/267848e8-9b42-4a94-931d-d2bc4a142c61",
    "resource": {
      "resourceType": "Patient",
      "id": "267848e8-9b42-4a94-931d-d2bc4a142c61",
      "meta": {
        "profile": [ "http://hl7.org/fhir/us/qicore/StructureDefinition/qicore-patient" ]
      },
      "extension": [ {
        "url": "http://hl7.org/fhir/us/core/StructureDefinition/us-core-race",
        "extension": [ {
          "url": "ombCategory",
          "valueCoding": {
            "system": "urn:oid:2.16.840.1.113883.6.238",
            "code": "2106-3",
            "display": "White",
            "userSelected": true
          }
        }, {
          "url": "text",
          "valueString": "White"
        } ]
      }, {
        "url": "http://hl7.org/fhir/us/core/StructureDefinition/us-core-ethnicity",
        "extension": [ {
          "url": "ombCategory",
          "valueCoding": {
            "system": "urn:oid:2.16.840.1.113883.6.238",
            "code": "2135-2",
            "display": "Hispanic or Latino",
            "userSelected": true
          }
        }, {
          "url": "text",
          "valueString": "Hispanic or Latino"
        } ]
      } ],
      "identifier": [ {
        "type": {
          "coding": [ {
            "system": "http://terminology.hl7.org/CodeSystem/v2-0203",
            "code": "MR"
          } ]
        },
        "system": "https://bonnie-fhir.healthit.gov/",
        "value": "649445728572d953d016cf75"
      } ],
      "name": [ {
        "family": "IPFail",
        "given": [ "HIVDxLocalCodeinFebofMP" ]
      } ],
      "gender": "female",
      "birthDate": "1991-02-09"
    }
  }, {
    "fullUrl": "https://madie.cms.gov/Condition/19a1e30e-b371-4c3c-8e3c-a5a0b41d0c38",
    "resource": {
      "resourceType": "Condition",
      "id": "19a1e30e-b371-4c3c-8e3c-a5a0b41d0c38",
      "meta": {
        "profile": [ "http://hl7.org/fhir/us/qicore/StructureDefinition/qicore-condition-problems-health-concerns" ]
      },
      "clinicalStatus": {
        "coding": [ {
          "system": "http://terminology.hl7.org/CodeSystem/condition-clinical",
          "code": "active",
          "display": "active",
          "userSelected": true
        } ]
      },
      "category": [ {
        "coding": [ {
          "system": "http://terminology.hl7.org/CodeSystem/condition-category",
          "code": "problem-list-item",
          "display": "Problem List Item"
        } ]
      } ],
      "code": {
        "coding": [ {
          "system": "http://local",
          "code": "XYZ5",
          "userSelected": true
        } ]
      },
      "subject": {
        "reference": "Patient/267848e8-9b42-4a94-931d-d2bc4a142c61"
      },
      "onsetDateTime": "2026-02-02T13:01:00.000+00:00",
      "recordedDate": "2026-02-02T13:01:00.000+00:00"
    }
  }, {
    "fullUrl": "https://madie.cms.gov/Encounter/aead7908-1d40-4398-bd9c-ff4b37467ca6",
    "resource": {
      "resourceType": "Encounter",
      "id": "aead7908-1d40-4398-bd9c-ff4b37467ca6",
      "meta": {
        "profile": [ "http://hl7.org/fhir/us/qicore/StructureDefinition/qicore-encounter" ]
      },
      "status": "finished",
      "class": {
        "system": "http://terminology.hl7.org/CodeSystem/v3-ActCode",
        "code": "AMB",
        "display": "ambulatory"
      },
      "type": [ {
        "coding": [ {
          "system": "http://snomed.info/sct",
          "version": "2022-09",
          "code": "185317003",
          "display": "Telephone encounter (procedure)",
          "userSelected": true
        } ]
      } ],
      "subject": {
        "reference": "Patient/267848e8-9b42-4a94-931d-d2bc4a142c61"
      },
      "period": {
        "start": "2026-03-07T07:30:00.000+00:00",
        "end": "2026-03-07T08:15:00.000+00:00"
      }
    }
  }, {
    "fullUrl": "https://madie.cms.gov/Coverage/afdcac73-c531-44bb-8881-f6d0e814387e",
    "resource": {
      "resourceType": "Coverage",
      "id": "afdcac73-c531-44bb-8881-f6d0e814387e",
      "meta": {
        "profile": [ "http://hl7.org/fhir/us/qicore/StructureDefinition/qicore-coverage" ]
      },
      "status": "active",
      "subscriberId": "123456",
      "beneficiary": {
        "reference": "Patient/267848e8-9b42-4a94-931d-d2bc4a142c61"
      },
      "relationship": {
        "coding": [ {
          "system": "http://terminology.hl7.org/CodeSystem/subscriber-relationship",
          "code": "self",
          "display": "Self"
        } ]
      },
      "payor": [ {
        "reference": "Organization/165229d1-d92c-4da0-a314-0e16e1fc82bc"
      } ]
    }
  }, {
    "fullUrl": "https://madie.cms.gov/Organization/165229d1-d92c-4da0-a314-0e16e1fc82bc",
    "resource": {
      "resourceType": "Organization",
      "id": "165229d1-d92c-4da0-a314-0e16e1fc82bc",
      "meta": {
        "profile": [ "http://hl7.org/fhir/us/qicore/StructureDefinition/qicore-organization" ]
      },
      "identifier": [ {
        "use": "temp",
        "system": "urn:oid:2.16.840.1.113883.4.4",
        "value": "21-3259825"
      } ],
      "active": true,
      "type": [ {
        "coding": [ {
          "system": "http://terminology.hl7.org/CodeSystem/organization-type",
          "code": "pay",
          "display": "Payer"
        } ]
      } ],
      "name": "Blue Cross Blue Shield of Texas",
      "telecom": [ {
        "system": "phone",
        "value": "(+1) 972-766-6900"
      } ],
      "address": [ {
        "use": "billing",
        "type": "postal",
        "line": [ "P.O. Box 660044" ],
        "city": "Dallas",
        "state": "TX",
        "postalCode": "75266-0044",
        "country": "USA"
      } ]
    }
  }, {
    "fullUrl": "https://madie.cms.gov/Practitioner/ab7e7431-c719-44ec-a4df-3fdc7cc96fce",
    "resource": {
      "resourceType": "Practitioner",
      "id": "ab7e7431-c719-44ec-a4df-3fdc7cc96fce",
      "meta": {
        "profile": [ "http://hl7.org/fhir/us/qicore/StructureDefinition/qicore-practitioner" ]
      },
      "identifier": [ {
        "system": "http://hl7.org/fhir/sid/us-npi",
        "value": "1689411712"
      } ],
      "name": [ {
        "family": "Evil",
        "prefix": [ "Dr" ]
      } ]
    }
  }, {
    "fullUrl": "https://madie.cms.gov/MeasureReport/4e1a26e1-8e6e-41e7-a2de-81e553940a24",
    "resource": {
      "resourceType": "MeasureReport",
      "id": "4e1a26e1-8e6e-41e7-a2de-81e553940a24",
      "meta": {
        "profile": [ "http://hl7.org/fhir/us/cqfmeasures/StructureDefinition/test-case-cqfm" ]
      },
      "contained": [ {
        "resourceType": "Parameters",
        "id": "00e8aa4c-c22e-4574-98d2-1e4cafdafa7a-parameters",
        "parameter": [ {
          "name": "subject",
          "valueString": "267848e8-9b42-4a94-931d-d2bc4a142c61"
        } ]
      } ],
      "extension": [ {
        "url": "http://hl7.org/fhir/StructureDefinition/cqf-inputParameters",
        "valueReference": {
          "reference": "#00e8aa4c-c22e-4574-98d2-1e4cafdafa7a-parameters"
        }
      }, {
        "url": "http://hl7.org/fhir/us/cqfmeasures/StructureDefinition/cqfm-testCaseDescription",
        "valueMarkdown": "HIV diagnosis made in February of MP with a local code with a qualifying encounter during MP"
      } ],
      "modifierExtension": [ {
        "url": "http://hl7.org/fhir/us/cqfmeasures/StructureDefinition/cqfm-isTestCase",
        "valueBoolean": true
      } ],
      "status": "complete",
      "type": "individual",
      "measure": "https://madie.cms.gov/Measure/CMS314FHIRHIVViralSuppression",
      "period": {
        "start": "2026-01-01",
        "end": "2026-12-31"
      },
      "group": [ {
        "id": "Group_1",
        "population": [ {
          "id": "InitialPopulation_1",
          "code": {
            "coding": [ {
              "system": "http://terminology.hl7.org/CodeSystem/measure-population",
              "code": "initial-population",
              "display": "Initial Population"
            } ]
          },
          "count": 0
        }, {
          "id": "Denominator_1",
          "code": {
            "coding": [ {
              "system": "http://terminology.hl7.org/CodeSystem/measure-population",
              "code": "denominator",
              "display": "Denominator"
            } ]
          },
          "count": 0
        }, {
          "id": "Numerator_1",
          "code": {
            "coding": [ {
              "system": "http://terminology.hl7.org/CodeSystem/measure-population",
              "code": "numerator",
              "display": "Numerator"
            } ]
          },
          "count": 0
        } ],
        "measureScore": {
          "value": 1.0
        }
      } ],
      "evaluatedResource": [ {
        "reference": "Patient/267848e8-9b42-4a94-931d-d2bc4a142c61"
      }, {
        "reference": "Condition/19a1e30e-b371-4c3c-8e3c-a5a0b41d0c38"
      }, {
        "reference": "Encounter/aead7908-1d40-4398-bd9c-ff4b37467ca6"
      }, {
        "reference": "Coverage/afdcac73-c531-44bb-8881-f6d0e814387e"
      }, {
        "reference": "Organization/165229d1-d92c-4da0-a314-0e16e1fc82bc"
      }, {
        "reference": "Practitioner/ab7e7431-c719-44ec-a4df-3fdc7cc96fce"
      } ]
    }
  } ]
}