{
  "resourceType": "Bundle",
  "id": "64137b3e4b11b147841ab8f7",
  "type": "transaction",
  "entry": [ {
    "fullUrl": "https://madie.cms.gov/Patient/a7284289-8784-48d9-a342-7d851085efb7",
    "resource": {
      "resourceType": "Patient",
      "id": "a7284289-8784-48d9-a342-7d851085efb7",
      "meta": {
        "profile": [ "http://hl7.org/fhir/us/qicore/StructureDefinition/qicore-patient" ]
      },
      "extension": [ {
        "url": "http://hl7.org/fhir/us/core/StructureDefinition/us-core-race",
        "extension": [ {
          "url": "ombCategory",
          "valueCoding": {
            "system": "urn:oid:2.16.840.1.113883.6.238",
            "code": "2076-8",
            "display": "Native Hawaiian or Other Pacific Islander",
            "userSelected": true
          }
        }, {
          "url": "text",
          "valueString": "Native Hawaiian or Other Pacific Islander"
        } ]
      }, {
        "url": "http://hl7.org/fhir/us/core/StructureDefinition/us-core-ethnicity",
        "extension": [ {
          "url": "ombCategory",
          "valueCoding": {
            "system": "urn:oid:2.16.840.1.113883.6.238",
            "code": "2186-5",
            "display": "Not Hispanic or Latino",
            "userSelected": true
          }
        }, {
          "url": "text",
          "valueString": "Not Hispanic or Latino"
        } ]
      } ],
      "identifier": [ {
        "type": {
          "coding": [ {
            "system": "http://terminology.hl7.org/CodeSystem/v2-0203",
            "code": "MR"
          } ]
        },
        "system": "https://bonnie-fhir.healthit.gov/",
        "value": "64137b3e4b11b147841ab8f7"
      } ],
      "name": [ {
        "family": "DENOMPass",
        "given": [ "DiabetesOverlapsMP" ]
      } ],
      "gender": "female",
      "birthDate": "1999-01-01"
    },
    "request": {
      "method": "PUT",
      "url": "Patient/a7284289-8784-48d9-a342-7d851085efb7"
    }
  }, {
    "fullUrl": "https://madie.cms.gov/Condition/621b94e2-cebf-4eaf-9d38-3c3a3512ebfc",
    "resource": {
      "resourceType": "Condition",
      "id": "621b94e2-cebf-4eaf-9d38-3c3a3512ebfc",
      "meta": {
        "profile": [ "http://hl7.org/fhir/us/qicore/StructureDefinition/qicore-condition-encounter-diagnosis" ]
      },
      "clinicalStatus": {
        "coding": [ {
          "system": "http://terminology.hl7.org/CodeSystem/condition-clinical",
          "code": "active",
          "display": "active",
          "userSelected": true
        } ]
      },
      "category": [ {
        "coding": [ {
          "system": "http://terminology.hl7.org/CodeSystem/condition-category",
          "code": "encounter-diagnosis",
          "display": "Encounter Diagnosis",
          "userSelected": true
        } ]
      } ],
      "code": {
        "coding": [ {
          "system": "http://snomed.info/sct",
          "version": "2021-09",
          "code": "102781000119107",
          "display": "Sensory neuropathy due to type 1 diabetes mellitus (disorder)",
          "userSelected": true
        } ]
      },
      "subject": {
        "reference": "Patient/a7284289-8784-48d9-a342-7d851085efb7"
      },
      "onsetDateTime": "2025-07-01T08:00:00.000+00:00",
      "recordedDate": "2026-03-16T08:00:00.000+00:00"
    },
    "request": {
      "method": "PUT",
      "url": "Condition/621b94e2-cebf-4eaf-9d38-3c3a3512ebfc"
    }
  }, {
    "fullUrl": "https://madie.cms.gov/Encounter/790d150c-4dc4-4ba9-9a6e-e1dc1b64f299",
    "resource": {
      "resourceType": "Encounter",
      "id": "790d150c-4dc4-4ba9-9a6e-e1dc1b64f299",
      "meta": {
        "profile": [ "http://hl7.org/fhir/us/qicore/StructureDefinition/qicore-encounter" ]
      },
      "status": "finished",
      "class": {
        "system": "http://terminology.hl7.org/CodeSystem/v3-ActCode",
        "code": "AMB",
        "display": "ambulatory",
        "userSelected": true
      },
      "type": [ {
        "coding": [ {
          "system": "http://snomed.info/sct",
          "version": "2021-09",
          "code": "444971000124105",
          "display": "Annual wellness visit (procedure)",
          "userSelected": true
        } ]
      } ],
      "subject": {
        "reference": "Patient/a7284289-8784-48d9-a342-7d851085efb7"
      },
      "period": {
        "start": "2026-03-16T08:00:00.000+00:00",
        "end": "2026-03-16T08:15:00.000+00:00"
      }
    },
    "request": {
      "method": "PUT",
      "url": "Encounter/790d150c-4dc4-4ba9-9a6e-e1dc1b64f299"
    }
  }, {
    "fullUrl": "https://madie.cms.gov/MeasureReport/cff70463-6350-4b4a-8bd9-53fe6cc6a35b",
    "resource": {
      "resourceType": "MeasureReport",
      "id": "cff70463-6350-4b4a-8bd9-53fe6cc6a35b",
      "meta": {
        "profile": [ "http://hl7.org/fhir/us/cqfmeasures/StructureDefinition/test-case-cqfm" ]
      },
      "contained": [ {
        "resourceType": "Parameters",
        "id": "7bd49c3b-6d9e-4032-9347-016ffe9fed9a-parameters",
        "parameter": [ {
          "name": "subject",
          "valueString": "a7284289-8784-48d9-a342-7d851085efb7"
        } ]
      } ],
      "extension": [ {
        "url": "http://hl7.org/fhir/StructureDefinition/cqf-inputParameters",
        "valueReference": {
          "reference": "#7bd49c3b-6d9e-4032-9347-016ffe9fed9a-parameters"
        }
      }, {
        "url": "http://hl7.org/fhir/us/cqfmeasures/StructureDefinition/cqfm-testCaseDescription",
        "valueMarkdown": "This patient is 27 and has an active diabetes diagnosis and an annual wellness visit performed during the measurement period. This tests the denominator criteria.\n"
      } ],
      "modifierExtension": [ {
        "url": "http://hl7.org/fhir/us/cqfmeasures/StructureDefinition/cqfm-isTestCase",
        "valueBoolean": true
      } ],
      "status": "complete",
      "type": "individual",
      "measure": "https://madie.cms.gov/Measure/CMS951FHIRKidneyHealthEval",
      "period": {
        "start": "2026-01-01",
        "end": "2026-12-31"
      },
      "group": [ {
        "id": "Group_1",
        "population": [ {
          "id": "InitialPopulation_1",
          "code": {
            "coding": [ {
              "system": "http://terminology.hl7.org/CodeSystem/measure-population",
              "code": "initial-population",
              "display": "Initial Population"
            } ]
          },
          "count": 1
        }, {
          "id": "Denominator_1",
          "code": {
            "coding": [ {
              "system": "http://terminology.hl7.org/CodeSystem/measure-population",
              "code": "denominator",
              "display": "Denominator"
            } ]
          },
          "count": 1
        }, {
          "id": "DenominatorExclusion_1",
          "code": {
            "coding": [ {
              "system": "http://terminology.hl7.org/CodeSystem/measure-population",
              "code": "denominator-exclusion",
              "display": "Denominator Exclusion"
            } ]
          },
          "count": 0
        }, {
          "id": "Numerator_1",
          "code": {
            "coding": [ {
              "system": "http://terminology.hl7.org/CodeSystem/measure-population",
              "code": "numerator",
              "display": "Numerator"
            } ]
          },
          "count": 0
        } ],
        "measureScore": {
          "value": 1.0
        }
      } ],
      "evaluatedResource": [ {
        "reference": "Patient/a7284289-8784-48d9-a342-7d851085efb7"
      }, {
        "reference": "Condition/621b94e2-cebf-4eaf-9d38-3c3a3512ebfc"
      }, {
        "reference": "Encounter/790d150c-4dc4-4ba9-9a6e-e1dc1b64f299"
      } ]
    },
    "request": {
      "method": "PUT",
      "url": "MeasureReport/cff70463-6350-4b4a-8bd9-53fe6cc6a35b"
    }
  } ]
}