{
  "resourceType": "Bundle",
  "id": "612e6a6702c62a011f2e9fb5",
  "type": "transaction",
  "entry": [ {
    "fullUrl": "https://madie.cms.gov/Patient/810ee9c4-bb4d-43b6-a552-d7326e9e7a7b",
    "resource": {
      "resourceType": "Patient",
      "id": "810ee9c4-bb4d-43b6-a552-d7326e9e7a7b",
      "meta": {
        "profile": [ "http://hl7.org/fhir/us/qicore/StructureDefinition/qicore-patient" ]
      },
      "text": {
        "status": "generated",
        "div": "<div xmlns=\"http://www.w3.org/1999/xhtml\"><div class=\"hapiHeaderText\">VTE_RiskAssess_IPEnc <b>NUMERPASS </b></div><table class=\"hapiPropertyTable\"><tbody><tr><td>Identifier</td><td>a62a5b0e4cff99540c5cc7035df016ac</td></tr><tr><td>Date of birth</td><td><span>02 January 1974</span></td></tr></tbody></table></div>"
      },
      "extension": [ {
        "url": "http://hl7.org/fhir/us/core/StructureDefinition/us-core-race",
        "extension": [ {
          "url": "ombCategory",
          "valueCoding": {
            "system": "urn:oid:2.16.840.1.113883.6.238",
            "code": "1002-5",
            "display": "American Indian or Alaska Native",
            "userSelected": true
          }
        }, {
          "url": "text",
          "valueString": "American Indian or Alaska Native"
        } ]
      }, {
        "url": "http://hl7.org/fhir/us/core/StructureDefinition/us-core-ethnicity",
        "extension": [ {
          "url": "ombCategory",
          "valueCoding": {
            "system": "urn:oid:2.16.840.1.113883.6.238",
            "code": "2135-2",
            "display": "Hispanic or Latino",
            "userSelected": true
          }
        }, {
          "url": "text",
          "valueString": "Hispanic or Latino"
        } ]
      } ],
      "identifier": [ {
        "type": {
          "coding": [ {
            "system": "http://terminology.hl7.org/CodeSystem/v2-0203",
            "code": "MR"
          } ]
        },
        "system": "https://bonnie-fhir.healthit.gov/",
        "value": "612e6a6702c62a011f2e9fb5"
      } ],
      "active": true,
      "name": [ {
        "use": "usual",
        "family": "NUMERPass",
        "given": [ "VTERiskAssessIPEnc" ]
      } ],
      "gender": "male",
      "birthDate": "1975-01-02"
    },
    "request": {
      "method": "PUT",
      "url": "Patient/810ee9c4-bb4d-43b6-a552-d7326e9e7a7b"
    }
  }, {
    "fullUrl": "https://madie.cms.gov/Encounter/6c94bf67-e98e-45e2-b1b4-a7369773c697",
    "resource": {
      "resourceType": "Encounter",
      "id": "6c94bf67-e98e-45e2-b1b4-a7369773c697",
      "meta": {
        "profile": [ "http://hl7.org/fhir/us/qicore/StructureDefinition/qicore-encounter" ]
      },
      "status": "finished",
      "class": {
        "system": "http://terminology.hl7.org/CodeSystem/v3-ActCode",
        "code": "IMP",
        "display": "inpatient encounter"
      },
      "type": [ {
        "coding": [ {
          "system": "http://snomed.info/sct",
          "code": "8715000"
        } ]
      } ],
      "subject": {
        "reference": "Patient/810ee9c4-bb4d-43b6-a552-d7326e9e7a7b"
      },
      "period": {
        "start": "2026-11-01T08:00:00.000+00:00",
        "end": "2026-11-26T08:15:00.000+00:00"
      },
      "length": {
        "value": 25,
        "unit": "days"
      }
    },
    "request": {
      "method": "PUT",
      "url": "Encounter/6c94bf67-e98e-45e2-b1b4-a7369773c697"
    }
  }, {
    "fullUrl": "https://madie.cms.gov/Observation/59df9da4-762f-400d-9500-b47dafda61c7",
    "resource": {
      "resourceType": "Observation",
      "id": "59df9da4-762f-400d-9500-b47dafda61c7",
      "meta": {
        "profile": [ "http://hl7.org/fhir/us/qicore/StructureDefinition/qicore-simple-observation" ]
      },
      "status": "final",
      "category": [ {
        "coding": [ {
          "system": "http://terminology.hl7.org/CodeSystem/observation-category",
          "code": "exam",
          "display": "exam"
        } ]
      } ],
      "code": {
        "coding": [ {
          "system": "http://loinc.org",
          "code": "72136-5"
        } ]
      },
      "subject": {
        "reference": "Patient/810ee9c4-bb4d-43b6-a552-d7326e9e7a7b"
      },
      "effectiveDateTime": "2026-11-01T09:00:00.000+00:00",
      "valueCodeableConcept": {
        "coding": [ {
          "system": "http://snomed.info/sct",
          "code": "260362008",
          "display": "Low Risk"
        } ]
      }
    },
    "request": {
      "method": "PUT",
      "url": "Observation/59df9da4-762f-400d-9500-b47dafda61c7"
    }
  }, {
    "fullUrl": "https://madie.cms.gov/Coverage/1666556e-4a8d-4b8e-af83-baa357e9aee7",
    "resource": {
      "resourceType": "Coverage",
      "id": "1666556e-4a8d-4b8e-af83-baa357e9aee7",
      "status": "active",
      "beneficiary": {
        "reference": "Patient/810ee9c4-bb4d-43b6-a552-d7326e9e7a7b"
      },
      "period": {
        "start": "1975-01-02T08:00:00.000+00:00"
      },
      "payor": [ {
        "reference": "Organization/e7e46336-af62-45ce-80ca-d42916c91c89"
      } ]
    },
    "request": {
      "method": "PUT",
      "url": "Coverage/1666556e-4a8d-4b8e-af83-baa357e9aee7"
    }
  }, {
    "fullUrl": "https://madie.cms.gov/Organization/e7e46336-af62-45ce-80ca-d42916c91c89",
    "resource": {
      "resourceType": "Organization",
      "id": "e7e46336-af62-45ce-80ca-d42916c91c89",
      "meta": {
        "profile": [ "http://hl7.org/fhir/us/qicore/StructureDefinition/qicore-organization" ]
      },
      "identifier": [ {
        "use": "temp",
        "system": "urn:oid:2.16.840.1.113883.4.4",
        "value": "21-3259825"
      } ],
      "active": true,
      "type": [ {
        "coding": [ {
          "system": "http://terminology.hl7.org/CodeSystem/organization-type",
          "code": "pay",
          "display": "Payer"
        } ]
      } ],
      "name": "Blue Cross Blue Shield of Texas",
      "telecom": [ {
        "system": "phone",
        "value": "(+1) 972-766-6900"
      } ],
      "address": [ {
        "use": "billing",
        "type": "postal",
        "line": [ "P.O. Box 660044" ],
        "city": "Dallas",
        "state": "TX",
        "postalCode": "75266-0044",
        "country": "USA"
      } ]
    },
    "request": {
      "method": "PUT",
      "url": "Organization/e7e46336-af62-45ce-80ca-d42916c91c89"
    }
  }, {
    "fullUrl": "https://madie.cms.gov/Practitioner/d1a235b1-4094-4115-ad00-ed4ee8e20371",
    "resource": {
      "resourceType": "Practitioner",
      "id": "d1a235b1-4094-4115-ad00-ed4ee8e20371",
      "identifier": [ {
        "system": "http://hl7.org/fhir/sid/us-npi",
        "value": "123456"
      } ],
      "name": [ {
        "family": "Evil",
        "prefix": [ "Dr" ]
      } ]
    },
    "request": {
      "method": "PUT",
      "url": "Practitioner/d1a235b1-4094-4115-ad00-ed4ee8e20371"
    }
  }, {
    "fullUrl": "https://madie.cms.gov/MeasureReport/3e2113d3-e744-4a26-8362-86fe79e8dddd",
    "resource": {
      "resourceType": "MeasureReport",
      "id": "3e2113d3-e744-4a26-8362-86fe79e8dddd",
      "meta": {
        "profile": [ "http://hl7.org/fhir/us/cqfmeasures/StructureDefinition/test-case-cqfm" ]
      },
      "contained": [ {
        "resourceType": "Parameters",
        "id": "2a640417-3315-4888-83d9-c066c8f52677-parameters",
        "parameter": [ {
          "name": "subject",
          "valueString": "810ee9c4-bb4d-43b6-a552-d7326e9e7a7b"
        } ]
      } ],
      "extension": [ {
        "url": "http://hl7.org/fhir/StructureDefinition/cqf-inputParameters",
        "valueReference": {
          "reference": "#2a640417-3315-4888-83d9-c066c8f52677-parameters"
        }
      }, {
        "url": "http://hl7.org/fhir/us/cqfmeasures/StructureDefinition/cqfm-testCaseDescription",
        "valueMarkdown": "vte risk assessment low risk < = 1 day after start of IP encounter\n"
      } ],
      "modifierExtension": [ {
        "url": "http://hl7.org/fhir/us/cqfmeasures/StructureDefinition/cqfm-isTestCase",
        "valueBoolean": true
      } ],
      "status": "complete",
      "type": "individual",
      "measure": "https://madie.cms.gov/Measure/CMS108FHIRVTEProphylaxis",
      "period": {
        "start": "2026-01-01",
        "end": "2026-12-31"
      },
      "group": [ {
        "id": "Group_1",
        "population": [ {
          "id": "InitialPopulation_1",
          "code": {
            "coding": [ {
              "system": "http://terminology.hl7.org/CodeSystem/measure-population",
              "code": "initial-population",
              "display": "Initial Population"
            } ]
          },
          "count": 1
        }, {
          "id": "Denominator_1",
          "code": {
            "coding": [ {
              "system": "http://terminology.hl7.org/CodeSystem/measure-population",
              "code": "denominator",
              "display": "Denominator"
            } ]
          },
          "count": 1
        }, {
          "id": "DenominatorExclusion_1",
          "code": {
            "coding": [ {
              "system": "http://terminology.hl7.org/CodeSystem/measure-population",
              "code": "denominator-exclusion",
              "display": "Denominator Exclusion"
            } ]
          },
          "count": 0
        }, {
          "id": "Numerator_1",
          "code": {
            "coding": [ {
              "system": "http://terminology.hl7.org/CodeSystem/measure-population",
              "code": "numerator",
              "display": "Numerator"
            } ]
          },
          "count": 1
        } ],
        "measureScore": {
          "value": 0.0
        }
      } ],
      "evaluatedResource": [ {
        "reference": "Patient/810ee9c4-bb4d-43b6-a552-d7326e9e7a7b"
      }, {
        "reference": "Encounter/6c94bf67-e98e-45e2-b1b4-a7369773c697"
      }, {
        "reference": "Observation/59df9da4-762f-400d-9500-b47dafda61c7"
      }, {
        "reference": "Coverage/1666556e-4a8d-4b8e-af83-baa357e9aee7"
      }, {
        "reference": "Organization/e7e46336-af62-45ce-80ca-d42916c91c89"
      }, {
        "reference": "Practitioner/d1a235b1-4094-4115-ad00-ed4ee8e20371"
      } ]
    },
    "request": {
      "method": "PUT",
      "url": "MeasureReport/3e2113d3-e744-4a26-8362-86fe79e8dddd"
    }
  } ]
}