{
  "resourceType": "Bundle",
  "id": "6617e30316793f5a4fae16fe",
  "type": "transaction",
  "entry": [ {
    "fullUrl": "https://madie.cms.gov/Patient/8f5243aa-b111-4019-b5d0-d6889315af38",
    "resource": {
      "resourceType": "Patient",
      "id": "8f5243aa-b111-4019-b5d0-d6889315af38",
      "meta": {
        "profile": [ "http://hl7.org/fhir/us/qicore/StructureDefinition/qicore-patient" ]
      },
      "extension": [ {
        "url": "http://hl7.org/fhir/us/core/StructureDefinition/us-core-race",
        "extension": [ {
          "url": "ombCategory",
          "valueCoding": {
            "system": "urn:oid:2.16.840.1.113883.6.238",
            "code": "1002-5",
            "display": "American Indian or Alaska Native",
            "userSelected": true
          }
        }, {
          "url": "text",
          "valueString": "American Indian or Alaska Native"
        } ]
      }, {
        "url": "http://hl7.org/fhir/us/core/StructureDefinition/us-core-ethnicity",
        "extension": [ {
          "url": "ombCategory",
          "valueCoding": {
            "system": "urn:oid:2.16.840.1.113883.6.238",
            "code": "2135-2",
            "display": "Hispanic or Latino",
            "userSelected": true
          }
        }, {
          "url": "text",
          "valueString": "Hispanic or Latino"
        } ]
      }, {
        "url": "http://hl7.org/fhir/us/core/StructureDefinition/us-core-sex",
        "valueCode": "248153007"
      } ],
      "identifier": [ {
        "type": {
          "coding": [ {
            "system": "http://terminology.hl7.org/CodeSystem/v2-0203",
            "code": "MR"
          } ]
        },
        "system": "https://bonnie-fhir.healthit.gov/",
        "value": "6617e30316793f5a4fae16fe"
      } ],
      "name": [ {
        "family": "NUMERStrat2Pass",
        "given": [ "DecisionToAdmitAssessment" ]
      } ],
      "gender": "male",
      "birthDate": "2009-01-01"
    },
    "request": {
      "method": "PUT",
      "url": "Patient/8f5243aa-b111-4019-b5d0-d6889315af38"
    }
  }, {
    "fullUrl": "https://madie.cms.gov/Encounter/5938b71e-aee3-4f22-a9df-9d4a6b3e2dc7",
    "resource": {
      "resourceType": "Encounter",
      "id": "5938b71e-aee3-4f22-a9df-9d4a6b3e2dc7",
      "meta": {
        "profile": [ "http://hl7.org/fhir/us/qicore/StructureDefinition/qicore-encounter" ]
      },
      "status": "finished",
      "class": {
        "system": "http://terminology.hl7.org/CodeSystem/v3-ActCode",
        "code": "EMER",
        "display": "emergency"
      },
      "type": [ {
        "coding": [ {
          "system": "http://snomed.info/sct",
          "version": "2023-09",
          "code": "4525004",
          "display": "Emergency department patient visit (procedure)",
          "userSelected": true
        } ]
      } ],
      "subject": {
        "reference": "Patient/8f5243aa-b111-4019-b5d0-d6889315af38"
      },
      "period": {
        "start": "2027-05-01T00:00:00.000+00:00",
        "end": "2027-05-01T06:00:00.000+00:00"
      },
      "diagnosis": [ {
        "condition": {
          "reference": "Condition/behavioral-health-diagnosis-without-substance-use-disorders-9d16"
        },
        "use": {
          "coding": [ {
            "system": "http://terminology.hl7.org/CodeSystem/diagnosis-role",
            "code": "billing"
          } ]
        },
        "rank": 1
      } ],
      "location": [ {
        "location": {
          "reference": "Location/1da79b83-3e0c-4dcd-8dde-a1608c98fabb"
        },
        "period": {
          "start": "2027-05-01T00:00:00.000+00:00",
          "end": "2027-05-01T06:01:00.000+00:00"
        }
      } ]
    },
    "request": {
      "method": "PUT",
      "url": "Encounter/5938b71e-aee3-4f22-a9df-9d4a6b3e2dc7"
    }
  }, {
    "fullUrl": "https://madie.cms.gov/Encounter/951ad395-bde3-45a1-9b84-b4a4f4123964",
    "resource": {
      "resourceType": "Encounter",
      "id": "951ad395-bde3-45a1-9b84-b4a4f4123964",
      "meta": {
        "profile": [ "http://hl7.org/fhir/us/qicore/StructureDefinition/qicore-encounter" ]
      },
      "status": "finished",
      "class": {
        "system": "http://terminology.hl7.org/CodeSystem/v3-ActCode",
        "code": "IMP",
        "display": "inpatient"
      },
      "type": [ {
        "coding": [ {
          "system": "http://snomed.info/sct",
          "version": "2023-09",
          "code": "183452005",
          "display": "Emergency hospital admission (procedure)",
          "userSelected": true
        } ]
      } ],
      "subject": {
        "reference": "Patient/8f5243aa-b111-4019-b5d0-d6889315af38"
      },
      "period": {
        "start": "2027-05-01T06:00:00.000+00:00",
        "end": "2027-05-03T06:15:00.000+00:00"
      }
    },
    "request": {
      "method": "PUT",
      "url": "Encounter/951ad395-bde3-45a1-9b84-b4a4f4123964"
    }
  }, {
    "fullUrl": "https://madie.cms.gov/Location/1da79b83-3e0c-4dcd-8dde-a1608c98fabb",
    "resource": {
      "resourceType": "Location",
      "id": "1da79b83-3e0c-4dcd-8dde-a1608c98fabb",
      "meta": {
        "profile": [ "http://hl7.org/fhir/us/qicore/StructureDefinition/qicore-location" ]
      },
      "identifier": [ {
        "use": "usual",
        "system": "http://exampleoflocation.com",
        "value": "B1-S.F2"
      } ],
      "name": "Local ED",
      "type": [ {
        "coding": [ {
          "system": "https://www.cdc.gov/nhsn/cdaportal/terminology/codesystem/hsloc.html",
          "version": "2022",
          "code": "1108-0",
          "display": "Emergency Department",
          "userSelected": true
        } ]
      } ]
    },
    "request": {
      "method": "PUT",
      "url": "Location/1da79b83-3e0c-4dcd-8dde-a1608c98fabb"
    }
  }, {
    "fullUrl": "https://madie.cms.gov/Observation/ae5867b2-e54d-4664-951f-7b12c686e3c1",
    "resource": {
      "resourceType": "Observation",
      "id": "ae5867b2-e54d-4664-951f-7b12c686e3c1",
      "meta": {
        "profile": [ "http://hl7.org/fhir/us/qicore/StructureDefinition/qicore-observation-clinical-result" ]
      },
      "status": "final",
      "category": [ {
        "coding": [ {
          "system": "http://terminology.hl7.org/CodeSystem/observation-category",
          "code": "survey",
          "display": "Survey"
        } ]
      } ],
      "code": {
        "coding": [ {
          "system": "http://loinc.org",
          "version": "2.76",
          "code": "28568-4",
          "display": "Physician Emergency department Note",
          "userSelected": true
        } ]
      },
      "subject": {
        "reference": "Patient/8f5243aa-b111-4019-b5d0-d6889315af38"
      },
      "effectiveDateTime": "2027-05-01T01:00:00.000+00:00",
      "valueCodeableConcept": {
        "coding": [ {
          "system": "http://snomed.info/sct",
          "code": "434081000124108",
          "display": "Patient requires hospitalization (finding)",
          "userSelected": true
        } ]
      }
    },
    "request": {
      "method": "PUT",
      "url": "Observation/ae5867b2-e54d-4664-951f-7b12c686e3c1"
    }
  }, {
    "fullUrl": "https://madie.cms.gov/Condition/b3dd6f08-5d84-4723-a924-8ca5040560fb",
    "resource": {
      "resourceType": "Condition",
      "id": "b3dd6f08-5d84-4723-a924-8ca5040560fb",
      "meta": {
        "profile": [ "http://hl7.org/fhir/us/qicore/StructureDefinition/qicore-condition-encounter-diagnosis" ]
      },
      "category": [ {
        "coding": [ {
          "system": "http://terminology.hl7.org/CodeSystem/condition-category",
          "code": "encounter-diagnosis",
          "display": "Encounter Diagnosis"
        } ]
      } ],
      "code": {
        "coding": [ {
          "system": "http://snomed.info/sct",
          "version": "2023-09",
          "code": "10674711000119105",
          "display": "Acute severe exacerbation of asthma co-occurrent with allergic rhinitis (disorder)",
          "userSelected": true
        } ]
      },
      "subject": {
        "reference": "Patient/8f5243aa-b111-4019-b5d0-d6889315af38"
      },
      "recordedDate": "2026-04-18T08:00:00.000+00:00"
    },
    "request": {
      "method": "PUT",
      "url": "Condition/b3dd6f08-5d84-4723-a924-8ca5040560fb"
    }
  }, {
    "fullUrl": "https://madie.cms.gov/claim/ClaimBehavior-NotSubsAbuse",
    "resource": {
      "resourceType": "Claim",
      "id": "ClaimBehavior-NotSubsAbuse",
      "meta": {
        "profile": [ "http://hl7.org/fhir/us/qicore/StructureDefinition/qicore-claim" ]
      },
      "status": "active",
      "type": {
        "coding": [ {
          "system": "http://terminology.hl7.org/CodeSystem/claim-type",
          "code": "institutional"
        } ]
      },
      "use": "claim",
      "patient": {
        "reference": "Patient/8f5243aa-b111-4019-b5d0-d6889315af38"
      },
      "created": "2027-05-01",
      "provider": {
        "reference": "Practitioner/59f773fa-c909-47c5-8958-aa135206ec56"
      },
      "priority": {
        "coding": [ {
          "system": "http://terminology.hl7.org/CodeSystem/processpriority",
          "code": "normal"
        } ]
      },
      "diagnosis": [ {
        "sequence": 1,
        "diagnosisReference": {
          "reference": "Condition/b3dd6f08-5d84-4723-a924-8ca5040560fb"
        },
        "type": [ {
          "coding": [ {
            "system": "http://terminology.hl7.org/CodeSystem/ex-diagnosistype",
            "code": "principal"
          } ]
        } ]
      } ],
      "insurance": [ {
        "sequence": 1,
        "focal": true,
        "coverage": {
          "reference": "Coverage/8ec4e1d7-2a5d-4a6f-9dfa-4f8b45a4b22e"
        }
      } ],
      "item": [ {
        "sequence": 1,
        "diagnosisSequence": [ 1 ],
        "productOrService": {
          "coding": [ {
            "system": "http://terminology.hl7.org/CodeSystem/ex-USCLS",
            "code": "99555"
          } ]
        },
        "encounter": [ {
          "reference": "Encounter/5938b71e-aee3-4f22-a9df-9d4a6b3e2dc7"
        } ]
      } ]
    },
    "request": {
      "method": "PUT",
      "url": "Claim/ClaimBehavior-NotSubsAbuse"
    }
  }, {
    "fullUrl": "https://madie.cms.gov/Coverage/8ec4e1d7-2a5d-4a6f-9dfa-4f8b45a4b22e",
    "resource": {
      "resourceType": "Coverage",
      "id": "8ec4e1d7-2a5d-4a6f-9dfa-4f8b45a4b22e",
      "meta": {
        "profile": [ "http://hl7.org/fhir/us/qicore/StructureDefinition/qicore-coverage" ]
      },
      "identifier": [ {
        "type": {
          "coding": [ {
            "system": "http://terminology.hl7.org/CodeSystem/v2-0203",
            "code": "MB"
          } ]
        }
      } ],
      "status": "active",
      "beneficiary": {
        "reference": "Patient/8f5243aa-b111-4019-b5d0-d6889315af38"
      },
      "relationship": {
        "coding": [ {
          "system": "http://terminology.hl7.org/CodeSystem/subscriber-relationship",
          "code": "self"
        } ]
      },
      "payor": [ {
        "reference": "Organization/2fb1719a-cb57-408a-8d21-cfc96dc7ed40"
      } ]
    },
    "request": {
      "method": "PUT",
      "url": "Coverage/8ec4e1d7-2a5d-4a6f-9dfa-4f8b45a4b22e"
    }
  }, {
    "fullUrl": "https://madie.cms.gov/Organization/2fb1719a-cb57-408a-8d21-cfc96dc7ed40",
    "resource": {
      "resourceType": "Organization",
      "id": "2fb1719a-cb57-408a-8d21-cfc96dc7ed40",
      "meta": {
        "profile": [ "http://hl7.org/fhir/us/qicore/StructureDefinition/qicore-organization" ]
      },
      "identifier": [ {
        "use": "temp",
        "system": "urn:oid:2.16.840.1.113883.4.4",
        "value": "21-3259825"
      } ],
      "active": true,
      "type": [ {
        "coding": [ {
          "system": "http://terminology.hl7.org/CodeSystem/organization-type",
          "code": "pay",
          "display": "Payer"
        } ]
      } ],
      "name": "Blue Cross Blue Shield of Texas",
      "telecom": [ {
        "system": "phone",
        "value": "(+1) 972-766-6900"
      } ],
      "address": [ {
        "use": "billing",
        "type": "postal",
        "line": [ "P.O. Box 660044" ],
        "city": "Dallas",
        "state": "TX",
        "postalCode": "75266-0044",
        "country": "USA"
      } ]
    },
    "request": {
      "method": "PUT",
      "url": "Organization/2fb1719a-cb57-408a-8d21-cfc96dc7ed40"
    }
  }, {
    "fullUrl": "https://madie.cms.gov/Practitioner/59f773fa-c909-47c5-8958-aa135206ec56",
    "resource": {
      "resourceType": "Practitioner",
      "id": "59f773fa-c909-47c5-8958-aa135206ec56",
      "meta": {
        "profile": [ "http://hl7.org/fhir/us/qicore/StructureDefinition/qicore-practitioner" ]
      },
      "identifier": [ {
        "system": "http://hl7.org/fhir/sid/us-npi",
        "value": "9999999896"
      } ],
      "name": [ {
        "family": "Evil",
        "prefix": [ "Dr" ]
      } ]
    },
    "request": {
      "method": "PUT",
      "url": "Practitioner/59f773fa-c909-47c5-8958-aa135206ec56"
    }
  }, {
    "fullUrl": "https://madie.cms.gov/MeasureReport/e09e1a51-4240-41dd-9841-95155a7288d1",
    "resource": {
      "resourceType": "MeasureReport",
      "id": "e09e1a51-4240-41dd-9841-95155a7288d1",
      "meta": {
        "profile": [ "http://hl7.org/fhir/us/cqfmeasures/StructureDefinition/test-case-cqfm" ]
      },
      "contained": [ {
        "resourceType": "Parameters",
        "id": "57f297f8-a2ee-414b-aa9a-726b34aa02bd-parameters",
        "parameter": [ {
          "name": "subject",
          "valueString": "8f5243aa-b111-4019-b5d0-d6889315af38"
        } ]
      } ],
      "extension": [ {
        "url": "http://hl7.org/fhir/StructureDefinition/cqf-inputParameters",
        "valueReference": {
          "reference": "#57f297f8-a2ee-414b-aa9a-726b34aa02bd-parameters"
        }
      }, {
        "url": "http://hl7.org/fhir/us/cqfmeasures/StructureDefinition/cqfm-testCaseDescription",
        "valueMarkdown": "Adult, Enc 1st day of MP, asthma, arrived at midnight of 01/01, 241 minutes decision to admit and departure"
      } ],
      "modifierExtension": [ {
        "url": "http://hl7.org/fhir/us/cqfmeasures/StructureDefinition/cqfm-isTestCase",
        "valueBoolean": true
      } ],
      "status": "complete",
      "type": "individual",
      "measure": "https://madie.cms.gov/Measure/CMS1244FHIRECATHOQR",
      "period": {
        "start": "2027-01-01",
        "end": "2027-12-31"
      },
      "group": [ {
        "id": "Group_1",
        "population": [ {
          "id": "InitialPopulation_1",
          "code": {
            "coding": [ {
              "system": "http://terminology.hl7.org/CodeSystem/measure-population",
              "code": "initial-population",
              "display": "Initial Population"
            } ]
          },
          "count": 1
        }, {
          "id": "Denominator_1",
          "code": {
            "coding": [ {
              "system": "http://terminology.hl7.org/CodeSystem/measure-population",
              "code": "denominator",
              "display": "Denominator"
            } ]
          },
          "count": 1
        }, {
          "id": "Numerator_1",
          "code": {
            "coding": [ {
              "system": "http://terminology.hl7.org/CodeSystem/measure-population",
              "code": "numerator",
              "display": "Numerator"
            } ]
          },
          "count": 1
        } ],
        "measureScore": {
          "value": 0.0
        },
        "stratifier": [ {
          "id": "Stratification_1_1",
          "code": [ {
            "text": "Strata-1"
          } ],
          "stratum": [ {
            "value": {
              "text": "Strata-1"
            },
            "population": [ {
              "id": "InitialPopulation_1",
              "code": {
                "coding": [ {
                  "system": "http://terminology.hl7.org/CodeSystem/measure-population",
                  "code": "initial-population",
                  "display": "Initial Population"
                } ]
              },
              "count": 0
            }, {
              "id": "Denominator_1",
              "code": {
                "coding": [ {
                  "system": "http://terminology.hl7.org/CodeSystem/measure-population",
                  "code": "denominator",
                  "display": "Denominator"
                } ]
              },
              "count": 0
            }, {
              "id": "Numerator_1",
              "code": {
                "coding": [ {
                  "system": "http://terminology.hl7.org/CodeSystem/measure-population",
                  "code": "numerator",
                  "display": "Numerator"
                } ]
              },
              "count": 0
            } ]
          } ]
        }, {
          "id": "Stratification_1_2",
          "code": [ {
            "text": "Strata-2"
          } ],
          "stratum": [ {
            "value": {
              "text": "Strata-2"
            },
            "population": [ {
              "id": "InitialPopulation_1",
              "code": {
                "coding": [ {
                  "system": "http://terminology.hl7.org/CodeSystem/measure-population",
                  "code": "initial-population",
                  "display": "Initial Population"
                } ]
              },
              "count": 1
            }, {
              "id": "Denominator_1",
              "code": {
                "coding": [ {
                  "system": "http://terminology.hl7.org/CodeSystem/measure-population",
                  "code": "denominator",
                  "display": "Denominator"
                } ]
              },
              "count": 1
            }, {
              "id": "Numerator_1",
              "code": {
                "coding": [ {
                  "system": "http://terminology.hl7.org/CodeSystem/measure-population",
                  "code": "numerator",
                  "display": "Numerator"
                } ]
              },
              "count": 1
            } ]
          } ]
        }, {
          "id": "Stratification_1_3",
          "code": [ {
            "text": "Strata-3"
          } ],
          "stratum": [ {
            "value": {
              "text": "Strata-3"
            },
            "population": [ {
              "id": "InitialPopulation_1",
              "code": {
                "coding": [ {
                  "system": "http://terminology.hl7.org/CodeSystem/measure-population",
                  "code": "initial-population",
                  "display": "Initial Population"
                } ]
              },
              "count": 0
            }, {
              "id": "Denominator_1",
              "code": {
                "coding": [ {
                  "system": "http://terminology.hl7.org/CodeSystem/measure-population",
                  "code": "denominator",
                  "display": "Denominator"
                } ]
              },
              "count": 0
            }, {
              "id": "Numerator_1",
              "code": {
                "coding": [ {
                  "system": "http://terminology.hl7.org/CodeSystem/measure-population",
                  "code": "numerator",
                  "display": "Numerator"
                } ]
              },
              "count": 0
            } ]
          } ]
        }, {
          "id": "Stratification_1_4",
          "code": [ {
            "text": "Strata-4"
          } ],
          "stratum": [ {
            "value": {
              "text": "Strata-4"
            },
            "population": [ {
              "id": "InitialPopulation_1",
              "code": {
                "coding": [ {
                  "system": "http://terminology.hl7.org/CodeSystem/measure-population",
                  "code": "initial-population",
                  "display": "Initial Population"
                } ]
              },
              "count": 0
            }, {
              "id": "Denominator_1",
              "code": {
                "coding": [ {
                  "system": "http://terminology.hl7.org/CodeSystem/measure-population",
                  "code": "denominator",
                  "display": "Denominator"
                } ]
              },
              "count": 0
            }, {
              "id": "Numerator_1",
              "code": {
                "coding": [ {
                  "system": "http://terminology.hl7.org/CodeSystem/measure-population",
                  "code": "numerator",
                  "display": "Numerator"
                } ]
              },
              "count": 0
            } ]
          } ]
        } ]
      } ],
      "evaluatedResource": [ {
        "reference": "Patient/8f5243aa-b111-4019-b5d0-d6889315af38"
      }, {
        "reference": "Encounter/5938b71e-aee3-4f22-a9df-9d4a6b3e2dc7"
      }, {
        "reference": "Encounter/951ad395-bde3-45a1-9b84-b4a4f4123964"
      }, {
        "reference": "Location/1da79b83-3e0c-4dcd-8dde-a1608c98fabb"
      }, {
        "reference": "Observation/ae5867b2-e54d-4664-951f-7b12c686e3c1"
      }, {
        "reference": "Condition/b3dd6f08-5d84-4723-a924-8ca5040560fb"
      }, {
        "reference": "Claim/ClaimBehavior-NotSubsAbuse"
      }, {
        "reference": "Coverage/8ec4e1d7-2a5d-4a6f-9dfa-4f8b45a4b22e"
      }, {
        "reference": "Organization/2fb1719a-cb57-408a-8d21-cfc96dc7ed40"
      }, {
        "reference": "Practitioner/59f773fa-c909-47c5-8958-aa135206ec56"
      } ]
    },
    "request": {
      "method": "PUT",
      "url": "MeasureReport/e09e1a51-4240-41dd-9841-95155a7288d1"
    }
  } ]
}