{
  "resourceType": "Bundle",
  "id": "60f82c2e98086b570510e25f",
  "type": "transaction",
  "entry": [ {
    "fullUrl": "https://madie.cms.gov/Patient/96266910-a2b3-4294-9dc5-8a812622b70b",
    "resource": {
      "resourceType": "Patient",
      "id": "96266910-a2b3-4294-9dc5-8a812622b70b",
      "meta": {
        "profile": [ "http://hl7.org/fhir/us/qicore/StructureDefinition/qicore-patient" ]
      },
      "text": {
        "status": "generated",
        "div": "<div xmlns=\"http://www.w3.org/1999/xhtml\"><div class=\"hapiHeaderText\">MedTPA&gt;EndIPEnd <b>DENEXFAIL </b></div><table class=\"hapiPropertyTable\"><tbody><tr><td>Identifier</td><td>ae500d350c70bd42ecd45e3b5b36ed31</td></tr><tr><td>Date of birth</td><td><span>26 September 1975</span></td></tr></tbody></table></div>"
      },
      "extension": [ {
        "url": "http://hl7.org/fhir/us/core/StructureDefinition/us-core-race",
        "extension": [ {
          "url": "ombCategory",
          "valueCoding": {
            "system": "urn:oid:2.16.840.1.113883.6.238",
            "code": "2054-5",
            "display": "Black or African American",
            "userSelected": true
          }
        }, {
          "url": "text",
          "valueString": "Black or African American"
        } ]
      }, {
        "url": "http://hl7.org/fhir/us/core/StructureDefinition/us-core-ethnicity",
        "extension": [ {
          "url": "ombCategory",
          "valueCoding": {
            "system": "urn:oid:2.16.840.1.113883.6.238",
            "code": "2186-5",
            "display": "Not Hispanic or Latino",
            "userSelected": true
          }
        }, {
          "url": "text",
          "valueString": "Not Hispanic or Latino"
        } ]
      } ],
      "identifier": [ {
        "type": {
          "coding": [ {
            "system": "http://terminology.hl7.org/CodeSystem/v2-0203",
            "code": "MR"
          } ]
        },
        "system": "https://bonnie-fhir.healthit.gov/",
        "value": "60f82c2e98086b570510e25f"
      } ],
      "active": true,
      "name": [ {
        "use": "usual",
        "family": "DENEXFail",
        "given": [ "MedTPAGTEndIPEnd" ]
      } ],
      "gender": "female",
      "birthDate": "1976-09-26"
    },
    "request": {
      "method": "PUT",
      "url": "Patient/96266910-a2b3-4294-9dc5-8a812622b70b"
    }
  }, {
    "fullUrl": "https://madie.cms.gov/Encounter/7e2d3937-36a5-4ad3-9e13-3c3eac372bef",
    "resource": {
      "resourceType": "Encounter",
      "id": "7e2d3937-36a5-4ad3-9e13-3c3eac372bef",
      "meta": {
        "profile": [ "http://hl7.org/fhir/us/qicore/StructureDefinition/qicore-encounter" ]
      },
      "status": "finished",
      "class": {
        "system": "http://terminology.hl7.org/CodeSystem/v3-ActCode",
        "code": "EMER",
        "display": "emergency",
        "userSelected": true
      },
      "type": [ {
        "coding": [ {
          "system": "http://snomed.info/sct",
          "code": "4525004"
        } ]
      } ],
      "subject": {
        "reference": "Patient/96266910-a2b3-4294-9dc5-8a812622b70b"
      },
      "period": {
        "start": "2026-10-10T06:00:00.000+00:00",
        "end": "2026-10-10T07:01:00.000+00:00"
      },
      "length": {
        "value": 0,
        "unit": "days"
      }
    },
    "request": {
      "method": "PUT",
      "url": "Encounter/7e2d3937-36a5-4ad3-9e13-3c3eac372bef"
    }
  }, {
    "fullUrl": "https://madie.cms.gov/Encounter/25242c12-3e1d-4963-8a4c-9365b0369668",
    "resource": {
      "resourceType": "Encounter",
      "id": "25242c12-3e1d-4963-8a4c-9365b0369668",
      "meta": {
        "profile": [ "http://hl7.org/fhir/us/qicore/StructureDefinition/qicore-encounter" ]
      },
      "status": "finished",
      "class": {
        "system": "http://terminology.hl7.org/CodeSystem/v3-ActCode",
        "code": "IMP",
        "display": "inpatient encounter",
        "userSelected": true
      },
      "type": [ {
        "coding": [ {
          "system": "http://snomed.info/sct",
          "code": "32485007"
        } ]
      } ],
      "subject": {
        "reference": "Patient/96266910-a2b3-4294-9dc5-8a812622b70b"
      },
      "period": {
        "start": "2026-10-10T09:00:00.000+00:00",
        "end": "2026-10-12T11:15:00.000+00:00"
      },
      "length": {
        "value": 2,
        "unit": "days"
      },
      "reasonReference": [ {
        "reference": "Condition/bdbeccdb-ae37-4f45-9b89-1504b3b255b0"
      } ]
    },
    "request": {
      "method": "PUT",
      "url": "Encounter/25242c12-3e1d-4963-8a4c-9365b0369668"
    }
  }, {
    "fullUrl": "https://madie.cms.gov/MedicationAdministration/7eb46e53-8698-4ceb-b11f-43aa8270a6ed",
    "resource": {
      "resourceType": "MedicationAdministration",
      "id": "7eb46e53-8698-4ceb-b11f-43aa8270a6ed",
      "meta": {
        "profile": [ "http://hl7.org/fhir/us/qicore/StructureDefinition/qicore-medicationadministration" ]
      },
      "status": "completed",
      "medicationCodeableConcept": {
        "coding": [ {
          "system": "http://www.nlm.nih.gov/research/umls/rxnorm",
          "code": "1804799"
        } ]
      },
      "subject": {
        "reference": "Patient/96266910-a2b3-4294-9dc5-8a812622b70b"
      },
      "effectivePeriod": {
        "start": "2026-10-12T11:16:00.000+00:00"
      }
    },
    "request": {
      "method": "PUT",
      "url": "MedicationAdministration/7eb46e53-8698-4ceb-b11f-43aa8270a6ed"
    }
  }, {
    "fullUrl": "https://madie.cms.gov/Coverage/c7a40916-2daf-4e00-b318-70f6f3ddc775",
    "resource": {
      "resourceType": "Coverage",
      "id": "c7a40916-2daf-4e00-b318-70f6f3ddc775",
      "status": "active",
      "beneficiary": {
        "reference": "Patient/96266910-a2b3-4294-9dc5-8a812622b70b"
      },
      "period": {
        "start": "1976-09-26T08:00:00.000+00:00"
      },
      "payor": [ {
        "reference": "Organization/d5c8d500-b1c1-4f7f-8c22-85af9190fe33"
      } ]
    },
    "request": {
      "method": "PUT",
      "url": "Coverage/c7a40916-2daf-4e00-b318-70f6f3ddc775"
    }
  }, {
    "fullUrl": "https://madie.cms.gov/Condition/bdbeccdb-ae37-4f45-9b89-1504b3b255b0",
    "resource": {
      "resourceType": "Condition",
      "id": "bdbeccdb-ae37-4f45-9b89-1504b3b255b0",
      "meta": {
        "profile": [ "http://hl7.org/fhir/us/qicore/StructureDefinition/qicore-condition-encounter-diagnosis" ]
      },
      "clinicalStatus": {
        "coding": [ {
          "system": "http://terminology.hl7.org/CodeSystem/condition-clinical",
          "code": "active"
        } ]
      },
      "verificationStatus": {
        "coding": [ {
          "system": "http://terminology.hl7.org/CodeSystem/condition-ver-status",
          "code": "confirmed"
        } ]
      },
      "category": [ {
        "coding": [ {
          "system": "http://terminology.hl7.org/CodeSystem/condition-category",
          "code": "encounter-diagnosis",
          "display": "Encounter Diagnosis"
        } ]
      } ],
      "code": {
        "coding": [ {
          "system": "http://snomed.info/sct",
          "version": "2020-09",
          "code": "111297002",
          "display": "Nonparalytic stroke (disorder)",
          "userSelected": true
        } ]
      },
      "subject": {
        "reference": "Patient/96266910-a2b3-4294-9dc5-8a812622b70b"
      },
      "encounter": {
        "reference": "Encounter/25242c12-3e1d-4963-8a4c-9365b0369668"
      },
      "recordedDate": "2026-08-12T08:00:00.000+00:00"
    },
    "request": {
      "method": "PUT",
      "url": "Condition/bdbeccdb-ae37-4f45-9b89-1504b3b255b0"
    }
  }, {
    "fullUrl": "https://madie.cms.gov/claim/5ca62962b8484628b8de1ec5",
    "resource": {
      "resourceType": "Claim",
      "id": "5ca62962b8484628b8de1ec5",
      "meta": {
        "profile": [ "http://hl7.org/fhir/us/qicore/StructureDefinition/qicore-claim" ]
      },
      "status": "active",
      "type": {
        "coding": [ {
          "system": "http://terminology.hl7.org/CodeSystem/claim-type",
          "code": "institutional"
        } ]
      },
      "use": "claim",
      "patient": {
        "reference": "Patient/5450abfd-a667-4eb9-9b59-e85feed4865c"
      },
      "created": "2026-12-01",
      "provider": {
        "reference": "Practitioner/practitioner-123456"
      },
      "priority": {
        "coding": [ {
          "system": "http://terminology.hl7.org/CodeSystem/processpriority",
          "code": "normal"
        } ]
      },
      "diagnosis": [ {
        "sequence": 1,
        "diagnosisCodeableConcept": {
          "coding": [ {
            "system": "http://hl7.org/fhir/sid/icd-10-cm",
            "code": "I63.00"
          } ]
        },
        "type": [ {
          "coding": [ {
            "system": "http://terminology.hl7.org/CodeSystem/ex-diagnosistype",
            "code": "principal"
          } ]
        } ]
      } ],
      "insurance": [ {
        "sequence": 1,
        "focal": true,
        "coverage": {
          "reference": "Coverage/5fa041661c76ba66d9959367"
        }
      } ],
      "item": [ {
        "sequence": 1,
        "diagnosisSequence": [ 1 ],
        "productOrService": {
          "coding": [ {
            "system": "http://terminology.hl7.org/CodeSystem/ex-USCLS",
            "code": "99555"
          } ]
        },
        "encounter": [ {
          "reference": "Encounter/25242c12-3e1d-4963-8a4c-9365b0369668"
        } ]
      } ]
    },
    "request": {
      "method": "PUT",
      "url": "Claim/5ca62962b8484628b8de1ec5"
    }
  }, {
    "fullUrl": "https://madie.cms.gov/Organization/d5c8d500-b1c1-4f7f-8c22-85af9190fe33",
    "resource": {
      "resourceType": "Organization",
      "id": "d5c8d500-b1c1-4f7f-8c22-85af9190fe33",
      "meta": {
        "profile": [ "http://hl7.org/fhir/us/qicore/StructureDefinition/qicore-organization" ]
      },
      "identifier": [ {
        "use": "temp",
        "system": "urn:oid:2.16.840.1.113883.4.4",
        "value": "21-3259825"
      } ],
      "active": true,
      "type": [ {
        "coding": [ {
          "system": "http://terminology.hl7.org/CodeSystem/organization-type",
          "code": "pay",
          "display": "Payer"
        } ]
      } ],
      "name": "Blue Cross Blue Shield of Texas",
      "telecom": [ {
        "system": "phone",
        "value": "(+1) 972-766-6900"
      } ],
      "address": [ {
        "use": "billing",
        "type": "postal",
        "line": [ "P.O. Box 660044" ],
        "city": "Dallas",
        "state": "TX",
        "postalCode": "75266-0044",
        "country": "USA"
      } ]
    },
    "request": {
      "method": "PUT",
      "url": "Organization/d5c8d500-b1c1-4f7f-8c22-85af9190fe33"
    }
  }, {
    "fullUrl": "https://madie.cms.gov/MeasureReport/c14e6960-08a0-4cd2-b857-d258546d890b",
    "resource": {
      "resourceType": "MeasureReport",
      "id": "c14e6960-08a0-4cd2-b857-d258546d890b",
      "meta": {
        "profile": [ "http://hl7.org/fhir/us/cqfmeasures/StructureDefinition/test-case-cqfm" ]
      },
      "contained": [ {
        "resourceType": "Parameters",
        "id": "ad541e74-a683-4632-8e5a-1959840a2f6a-parameters",
        "parameter": [ {
          "name": "subject",
          "valueString": "96266910-a2b3-4294-9dc5-8a812622b70b"
        } ]
      } ],
      "extension": [ {
        "url": "http://hl7.org/fhir/StructureDefinition/cqf-inputParameters",
        "valueReference": {
          "reference": "#ad541e74-a683-4632-8e5a-1959840a2f6a-parameters"
        }
      }, {
        "url": "http://hl7.org/fhir/us/cqfmeasures/StructureDefinition/cqfm-testCaseDescription",
        "valueMarkdown": "Patient receives TPA after end of IP encounter\n"
      } ],
      "modifierExtension": [ {
        "url": "http://hl7.org/fhir/us/cqfmeasures/StructureDefinition/cqfm-isTestCase",
        "valueBoolean": true
      } ],
      "status": "complete",
      "type": "individual",
      "measure": "https://madie.cms.gov/Measure/CMS72FHIRSTKAntithromboticDay2",
      "period": {
        "start": "2026-01-01",
        "end": "2026-12-31"
      },
      "group": [ {
        "id": "Group_1",
        "population": [ {
          "id": "InitialPopulation_1",
          "code": {
            "coding": [ {
              "system": "http://terminology.hl7.org/CodeSystem/measure-population",
              "code": "initial-population",
              "display": "Initial Population"
            } ]
          },
          "count": 1
        }, {
          "id": "Denominator_1",
          "code": {
            "coding": [ {
              "system": "http://terminology.hl7.org/CodeSystem/measure-population",
              "code": "denominator",
              "display": "Denominator"
            } ]
          },
          "count": 1
        }, {
          "id": "DenominatorExclusion_1",
          "code": {
            "coding": [ {
              "system": "http://terminology.hl7.org/CodeSystem/measure-population",
              "code": "denominator-exclusion",
              "display": "Denominator Exclusion"
            } ]
          },
          "count": 0
        }, {
          "id": "Numerator_1",
          "code": {
            "coding": [ {
              "system": "http://terminology.hl7.org/CodeSystem/measure-population",
              "code": "numerator",
              "display": "Numerator"
            } ]
          },
          "count": 0
        }, {
          "id": "DenominatorException_1",
          "code": {
            "coding": [ {
              "system": "http://terminology.hl7.org/CodeSystem/measure-population",
              "code": "denominator-exception",
              "display": "Denominator Exception"
            } ]
          },
          "count": 0
        } ],
        "measureScore": {
          "value": 0.0
        }
      } ],
      "evaluatedResource": [ {
        "reference": "Patient/96266910-a2b3-4294-9dc5-8a812622b70b"
      }, {
        "reference": "Encounter/7e2d3937-36a5-4ad3-9e13-3c3eac372bef"
      }, {
        "reference": "Encounter/25242c12-3e1d-4963-8a4c-9365b0369668"
      }, {
        "reference": "MedicationAdministration/7eb46e53-8698-4ceb-b11f-43aa8270a6ed"
      }, {
        "reference": "Coverage/c7a40916-2daf-4e00-b318-70f6f3ddc775"
      }, {
        "reference": "Condition/bdbeccdb-ae37-4f45-9b89-1504b3b255b0"
      }, {
        "reference": "Claim/5ca62962b8484628b8de1ec5"
      }, {
        "reference": "Organization/d5c8d500-b1c1-4f7f-8c22-85af9190fe33"
      } ]
    },
    "request": {
      "method": "PUT",
      "url": "MeasureReport/c14e6960-08a0-4cd2-b857-d258546d890b"
    }
  } ]
}