{
  "resourceType": "Bundle",
  "id": "62d95451f0347d1abcae6c04",
  "type": "collection",
  "entry": [ {
    "fullUrl": "https://madie.cms.gov/Patient/86618b52-e0cc-4e90-b48c-cd64bbae8973",
    "resource": {
      "resourceType": "Patient",
      "id": "86618b52-e0cc-4e90-b48c-cd64bbae8973",
      "meta": {
        "profile": [ "http://hl7.org/fhir/us/qicore/StructureDefinition/qicore-patient" ]
      },
      "extension": [ {
        "url": "http://hl7.org/fhir/us/core/StructureDefinition/us-core-race",
        "extension": [ {
          "url": "ombCategory",
          "valueCoding": {
            "system": "urn:oid:2.16.840.1.113883.6.238",
            "code": "2076-8",
            "display": "Native Hawaiian or Other Pacific Islander",
            "userSelected": true
          }
        }, {
          "url": "text",
          "valueString": "Native Hawaiian or Other Pacific Islander"
        } ]
      }, {
        "url": "http://hl7.org/fhir/us/core/StructureDefinition/us-core-ethnicity",
        "extension": [ {
          "url": "ombCategory",
          "valueCoding": {
            "system": "urn:oid:2.16.840.1.113883.6.238",
            "code": "2135-2",
            "display": "Hispanic or Latino",
            "userSelected": true
          }
        }, {
          "url": "text",
          "valueString": "Hispanic or Latino"
        } ]
      } ],
      "identifier": [ {
        "type": {
          "coding": [ {
            "system": "http://terminology.hl7.org/CodeSystem/v2-0203",
            "code": "MR"
          } ]
        },
        "system": "https://bonnie-fhir.healthit.gov/",
        "value": "62d95451f0347d1abcae6c04"
      } ],
      "name": [ {
        "family": "NUMERandDENEXCEPPass",
        "given": [ "2EncsSecondDeclined" ]
      } ],
      "gender": "male",
      "birthDate": "1977-01-01"
    }
  }, {
    "fullUrl": "https://madie.cms.gov/Encounter/efb51e85-a0a1-4346-8dee-b44b4b13b483",
    "resource": {
      "resourceType": "Encounter",
      "id": "efb51e85-a0a1-4346-8dee-b44b4b13b483",
      "meta": {
        "profile": [ "http://hl7.org/fhir/us/qicore/StructureDefinition/qicore-encounter" ]
      },
      "status": "finished",
      "class": {
        "system": "http://terminology.hl7.org/CodeSystem/v3-ActCode",
        "code": "AMB",
        "display": "ambulatory"
      },
      "type": [ {
        "coding": [ {
          "system": "http://snomed.info/sct",
          "version": "2022-03",
          "code": "103705002",
          "display": "Patient status observation (procedure)",
          "userSelected": true
        } ]
      } ],
      "subject": {
        "reference": "Patient/86618b52-e0cc-4e90-b48c-cd64bbae8973"
      },
      "period": {
        "start": "2026-01-01T08:00:00.000Z",
        "end": "2026-01-01T08:45:00.000Z"
      }
    }
  }, {
    "fullUrl": "https://madie.cms.gov/Observation/0a747d6a-38c0-49ed-893e-081bc04c77eb",
    "resource": {
      "resourceType": "Observation",
      "id": "0a747d6a-38c0-49ed-893e-081bc04c77eb",
      "meta": {
        "profile": [ "http://hl7.org/fhir/us/core/StructureDefinition/us-core-blood-pressure" ]
      },
      "status": "final",
      "category": [ {
        "coding": [ {
          "system": "http://terminology.hl7.org/CodeSystem/observation-category",
          "code": "vital-signs",
          "display": "Vital Signs"
        } ],
        "text": "Vital Signs"
      } ],
      "code": {
        "coding": [ {
          "system": "http://loinc.org",
          "code": "85354-9",
          "display": "Blood pressure panel"
        } ]
      },
      "subject": {
        "reference": "Patient/86618b52-e0cc-4e90-b48c-cd64bbae8973"
      },
      "effectiveDateTime": "2026-01-01T08:01:00.000Z",
      "component": [ {
        "code": {
          "coding": [ {
            "system": "http://loinc.org",
            "code": "8480-6",
            "display": "Systolic blood pressure"
          } ]
        },
        "valueQuantity": {
          "value": 130,
          "unit": "mmHg",
          "system": "http://unitsofmeasure.org",
          "code": "mm[Hg]"
        }
      }, {
        "code": {
          "coding": [ {
            "system": "http://loinc.org",
            "code": "8462-4",
            "display": "Diastolic blood pressure"
          } ]
        },
        "valueQuantity": {
          "value": 80,
          "unit": "mmHg",
          "system": "http://unitsofmeasure.org",
          "code": "mm[Hg]"
        }
      } ]
    }
  }, {
    "fullUrl": "https://madie.cms.gov/ServiceRequest/6e883c1f-b27c-4a6b-b9ce-ee1b39858338",
    "resource": {
      "resourceType": "ServiceRequest",
      "id": "6e883c1f-b27c-4a6b-b9ce-ee1b39858338",
      "meta": {
        "profile": [ "http://hl7.org/fhir/us/qicore/StructureDefinition/qicore-servicerequest" ]
      },
      "status": "active",
      "intent": "order",
      "doNotPerform": true,
      "code": {
        "coding": [ {
          "system": "http://snomed.info/sct",
          "version": "2022-03",
          "code": "20093000",
          "display": "Alcohol rehabilitation and detoxification (regime/therapy)",
          "userSelected": true
        } ]
      },
      "subject": {
        "reference": "Patient/86618b52-e0cc-4e90-b48c-cd64bbae8973"
      },
      "authoredOn": "2026-01-01T08:30:00.000Z"
    }
  }, {
    "fullUrl": "https://madie.cms.gov/ServiceRequest/6a6883a4-0cdc-4678-b9e9-f481a3bb12df",
    "resource": {
      "resourceType": "ServiceRequest",
      "id": "6a6883a4-0cdc-4678-b9e9-f481a3bb12df",
      "meta": {
        "profile": [ "http://hl7.org/fhir/us/qicore/StructureDefinition/qicore-servicerequest" ]
      },
      "status": "active",
      "intent": "order",
      "doNotPerform": true,
      "code": {
        "coding": [ {
          "system": "http://snomed.info/sct",
          "version": "2022-03",
          "code": "183617005",
          "display": "Follow-up 1 day (finding)",
          "userSelected": true
        } ]
      },
      "subject": {
        "reference": "Patient/86618b52-e0cc-4e90-b48c-cd64bbae8973"
      },
      "authoredOn": "2026-01-01T08:30:00.000Z"
    }
  }, {
    "fullUrl": "https://madie.cms.gov/Encounter/78d150e6-2b84-4847-bfa0-b95b9f0ba151",
    "resource": {
      "resourceType": "Encounter",
      "id": "78d150e6-2b84-4847-bfa0-b95b9f0ba151",
      "meta": {
        "profile": [ "http://hl7.org/fhir/us/qicore/StructureDefinition/qicore-encounter" ]
      },
      "status": "finished",
      "class": {
        "system": "http://terminology.hl7.org/CodeSystem/v3-ActCode",
        "code": "AMB",
        "display": "ambulatory"
      },
      "type": [ {
        "coding": [ {
          "system": "http://snomed.info/sct",
          "version": "2022-03",
          "code": "103705002",
          "display": "Patient status observation (procedure)",
          "userSelected": true
        } ]
      } ],
      "subject": {
        "reference": "Patient/86618b52-e0cc-4e90-b48c-cd64bbae8973"
      },
      "period": {
        "start": "2026-12-31T10:00:00.000Z",
        "end": "2026-12-31T10:45:00.000Z"
      }
    }
  }, {
    "fullUrl": "https://madie.cms.gov/Observation/dada8dd7-58f5-4da5-8559-135c4549aba8",
    "resource": {
      "resourceType": "Observation",
      "id": "dada8dd7-58f5-4da5-8559-135c4549aba8",
      "meta": {
        "profile": [ "http://hl7.org/fhir/us/core/StructureDefinition/us-core-blood-pressure" ]
      },
      "status": "final",
      "category": [ {
        "coding": [ {
          "system": "http://terminology.hl7.org/CodeSystem/observation-category",
          "code": "vital-signs",
          "display": "Vital Signs"
        } ],
        "text": "Vital Signs"
      } ],
      "code": {
        "coding": [ {
          "system": "http://loinc.org",
          "code": "85354-9",
          "display": "Blood pressure panel"
        } ]
      },
      "subject": {
        "reference": "Patient/86618b52-e0cc-4e90-b48c-cd64bbae8973"
      },
      "effectiveDateTime": "2026-12-31T10:01:00.000Z",
      "component": [ {
        "code": {
          "coding": [ {
            "system": "http://loinc.org",
            "code": "8480-6",
            "display": "Systolic blood pressure"
          } ]
        },
        "valueQuantity": {
          "value": 160,
          "unit": "mmHg",
          "system": "http://unitsofmeasure.org",
          "code": "mm[Hg]"
        }
      }, {
        "code": {
          "coding": [ {
            "system": "http://loinc.org",
            "code": "8462-4",
            "display": "Diastolic blood pressure"
          } ]
        },
        "valueQuantity": {
          "value": 90,
          "unit": "mmHg",
          "system": "http://unitsofmeasure.org",
          "code": "mm[Hg]"
        }
      } ]
    }
  }, {
    "fullUrl": "https://madie.cms.gov/ServiceRequest/8b1510cf-34e0-42e2-be77-22db5e801fe3",
    "resource": {
      "resourceType": "ServiceRequest",
      "id": "8b1510cf-34e0-42e2-be77-22db5e801fe3",
      "meta": {
        "profile": [ "http://hl7.org/fhir/us/qicore/StructureDefinition/qicore-servicenotrequested" ]
      },
      "extension": [ {
        "url": "http://hl7.org/fhir/us/qicore/StructureDefinition/qicore-doNotPerformReason",
        "valueCodeableConcept": {
          "coding": [ {
            "system": "http://snomed.info/sct",
            "version": "2022-03",
            "code": "183945002",
            "display": "Procedure declined for religious reason (situation)",
            "userSelected": true
          } ]
        }
      } ],
      "status": "completed",
      "intent": "order",
      "doNotPerform": true,
      "code": {
        "coding": [ {
          "system": "http://snomed.info/sct",
          "version": "2022-03",
          "code": "20093000",
          "display": "Alcohol rehabilitation and detoxification (regime/therapy)",
          "userSelected": true
        } ]
      },
      "subject": {
        "reference": "Patient/86618b52-e0cc-4e90-b48c-cd64bbae8973"
      },
      "authoredOn": "2026-12-31T10:44:00.000Z"
    }
  }, {
    "fullUrl": "https://madie.cms.gov/ServiceRequest/722009ed-16db-44fb-a1cc-d9adf4898fca",
    "resource": {
      "resourceType": "ServiceRequest",
      "id": "722009ed-16db-44fb-a1cc-d9adf4898fca",
      "meta": {
        "profile": [ "http://hl7.org/fhir/us/qicore/StructureDefinition/qicore-servicenotrequested" ]
      },
      "extension": [ {
        "url": "http://hl7.org/fhir/us/qicore/StructureDefinition/qicore-doNotPerformReason",
        "valueCodeableConcept": {
          "coding": [ {
            "system": "http://snomed.info/sct",
            "code": "105480006",
            "display": "Procedure declined by patient (situation)",
            "userSelected": true
          } ]
        }
      } ],
      "status": "completed",
      "intent": "order",
      "doNotPerform": true,
      "code": {
        "coding": [ {
          "system": "http://snomed.info/sct",
          "version": "2022-03",
          "code": "134403003",
          "display": "Urgent referral (procedure)",
          "userSelected": true
        } ]
      },
      "subject": {
        "reference": "Patient/86618b52-e0cc-4e90-b48c-cd64bbae8973"
      },
      "authoredOn": "2026-12-31T10:20:00.000Z"
    }
  }, {
    "fullUrl": "https://madie.cms.gov/Coverage/9581d079-b8e7-4083-9cc7-b524aba15c77",
    "resource": {
      "resourceType": "Coverage",
      "id": "9581d079-b8e7-4083-9cc7-b524aba15c77",
      "meta": {
        "profile": [ "http://hl7.org/fhir/us/qicore/StructureDefinition/qicore-coverage" ]
      },
      "status": "active",
      "beneficiary": {
        "reference": "Patient/86618b52-e0cc-4e90-b48c-cd64bbae8973"
      },
      "payor": [ {
        "reference": "Organization/a888bef4-5496-427b-836f-221c636966db"
      } ]
    }
  }, {
    "fullUrl": "https://madie.cms.gov/Organization/a888bef4-5496-427b-836f-221c636966db",
    "resource": {
      "resourceType": "Organization",
      "id": "a888bef4-5496-427b-836f-221c636966db",
      "meta": {
        "profile": [ "http://hl7.org/fhir/us/qicore/StructureDefinition/qicore-organization" ]
      },
      "identifier": [ {
        "use": "temp",
        "system": "urn:oid:2.16.840.1.113883.4.4",
        "value": "21-3259825"
      } ],
      "active": true,
      "type": [ {
        "coding": [ {
          "system": "http://terminology.hl7.org/CodeSystem/organization-type",
          "code": "pay",
          "display": "Payer"
        } ]
      } ],
      "name": "Blue Cross Blue Shield of Texas",
      "telecom": [ {
        "system": "phone",
        "value": "(+1) 972-766-6900"
      } ],
      "address": [ {
        "use": "billing",
        "type": "postal",
        "line": [ "P.O. Box 660044" ],
        "city": "Dallas",
        "state": "TX",
        "postalCode": "75266-0044",
        "country": "USA"
      } ]
    }
  }, {
    "fullUrl": "https://madie.cms.gov/Practitioner/57797737-bf30-423d-b964-483f758131fb",
    "resource": {
      "resourceType": "Practitioner",
      "id": "57797737-bf30-423d-b964-483f758131fb",
      "meta": {
        "profile": [ "http://hl7.org/fhir/us/qicore/StructureDefinition/qicore-practitioner" ]
      },
      "identifier": [ {
        "system": "http://hl7.org/fhir/sid/us-npi",
        "value": "123456"
      } ],
      "name": [ {
        "family": "Evil",
        "prefix": [ "Dr" ]
      } ]
    }
  }, {
    "fullUrl": "https://madie.cms.gov/MeasureReport/ad10338d-d04c-44de-badb-b69f01b20de5",
    "resource": {
      "resourceType": "MeasureReport",
      "id": "ad10338d-d04c-44de-badb-b69f01b20de5",
      "meta": {
        "profile": [ "http://hl7.org/fhir/us/cqfmeasures/StructureDefinition/test-case-cqfm" ]
      },
      "contained": [ {
        "resourceType": "Parameters",
        "id": "ca6e7a53-e175-40d6-b071-87b8f9433617-parameters",
        "parameter": [ {
          "name": "subject",
          "valueString": "86618b52-e0cc-4e90-b48c-cd64bbae8973"
        } ]
      } ],
      "extension": [ {
        "url": "http://hl7.org/fhir/StructureDefinition/cqf-inputParameters",
        "valueReference": {
          "reference": "#ca6e7a53-e175-40d6-b071-87b8f9433617-parameters"
        }
      }, {
        "url": "http://hl7.org/fhir/us/cqfmeasures/StructureDefinition/cqfm-testCaseDescription",
        "valueMarkdown": "1st Enc. 01/01 0800-0845 during MP with BP readings 130/80, follow up within 4 wks. referral to detox - passes numer\n2nd Enc. 12/31 1000-1045 during MP, BP 160/90, pt. declined referral and detox. pass denexcep"
      } ],
      "modifierExtension": [ {
        "url": "http://hl7.org/fhir/us/cqfmeasures/StructureDefinition/cqfm-isTestCase",
        "valueBoolean": true
      } ],
      "status": "complete",
      "type": "individual",
      "measure": "https://madie.cms.gov/Measure/CMS22FHIRPCSBPScreeningFollowUp",
      "period": {
        "start": "2026-01-01",
        "end": "2026-12-31"
      },
      "group": [ {
        "id": "Group_1",
        "population": [ {
          "id": "InitialPopulation_1",
          "code": {
            "coding": [ {
              "system": "http://terminology.hl7.org/CodeSystem/measure-population",
              "code": "initial-population",
              "display": "Initial Population"
            } ]
          },
          "count": 2
        }, {
          "id": "Denominator_1",
          "code": {
            "coding": [ {
              "system": "http://terminology.hl7.org/CodeSystem/measure-population",
              "code": "denominator",
              "display": "Denominator"
            } ]
          },
          "count": 2
        }, {
          "id": "DenominatorExclusion_1",
          "code": {
            "coding": [ {
              "system": "http://terminology.hl7.org/CodeSystem/measure-population",
              "code": "denominator-exclusion",
              "display": "Denominator Exclusion"
            } ]
          },
          "count": 0
        }, {
          "id": "Numerator_1",
          "code": {
            "coding": [ {
              "system": "http://terminology.hl7.org/CodeSystem/measure-population",
              "code": "numerator",
              "display": "Numerator"
            } ]
          },
          "count": 1
        }, {
          "id": "DenominatorException_1",
          "code": {
            "coding": [ {
              "system": "http://terminology.hl7.org/CodeSystem/measure-population",
              "code": "denominator-exception",
              "display": "Denominator Exception"
            } ]
          },
          "count": 1
        } ],
        "measureScore": {
          "value": 0.0
        }
      } ],
      "evaluatedResource": [ {
        "reference": "Patient/86618b52-e0cc-4e90-b48c-cd64bbae8973"
      }, {
        "reference": "Encounter/efb51e85-a0a1-4346-8dee-b44b4b13b483"
      }, {
        "reference": "Observation/0a747d6a-38c0-49ed-893e-081bc04c77eb"
      }, {
        "reference": "ServiceRequest/6e883c1f-b27c-4a6b-b9ce-ee1b39858338"
      }, {
        "reference": "ServiceRequest/6a6883a4-0cdc-4678-b9e9-f481a3bb12df"
      }, {
        "reference": "Encounter/78d150e6-2b84-4847-bfa0-b95b9f0ba151"
      }, {
        "reference": "Observation/dada8dd7-58f5-4da5-8559-135c4549aba8"
      }, {
        "reference": "ServiceRequest/8b1510cf-34e0-42e2-be77-22db5e801fe3"
      }, {
        "reference": "ServiceRequest/722009ed-16db-44fb-a1cc-d9adf4898fca"
      }, {
        "reference": "Coverage/9581d079-b8e7-4083-9cc7-b524aba15c77"
      }, {
        "reference": "Organization/a888bef4-5496-427b-836f-221c636966db"
      }, {
        "reference": "Practitioner/57797737-bf30-423d-b964-483f758131fb"
      } ]
    }
  } ]
}