{
  "resourceType": "Bundle",
  "id": "612e6e9302c62a011f2eee8b",
  "type": "transaction",
  "entry": [ {
    "fullUrl": "https://madie.cms.gov/Patient/4c60f97c-0043-445c-8bc0-feb3122ca35b",
    "resource": {
      "resourceType": "Patient",
      "id": "4c60f97c-0043-445c-8bc0-feb3122ca35b",
      "meta": {
        "profile": [ "http://hl7.org/fhir/us/qicore/StructureDefinition/qicore-patient" ]
      },
      "text": {
        "status": "generated",
        "div": "<div xmlns=\"http://www.w3.org/1999/xhtml\"><div class=\"hapiHeaderText\">HipFxNotPrin <b>DENEXFAIL </b></div><table class=\"hapiPropertyTable\"><tbody><tr><td>Identifier</td><td>31862da5e01d3c5e5400146c9a207dfa</td></tr><tr><td>Date of birth</td><td><span>03 March 1974</span></td></tr></tbody></table></div>"
      },
      "extension": [ {
        "url": "http://hl7.org/fhir/us/core/StructureDefinition/us-core-race",
        "extension": [ {
          "url": "ombCategory",
          "valueCoding": {
            "system": "urn:oid:2.16.840.1.113883.6.238",
            "code": "1002-5",
            "display": "American Indian or Alaska Native",
            "userSelected": true
          }
        }, {
          "url": "text",
          "valueString": "American Indian or Alaska Native"
        } ]
      }, {
        "url": "http://hl7.org/fhir/us/core/StructureDefinition/us-core-ethnicity",
        "extension": [ {
          "url": "ombCategory",
          "valueCoding": {
            "system": "urn:oid:2.16.840.1.113883.6.238",
            "code": "2135-2",
            "display": "Hispanic or Latino",
            "userSelected": true
          }
        }, {
          "url": "text",
          "valueString": "Hispanic or Latino"
        } ]
      } ],
      "identifier": [ {
        "type": {
          "coding": [ {
            "system": "http://terminology.hl7.org/CodeSystem/v2-0203",
            "code": "MR"
          } ]
        },
        "system": "https://bonnie-fhir.healthit.gov/",
        "value": "612e6e9302c62a011f2eee8b"
      } ],
      "active": true,
      "name": [ {
        "use": "usual",
        "family": "DENEXFail",
        "given": [ "HipFxNotPrin" ]
      } ],
      "gender": "female",
      "birthDate": "1975-03-03"
    },
    "request": {
      "method": "PUT",
      "url": "Patient/4c60f97c-0043-445c-8bc0-feb3122ca35b"
    }
  }, {
    "fullUrl": "https://madie.cms.gov/Encounter/97eb822c-7fcc-42e0-91cd-39535fdb6293",
    "resource": {
      "resourceType": "Encounter",
      "id": "97eb822c-7fcc-42e0-91cd-39535fdb6293",
      "meta": {
        "profile": [ "http://hl7.org/fhir/us/qicore/StructureDefinition/qicore-encounter" ]
      },
      "status": "finished",
      "class": {
        "system": "http://terminology.hl7.org/CodeSystem/v3-ActCode",
        "code": "IMP",
        "display": "inpatient encounter"
      },
      "type": [ {
        "coding": [ {
          "system": "http://snomed.info/sct",
          "code": "8715000"
        } ]
      } ],
      "subject": {
        "reference": "Patient/4c60f97c-0043-445c-8bc0-feb3122ca35b"
      },
      "period": {
        "start": "2026-12-04T08:00:00.000+00:00",
        "end": "2026-12-30T08:15:00.000+00:00"
      },
      "length": {
        "value": 26.0,
        "unit": "days"
      },
      "location": [ {
        "location": {
          "reference": "Location/97bff53a-e0f5-4a7d-a193-c21e0426d833"
        },
        "period": {
          "start": "2026-12-06T08:00:00.000+00:00",
          "end": "2026-12-08T08:15:00.000+00:00"
        }
      } ]
    },
    "request": {
      "method": "PUT",
      "url": "Encounter/97eb822c-7fcc-42e0-91cd-39535fdb6293"
    }
  }, {
    "fullUrl": "https://madie.cms.gov/Coverage/4014f548-e680-4de2-ad31-690cf72f08b7",
    "resource": {
      "resourceType": "Coverage",
      "id": "4014f548-e680-4de2-ad31-690cf72f08b7",
      "status": "active",
      "beneficiary": {
        "reference": "Patient/4c60f97c-0043-445c-8bc0-feb3122ca35b"
      },
      "period": {
        "start": "1975-03-03T08:00:00.000+00:00"
      },
      "payor": [ {
        "reference": "Organization/22689003-619a-434d-9f96-a18eef0afdfa"
      } ]
    },
    "request": {
      "method": "PUT",
      "url": "Coverage/4014f548-e680-4de2-ad31-690cf72f08b7"
    }
  }, {
    "fullUrl": "https://madie.cms.gov/Procedure/a632b3e8-4731-4779-ad06-131fbd63e1b2",
    "resource": {
      "resourceType": "Procedure",
      "id": "a632b3e8-4731-4779-ad06-131fbd63e1b2",
      "meta": {
        "profile": [ "http://hl7.org/fhir/us/qicore/StructureDefinition/qicore-procedure" ]
      },
      "extension": [ {
        "url": "http://hl7.org/fhir/us/qicore/StructureDefinition/qicore-recorded",
        "valueDateTime": "2013-12-06T13:35:00.000+00:00"
      } ],
      "status": "completed",
      "code": {
        "coding": [ {
          "system": "http://www.cms.gov/Medicare/Coding/ICD10",
          "code": "0SQ90ZZ"
        } ]
      },
      "subject": {
        "reference": "Patient/4c60f97c-0043-445c-8bc0-feb3122ca35b"
      },
      "performedPeriod": {
        "start": "2026-12-06T08:15:00.000+00:00",
        "end": "2026-12-06T11:15:00.000+00:00"
      }
    },
    "request": {
      "method": "PUT",
      "url": "Procedure/a632b3e8-4731-4779-ad06-131fbd63e1b2"
    }
  }, {
    "fullUrl": "https://madie.cms.gov/Location/97bff53a-e0f5-4a7d-a193-c21e0426d833",
    "resource": {
      "resourceType": "Location",
      "id": "97bff53a-e0f5-4a7d-a193-c21e0426d833",
      "meta": {
        "profile": [ "http://hl7.org/fhir/us/qicore/StructureDefinition/qicore-location" ]
      },
      "identifier": [ {
        "use": "usual",
        "system": "http://exampleoflocation.com",
        "value": "B1-S.F2"
      } ],
      "name": "Medical Surgical East, first floor",
      "type": [ {
        "coding": [ {
          "system": "https://www.cdc.gov/nhsn/cdaportal/terminology/codesystem/hsloc.html",
          "code": "1025-6",
          "display": "Trauma Critical Care",
          "userSelected": true
        } ]
      } ]
    },
    "request": {
      "method": "PUT",
      "url": "Location/97bff53a-e0f5-4a7d-a193-c21e0426d833"
    }
  }, {
    "fullUrl": "https://madie.cms.gov/Organization/22689003-619a-434d-9f96-a18eef0afdfa",
    "resource": {
      "resourceType": "Organization",
      "id": "22689003-619a-434d-9f96-a18eef0afdfa",
      "meta": {
        "profile": [ "http://hl7.org/fhir/us/qicore/StructureDefinition/qicore-organization" ]
      },
      "identifier": [ {
        "use": "temp",
        "system": "urn:oid:2.16.840.1.113883.4.4",
        "value": "21-3259825"
      } ],
      "active": true,
      "type": [ {
        "coding": [ {
          "system": "http://terminology.hl7.org/CodeSystem/organization-type",
          "code": "pay",
          "display": "Payer"
        } ]
      } ],
      "name": "Blue Cross Blue Shield of Texas",
      "telecom": [ {
        "system": "phone",
        "value": "(+1) 972-766-6900"
      } ],
      "address": [ {
        "use": "billing",
        "type": "postal",
        "line": [ "P.O. Box 660044" ],
        "city": "Dallas",
        "state": "TX",
        "postalCode": "75266-0044",
        "country": "USA"
      } ]
    },
    "request": {
      "method": "PUT",
      "url": "Organization/22689003-619a-434d-9f96-a18eef0afdfa"
    }
  }, {
    "fullUrl": "https://madie.cms.gov/Practitioner/5c8e34e6-1620-43a1-bde4-512c07e6388c",
    "resource": {
      "resourceType": "Practitioner",
      "id": "5c8e34e6-1620-43a1-bde4-512c07e6388c",
      "identifier": [ {
        "system": "http://hl7.org/fhir/sid/us-npi",
        "value": "123456"
      } ],
      "name": [ {
        "family": "Evil",
        "prefix": [ "Dr" ]
      } ]
    },
    "request": {
      "method": "PUT",
      "url": "Practitioner/5c8e34e6-1620-43a1-bde4-512c07e6388c"
    }
  }, {
    "fullUrl": "https://madie.cms.gov/MeasureReport/4cde91b7-223f-430f-883b-9e49395263e0",
    "resource": {
      "resourceType": "MeasureReport",
      "id": "4cde91b7-223f-430f-883b-9e49395263e0",
      "meta": {
        "profile": [ "http://hl7.org/fhir/us/cqfmeasures/StructureDefinition/test-case-cqfm" ]
      },
      "contained": [ {
        "resourceType": "Parameters",
        "id": "3c151986-ccf5-42dd-bedd-8bda94b49fba-parameters",
        "parameter": [ {
          "name": "subject",
          "valueString": "4c60f97c-0043-445c-8bc0-feb3122ca35b"
        } ]
      } ],
      "extension": [ {
        "url": "http://hl7.org/fhir/StructureDefinition/cqf-inputParameters",
        "valueReference": {
          "reference": "#3c151986-ccf5-42dd-bedd-8bda94b49fba-parameters"
        }
      }, {
        "url": "http://hl7.org/fhir/us/cqfmeasures/StructureDefinition/cqfm-testCaseDescription",
        "valueMarkdown": "hip fx surgery not principal \n"
      } ],
      "modifierExtension": [ {
        "url": "http://hl7.org/fhir/us/cqfmeasures/StructureDefinition/cqfm-isTestCase",
        "valueBoolean": true
      } ],
      "status": "complete",
      "type": "individual",
      "measure": "https://madie.cms.gov/Measure/CMS190FHIRVTEProphylaxisICU",
      "period": {
        "start": "2026-01-01",
        "end": "2026-12-31"
      },
      "group": [ {
        "id": "Group_1",
        "population": [ {
          "id": "InitialPopulation_1",
          "code": {
            "coding": [ {
              "system": "http://terminology.hl7.org/CodeSystem/measure-population",
              "code": "initial-population",
              "display": "Initial Population"
            } ]
          },
          "count": 1
        }, {
          "id": "Denominator_1",
          "code": {
            "coding": [ {
              "system": "http://terminology.hl7.org/CodeSystem/measure-population",
              "code": "denominator",
              "display": "Denominator"
            } ]
          },
          "count": 1
        }, {
          "id": "DenominatorExclusion_1",
          "code": {
            "coding": [ {
              "system": "http://terminology.hl7.org/CodeSystem/measure-population",
              "code": "denominator-exclusion",
              "display": "Denominator Exclusion"
            } ]
          },
          "count": 0
        }, {
          "id": "Numerator_1",
          "code": {
            "coding": [ {
              "system": "http://terminology.hl7.org/CodeSystem/measure-population",
              "code": "numerator",
              "display": "Numerator"
            } ]
          },
          "count": 0
        }, {
          "id": "DenominatorException_1",
          "code": {
            "coding": [ {
              "system": "http://terminology.hl7.org/CodeSystem/measure-population",
              "code": "denominator-exception",
              "display": "Denominator Exception"
            } ]
          },
          "count": 0
        } ],
        "measureScore": {
          "value": 0.0
        }
      } ],
      "evaluatedResource": [ {
        "reference": "Patient/4c60f97c-0043-445c-8bc0-feb3122ca35b"
      }, {
        "reference": "Encounter/97eb822c-7fcc-42e0-91cd-39535fdb6293"
      }, {
        "reference": "Coverage/4014f548-e680-4de2-ad31-690cf72f08b7"
      }, {
        "reference": "Procedure/a632b3e8-4731-4779-ad06-131fbd63e1b2"
      }, {
        "reference": "Location/97bff53a-e0f5-4a7d-a193-c21e0426d833"
      }, {
        "reference": "Organization/22689003-619a-434d-9f96-a18eef0afdfa"
      }, {
        "reference": "Practitioner/5c8e34e6-1620-43a1-bde4-512c07e6388c"
      } ]
    },
    "request": {
      "method": "PUT",
      "url": "MeasureReport/4cde91b7-223f-430f-883b-9e49395263e0"
    }
  } ]
}