{
  "resourceType": "Bundle",
  "id": "657cbdc9b4f1f0343662347a",
  "type": "transaction",
  "entry": [ {
    "fullUrl": "https://madie.cms.gov/Patient/6d2ba015-ead4-4a64-b3c2-91798444d44b",
    "resource": {
      "resourceType": "Patient",
      "id": "6d2ba015-ead4-4a64-b3c2-91798444d44b",
      "meta": {
        "profile": [ "http://hl7.org/fhir/us/qicore/StructureDefinition/qicore-patient" ]
      },
      "extension": [ {
        "url": "http://hl7.org/fhir/us/core/StructureDefinition/us-core-race",
        "extension": [ {
          "url": "ombCategory",
          "valueCoding": {
            "system": "urn:oid:2.16.840.1.113883.6.238",
            "code": "2106-3",
            "display": "White",
            "userSelected": true
          }
        }, {
          "url": "text",
          "valueString": "White"
        } ]
      }, {
        "url": "http://hl7.org/fhir/us/core/StructureDefinition/us-core-ethnicity",
        "extension": [ {
          "url": "ombCategory",
          "valueCoding": {
            "system": "urn:oid:2.16.840.1.113883.6.238",
            "code": "2186-5",
            "display": "Not Hispanic or Latino",
            "userSelected": true
          }
        }, {
          "url": "text",
          "valueString": "Not Hispanic or Latino"
        } ]
      } ],
      "identifier": [ {
        "type": {
          "coding": [ {
            "system": "http://terminology.hl7.org/CodeSystem/v2-0203",
            "code": "MR"
          } ]
        },
        "system": "https://bonnie-fhir.healthit.gov/",
        "value": "657cbdc9b4f1f0343662347a"
      } ],
      "name": [ {
        "family": "BloodGlucosePass",
        "given": [ "BloodGlucoseValueDateTime" ]
      } ],
      "gender": "female",
      "birthDate": "2008-01-01"
    },
    "request": {
      "method": "PUT",
      "url": "Patient/6d2ba015-ead4-4a64-b3c2-91798444d44b"
    }
  }, {
    "fullUrl": "https://madie.cms.gov/Encounter/00a4521a-d022-4215-b0ca-37ed77dad6b2",
    "resource": {
      "resourceType": "Encounter",
      "id": "00a4521a-d022-4215-b0ca-37ed77dad6b2",
      "meta": {
        "profile": [ "http://hl7.org/fhir/us/qicore/StructureDefinition/qicore-encounter" ]
      },
      "status": "finished",
      "class": {
        "system": "http://terminology.hl7.org/CodeSystem/v3-ActCode",
        "code": "ACUTE",
        "display": "inpatient acute"
      },
      "type": [ {
        "coding": [ {
          "system": "http://snomed.info/sct",
          "version": "2024",
          "code": "32485007",
          "display": "Hospital admission (procedure)",
          "userSelected": true
        } ]
      } ],
      "subject": {
        "reference": "Patient/6d2ba015-ead4-4a64-b3c2-91798444d44b"
      },
      "period": {
        "start": "2026-01-01T08:00:00.000+00:00",
        "end": "2026-01-02T09:15:00.000+00:00"
      }
    },
    "request": {
      "method": "PUT",
      "url": "Encounter/00a4521a-d022-4215-b0ca-37ed77dad6b2"
    }
  }, {
    "fullUrl": "https://madie.cms.gov/Location/528e1bb3-c310-4bfb-af10-a3c35a993e76",
    "resource": {
      "resourceType": "Location",
      "id": "528e1bb3-c310-4bfb-af10-a3c35a993e76",
      "meta": {
        "profile": [ "http://hl7.org/fhir/us/qicore/StructureDefinition/qicore-location" ]
      },
      "identifier": [ {
        "use": "usual",
        "system": "http://exampleoflocation.com",
        "value": "B1-S.F2"
      } ],
      "name": "Medical Surgical East, first floor",
      "type": [ {
        "coding": [ {
          "system": "https://www.cdc.gov/nhsn/cdaportal/terminology/codesystem/hsloc.html",
          "code": "1028-0",
          "display": "Medical Cardiac Critical Care",
          "userSelected": true
        } ]
      } ]
    },
    "request": {
      "method": "PUT",
      "url": "Location/528e1bb3-c310-4bfb-af10-a3c35a993e76"
    }
  }, {
    "fullUrl": "https://madie.cms.gov/MedicationRequest/edea3bb2-ca6a-4215-8e04-b7da06e08d4b",
    "resource": {
      "resourceType": "MedicationRequest",
      "id": "edea3bb2-ca6a-4215-8e04-b7da06e08d4b",
      "meta": {
        "profile": [ "http://hl7.org/fhir/us/qicore/StructureDefinition/qicore-medicationrequest" ]
      },
      "status": "completed",
      "intent": "order",
      "medicationCodeableConcept": {
        "coding": [ {
          "system": "http://www.nlm.nih.gov/research/umls/rxnorm",
          "version": "06052023",
          "code": "1007184"
        } ]
      },
      "subject": {
        "reference": "Patient/6d2ba015-ead4-4a64-b3c2-91798444d44b"
      },
      "authoredOn": "2026-01-01T08:15:00.000+00:00",
      "requester": {
        "reference": "Practitioner/33d87640-6b2a-40b0-ab11-542478a88d5a"
      },
      "dosageInstruction": [ {
        "timing": {
          "repeat": {
            "boundsPeriod": {
              "start": "2025-01-01T08:15:00.000+00:00"
            }
          }
        }
      } ]
    },
    "request": {
      "method": "PUT",
      "url": "MedicationRequest/edea3bb2-ca6a-4215-8e04-b7da06e08d4b"
    }
  }, {
    "fullUrl": "https://madie.cms.gov/Observation/5531d714-29c2-4538-8c17-85adc374ec1c",
    "resource": {
      "resourceType": "Observation",
      "id": "5531d714-29c2-4538-8c17-85adc374ec1c",
      "meta": {
        "profile": [ "http://hl7.org/fhir/us/qicore/StructureDefinition/qicore-observation-lab" ]
      },
      "text": {
        "status": "generated",
        "div": "<div xmlns=\"http://www.w3.org/1999/xhtml\">Testing</div>"
      },
      "extension": [ {
        "url": "http://hl7.org/fhir/StructureDefinition/observation-bodyPosition",
        "valueCodeableConcept": {
          "coding": [ {
            "system": "http://snomed.info/sct",
            "code": "33586001",
            "display": "Sitting position (finding)"
          } ]
        }
      } ],
      "basedOn": [ {
        "identifier": {
          "system": "https://acme.org/identifiers",
          "value": "1234"
        }
      } ],
      "partOf": [ {
        "identifier": {
          "system": "https://acme.org/identifiers",
          "value": "1234"
        }
      } ],
      "status": "final",
      "category": [ {
        "coding": [ {
          "system": "http://terminology.hl7.org/CodeSystem/observation-category",
          "code": "laboratory",
          "display": "Laboratory"
        } ],
        "text": "Laboratory"
      } ],
      "code": {
        "coding": [ {
          "system": "http://loinc.org",
          "version": "2.72",
          "code": "2339-0",
          "display": "Glucose [Mass/volume] in Blood",
          "userSelected": true
        } ]
      },
      "subject": {
        "reference": "Patient/6d2ba015-ead4-4a64-b3c2-91798444d44b"
      },
      "focus": [ {
        "reference": "Patient/6d2ba015-ead4-4a64-b3c2-91798444d44b"
      } ],
      "encounter": {
        "reference": "Encounter/00a4521a-d022-4215-b0ca-37ed77dad6b2"
      },
      "effectiveDateTime": "2026-01-01T08:10:00.000+00:00",
      "issued": "2026-01-01T08:10:00.000+00:00",
      "performer": [ {
        "reference": "Organization/afe064c8-ba17-4023-b1a1-9e170464a244",
        "display": "Hendricks Country Hospital"
      } ],
      "valueQuantity": {
        "value": 179,
        "unit": "mg/dL",
        "system": "http://unitsofmeasure.org",
        "code": "mg/dL"
      },
      "interpretation": [ {
        "coding": [ {
          "system": "http://terminology.hl7.org/CodeSystem/v3-ObservationInterpretation",
          "code": "H",
          "display": "High"
        } ]
      } ],
      "note": [ {
        "text": "Compliants of lighheadedness"
      } ],
      "bodySite": {
        "coding": [ {
          "system": "http://snomed.info/sct",
          "code": "1003698006",
          "display": "Entire finger of left hand (body structure)"
        } ]
      },
      "method": {
        "coding": [ {
          "system": "http://snomed.info/sct",
          "code": "702668005",
          "display": "MDRD"
        } ]
      },
      "specimen": {
        "reference": "Specimen/sst",
        "display": "Serum sample"
      },
      "device": {
        "display": "12 lead EKG Device Metric"
      },
      "referenceRange": [ {
        "text": ">40"
      } ],
      "hasMember": [ {
        "reference": "Observation/Observation-6"
      }, {
        "reference": "Observation/Observation-6"
      } ],
      "derivedFrom": [ {
        "reference": "QuestionnaireResponse/gcs",
        "display": "GCS form results"
      } ],
      "component": [ {
        "code": {
          "coding": [ {
            "system": "urn:oid:2.16.840.1.113883.6.24",
            "code": "131329",
            "display": "MDC_ECG_ELEC_POTL_I"
          } ]
        }
      } ]
    },
    "request": {
      "method": "PUT",
      "url": "Observation/5531d714-29c2-4538-8c17-85adc374ec1c"
    }
  }, {
    "fullUrl": "https://madie.cms.gov/Coverage/1e1ae1a5-3a8b-4913-bd0f-d8ee936441d9",
    "resource": {
      "resourceType": "Coverage",
      "id": "1e1ae1a5-3a8b-4913-bd0f-d8ee936441d9",
      "meta": {
        "profile": [ "http://hl7.org/fhir/us/qicore/StructureDefinition/qicore-coverage" ]
      },
      "identifier": [ {
        "system": "http://benefitsinc.com/certificate",
        "value": "12345"
      } ],
      "status": "active",
      "type": {
        "coding": [ {
          "system": "https://nahdo.org/sopt",
          "version": "1.0.1",
          "code": "1",
          "display": "MEDICARE",
          "userSelected": true
        } ]
      },
      "subscriberId": "AB9876",
      "beneficiary": {
        "reference": "Patient/6d2ba015-ead4-4a64-b3c2-91798444d44b"
      },
      "relationship": {
        "coding": [ {
          "system": "http://terminology.hl7.org/CodeSystem/subscriber-relationship",
          "code": "self"
        } ]
      },
      "payor": [ {
        "reference": "Organization/afe064c8-ba17-4023-b1a1-9e170464a244"
      } ]
    },
    "request": {
      "method": "PUT",
      "url": "Coverage/1e1ae1a5-3a8b-4913-bd0f-d8ee936441d9"
    }
  }, {
    "fullUrl": "https://madie.cms.gov/Organization/afe064c8-ba17-4023-b1a1-9e170464a244",
    "resource": {
      "resourceType": "Organization",
      "id": "afe064c8-ba17-4023-b1a1-9e170464a244",
      "meta": {
        "profile": [ "http://hl7.org/fhir/us/qicore/StructureDefinition/qicore-organization" ]
      },
      "identifier": [ {
        "use": "temp",
        "system": "urn:oid:2.16.840.1.113883.4.4",
        "value": "21-3259825"
      } ],
      "active": true,
      "type": [ {
        "coding": [ {
          "system": "http://terminology.hl7.org/CodeSystem/organization-type",
          "code": "pay",
          "display": "Payer"
        } ]
      } ],
      "name": "Blue Cross Blue Shield of Texas",
      "telecom": [ {
        "system": "phone",
        "value": "(+1) 972-766-6900"
      } ],
      "address": [ {
        "use": "billing",
        "type": "postal",
        "line": [ "P.O. Box 660044" ],
        "city": "Dallas",
        "state": "TX",
        "postalCode": "75266-0044",
        "country": "USA"
      } ]
    },
    "request": {
      "method": "PUT",
      "url": "Organization/afe064c8-ba17-4023-b1a1-9e170464a244"
    }
  }, {
    "fullUrl": "https://madie.cms.gov/Practitioner/52a50f90-9cec-43ed-9a1c-68df4d9d51ff",
    "resource": {
      "resourceType": "Practitioner",
      "id": "52a50f90-9cec-43ed-9a1c-68df4d9d51ff",
      "meta": {
        "profile": [ "http://hl7.org/fhir/us/qicore/StructureDefinition/qicore-practitioner" ]
      },
      "identifier": [ {
        "system": "http://hl7.org/fhir/sid/us-npi",
        "value": "0723660813"
      } ],
      "name": [ {
        "family": "Evil",
        "prefix": [ "Dr" ]
      } ]
    },
    "request": {
      "method": "PUT",
      "url": "Practitioner/52a50f90-9cec-43ed-9a1c-68df4d9d51ff"
    }
  }, {
    "fullUrl": "https://madie.cms.gov/MeasureReport/76dd70c3-48f3-46eb-9d4b-511a626dd1dc",
    "resource": {
      "resourceType": "MeasureReport",
      "id": "76dd70c3-48f3-46eb-9d4b-511a626dd1dc",
      "meta": {
        "profile": [ "http://hl7.org/fhir/us/cqfmeasures/StructureDefinition/test-case-cqfm" ]
      },
      "contained": [ {
        "resourceType": "Parameters",
        "id": "8c606eb5-aa14-4113-bd18-503a044de057-parameters",
        "parameter": [ {
          "name": "subject",
          "valueString": "6d2ba015-ead4-4a64-b3c2-91798444d44b"
        } ]
      } ],
      "extension": [ {
        "url": "http://hl7.org/fhir/StructureDefinition/cqf-inputParameters",
        "valueReference": {
          "reference": "#8c606eb5-aa14-4113-bd18-503a044de057-parameters"
        }
      }, {
        "url": "http://hl7.org/fhir/us/cqfmeasures/StructureDefinition/cqfm-testCaseDescription",
        "valueMarkdown": "Inpatient encounter with diabetic medication during MP with SDE blood glucose value datetime. "
      } ],
      "modifierExtension": [ {
        "url": "http://hl7.org/fhir/us/cqfmeasures/StructureDefinition/cqfm-isTestCase",
        "valueBoolean": true
      } ],
      "status": "complete",
      "type": "individual",
      "measure": "https://madie.cms.gov/Measure/NHSNGlycemicControlHypoglycemiaInitialPopulation",
      "period": {
        "start": "2026-01-01",
        "end": "2026-12-31"
      },
      "group": [ {
        "id": "Group_1",
        "population": [ {
          "id": "InitialPopulation_1",
          "code": {
            "coding": [ {
              "system": "http://terminology.hl7.org/CodeSystem/measure-population",
              "code": "initial-population",
              "display": "Initial Population"
            } ]
          },
          "count": 1
        } ],
        "measureScore": {
          "value": 0.0
        }
      } ],
      "evaluatedResource": [ {
        "reference": "Patient/6d2ba015-ead4-4a64-b3c2-91798444d44b"
      }, {
        "reference": "Encounter/00a4521a-d022-4215-b0ca-37ed77dad6b2"
      }, {
        "reference": "Location/528e1bb3-c310-4bfb-af10-a3c35a993e76"
      }, {
        "reference": "MedicationRequest/edea3bb2-ca6a-4215-8e04-b7da06e08d4b"
      }, {
        "reference": "Observation/5531d714-29c2-4538-8c17-85adc374ec1c"
      }, {
        "reference": "Coverage/1e1ae1a5-3a8b-4913-bd0f-d8ee936441d9"
      }, {
        "reference": "Organization/afe064c8-ba17-4023-b1a1-9e170464a244"
      }, {
        "reference": "Practitioner/52a50f90-9cec-43ed-9a1c-68df4d9d51ff"
      } ]
    },
    "request": {
      "method": "PUT",
      "url": "MeasureReport/76dd70c3-48f3-46eb-9d4b-511a626dd1dc"
    }
  } ]
}