{
  "resourceType": "Bundle",
  "id": "60f82c2d98086b570510e24e",
  "type": "transaction",
  "entry": [ {
    "fullUrl": "https://madie.cms.gov/Patient/0dde3070-5a99-4be7-94d1-1a7161a7787b",
    "resource": {
      "resourceType": "Patient",
      "id": "0dde3070-5a99-4be7-94d1-1a7161a7787b",
      "meta": {
        "profile": [ "http://hl7.org/fhir/us/qicore/StructureDefinition/qicore-patient" ]
      },
      "text": {
        "status": "generated",
        "div": "<div xmlns=\"http://www.w3.org/1999/xhtml\"><div class=\"hapiHeaderText\">NoEncounter <b>IPPFAIL </b></div><table class=\"hapiPropertyTable\"><tbody><tr><td>Identifier</td><td>a67f7fb68219fced7208c268b4a73a22</td></tr><tr><td>Date of birth</td><td><span>21 August 1993</span></td></tr></tbody></table></div>"
      },
      "extension": [ {
        "url": "http://hl7.org/fhir/us/core/StructureDefinition/us-core-race",
        "extension": [ {
          "url": "ombCategory",
          "valueCoding": {
            "system": "urn:oid:2.16.840.1.113883.6.238",
            "code": "1002-5",
            "display": "American Indian or Alaska Native",
            "userSelected": true
          }
        }, {
          "url": "detailed",
          "valueCoding": {
            "system": "urn:oid:2.16.840.1.113883.6.238",
            "code": "2036-2",
            "display": "Filipino"
          }
        }, {
          "url": "text",
          "valueString": "American Indian or Alaska Native"
        } ]
      }, {
        "url": "http://hl7.org/fhir/us/core/StructureDefinition/us-core-ethnicity",
        "extension": [ {
          "url": "ombCategory",
          "valueCoding": {
            "system": "urn:oid:2.16.840.1.113883.6.238",
            "code": "2186-5",
            "display": "Not Hispanic or Latino",
            "userSelected": true
          }
        }, {
          "url": "text",
          "valueString": "Not Hispanic or Latino"
        }, {
          "url": "detailed",
          "valueCoding": {
            "system": "urn:oid:2.16.840.1.113883.6.238",
            "code": "2153-5",
            "display": "Mexican American Indian"
          }
        } ]
      } ],
      "identifier": [ {
        "type": {
          "coding": [ {
            "system": "http://terminology.hl7.org/CodeSystem/v2-0203",
            "code": "MR"
          } ]
        },
        "system": "https://bonnie-fhir.healthit.gov/",
        "value": "60f82c2d98086b570510e24e"
      } ],
      "active": true,
      "name": [ {
        "use": "usual",
        "family": "IPPFail",
        "given": [ "NoEncounter" ]
      } ],
      "gender": "male",
      "birthDate": "1994-08-21"
    },
    "request": {
      "method": "PUT",
      "url": "Patient/0dde3070-5a99-4be7-94d1-1a7161a7787b"
    }
  }, {
    "fullUrl": "https://madie.cms.gov/Coverage/e2296044-bdaa-4bac-92ef-5ca7abca73f9",
    "resource": {
      "resourceType": "Coverage",
      "id": "e2296044-bdaa-4bac-92ef-5ca7abca73f9",
      "status": "active",
      "subscriberId": "523435",
      "beneficiary": {
        "reference": "Patient/0dde3070-5a99-4be7-94d1-1a7161a7787b"
      },
      "relationship": {
        "coding": [ {
          "system": "http://terminology.hl7.org/CodeSystem/subscriber-relationship",
          "code": "self"
        } ]
      },
      "period": {
        "start": "1994-08-21T08:00:00.000+00:00"
      },
      "payor": [ {
        "reference": "Organization/c1a03476-e04b-4fae-8861-77c6ec6a5a8b"
      } ]
    },
    "request": {
      "method": "PUT",
      "url": "Coverage/e2296044-bdaa-4bac-92ef-5ca7abca73f9"
    }
  }, {
    "fullUrl": "https://madie.cms.gov/Organization/c1a03476-e04b-4fae-8861-77c6ec6a5a8b",
    "resource": {
      "resourceType": "Organization",
      "id": "c1a03476-e04b-4fae-8861-77c6ec6a5a8b",
      "meta": {
        "profile": [ "http://hl7.org/fhir/us/qicore/StructureDefinition/qicore-organization" ]
      },
      "identifier": [ {
        "use": "temp",
        "system": "urn:oid:2.16.840.1.113883.4.4",
        "value": "21-3259825"
      } ],
      "active": true,
      "type": [ {
        "coding": [ {
          "system": "http://terminology.hl7.org/CodeSystem/organization-type",
          "code": "pay",
          "display": "Payer"
        } ]
      } ],
      "name": "Blue Cross Blue Shield of Texas",
      "telecom": [ {
        "system": "phone",
        "value": "(+1) 972-766-6900"
      } ],
      "address": [ {
        "use": "billing",
        "type": "postal",
        "line": [ "P.O. Box 660044" ],
        "city": "Dallas",
        "state": "TX",
        "postalCode": "75266-0044",
        "country": "USA"
      } ]
    },
    "request": {
      "method": "PUT",
      "url": "Organization/c1a03476-e04b-4fae-8861-77c6ec6a5a8b"
    }
  }, {
    "fullUrl": "https://madie.cms.gov/Practitioner/da5b638a-eea2-4205-a3fc-78704efed0f3",
    "resource": {
      "resourceType": "Practitioner",
      "id": "da5b638a-eea2-4205-a3fc-78704efed0f3",
      "meta": {
        "profile": [ "http://hl7.org/fhir/us/qicore/StructureDefinition/qicore-practitioner" ]
      },
      "identifier": [ {
        "system": "http://hl7.org/fhir/sid/us-npi",
        "value": "9999999896"
      } ],
      "name": [ {
        "family": "Evil",
        "prefix": [ "Dr" ]
      } ]
    },
    "request": {
      "method": "PUT",
      "url": "Practitioner/da5b638a-eea2-4205-a3fc-78704efed0f3"
    }
  }, {
    "fullUrl": "https://madie.cms.gov/MeasureReport/4cdd32ec-840c-417f-b4ab-eb05348575c8",
    "resource": {
      "resourceType": "MeasureReport",
      "id": "4cdd32ec-840c-417f-b4ab-eb05348575c8",
      "meta": {
        "profile": [ "http://hl7.org/fhir/us/cqfmeasures/StructureDefinition/test-case-cqfm" ]
      },
      "contained": [ {
        "resourceType": "Parameters",
        "id": "23758f0d-e2e7-404e-bca8-cdddfec0056e-parameters",
        "parameter": [ {
          "name": "subject",
          "valueString": "0dde3070-5a99-4be7-94d1-1a7161a7787b"
        } ]
      } ],
      "extension": [ {
        "url": "http://hl7.org/fhir/StructureDefinition/cqf-inputParameters",
        "valueReference": {
          "reference": "#23758f0d-e2e7-404e-bca8-cdddfec0056e-parameters"
        }
      }, {
        "url": "http://hl7.org/fhir/us/cqfmeasures/StructureDefinition/cqfm-testCaseDescription",
        "valueMarkdown": "Patient is 19 with no Encounter Inpatient\n"
      } ],
      "modifierExtension": [ {
        "url": "http://hl7.org/fhir/us/cqfmeasures/StructureDefinition/cqfm-isTestCase",
        "valueBoolean": true
      } ],
      "status": "complete",
      "type": "individual",
      "measure": "https://madie.cms.gov/Measure/CMS72FHIRSTKAntithromboticDay2",
      "period": {
        "start": "2026-01-01",
        "end": "2026-12-31"
      },
      "group": [ {
        "id": "Group_1",
        "population": [ {
          "id": "InitialPopulation_1",
          "code": {
            "coding": [ {
              "system": "http://terminology.hl7.org/CodeSystem/measure-population",
              "code": "initial-population",
              "display": "Initial Population"
            } ]
          },
          "count": 0
        }, {
          "id": "Denominator_1",
          "code": {
            "coding": [ {
              "system": "http://terminology.hl7.org/CodeSystem/measure-population",
              "code": "denominator",
              "display": "Denominator"
            } ]
          },
          "count": 0
        }, {
          "id": "DenominatorExclusion_1",
          "code": {
            "coding": [ {
              "system": "http://terminology.hl7.org/CodeSystem/measure-population",
              "code": "denominator-exclusion",
              "display": "Denominator Exclusion"
            } ]
          },
          "count": 0
        }, {
          "id": "Numerator_1",
          "code": {
            "coding": [ {
              "system": "http://terminology.hl7.org/CodeSystem/measure-population",
              "code": "numerator",
              "display": "Numerator"
            } ]
          },
          "count": 0
        }, {
          "id": "DenominatorException_1",
          "code": {
            "coding": [ {
              "system": "http://terminology.hl7.org/CodeSystem/measure-population",
              "code": "denominator-exception",
              "display": "Denominator Exception"
            } ]
          },
          "count": 0
        } ],
        "measureScore": {
          "value": 0.0
        }
      } ],
      "evaluatedResource": [ {
        "reference": "Patient/0dde3070-5a99-4be7-94d1-1a7161a7787b"
      }, {
        "reference": "Coverage/e2296044-bdaa-4bac-92ef-5ca7abca73f9"
      }, {
        "reference": "Organization/c1a03476-e04b-4fae-8861-77c6ec6a5a8b"
      }, {
        "reference": "Practitioner/da5b638a-eea2-4205-a3fc-78704efed0f3"
      } ]
    },
    "request": {
      "method": "PUT",
      "url": "MeasureReport/4cdd32ec-840c-417f-b4ab-eb05348575c8"
    }
  } ]
}