{
  "resourceType": "Bundle",
  "id": "DENEXPass-Enc1FallPOAEnc2FallNPOAAndInjuryNPOA-bundle",
  "type": "transaction",
  "entry": [ {
    "fullUrl": "https://madie.cms.gov/Claim/01d5a58f-b3a2-4504-a022-15b702dd55f0",
    "resource": {
      "resourceType": "Claim",
      "id": "01d5a58f-b3a2-4504-a022-15b702dd55f0",
      "meta": {
        "profile": [ "http://hl7.org/fhir/us/qicore/StructureDefinition/qicore-claim" ]
      },
      "status": "active",
      "type": {
        "coding": [ {
          "system": "http://terminology.hl7.org/CodeSystem/claim-type",
          "code": "professional",
          "display": "Professional"
        } ]
      },
      "use": "claim",
      "patient": {
        "reference": "Patient/404570c9-b21f-4fa2-be5d-6d02c910fea6"
      },
      "created": "2026-11-10",
      "provider": {
        "reference": "Practitioner/a276ef69-d549-41aa-b481-f7fdc27dcd19"
      },
      "priority": {
        "coding": [ {
          "system": "http://terminology.hl7.org/CodeSystem/processpriority",
          "code": "normal"
        } ]
      },
      "diagnosis": [ {
        "sequence": 1,
        "diagnosisCodeableConcept": {
          "coding": [ {
            "system": "http://hl7.org/fhir/sid/icd-10-cm",
            "code": "W01.0XXA"
          } ]
        },
        "onAdmission": {
          "coding": [ {
            "system": "https://www.cms.gov/Medicare/Medicare-Fee-for-Service-Payment/HospitalAcqCond/Coding",
            "code": "Y"
          } ]
        }
      } ],
      "insurance": [ {
        "sequence": 1,
        "focal": true,
        "coverage": {
          "reference": "Coverage/de65913b-9bdc-4a44-970a-03016f1f0bd6"
        }
      } ],
      "item": [ {
        "sequence": 1,
        "diagnosisSequence": [ 1, 2 ],
        "productOrService": {
          "coding": [ {
            "system": "http://terminology.hl7.org/CodeSystem/ex-USCLS",
            "code": "1101"
          } ]
        },
        "encounter": [ {
          "reference": "Encounter/f65ffde0-f326-4866-8464-e45805109688"
        } ]
      } ]
    },
    "request": {
      "method": "PUT",
      "url": "Claim/01d5a58f-b3a2-4504-a022-15b702dd55f0"
    }
  }, {
    "fullUrl": "https://madie.cms.gov/Claim/c036cf7f-13cf-4c9a-9891-f79ad631aa54",
    "resource": {
      "resourceType": "Claim",
      "id": "c036cf7f-13cf-4c9a-9891-f79ad631aa54",
      "meta": {
        "profile": [ "http://hl7.org/fhir/us/qicore/StructureDefinition/qicore-claim" ]
      },
      "status": "active",
      "type": {
        "coding": [ {
          "system": "http://terminology.hl7.org/CodeSystem/claim-type",
          "code": "professional",
          "display": "Professional"
        } ]
      },
      "use": "claim",
      "patient": {
        "reference": "Patient/404570c9-b21f-4fa2-be5d-6d02c910fea6"
      },
      "created": "2026-12-13",
      "provider": {
        "reference": "Practitioner/a276ef69-d549-41aa-b481-f7fdc27dcd19"
      },
      "priority": {
        "coding": [ {
          "system": "http://terminology.hl7.org/CodeSystem/processpriority",
          "code": "normal"
        } ]
      },
      "diagnosis": [ {
        "sequence": 1,
        "diagnosisCodeableConcept": {
          "coding": [ {
            "system": "http://hl7.org/fhir/sid/icd-10-cm",
            "code": "W01.0XXA"
          } ]
        },
        "onAdmission": {
          "coding": [ {
            "system": "https://www.cms.gov/Medicare/Medicare-Fee-for-Service-Payment/HospitalAcqCond/Coding",
            "code": "N"
          } ]
        }
      } ],
      "insurance": [ {
        "sequence": 1,
        "focal": true,
        "coverage": {
          "reference": "Coverage/de65913b-9bdc-4a44-970a-03016f1f0bd6"
        }
      } ],
      "item": [ {
        "sequence": 1,
        "diagnosisSequence": [ 1, 2 ],
        "productOrService": {
          "coding": [ {
            "system": "http://terminology.hl7.org/CodeSystem/ex-USCLS",
            "code": "1101"
          } ]
        },
        "encounter": [ {
          "reference": "Encounter/f65ffde0-f326-4866-8464-e45805109688"
        } ]
      } ]
    },
    "request": {
      "method": "PUT",
      "url": "Claim/c036cf7f-13cf-4c9a-9891-f79ad631aa54"
    }
  }, {
    "fullUrl": "https://madie.cms.gov/Claim/d51ff2b0-8a4f-47aa-ad78-51032dea225e",
    "resource": {
      "resourceType": "Claim",
      "id": "d51ff2b0-8a4f-47aa-ad78-51032dea225e",
      "meta": {
        "profile": [ "http://hl7.org/fhir/us/qicore/StructureDefinition/qicore-claim" ]
      },
      "status": "active",
      "type": {
        "coding": [ {
          "system": "http://terminology.hl7.org/CodeSystem/claim-type",
          "code": "professional",
          "display": "Professional"
        } ]
      },
      "use": "claim",
      "patient": {
        "reference": "Patient/404570c9-b21f-4fa2-be5d-6d02c910fea6"
      },
      "created": "2026-12-13",
      "provider": {
        "reference": "Practitioner/a276ef69-d549-41aa-b481-f7fdc27dcd19"
      },
      "priority": {
        "coding": [ {
          "system": "http://terminology.hl7.org/CodeSystem/processpriority",
          "code": "normal"
        } ]
      },
      "diagnosis": [ {
        "sequence": 1,
        "diagnosisCodeableConcept": {
          "coding": [ {
            "system": "http://hl7.org/fhir/sid/icd-10-cm",
            "code": "S01.121A"
          } ]
        },
        "onAdmission": {
          "coding": [ {
            "system": "https://www.cms.gov/Medicare/Medicare-Fee-for-Service-Payment/HospitalAcqCond/Coding",
            "code": "N"
          } ]
        }
      } ],
      "insurance": [ {
        "sequence": 1,
        "focal": true,
        "coverage": {
          "reference": "Coverage/de65913b-9bdc-4a44-970a-03016f1f0bd6"
        }
      } ],
      "item": [ {
        "sequence": 1,
        "diagnosisSequence": [ 1, 2 ],
        "productOrService": {
          "coding": [ {
            "system": "http://terminology.hl7.org/CodeSystem/ex-USCLS",
            "code": "1101"
          } ]
        },
        "encounter": [ {
          "reference": "Encounter/f65ffde0-f326-4866-8464-e45805109688"
        } ]
      } ]
    },
    "request": {
      "method": "PUT",
      "url": "Claim/d51ff2b0-8a4f-47aa-ad78-51032dea225e"
    }
  }, {
    "fullUrl": "https://madie.cms.gov/Encounter/28d1f62d-aebd-4316-a5cc-f2ba807808a6",
    "resource": {
      "resourceType": "Encounter",
      "id": "28d1f62d-aebd-4316-a5cc-f2ba807808a6",
      "meta": {
        "profile": [ "http://hl7.org/fhir/us/qicore/StructureDefinition/qicore-encounter" ]
      },
      "status": "finished",
      "class": {
        "system": "http://terminology.hl7.org/CodeSystem/v3-ActCode",
        "code": "IMP",
        "display": "inpatient encounter"
      },
      "type": [ {
        "coding": [ {
          "system": "http://snomed.info/sct",
          "code": "183452005"
        } ]
      } ],
      "subject": {
        "reference": "Patient/404570c9-b21f-4fa2-be5d-6d02c910fea6"
      },
      "period": {
        "start": "2026-12-10T08:00:00.000Z",
        "end": "2026-12-14T08:15:00.000Z"
      },
      "reasonCode": [ {
        "coding": [ {
          "system": "http://hl7.org/fhir/sid/icd-10-cm",
          "code": "S01.121A"
        } ]
      }, {
        "coding": [ {
          "system": "http://hl7.org/fhir/sid/icd-10-cm",
          "code": "W01.0XXA"
        } ]
      } ]
    },
    "request": {
      "method": "PUT",
      "url": "Encounter/28d1f62d-aebd-4316-a5cc-f2ba807808a6"
    }
  }, {
    "fullUrl": "https://madie.cms.gov/Encounter/f65ffde0-f326-4866-8464-e45805109688",
    "resource": {
      "resourceType": "Encounter",
      "id": "f65ffde0-f326-4866-8464-e45805109688",
      "meta": {
        "profile": [ "http://hl7.org/fhir/us/qicore/StructureDefinition/qicore-encounter" ]
      },
      "status": "finished",
      "class": {
        "system": "http://terminology.hl7.org/CodeSystem/v3-ActCode",
        "code": "IMP",
        "display": "inpatient encounter"
      },
      "type": [ {
        "coding": [ {
          "system": "http://snomed.info/sct",
          "code": "183452005"
        } ]
      } ],
      "subject": {
        "reference": "Patient/404570c9-b21f-4fa2-be5d-6d02c910fea6"
      },
      "period": {
        "start": "2026-11-09T11:00:00.000Z",
        "end": "2026-11-12T08:15:00.000Z"
      },
      "reasonCode": [ {
        "coding": [ {
          "system": "http://hl7.org/fhir/sid/icd-10-cm",
          "code": "W01.0XXA"
        } ]
      } ]
    },
    "request": {
      "method": "PUT",
      "url": "Encounter/f65ffde0-f326-4866-8464-e45805109688"
    }
  }, {
    "fullUrl": "https://madie.cms.gov/Encounter/efa0076c-e82b-4885-8d51-9116b1d0346b",
    "resource": {
      "resourceType": "Encounter",
      "id": "efa0076c-e82b-4885-8d51-9116b1d0346b",
      "meta": {
        "profile": [ "http://hl7.org/fhir/us/qicore/StructureDefinition/qicore-encounter" ]
      },
      "status": "finished",
      "class": {
        "system": "http://terminology.hl7.org/CodeSystem/v3-ActCode",
        "code": "IMP",
        "display": "inpatient encounter"
      },
      "type": [ {
        "coding": [ {
          "system": "http://snomed.info/sct",
          "code": "4525004"
        } ]
      } ],
      "subject": {
        "reference": "Patient/404570c9-b21f-4fa2-be5d-6d02c910fea6"
      },
      "period": {
        "start": "2026-11-09T08:00:00.000Z",
        "end": "2026-11-09T10:15:00.000Z"
      }
    },
    "request": {
      "method": "PUT",
      "url": "Encounter/efa0076c-e82b-4885-8d51-9116b1d0346b"
    }
  }, {
    "fullUrl": "https://madie.cms.gov/Condition/07e54fae-8eb0-4acf-9a24-7b9d3af75d60",
    "resource": {
      "resourceType": "Condition",
      "id": "07e54fae-8eb0-4acf-9a24-7b9d3af75d60",
      "meta": {
        "profile": [ "http://hl7.org/fhir/us/qicore/StructureDefinition/qicore-condition-encounter-diagnosis" ]
      },
      "clinicalStatus": {
        "coding": [ {
          "system": "http://terminology.hl7.org/CodeSystem/condition-clinical",
          "code": "active"
        } ]
      },
      "verificationStatus": {
        "coding": [ {
          "system": "http://terminology.hl7.org/CodeSystem/condition-ver-status",
          "code": "confirmed"
        } ]
      },
      "category": [ {
        "coding": [ {
          "system": "http://terminology.hl7.org/CodeSystem/condition-category",
          "code": "encounter-diagnosis",
          "display": "Encounter Diagnosis"
        } ]
      } ],
      "code": {
        "coding": [ {
          "system": "http://hl7.org/fhir/sid/icd-10-cm",
          "code": "S01.121A"
        } ]
      },
      "subject": {
        "reference": "Patient/404570c9-b21f-4fa2-be5d-6d02c910fea6"
      },
      "encounter": {
        "reference": "Encounter/28d1f62d-aebd-4316-a5cc-f2ba807808a6"
      }
    },
    "request": {
      "method": "PUT",
      "url": "Condition/07e54fae-8eb0-4acf-9a24-7b9d3af75d60"
    }
  }, {
    "fullUrl": "https://madie.cms.gov/Condition/9bd76f41-932a-4dee-b3d7-25130bf58abf",
    "resource": {
      "resourceType": "Condition",
      "id": "9bd76f41-932a-4dee-b3d7-25130bf58abf",
      "meta": {
        "profile": [ "http://hl7.org/fhir/us/qicore/StructureDefinition/qicore-condition-enounter-diagnosis" ]
      },
      "clinicalStatus": {
        "coding": [ {
          "system": "http://terminology.hl7.org/CodeSystem/condition-clinical",
          "code": "active"
        } ]
      },
      "verificationStatus": {
        "coding": [ {
          "system": "http://terminology.hl7.org/CodeSystem/condition-ver-status",
          "code": "confirmed"
        } ]
      },
      "category": [ {
        "coding": [ {
          "system": "http://terminology.hl7.org/CodeSystem/condition-category",
          "code": "encounter-diagnosis",
          "display": "Encounter Diagnosis"
        } ]
      } ],
      "code": {
        "coding": [ {
          "system": "http://hl7.org/fhir/sid/icd-10-cm",
          "code": "W01.0XXA"
        } ]
      },
      "subject": {
        "reference": "Patient/404570c9-b21f-4fa2-be5d-6d02c910fea6"
      },
      "encounter": {
        "reference": "Encounter/28d1f62d-aebd-4316-a5cc-f2ba807808a6"
      }
    },
    "request": {
      "method": "PUT",
      "url": "Condition/9bd76f41-932a-4dee-b3d7-25130bf58abf"
    }
  }, {
    "fullUrl": "https://madie.cms.gov/Condition/77028ad8-feb1-4f1f-af0b-d04c28a5e2fe",
    "resource": {
      "resourceType": "Condition",
      "id": "77028ad8-feb1-4f1f-af0b-d04c28a5e2fe",
      "meta": {
        "profile": [ "http://hl7.org/fhir/us/qicore/StructureDefinition/qicore-condition-encounter-diagnosis" ]
      },
      "clinicalStatus": {
        "coding": [ {
          "system": "http://terminology.hl7.org/CodeSystem/condition-clinical",
          "code": "active"
        } ]
      },
      "verificationStatus": {
        "coding": [ {
          "system": "http://terminology.hl7.org/CodeSystem/condition-ver-status",
          "code": "confirmed"
        } ]
      },
      "category": [ {
        "coding": [ {
          "system": "http://terminology.hl7.org/CodeSystem/condition-category",
          "code": "encounter-diagnosis",
          "display": "Encounter Diagnosis"
        } ]
      } ],
      "code": {
        "coding": [ {
          "system": "http://hl7.org/fhir/sid/icd-10-cm",
          "code": "W01.0XXA"
        } ]
      },
      "subject": {
        "reference": "Patient/404570c9-b21f-4fa2-be5d-6d02c910fea6"
      },
      "encounter": {
        "reference": "Encounter/f65ffde0-f326-4866-8464-e45805109688"
      }
    },
    "request": {
      "method": "PUT",
      "url": "Condition/77028ad8-feb1-4f1f-af0b-d04c28a5e2fe"
    }
  }, {
    "fullUrl": "https://madie.cms.gov/Patient/404570c9-b21f-4fa2-be5d-6d02c910fea6",
    "resource": {
      "resourceType": "Patient",
      "id": "404570c9-b21f-4fa2-be5d-6d02c910fea6",
      "meta": {
        "profile": [ "http://hl7.org/fhir/us/qicore/StructureDefinition/qicore-patient" ]
      },
      "extension": [ {
        "url": "http://hl7.org/fhir/us/core/StructureDefinition/us-core-race",
        "extension": [ {
          "url": "ombCategory",
          "valueCoding": {
            "system": "urn:oid:2.16.840.1.113883.6.238",
            "code": "2054-5",
            "display": "Black or African American",
            "userSelected": true
          }
        }, {
          "url": "text",
          "valueString": "Black or African American"
        } ]
      }, {
        "url": "http://hl7.org/fhir/us/core/StructureDefinition/us-core-ethnicity",
        "extension": [ {
          "url": "ombCategory",
          "valueCoding": {
            "system": "urn:oid:2.16.840.1.113883.6.238",
            "code": "2186-5",
            "display": "Not Hispanic or Latino",
            "userSelected": true
          }
        }, {
          "url": "text",
          "valueString": "Not Hispanic or Latino"
        } ]
      } ],
      "identifier": [ {
        "type": {
          "coding": [ {
            "system": "http://terminology.hl7.org/CodeSystem/v2-0203",
            "code": "MR"
          } ]
        },
        "system": "https://bonnie-fhir.healthit.gov/",
        "value": "61152a3b98086b7a79cbd7c1"
      } ],
      "active": true,
      "name": [ {
        "use": "usual",
        "family": "DENEXPass",
        "given": [ "Enc1FallPOAEnc2FallNPOAAndInjuryNPOA" ]
      } ],
      "gender": "male",
      "birthDate": "1992-11-10"
    },
    "request": {
      "method": "PUT",
      "url": "Patient/404570c9-b21f-4fa2-be5d-6d02c910fea6"
    }
  }, {
    "fullUrl": "https://madie.cms.gov/Practitioner/a276ef69-d549-41aa-b481-f7fdc27dcd19",
    "resource": {
      "resourceType": "Practitioner",
      "id": "a276ef69-d549-41aa-b481-f7fdc27dcd19",
      "meta": {
        "profile": [ "http://hl7.org/fhir/us/qicore/StructureDefinition/qicore-practitioner" ]
      },
      "identifier": [ {
        "system": "http://www.cms.gov/identifiers/pracitioners",
        "value": "P12345"
      } ],
      "name": [ {
        "use": "official",
        "family": "Smith",
        "given": [ "John" ]
      } ],
      "qualification": [ {
        "identifier": [ {
          "system": "http://hl7.org/fhir/sid/us-npi",
          "value": "1234567890"
        } ],
        "code": {
          "coding": [ {
            "system": "http://terminology.hl7.org/CodeSystem/v2-0203",
            "code": "MD",
            "display": "Medical License number"
          } ]
        }
      } ]
    },
    "request": {
      "method": "PUT",
      "url": "Practitioner/a276ef69-d549-41aa-b481-f7fdc27dcd19"
    }
  }, {
    "fullUrl": "https://madie.cms.gov/Coverage/de65913b-9bdc-4a44-970a-03016f1f0bd6",
    "resource": {
      "resourceType": "Coverage",
      "id": "de65913b-9bdc-4a44-970a-03016f1f0bd6",
      "meta": {
        "profile": [ "http://hl7.org/fhir/us/qicore/StructureDefinition/qicore-coverage" ]
      },
      "identifier": [ {
        "use": "official",
        "type": {
          "coding": [ {
            "system": "http://terminology.hl7.org/CodeSystem/v2-0203",
            "code": "MB"
          } ]
        },
        "system": "http://insuranceNumber.org/",
        "value": "123456789"
      } ],
      "status": "active",
      "beneficiary": {
        "reference": "Patient/404570c9-b21f-4fa2-be5d-6d02c910fea6"
      },
      "relationship": {
        "coding": [ {
          "system": "http://terminology.hl7.org/CodeSystem/subscriber-relationship",
          "code": "self",
          "display": "Self"
        } ]
      },
      "payor": [ {
        "reference": "Organization/c45f3fe8-e007-4cf0-a4ec-5d1891b3c709"
      } ]
    },
    "request": {
      "method": "PUT",
      "url": "Coverage/de65913b-9bdc-4a44-970a-03016f1f0bd6"
    }
  }, {
    "fullUrl": "https://madie.cms.gov/Organization/c45f3fe8-e007-4cf0-a4ec-5d1891b3c709",
    "resource": {
      "resourceType": "Organization",
      "id": "c45f3fe8-e007-4cf0-a4ec-5d1891b3c709",
      "meta": {
        "profile": [ "http://hl7.org/fhir/us/qicore/StructureDefinition/qicore-organization" ]
      },
      "identifier": [ {
        "system": "http://cms.gov/insurance-ids",
        "value": "AET12345"
      } ],
      "active": true,
      "type": [ {
        "coding": [ {
          "system": "http://terminology.hl7.org/CodeSystem/organization-type",
          "code": "prov",
          "display": "Healthcare Provider"
        } ]
      } ],
      "name": "Aetna Insurance",
      "telecom": [ {
        "system": "phone",
        "value": "+1-800-123-4567"
      } ],
      "address": [ {
        "line": [ "123 Main Street" ],
        "city": "Cityville",
        "state": "CA",
        "postalCode": "12345",
        "country": "USA"
      } ]
    },
    "request": {
      "method": "PUT",
      "url": "Organization/c45f3fe8-e007-4cf0-a4ec-5d1891b3c709"
    }
  }, {
    "fullUrl": "https://madie.cms.gov/MeasureReport/be4537a3-fcab-48b3-b04f-fced6ef56cbc",
    "resource": {
      "resourceType": "MeasureReport",
      "id": "be4537a3-fcab-48b3-b04f-fced6ef56cbc",
      "meta": {
        "profile": [ "http://hl7.org/fhir/us/cqfmeasures/StructureDefinition/test-case-cqfm" ]
      },
      "contained": [ {
        "resourceType": "Parameters",
        "id": "c7020dad-8778-4389-a811-6ef08088f4c1-parameters",
        "parameter": [ {
          "name": "subject",
          "valueString": "404570c9-b21f-4fa2-be5d-6d02c910fea6"
        } ]
      } ],
      "extension": [ {
        "url": "http://hl7.org/fhir/StructureDefinition/cqf-inputParameters",
        "valueReference": {
          "reference": "#c7020dad-8778-4389-a811-6ef08088f4c1-parameters"
        }
      }, {
        "url": "http://hl7.org/fhir/us/cqfmeasures/StructureDefinition/cqfm-testCaseDescription",
        "valueMarkdown": "Enc 1: Fall POA = Y. Meets denom exclusion.\nEnc: 2 Fall POA = N and injury POA = N. Meets numerator."
      } ],
      "modifierExtension": [ {
        "url": "http://hl7.org/fhir/us/cqfmeasures/StructureDefinition/cqfm-isTestCase",
        "valueBoolean": true
      } ],
      "status": "complete",
      "type": "individual",
      "measure": "https://madie.cms.gov/Measure/CMS1017FHIRHHFI",
      "period": {
        "start": "2026-01-01",
        "end": "2026-12-31"
      },
      "group": [ {
        "id": "Group_1",
        "population": [ {
          "id": "InitialPopulation_1",
          "code": {
            "coding": [ {
              "system": "http://terminology.hl7.org/CodeSystem/measure-population",
              "code": "initial-population",
              "display": "Initial Population"
            } ]
          },
          "count": 2
        }, {
          "id": "Denominator_1",
          "code": {
            "coding": [ {
              "system": "http://terminology.hl7.org/CodeSystem/measure-population",
              "code": "denominator",
              "display": "Denominator"
            } ]
          },
          "count": 2
        }, {
          "id": "DenominatorExclusion_1",
          "code": {
            "coding": [ {
              "system": "http://terminology.hl7.org/CodeSystem/measure-population",
              "code": "denominator-exclusion",
              "display": "Denominator Exclusion"
            } ]
          },
          "count": 1
        }, {
          "id": "Numerator_1",
          "code": {
            "coding": [ {
              "system": "http://terminology.hl7.org/CodeSystem/measure-population",
              "code": "numerator",
              "display": "Numerator"
            } ]
          },
          "count": 1
        }, {
          "id": "NumeratorExclusion_1",
          "code": {
            "coding": [ {
              "system": "http://terminology.hl7.org/CodeSystem/measure-population",
              "code": "numerator-exclusion",
              "display": "Numerator Exclusion"
            } ]
          },
          "count": 1
        }, {
          "id": "MeasureObservation_1_1_1",
          "code": {
            "coding": [ {
              "system": "http://terminology.hl7.org/CodeSystem/measure-population",
              "code": "measure-observation",
              "display": "Measure Observation"
            } ]
          },
          "count": 4
        } ],
        "measureScore": {
          "value": 0.0
        }
      } ],
      "evaluatedResource": [ {
        "reference": "Claim/01d5a58f-b3a2-4504-a022-15b702dd55f0"
      }, {
        "reference": "Claim/c036cf7f-13cf-4c9a-9891-f79ad631aa54"
      }, {
        "reference": "Claim/d51ff2b0-8a4f-47aa-ad78-51032dea225e"
      }, {
        "reference": "Encounter/28d1f62d-aebd-4316-a5cc-f2ba807808a6"
      }, {
        "reference": "Encounter/f65ffde0-f326-4866-8464-e45805109688"
      }, {
        "reference": "Encounter/efa0076c-e82b-4885-8d51-9116b1d0346b"
      }, {
        "reference": "Condition/07e54fae-8eb0-4acf-9a24-7b9d3af75d60"
      }, {
        "reference": "Condition/9bd76f41-932a-4dee-b3d7-25130bf58abf"
      }, {
        "reference": "Condition/77028ad8-feb1-4f1f-af0b-d04c28a5e2fe"
      }, {
        "reference": "Patient/404570c9-b21f-4fa2-be5d-6d02c910fea6"
      }, {
        "reference": "Practitioner/a276ef69-d549-41aa-b481-f7fdc27dcd19"
      }, {
        "reference": "Coverage/de65913b-9bdc-4a44-970a-03016f1f0bd6"
      }, {
        "reference": "Organization/c45f3fe8-e007-4cf0-a4ec-5d1891b3c709"
      } ]
    },
    "request": {
      "method": "PUT",
      "url": "MeasureReport/be4537a3-fcab-48b3-b04f-fced6ef56cbc"
    }
  } ]
}