{
  "resourceType": "Bundle",
  "id": "612e6aaf02c62a011f2eaee7",
  "type": "transaction",
  "entry": [ {
    "fullUrl": "https://madie.cms.gov/Patient/2de13e4e-32bf-4b79-8750-9e0820d2eb4d",
    "resource": {
      "resourceType": "Patient",
      "id": "2de13e4e-32bf-4b79-8750-9e0820d2eb4d",
      "meta": {
        "profile": [ "http://hl7.org/fhir/us/qicore/StructureDefinition/qicore-patient" ]
      },
      "text": {
        "status": "generated",
        "div": "<div xmlns=\"http://www.w3.org/1999/xhtml\"><div class=\"hapiHeaderText\">PtRef_MA_LMWH_OBS <b>NUMERPASS </b></div><table class=\"hapiPropertyTable\"><tbody><tr><td>Identifier</td><td>3dc4a512478cd906257a70aca14edeef</td></tr><tr><td>Date of birth</td><td><span>02 January 1974</span></td></tr></tbody></table></div>"
      },
      "extension": [ {
        "url": "http://hl7.org/fhir/us/core/StructureDefinition/us-core-race",
        "extension": [ {
          "url": "ombCategory",
          "valueCoding": {
            "system": "urn:oid:2.16.840.1.113883.6.238",
            "code": "1002-5",
            "display": "American Indian or Alaska Native",
            "userSelected": true
          }
        }, {
          "url": "text",
          "valueString": "American Indian or Alaska Native"
        } ]
      }, {
        "url": "http://hl7.org/fhir/us/core/StructureDefinition/us-core-ethnicity",
        "extension": [ {
          "url": "ombCategory",
          "valueCoding": {
            "system": "urn:oid:2.16.840.1.113883.6.238",
            "code": "2135-2",
            "display": "Hispanic or Latino",
            "userSelected": true
          }
        }, {
          "url": "text",
          "valueString": "Hispanic or Latino"
        } ]
      } ],
      "identifier": [ {
        "type": {
          "coding": [ {
            "system": "http://terminology.hl7.org/CodeSystem/v2-0203",
            "code": "MR"
          } ]
        },
        "system": "https://bonnie-fhir.healthit.gov/",
        "value": "612e6aaf02c62a011f2eaee7"
      } ],
      "active": true,
      "name": [ {
        "use": "usual",
        "family": "NUMERPass",
        "given": [ "PtRefMALMWHOBS" ]
      } ],
      "gender": "male",
      "birthDate": "1975-01-02"
    },
    "request": {
      "method": "PUT",
      "url": "Patient/2de13e4e-32bf-4b79-8750-9e0820d2eb4d"
    }
  }, {
    "fullUrl": "https://madie.cms.gov/Encounter/8034755d-8e36-4184-9e21-bc76006fa258",
    "resource": {
      "resourceType": "Encounter",
      "id": "8034755d-8e36-4184-9e21-bc76006fa258",
      "meta": {
        "profile": [ "http://hl7.org/fhir/us/qicore/StructureDefinition/qicore-encounter" ]
      },
      "status": "finished",
      "class": {
        "system": "http://terminology.hl7.org/CodeSystem/v3-ActCode",
        "code": "OBSENC",
        "display": "observation encounter"
      },
      "type": [ {
        "coding": [ {
          "system": "http://snomed.info/sct",
          "code": "448951000124107"
        } ]
      } ],
      "subject": {
        "reference": "Patient/2de13e4e-32bf-4b79-8750-9e0820d2eb4d"
      },
      "period": {
        "start": "2026-10-31T05:00:00.000+00:00",
        "end": "2026-11-01T07:15:00.000+00:00"
      },
      "length": {
        "value": 1,
        "unit": "days"
      }
    },
    "request": {
      "method": "PUT",
      "url": "Encounter/8034755d-8e36-4184-9e21-bc76006fa258"
    }
  }, {
    "fullUrl": "https://madie.cms.gov/Encounter/799c673f-1ea8-415d-80ef-b209842eb5c1",
    "resource": {
      "resourceType": "Encounter",
      "id": "799c673f-1ea8-415d-80ef-b209842eb5c1",
      "meta": {
        "profile": [ "http://hl7.org/fhir/us/qicore/StructureDefinition/qicore-encounter" ]
      },
      "status": "finished",
      "class": {
        "system": "http://terminology.hl7.org/CodeSystem/v3-ActCode",
        "code": "IMP",
        "display": "inpatient encounter"
      },
      "type": [ {
        "coding": [ {
          "system": "http://snomed.info/sct",
          "code": "8715000"
        } ]
      } ],
      "subject": {
        "reference": "Patient/2de13e4e-32bf-4b79-8750-9e0820d2eb4d"
      },
      "period": {
        "start": "2026-11-01T08:00:00.000+00:00",
        "end": "2026-11-26T08:15:00.000+00:00"
      },
      "length": {
        "value": 25,
        "unit": "days"
      }
    },
    "request": {
      "method": "PUT",
      "url": "Encounter/799c673f-1ea8-415d-80ef-b209842eb5c1"
    }
  }, {
    "fullUrl": "https://madie.cms.gov/Coverage/c26178d3-4cc2-4c37-86e5-57514226847e",
    "resource": {
      "resourceType": "Coverage",
      "id": "c26178d3-4cc2-4c37-86e5-57514226847e",
      "status": "active",
      "beneficiary": {
        "reference": "Patient/2de13e4e-32bf-4b79-8750-9e0820d2eb4d"
      },
      "period": {
        "start": "1975-01-02T08:00:00.000+00:00"
      },
      "payor": [ {
        "reference": "Organization/650da37e-3fa7-42ec-bb4d-bc1b4465eaf7"
      } ]
    },
    "request": {
      "method": "PUT",
      "url": "Coverage/c26178d3-4cc2-4c37-86e5-57514226847e"
    }
  }, {
    "fullUrl": "https://madie.cms.gov/MedicationAdministration/52816462-b3b4-471c-bc5a-843e5ebdba3e",
    "resource": {
      "resourceType": "MedicationAdministration",
      "id": "52816462-b3b4-471c-bc5a-843e5ebdba3e",
      "meta": {
        "profile": [ "http://hl7.org/fhir/us/qicore/StructureDefinition/qicore-medicationadministrationnotdone" ]
      },
      "extension": [ {
        "url": "http://hl7.org/fhir/us/qicore/StructureDefinition/qicore-recorded",
        "valueDateTime": "2026-11-02T11:00:00.000+00:00"
      } ],
      "status": "not-done",
      "statusReason": [ {
        "coding": [ {
          "system": "http://snomed.info/sct",
          "code": "443390004",
          "display": "Refusal of treatment by patient (situation)"
        } ]
      } ],
      "medicationCodeableConcept": {
        "coding": [ {
          "system": "http://www.nlm.nih.gov/research/umls/rxnorm",
          "code": "854228"
        } ]
      },
      "subject": {
        "reference": "Patient/2de13e4e-32bf-4b79-8750-9e0820d2eb4d"
      },
      "effectivePeriod": {
        "start": "2026-11-01T06:00:00.000+00:00"
      }
    },
    "request": {
      "method": "PUT",
      "url": "MedicationAdministration/52816462-b3b4-471c-bc5a-843e5ebdba3e"
    }
  }, {
    "fullUrl": "https://madie.cms.gov/Organization/650da37e-3fa7-42ec-bb4d-bc1b4465eaf7",
    "resource": {
      "resourceType": "Organization",
      "id": "650da37e-3fa7-42ec-bb4d-bc1b4465eaf7",
      "meta": {
        "profile": [ "http://hl7.org/fhir/us/qicore/StructureDefinition/qicore-organization" ]
      },
      "identifier": [ {
        "use": "temp",
        "system": "urn:oid:2.16.840.1.113883.4.4",
        "value": "21-3259825"
      } ],
      "active": true,
      "type": [ {
        "coding": [ {
          "system": "http://terminology.hl7.org/CodeSystem/organization-type",
          "code": "pay",
          "display": "Payer"
        } ]
      } ],
      "name": "Blue Cross Blue Shield of Texas",
      "telecom": [ {
        "system": "phone",
        "value": "(+1) 972-766-6900"
      } ],
      "address": [ {
        "use": "billing",
        "type": "postal",
        "line": [ "P.O. Box 660044" ],
        "city": "Dallas",
        "state": "TX",
        "postalCode": "75266-0044",
        "country": "USA"
      } ]
    },
    "request": {
      "method": "PUT",
      "url": "Organization/650da37e-3fa7-42ec-bb4d-bc1b4465eaf7"
    }
  }, {
    "fullUrl": "https://madie.cms.gov/Practitioner/295592aa-742f-4e44-81e7-d4d4edcf3a72",
    "resource": {
      "resourceType": "Practitioner",
      "id": "295592aa-742f-4e44-81e7-d4d4edcf3a72",
      "identifier": [ {
        "system": "http://hl7.org/fhir/sid/us-npi",
        "value": "123456"
      } ],
      "name": [ {
        "family": "Evil",
        "prefix": [ "Dr" ]
      } ]
    },
    "request": {
      "method": "PUT",
      "url": "Practitioner/295592aa-742f-4e44-81e7-d4d4edcf3a72"
    }
  }, {
    "fullUrl": "https://madie.cms.gov/MeasureReport/fec0c8b8-2af7-4c2d-8089-a36a1521bfba",
    "resource": {
      "resourceType": "MeasureReport",
      "id": "fec0c8b8-2af7-4c2d-8089-a36a1521bfba",
      "meta": {
        "profile": [ "http://hl7.org/fhir/us/cqfmeasures/StructureDefinition/test-case-cqfm" ]
      },
      "contained": [ {
        "resourceType": "Parameters",
        "id": "4123f47c-b7ef-4a16-82a4-34f4ffcece87-parameters",
        "parameter": [ {
          "name": "subject",
          "valueString": "2de13e4e-32bf-4b79-8750-9e0820d2eb4d"
        } ]
      } ],
      "extension": [ {
        "url": "http://hl7.org/fhir/StructureDefinition/cqf-inputParameters",
        "valueReference": {
          "reference": "#4123f47c-b7ef-4a16-82a4-34f4ffcece87-parameters"
        }
      }, {
        "url": "http://hl7.org/fhir/us/cqfmeasures/StructureDefinition/cqfm-testCaseDescription",
        "valueMarkdown": "lmwh not given due to patient refusal during Observation\n"
      } ],
      "modifierExtension": [ {
        "url": "http://hl7.org/fhir/us/cqfmeasures/StructureDefinition/cqfm-isTestCase",
        "valueBoolean": true
      } ],
      "status": "complete",
      "type": "individual",
      "measure": "https://madie.cms.gov/Measure/CMS108FHIRVTEProphylaxis",
      "period": {
        "start": "2026-01-01",
        "end": "2026-12-31"
      },
      "group": [ {
        "id": "Group_1",
        "population": [ {
          "id": "InitialPopulation_1",
          "code": {
            "coding": [ {
              "system": "http://terminology.hl7.org/CodeSystem/measure-population",
              "code": "initial-population",
              "display": "Initial Population"
            } ]
          },
          "count": 1
        }, {
          "id": "Denominator_1",
          "code": {
            "coding": [ {
              "system": "http://terminology.hl7.org/CodeSystem/measure-population",
              "code": "denominator",
              "display": "Denominator"
            } ]
          },
          "count": 1
        }, {
          "id": "DenominatorExclusion_1",
          "code": {
            "coding": [ {
              "system": "http://terminology.hl7.org/CodeSystem/measure-population",
              "code": "denominator-exclusion",
              "display": "Denominator Exclusion"
            } ]
          },
          "count": 0
        }, {
          "id": "Numerator_1",
          "code": {
            "coding": [ {
              "system": "http://terminology.hl7.org/CodeSystem/measure-population",
              "code": "numerator",
              "display": "Numerator"
            } ]
          },
          "count": 1
        } ],
        "measureScore": {
          "value": 0.0
        }
      } ],
      "evaluatedResource": [ {
        "reference": "Patient/2de13e4e-32bf-4b79-8750-9e0820d2eb4d"
      }, {
        "reference": "Encounter/8034755d-8e36-4184-9e21-bc76006fa258"
      }, {
        "reference": "Encounter/799c673f-1ea8-415d-80ef-b209842eb5c1"
      }, {
        "reference": "Coverage/c26178d3-4cc2-4c37-86e5-57514226847e"
      }, {
        "reference": "MedicationAdministration/52816462-b3b4-471c-bc5a-843e5ebdba3e"
      }, {
        "reference": "Organization/650da37e-3fa7-42ec-bb4d-bc1b4465eaf7"
      }, {
        "reference": "Practitioner/295592aa-742f-4e44-81e7-d4d4edcf3a72"
      } ]
    },
    "request": {
      "method": "PUT",
      "url": "MeasureReport/fec0c8b8-2af7-4c2d-8089-a36a1521bfba"
    }
  } ]
}