{
  "resourceType": "Bundle",
  "id": "633b3f9e0968f80122503ccf",
  "type": "transaction",
  "entry": [ {
    "fullUrl": "https://madie.cms.gov/Patient/f556e7de-9a74-4ea8-8a25-ca7ab8b97ef3",
    "resource": {
      "resourceType": "Patient",
      "id": "f556e7de-9a74-4ea8-8a25-ca7ab8b97ef3",
      "meta": {
        "profile": [ "http://hl7.org/fhir/us/qicore/StructureDefinition/qicore-patient" ]
      },
      "text": {
        "status": "generated",
        "div": "<div xmlns=\"http://www.w3.org/1999/xhtml\"><div class=\"hapiHeaderText\">AssPrfDELRsltDtTimeEQIPStartPlus1Min<b>DENOMPASS</b></div><table class=\"hapiPropertyTable\"><tbody><tr><td>Date of birth</td><td><span>01 February 2004</span></td></tr></tbody></table></div>"
      },
      "extension": [ {
        "url": "http://hl7.org/fhir/us/core/StructureDefinition/us-core-race",
        "extension": [ {
          "url": "ombCategory",
          "valueCoding": {
            "system": "urn:oid:2.16.840.1.113883.6.238",
            "code": "1002-5",
            "display": "American Indian or Alaska Native",
            "userSelected": true
          }
        }, {
          "url": "text",
          "valueString": "American Indian or Alaska Native"
        } ]
      }, {
        "url": "http://hl7.org/fhir/us/core/StructureDefinition/us-core-ethnicity",
        "extension": [ {
          "url": "ombCategory",
          "valueCoding": {
            "system": "urn:oid:2.16.840.1.113883.6.238",
            "code": "2135-2",
            "display": "Hispanic or Latino",
            "userSelected": true
          }
        }, {
          "url": "text",
          "valueString": "Hispanic or Latino"
        } ]
      } ],
      "identifier": [ {
        "type": {
          "coding": [ {
            "system": "http://terminology.hl7.org/CodeSystem/v2-0203",
            "code": "MR"
          } ]
        },
        "system": "https://bonnie-fhir.healthit.gov/",
        "value": "633b3f9e0968f80122503ccf"
      } ],
      "active": true,
      "name": [ {
        "use": "usual",
        "family": "DENOMPass",
        "given": [ "AssPrfDELRsltDtTimeEQIPStartPlus1Min" ]
      } ],
      "gender": "female",
      "birthDate": "2005-02-01"
    },
    "request": {
      "method": "PUT",
      "url": "Patient/f556e7de-9a74-4ea8-8a25-ca7ab8b97ef3"
    }
  }, {
    "fullUrl": "https://madie.cms.gov/Observation/900f9ea2-cf66-47aa-9c50-16cc48bada4b",
    "resource": {
      "resourceType": "Observation",
      "id": "900f9ea2-cf66-47aa-9c50-16cc48bada4b",
      "meta": {
        "profile": [ "http://hl7.org/fhir/us/qicore/StructureDefinition/qicore-simple-observation" ]
      },
      "status": "final",
      "category": [ {
        "coding": [ {
          "system": "http://terminology.hl7.org/CodeSystem/observation-category",
          "code": "exam",
          "display": "Exam",
          "userSelected": true
        } ]
      } ],
      "code": {
        "coding": [ {
          "system": "http://loinc.org",
          "code": "93857-1"
        } ]
      },
      "subject": {
        "reference": "Patient/f556e7de-9a74-4ea8-8a25-ca7ab8b97ef3"
      },
      "effectiveDateTime": "2026-02-01T08:01:00.000+00:00",
      "performer": [ {
        "reference": "Organization/example1",
        "display": "Hendricks Country Hospital"
      } ],
      "valueDateTime": "2026-02-01T08:01:00.000+00:00"
    },
    "request": {
      "method": "PUT",
      "url": "Observation/900f9ea2-cf66-47aa-9c50-16cc48bada4b"
    }
  }, {
    "fullUrl": "https://madie.cms.gov/Observation/397e45e0-c505-4c0c-8282-d81c2525a6e9",
    "resource": {
      "resourceType": "Observation",
      "id": "397e45e0-c505-4c0c-8282-d81c2525a6e9",
      "meta": {
        "profile": [ "http://hl7.org/fhir/us/qicore/StructureDefinition/qicore-simple-observation" ]
      },
      "status": "final",
      "category": [ {
        "coding": [ {
          "system": "http://terminology.hl7.org/CodeSystem/observation-category",
          "code": "exam",
          "display": "Exam",
          "userSelected": true
        } ]
      } ],
      "code": {
        "coding": [ {
          "system": "http://loinc.org",
          "code": "11778-8"
        } ]
      },
      "subject": {
        "reference": "Patient/f556e7de-9a74-4ea8-8a25-ca7ab8b97ef3"
      },
      "effectiveDateTime": "2026-02-01T08:00:00.000+00:00",
      "performer": [ {
        "reference": "Organization/example1",
        "display": "Hendricks Country Hospital"
      } ],
      "valueDateTime": "2026-02-01T08:00:00.000+00:00"
    },
    "request": {
      "method": "PUT",
      "url": "Observation/397e45e0-c505-4c0c-8282-d81c2525a6e9"
    }
  }, {
    "fullUrl": "https://madie.cms.gov/Encounter/140f28bd-5e25-480a-891a-2e061e3b4e1b",
    "resource": {
      "resourceType": "Encounter",
      "id": "140f28bd-5e25-480a-891a-2e061e3b4e1b",
      "meta": {
        "profile": [ "http://hl7.org/fhir/us/qicore/StructureDefinition/qicore-encounter" ]
      },
      "status": "finished",
      "class": {
        "system": "http://terminology.hl7.org/CodeSystem/v3-ActCode",
        "code": "IMP",
        "display": "inpatient encounter"
      },
      "type": [ {
        "coding": [ {
          "system": "http://snomed.info/sct",
          "code": "183452005"
        } ]
      } ],
      "subject": {
        "reference": "Patient/f556e7de-9a74-4ea8-8a25-ca7ab8b97ef3"
      },
      "period": {
        "start": "2026-02-01T08:00:00.000+00:00",
        "end": "2026-02-05T08:15:00.000+00:00"
      }
    },
    "request": {
      "method": "PUT",
      "url": "Encounter/140f28bd-5e25-480a-891a-2e061e3b4e1b"
    }
  }, {
    "fullUrl": "https://madie.cms.gov/Procedure/2f9056f1-7117-4123-94c6-2d3328af1d7c",
    "resource": {
      "resourceType": "Procedure",
      "id": "2f9056f1-7117-4123-94c6-2d3328af1d7c",
      "meta": {
        "profile": [ "http://hl7.org/fhir/us/qicore/StructureDefinition/qicore-procedure" ]
      },
      "extension": [ {
        "url": "http://hl7.org/fhir/us/qicore/StructureDefinition/qicore-recorded",
        "valueDateTime": "2014-04-05T13:35:00.000+00:00"
      } ],
      "status": "completed",
      "code": {
        "coding": [ {
          "system": "http://snomed.info/sct",
          "code": "10745001"
        } ]
      },
      "subject": {
        "reference": "Patient/f556e7de-9a74-4ea8-8a25-ca7ab8b97ef3"
      },
      "performedPeriod": {
        "start": "2026-02-01T08:00:00.000+00:00",
        "end": "2026-02-05T08:15:00.000+00:00"
      }
    },
    "request": {
      "method": "PUT",
      "url": "Procedure/2f9056f1-7117-4123-94c6-2d3328af1d7c"
    }
  }, {
    "fullUrl": "https://madie.cms.gov/Coverage/b5dc223b-9fee-4e35-8a30-13d5742d8601",
    "resource": {
      "resourceType": "Coverage",
      "id": "b5dc223b-9fee-4e35-8a30-13d5742d8601",
      "meta": {
        "profile": [ "http://hl7.org/fhir/us/qicore/StructureDefinition/qicore-coverage" ]
      },
      "status": "active",
      "subscriberId": "523435",
      "beneficiary": {
        "reference": "Patient/f556e7de-9a74-4ea8-8a25-ca7ab8b97ef3"
      },
      "relationship": {
        "coding": [ {
          "system": "http://terminology.hl7.org/CodeSystem/subscriber-relationship",
          "code": "self"
        } ]
      },
      "payor": [ {
        "reference": "Organization/86996c3c-1e0b-45fc-9ab0-561bc6f50e85"
      } ]
    },
    "request": {
      "method": "PUT",
      "url": "Coverage/b5dc223b-9fee-4e35-8a30-13d5742d8601"
    }
  }, {
    "fullUrl": "https://madie.cms.gov/Organization/86996c3c-1e0b-45fc-9ab0-561bc6f50e85",
    "resource": {
      "resourceType": "Organization",
      "id": "86996c3c-1e0b-45fc-9ab0-561bc6f50e85",
      "meta": {
        "profile": [ "http://hl7.org/fhir/us/qicore/StructureDefinition/qicore-organization" ]
      },
      "identifier": [ {
        "use": "temp",
        "system": "urn:oid:2.16.840.1.113883.4.4",
        "value": "21-3259825"
      } ],
      "active": true,
      "type": [ {
        "coding": [ {
          "system": "http://terminology.hl7.org/CodeSystem/organization-type",
          "code": "pay",
          "display": "Payer"
        } ]
      } ],
      "name": "Blue Cross Blue Shield of Texas",
      "telecom": [ {
        "system": "phone",
        "value": "(+1) 972-766-6900"
      } ],
      "address": [ {
        "use": "billing",
        "type": "postal",
        "line": [ "P.O. Box 660044" ],
        "city": "Dallas",
        "state": "TX",
        "postalCode": "75266-0044",
        "country": "USA"
      } ]
    },
    "request": {
      "method": "PUT",
      "url": "Organization/86996c3c-1e0b-45fc-9ab0-561bc6f50e85"
    }
  }, {
    "fullUrl": "https://madie.cms.gov/Practitioner/12cd0b91-ead5-47ae-bc9f-456149ffadfe",
    "resource": {
      "resourceType": "Practitioner",
      "id": "12cd0b91-ead5-47ae-bc9f-456149ffadfe",
      "meta": {
        "profile": [ "http://hl7.org/fhir/us/qicore/StructureDefinition/qicore-practitioner" ]
      },
      "identifier": [ {
        "system": "http://hl7.org/fhir/sid/us-npi",
        "value": "1234567890"
      } ],
      "name": [ {
        "family": "Evil",
        "prefix": [ "Dr" ]
      } ]
    },
    "request": {
      "method": "PUT",
      "url": "Practitioner/12cd0b91-ead5-47ae-bc9f-456149ffadfe"
    }
  }, {
    "fullUrl": "https://madie.cms.gov/MeasureReport/d718eadf-db3a-4345-816f-f7db65af4ac3",
    "resource": {
      "resourceType": "MeasureReport",
      "id": "d718eadf-db3a-4345-816f-f7db65af4ac3",
      "meta": {
        "profile": [ "http://hl7.org/fhir/us/cqfmeasures/StructureDefinition/test-case-cqfm" ]
      },
      "contained": [ {
        "resourceType": "Parameters",
        "id": "12582b5b-635c-420e-9572-cfc3558a96a8-parameters",
        "parameter": [ {
          "name": "subject",
          "valueString": "f556e7de-9a74-4ea8-8a25-ca7ab8b97ef3"
        } ]
      } ],
      "extension": [ {
        "url": "http://hl7.org/fhir/StructureDefinition/cqf-inputParameters",
        "valueReference": {
          "reference": "#12582b5b-635c-420e-9572-cfc3558a96a8-parameters"
        }
      }, {
        "url": "http://hl7.org/fhir/us/cqfmeasures/StructureDefinition/cqfm-testCaseDescription",
        "valueMarkdown": "\"Result date/Time of delivery (based on assessment performed) is equal to encounter start plus one minute.\"\n"
      } ],
      "modifierExtension": [ {
        "url": "http://hl7.org/fhir/us/cqfmeasures/StructureDefinition/cqfm-isTestCase",
        "valueBoolean": true
      } ],
      "status": "complete",
      "type": "individual",
      "measure": "https://madie.cms.gov/Measure/CMS1028FHIRPCSevereOBComps",
      "period": {
        "start": "2026-01-01",
        "end": "2026-12-31"
      },
      "group": [ {
        "id": "Group_1",
        "population": [ {
          "id": "InitialPopulation_1",
          "code": {
            "coding": [ {
              "system": "http://terminology.hl7.org/CodeSystem/measure-population",
              "code": "initial-population",
              "display": "Initial Population"
            } ]
          },
          "count": 1
        }, {
          "id": "Denominator_1",
          "code": {
            "coding": [ {
              "system": "http://terminology.hl7.org/CodeSystem/measure-population",
              "code": "denominator",
              "display": "Denominator"
            } ]
          },
          "count": 1
        }, {
          "id": "Numerator_1",
          "code": {
            "coding": [ {
              "system": "http://terminology.hl7.org/CodeSystem/measure-population",
              "code": "numerator",
              "display": "Numerator"
            } ]
          },
          "count": 0
        }, {
          "id": "NumeratorExclusion_1",
          "code": {
            "coding": [ {
              "system": "http://terminology.hl7.org/CodeSystem/measure-population",
              "code": "numerator-exclusion",
              "display": "Numerator Exclusion"
            } ]
          },
          "count": 0
        } ],
        "measureScore": {
          "value": 0.0
        }
      }, {
        "id": "Group_2",
        "population": [ {
          "id": "InitialPopulation_2",
          "code": {
            "coding": [ {
              "system": "http://terminology.hl7.org/CodeSystem/measure-population",
              "code": "initial-population",
              "display": "Initial Population"
            } ]
          },
          "count": 1
        }, {
          "id": "Denominator_2",
          "code": {
            "coding": [ {
              "system": "http://terminology.hl7.org/CodeSystem/measure-population",
              "code": "denominator",
              "display": "Denominator"
            } ]
          },
          "count": 1
        }, {
          "id": "Numerator_2",
          "code": {
            "coding": [ {
              "system": "http://terminology.hl7.org/CodeSystem/measure-population",
              "code": "numerator",
              "display": "Numerator"
            } ]
          },
          "count": 0
        }, {
          "id": "NumeratorExclusion_2",
          "code": {
            "coding": [ {
              "system": "http://terminology.hl7.org/CodeSystem/measure-population",
              "code": "numerator-exclusion",
              "display": "Numerator Exclusion"
            } ]
          },
          "count": 0
        } ],
        "measureScore": {
          "value": 0.0
        }
      } ],
      "evaluatedResource": [ {
        "reference": "Patient/f556e7de-9a74-4ea8-8a25-ca7ab8b97ef3"
      }, {
        "reference": "Observation/900f9ea2-cf66-47aa-9c50-16cc48bada4b"
      }, {
        "reference": "Observation/397e45e0-c505-4c0c-8282-d81c2525a6e9"
      }, {
        "reference": "Encounter/140f28bd-5e25-480a-891a-2e061e3b4e1b"
      }, {
        "reference": "Procedure/2f9056f1-7117-4123-94c6-2d3328af1d7c"
      }, {
        "reference": "Coverage/b5dc223b-9fee-4e35-8a30-13d5742d8601"
      }, {
        "reference": "Organization/86996c3c-1e0b-45fc-9ab0-561bc6f50e85"
      }, {
        "reference": "Practitioner/12cd0b91-ead5-47ae-bc9f-456149ffadfe"
      } ]
    },
    "request": {
      "method": "PUT",
      "url": "MeasureReport/d718eadf-db3a-4345-816f-f7db65af4ac3"
    }
  } ]
}