{
  "resourceType": "Bundle",
  "id": "612e6a4f02c62a011f2e9958",
  "type": "transaction",
  "entry": [ {
    "fullUrl": "https://madie.cms.gov/Patient/316da95d-60f2-4a74-9a28-7a4adb7c0098",
    "resource": {
      "resourceType": "Patient",
      "id": "316da95d-60f2-4a74-9a28-7a4adb7c0098",
      "meta": {
        "profile": [ "http://hl7.org/fhir/us/qicore/StructureDefinition/qicore-patient" ]
      },
      "text": {
        "status": "generated",
        "div": "<div xmlns=\"http://www.w3.org/1999/xhtml\"><div class=\"hapiHeaderText\">EncB4MP <b>IPPFAIL </b></div><table class=\"hapiPropertyTable\"><tbody><tr><td>Identifier</td><td>2d99ac3a4fb95c3e67df4d790ccc8402</td></tr><tr><td>Date of birth</td><td><span>01 January 2009</span></td></tr></tbody></table></div>"
      },
      "extension": [ {
        "url": "http://hl7.org/fhir/us/core/StructureDefinition/us-core-race",
        "extension": [ {
          "url": "ombCategory",
          "valueCoding": {
            "system": "urn:oid:2.16.840.1.113883.6.238",
            "code": "1002-5",
            "display": "American Indian or Alaska Native",
            "userSelected": true
          }
        }, {
          "url": "text",
          "valueString": "American Indian or Alaska Native"
        } ]
      }, {
        "url": "http://hl7.org/fhir/us/core/StructureDefinition/us-core-ethnicity",
        "extension": [ {
          "url": "ombCategory",
          "valueCoding": {
            "system": "urn:oid:2.16.840.1.113883.6.238",
            "code": "2135-2",
            "display": "Hispanic or Latino",
            "userSelected": true
          }
        }, {
          "url": "text",
          "valueString": "Hispanic or Latino"
        } ]
      } ],
      "identifier": [ {
        "type": {
          "coding": [ {
            "system": "http://terminology.hl7.org/CodeSystem/v2-0203",
            "code": "MR"
          } ]
        },
        "system": "https://bonnie-fhir.healthit.gov/",
        "value": "612e6a4f02c62a011f2e9958"
      } ],
      "active": true,
      "name": [ {
        "use": "usual",
        "family": "IPPFail",
        "given": [ "EncB4MP" ]
      } ],
      "gender": "male",
      "birthDate": "2010-01-01"
    },
    "request": {
      "method": "PUT",
      "url": "Patient/316da95d-60f2-4a74-9a28-7a4adb7c0098"
    }
  }, {
    "fullUrl": "https://madie.cms.gov/Encounter/bcb1bb86-d18a-4c4d-9fb0-3236c474c658",
    "resource": {
      "resourceType": "Encounter",
      "id": "bcb1bb86-d18a-4c4d-9fb0-3236c474c658",
      "meta": {
        "profile": [ "http://hl7.org/fhir/us/qicore/StructureDefinition/qicore-encounter" ]
      },
      "status": "finished",
      "class": {
        "system": "http://terminology.hl7.org/CodeSystem/v3-ActCode",
        "code": "IMP",
        "display": "inpatient encounter"
      },
      "type": [ {
        "coding": [ {
          "system": "http://snomed.info/sct",
          "code": "8715000"
        } ]
      } ],
      "subject": {
        "reference": "Patient/316da95d-60f2-4a74-9a28-7a4adb7c0098"
      },
      "period": {
        "start": "2026-11-01T08:00:00.000+00:00",
        "end": "2026-11-26T08:15:00.000+00:00"
      },
      "length": {
        "value": 329.0,
        "unit": "days"
      }
    },
    "request": {
      "method": "PUT",
      "url": "Encounter/bcb1bb86-d18a-4c4d-9fb0-3236c474c658"
    }
  }, {
    "fullUrl": "https://madie.cms.gov/Coverage/5c72a08d-8f6e-4e8b-af01-871d6dfa146b",
    "resource": {
      "resourceType": "Coverage",
      "id": "5c72a08d-8f6e-4e8b-af01-871d6dfa146b",
      "status": "active",
      "beneficiary": {
        "reference": "Patient/316da95d-60f2-4a74-9a28-7a4adb7c0098"
      },
      "period": {
        "start": "2010-01-01T08:00:00.000+00:00"
      },
      "payor": [ {
        "reference": "Organization/8eb1b363-8d18-47b4-a0aa-a5b631973684"
      } ]
    },
    "request": {
      "method": "PUT",
      "url": "Coverage/5c72a08d-8f6e-4e8b-af01-871d6dfa146b"
    }
  }, {
    "fullUrl": "https://madie.cms.gov/MedicationAdministration/65cf2560-d442-49ce-addb-ab2069ee6f03",
    "resource": {
      "resourceType": "MedicationAdministration",
      "id": "65cf2560-d442-49ce-addb-ab2069ee6f03",
      "status": "completed",
      "medicationCodeableConcept": {
        "coding": [ {
          "system": "http://www.nlm.nih.gov/research/umls/rxnorm",
          "code": "854228"
        } ]
      },
      "subject": {
        "reference": "Patient/316da95d-60f2-4a74-9a28-7a4adb7c0098"
      },
      "effectivePeriod": {
        "start": "2021-11-01T08:10:00.000+00:00",
        "end": "2021-12-26T08:15:00.000+00:00"
      }
    },
    "request": {
      "method": "PUT",
      "url": "MedicationAdministration/65cf2560-d442-49ce-addb-ab2069ee6f03"
    }
  }, {
    "fullUrl": "https://madie.cms.gov/Organization/8eb1b363-8d18-47b4-a0aa-a5b631973684",
    "resource": {
      "resourceType": "Organization",
      "id": "8eb1b363-8d18-47b4-a0aa-a5b631973684",
      "meta": {
        "profile": [ "http://hl7.org/fhir/us/qicore/StructureDefinition/qicore-organization" ]
      },
      "identifier": [ {
        "use": "temp",
        "system": "urn:oid:2.16.840.1.113883.4.4",
        "value": "21-3259825"
      } ],
      "active": true,
      "type": [ {
        "coding": [ {
          "system": "http://terminology.hl7.org/CodeSystem/organization-type",
          "code": "pay",
          "display": "Payer"
        } ]
      } ],
      "name": "Blue Cross Blue Shield of Texas",
      "telecom": [ {
        "system": "phone",
        "value": "(+1) 972-766-6900"
      } ],
      "address": [ {
        "use": "billing",
        "type": "postal",
        "line": [ "P.O. Box 660044" ],
        "city": "Dallas",
        "state": "TX",
        "postalCode": "75266-0044",
        "country": "USA"
      } ]
    },
    "request": {
      "method": "PUT",
      "url": "Organization/8eb1b363-8d18-47b4-a0aa-a5b631973684"
    }
  }, {
    "fullUrl": "https://madie.cms.gov/Practitioner/eec73edd-e3aa-414f-badf-f1fb9cedc8ee",
    "resource": {
      "resourceType": "Practitioner",
      "id": "eec73edd-e3aa-414f-badf-f1fb9cedc8ee",
      "identifier": [ {
        "system": "http://hl7.org/fhir/sid/us-npi",
        "value": "123456"
      } ],
      "name": [ {
        "family": "Evil",
        "prefix": [ "Dr" ]
      } ]
    },
    "request": {
      "method": "PUT",
      "url": "Practitioner/eec73edd-e3aa-414f-badf-f1fb9cedc8ee"
    }
  }, {
    "fullUrl": "https://madie.cms.gov/MeasureReport/a554b99d-23a5-4d3a-bd10-bd3be21cd32c",
    "resource": {
      "resourceType": "MeasureReport",
      "id": "a554b99d-23a5-4d3a-bd10-bd3be21cd32c",
      "meta": {
        "profile": [ "http://hl7.org/fhir/us/cqfmeasures/StructureDefinition/test-case-cqfm" ]
      },
      "contained": [ {
        "resourceType": "Parameters",
        "id": "db61dc85-0fe2-4a70-a31f-c009aed4ef8c-parameters",
        "parameter": [ {
          "name": "subject",
          "valueString": "316da95d-60f2-4a74-9a28-7a4adb7c0098"
        } ]
      } ],
      "extension": [ {
        "url": "http://hl7.org/fhir/StructureDefinition/cqf-inputParameters",
        "valueReference": {
          "reference": "#db61dc85-0fe2-4a70-a31f-c009aed4ef8c-parameters"
        }
      }, {
        "url": "http://hl7.org/fhir/us/cqfmeasures/StructureDefinition/cqfm-testCaseDescription",
        "valueMarkdown": "Age < 18 and encounter before MP\n"
      } ],
      "modifierExtension": [ {
        "url": "http://hl7.org/fhir/us/cqfmeasures/StructureDefinition/cqfm-isTestCase",
        "valueBoolean": true
      } ],
      "status": "complete",
      "type": "individual",
      "measure": "https://madie.cms.gov/Measure/CMS108FHIRVTEProphylaxis",
      "period": {
        "start": "2026-01-01",
        "end": "2026-12-31"
      },
      "group": [ {
        "id": "Group_1",
        "population": [ {
          "id": "InitialPopulation_1",
          "code": {
            "coding": [ {
              "system": "http://terminology.hl7.org/CodeSystem/measure-population",
              "code": "initial-population",
              "display": "Initial Population"
            } ]
          },
          "count": 0
        }, {
          "id": "Denominator_1",
          "code": {
            "coding": [ {
              "system": "http://terminology.hl7.org/CodeSystem/measure-population",
              "code": "denominator",
              "display": "Denominator"
            } ]
          },
          "count": 0
        }, {
          "id": "DenominatorExclusion_1",
          "code": {
            "coding": [ {
              "system": "http://terminology.hl7.org/CodeSystem/measure-population",
              "code": "denominator-exclusion",
              "display": "Denominator Exclusion"
            } ]
          },
          "count": 0
        }, {
          "id": "Numerator_1",
          "code": {
            "coding": [ {
              "system": "http://terminology.hl7.org/CodeSystem/measure-population",
              "code": "numerator",
              "display": "Numerator"
            } ]
          },
          "count": 0
        } ],
        "measureScore": {
          "value": 0.0
        }
      } ],
      "evaluatedResource": [ {
        "reference": "Patient/316da95d-60f2-4a74-9a28-7a4adb7c0098"
      }, {
        "reference": "Encounter/bcb1bb86-d18a-4c4d-9fb0-3236c474c658"
      }, {
        "reference": "Coverage/5c72a08d-8f6e-4e8b-af01-871d6dfa146b"
      }, {
        "reference": "MedicationAdministration/65cf2560-d442-49ce-addb-ab2069ee6f03"
      }, {
        "reference": "Organization/8eb1b363-8d18-47b4-a0aa-a5b631973684"
      }, {
        "reference": "Practitioner/eec73edd-e3aa-414f-badf-f1fb9cedc8ee"
      } ]
    },
    "request": {
      "method": "PUT",
      "url": "MeasureReport/a554b99d-23a5-4d3a-bd10-bd3be21cd32c"
    }
  } ]
}