{
  "resourceType": "Bundle",
  "id": "612e6a5402c62a011f2e9a75",
  "type": "transaction",
  "entry": [ {
    "fullUrl": "https://madie.cms.gov/Patient/29ed471c-3393-43d4-a234-2550851b2bc7",
    "resource": {
      "resourceType": "Patient",
      "id": "29ed471c-3393-43d4-a234-2550851b2bc7",
      "meta": {
        "profile": [ "http://hl7.org/fhir/us/qicore/StructureDefinition/qicore-patient" ]
      },
      "text": {
        "status": "generated",
        "div": "<div xmlns=\"http://www.w3.org/1999/xhtml\"><div class=\"hapiHeaderText\">TestMultipleOccur_1inIPP1FailIPPdueToDx <b>NUMERPASS </b></div><table class=\"hapiPropertyTable\"><tbody><tr><td>Identifier</td><td>d7fcba6cb5e90ce5458a4e79a6dfe7a0</td></tr><tr><td>Date of birth</td><td><span>02 January 1974</span></td></tr></tbody></table></div>"
      },
      "extension": [ {
        "url": "http://hl7.org/fhir/us/core/StructureDefinition/us-core-race",
        "extension": [ {
          "url": "ombCategory",
          "valueCoding": {
            "system": "urn:oid:2.16.840.1.113883.6.238",
            "code": "1002-5",
            "display": "American Indian or Alaska Native",
            "userSelected": true
          }
        }, {
          "url": "text",
          "valueString": "American Indian or Alaska Native"
        } ]
      }, {
        "url": "http://hl7.org/fhir/us/core/StructureDefinition/us-core-ethnicity",
        "extension": [ {
          "url": "ombCategory",
          "valueCoding": {
            "system": "urn:oid:2.16.840.1.113883.6.238",
            "code": "2135-2",
            "display": "Hispanic or Latino",
            "userSelected": true
          }
        }, {
          "url": "text",
          "valueString": "Hispanic or Latino"
        } ]
      } ],
      "identifier": [ {
        "type": {
          "coding": [ {
            "system": "http://terminology.hl7.org/CodeSystem/v2-0203",
            "code": "MR"
          } ]
        },
        "system": "https://bonnie-fhir.healthit.gov/",
        "value": "612e6a5402c62a011f2e9a75"
      } ],
      "active": true,
      "name": [ {
        "use": "usual",
        "family": "NUMERPass",
        "given": [ "TestMultipleOccur1inIPP1FailIPPdueToDx" ]
      } ],
      "gender": "male",
      "birthDate": "1975-01-02"
    },
    "request": {
      "method": "PUT",
      "url": "Patient/29ed471c-3393-43d4-a234-2550851b2bc7"
    }
  }, {
    "fullUrl": "https://madie.cms.gov/Encounter/b14ef858-d67e-49bb-843a-57fba97d9a7d",
    "resource": {
      "resourceType": "Encounter",
      "id": "b14ef858-d67e-49bb-843a-57fba97d9a7d",
      "meta": {
        "profile": [ "http://hl7.org/fhir/us/qicore/StructureDefinition/qicore-encounter" ]
      },
      "status": "finished",
      "class": {
        "system": "http://terminology.hl7.org/CodeSystem/v3-ActCode",
        "code": "IMP",
        "display": "inpatient encounter"
      },
      "type": [ {
        "coding": [ {
          "system": "http://snomed.info/sct",
          "code": "8715000"
        } ]
      } ],
      "subject": {
        "reference": "Patient/29ed471c-3393-43d4-a234-2550851b2bc7"
      },
      "period": {
        "start": "2026-10-19T08:00:00.000+00:00",
        "end": "2026-10-31T08:15:00.000+00:00"
      },
      "length": {
        "value": 12,
        "unit": "days"
      },
      "reasonReference": [ {
        "reference": "Condition/d694270d-d861-488c-aa3b-343479f4f3d6"
      } ]
    },
    "request": {
      "method": "PUT",
      "url": "Encounter/b14ef858-d67e-49bb-843a-57fba97d9a7d"
    }
  }, {
    "fullUrl": "https://madie.cms.gov/Encounter/234d8b94-dfb4-4ae0-99fc-97651021ca8f",
    "resource": {
      "resourceType": "Encounter",
      "id": "234d8b94-dfb4-4ae0-99fc-97651021ca8f",
      "meta": {
        "profile": [ "http://hl7.org/fhir/us/qicore/StructureDefinition/qicore-encounter" ]
      },
      "status": "finished",
      "class": {
        "system": "http://terminology.hl7.org/CodeSystem/v3-ActCode",
        "code": "IMP",
        "display": "inpatient encounter"
      },
      "type": [ {
        "coding": [ {
          "system": "http://snomed.info/sct",
          "code": "8715000"
        } ]
      } ],
      "subject": {
        "reference": "Patient/29ed471c-3393-43d4-a234-2550851b2bc7"
      },
      "period": {
        "start": "2026-11-01T08:00:00.000+00:00",
        "end": "2026-11-26T08:15:00.000+00:00"
      },
      "length": {
        "value": 25,
        "unit": "days"
      }
    },
    "request": {
      "method": "PUT",
      "url": "Encounter/234d8b94-dfb4-4ae0-99fc-97651021ca8f"
    }
  }, {
    "fullUrl": "https://madie.cms.gov/Coverage/ce629f64-9da4-49b1-bc5a-fecff2017aa0",
    "resource": {
      "resourceType": "Coverage",
      "id": "ce629f64-9da4-49b1-bc5a-fecff2017aa0",
      "status": "active",
      "beneficiary": {
        "reference": "Patient/29ed471c-3393-43d4-a234-2550851b2bc7"
      },
      "period": {
        "start": "1975-01-02T08:00:00.000+00:00"
      },
      "payor": [ {
        "reference": "Organization/c1db34b5-9f35-4901-8287-b0bf84ac74c8"
      } ]
    },
    "request": {
      "method": "PUT",
      "url": "Coverage/ce629f64-9da4-49b1-bc5a-fecff2017aa0"
    }
  }, {
    "fullUrl": "https://madie.cms.gov/Condition/d694270d-d861-488c-aa3b-343479f4f3d6",
    "resource": {
      "resourceType": "Condition",
      "id": "d694270d-d861-488c-aa3b-343479f4f3d6",
      "meta": {
        "profile": [ "http://hl7.org/fhir/us/qicore/StructureDefinition/qicore-condition-encounter-diagnosis" ]
      },
      "category": [ {
        "coding": [ {
          "system": "http://terminology.hl7.org/CodeSystem/condition-category",
          "code": "encounter-diagnosis",
          "display": "Encounter Diagnosis"
        } ]
      } ],
      "code": {
        "coding": [ {
          "system": "http://snomed.info/sct",
          "code": "13943000",
          "display": "Failed attempted abortion complicated by embolism (disorder)",
          "userSelected": true
        } ]
      },
      "subject": {
        "reference": "Patient/29ed471c-3393-43d4-a234-2550851b2bc7"
      },
      "recordedDate": "2026-10-20T08:00:00.000+00:00"
    },
    "request": {
      "method": "PUT",
      "url": "Condition/d694270d-d861-488c-aa3b-343479f4f3d6"
    }
  }, {
    "fullUrl": "https://madie.cms.gov/Procedure/35ade18a-7b54-448b-897d-c015b23ffd0c",
    "resource": {
      "resourceType": "Procedure",
      "id": "35ade18a-7b54-448b-897d-c015b23ffd0c",
      "meta": {
        "profile": [ "http://hl7.org/fhir/us/qicore/StructureDefinition/qicore-procedure" ]
      },
      "extension": [ {
        "url": "http://hl7.org/fhir/us/qicore/StructureDefinition/qicore-recorded",
        "valueDateTime": "2013-11-02T13:35:00.000+00:00"
      } ],
      "status": "completed",
      "code": {
        "coding": [ {
          "system": "http://snomed.info/sct",
          "code": "443448006",
          "display": "Application of intermittent pneumatic compression device (procedure)"
        } ]
      },
      "subject": {
        "reference": "Patient/29ed471c-3393-43d4-a234-2550851b2bc7"
      },
      "performedDateTime": "2026-11-01T09:00:00.000+00:00"
    },
    "request": {
      "method": "PUT",
      "url": "Procedure/35ade18a-7b54-448b-897d-c015b23ffd0c"
    }
  }, {
    "fullUrl": "https://madie.cms.gov/Organization/c1db34b5-9f35-4901-8287-b0bf84ac74c8",
    "resource": {
      "resourceType": "Organization",
      "id": "c1db34b5-9f35-4901-8287-b0bf84ac74c8",
      "meta": {
        "profile": [ "http://hl7.org/fhir/us/qicore/StructureDefinition/qicore-organization" ]
      },
      "identifier": [ {
        "use": "temp",
        "system": "urn:oid:2.16.840.1.113883.4.4",
        "value": "21-3259825"
      } ],
      "active": true,
      "type": [ {
        "coding": [ {
          "system": "http://terminology.hl7.org/CodeSystem/organization-type",
          "code": "pay",
          "display": "Payer"
        } ]
      } ],
      "name": "Blue Cross Blue Shield of Texas",
      "telecom": [ {
        "system": "phone",
        "value": "(+1) 972-766-6900"
      } ],
      "address": [ {
        "use": "billing",
        "type": "postal",
        "line": [ "P.O. Box 660044" ],
        "city": "Dallas",
        "state": "TX",
        "postalCode": "75266-0044",
        "country": "USA"
      } ]
    },
    "request": {
      "method": "PUT",
      "url": "Organization/c1db34b5-9f35-4901-8287-b0bf84ac74c8"
    }
  }, {
    "fullUrl": "https://madie.cms.gov/Practitioner/e12bce83-3598-414d-ac6b-d12b191edab6",
    "resource": {
      "resourceType": "Practitioner",
      "id": "e12bce83-3598-414d-ac6b-d12b191edab6",
      "identifier": [ {
        "system": "http://hl7.org/fhir/sid/us-npi",
        "value": "123456"
      } ],
      "name": [ {
        "family": "Evil",
        "prefix": [ "Dr" ]
      } ]
    },
    "request": {
      "method": "PUT",
      "url": "Practitioner/e12bce83-3598-414d-ac6b-d12b191edab6"
    }
  }, {
    "fullUrl": "https://madie.cms.gov/MeasureReport/8fae8960-4ef9-4a22-b5f5-865792cdc774",
    "resource": {
      "resourceType": "MeasureReport",
      "id": "8fae8960-4ef9-4a22-b5f5-865792cdc774",
      "meta": {
        "profile": [ "http://hl7.org/fhir/us/cqfmeasures/StructureDefinition/test-case-cqfm" ]
      },
      "contained": [ {
        "resourceType": "Parameters",
        "id": "00531c03-c560-44f6-a689-524544ca6df0-parameters",
        "parameter": [ {
          "name": "subject",
          "valueString": "29ed471c-3393-43d4-a234-2550851b2bc7"
        } ]
      } ],
      "extension": [ {
        "url": "http://hl7.org/fhir/StructureDefinition/cqf-inputParameters",
        "valueReference": {
          "reference": "#00531c03-c560-44f6-a689-524544ca6df0-parameters"
        }
      }, {
        "url": "http://hl7.org/fhir/us/cqfmeasures/StructureDefinition/cqfm-testCaseDescription",
        "valueMarkdown": "Patient has 2 encounters, first encounter has Obstetrics diagnosis, but second encounter has no ob diagnosis and IPC applied <=1 day after start of encounter\n"
      } ],
      "modifierExtension": [ {
        "url": "http://hl7.org/fhir/us/cqfmeasures/StructureDefinition/cqfm-isTestCase",
        "valueBoolean": true
      } ],
      "status": "complete",
      "type": "individual",
      "measure": "https://madie.cms.gov/Measure/CMS108FHIRVTEProphylaxis",
      "period": {
        "start": "2026-01-01",
        "end": "2026-12-31"
      },
      "group": [ {
        "id": "Group_1",
        "population": [ {
          "id": "InitialPopulation_1",
          "code": {
            "coding": [ {
              "system": "http://terminology.hl7.org/CodeSystem/measure-population",
              "code": "initial-population",
              "display": "Initial Population"
            } ]
          },
          "count": 1
        }, {
          "id": "Denominator_1",
          "code": {
            "coding": [ {
              "system": "http://terminology.hl7.org/CodeSystem/measure-population",
              "code": "denominator",
              "display": "Denominator"
            } ]
          },
          "count": 1
        }, {
          "id": "DenominatorExclusion_1",
          "code": {
            "coding": [ {
              "system": "http://terminology.hl7.org/CodeSystem/measure-population",
              "code": "denominator-exclusion",
              "display": "Denominator Exclusion"
            } ]
          },
          "count": 0
        }, {
          "id": "Numerator_1",
          "code": {
            "coding": [ {
              "system": "http://terminology.hl7.org/CodeSystem/measure-population",
              "code": "numerator",
              "display": "Numerator"
            } ]
          },
          "count": 1
        } ],
        "measureScore": {
          "value": 0.0
        }
      } ],
      "evaluatedResource": [ {
        "reference": "Patient/29ed471c-3393-43d4-a234-2550851b2bc7"
      }, {
        "reference": "Encounter/b14ef858-d67e-49bb-843a-57fba97d9a7d"
      }, {
        "reference": "Encounter/234d8b94-dfb4-4ae0-99fc-97651021ca8f"
      }, {
        "reference": "Coverage/ce629f64-9da4-49b1-bc5a-fecff2017aa0"
      }, {
        "reference": "Condition/d694270d-d861-488c-aa3b-343479f4f3d6"
      }, {
        "reference": "Procedure/35ade18a-7b54-448b-897d-c015b23ffd0c"
      }, {
        "reference": "Organization/c1db34b5-9f35-4901-8287-b0bf84ac74c8"
      }, {
        "reference": "Practitioner/e12bce83-3598-414d-ac6b-d12b191edab6"
      } ]
    },
    "request": {
      "method": "PUT",
      "url": "MeasureReport/8fae8960-4ef9-4a22-b5f5-865792cdc774"
    }
  } ]
}