{
  "resourceType": "Bundle",
  "id": "62f6847dbc6a474306a95b42",
  "type": "collection",
  "entry": [ {
    "fullUrl": "https://madie.cms.gov/Patient/328248a7-33d6-4923-a99a-a56ec88c515e",
    "resource": {
      "resourceType": "Patient",
      "id": "328248a7-33d6-4923-a99a-a56ec88c515e",
      "meta": {
        "profile": [ "http://hl7.org/fhir/us/qicore/StructureDefinition/qicore-patient" ]
      },
      "extension": [ {
        "url": "http://hl7.org/fhir/us/core/StructureDefinition/us-core-race",
        "extension": [ {
          "url": "ombCategory",
          "valueCoding": {
            "system": "urn:oid:2.16.840.1.113883.6.238",
            "code": "1002-5",
            "display": "American Indian or Alaska Native",
            "userSelected": true
          }
        }, {
          "url": "text",
          "valueString": "American Indian or Alaska Native"
        }, {
          "url": "detailed",
          "valueCoding": {
            "system": "http://terminology.hl7.org/CodeSystem/v3-NullFlavor",
            "code": "OTH",
            "display": "other"
          }
        } ]
      }, {
        "url": "http://hl7.org/fhir/us/core/StructureDefinition/us-core-ethnicity",
        "extension": [ {
          "url": "ombCategory",
          "valueCoding": {
            "system": "urn:oid:2.16.840.1.113883.6.238",
            "code": "2135-2",
            "display": "Hispanic or Latino",
            "userSelected": true
          }
        }, {
          "url": "text",
          "valueString": "Hispanic or Latino"
        }, {
          "url": "detailed",
          "valueCoding": {
            "system": "http://terminology.hl7.org/CodeSystem/v3-NullFlavor",
            "code": "OTH",
            "display": "other"
          }
        } ]
      }, {
        "url": "http://hl7.org/fhir/us/core/StructureDefinition/us-core-sex",
        "valueCode": "248153007"
      } ],
      "identifier": [ {
        "type": {
          "coding": [ {
            "system": "http://terminology.hl7.org/CodeSystem/v2-0203",
            "code": "MR"
          } ]
        },
        "system": "https://bonnie-fhir.healthit.gov/",
        "value": "62f6847dbc6a474306a95b42"
      } ],
      "name": [ {
        "family": "NUMERPass",
        "given": [ "12yoPosAdolDepScreenandFUPrescripWI2DAfterEndOfEnc" ]
      } ],
      "gender": "male",
      "birthDate": "2014-01-01"
    }
  }, {
    "fullUrl": "https://madie.cms.gov/Encounter/b68dbf90-4eee-4b5b-a930-a8f400c60126",
    "resource": {
      "resourceType": "Encounter",
      "id": "b68dbf90-4eee-4b5b-a930-a8f400c60126",
      "meta": {
        "profile": [ "http://hl7.org/fhir/us/qicore/StructureDefinition/qicore-encounter" ]
      },
      "status": "finished",
      "class": {
        "system": "http://terminology.hl7.org/CodeSystem/v3-ActCode",
        "code": "AMB",
        "display": "ambulatory"
      },
      "type": [ {
        "coding": [ {
          "system": "http://snomed.info/sct",
          "code": "10197000",
          "display": "Psychiatric interview and evaluation (procedure)",
          "userSelected": true
        } ]
      } ],
      "subject": {
        "reference": "Patient/328248a7-33d6-4923-a99a-a56ec88c515e"
      },
      "period": {
        "start": "2026-06-21T08:00:00.000Z",
        "end": "2026-06-21T08:15:00.000Z"
      }
    }
  }, {
    "fullUrl": "https://madie.cms.gov/Observation/9dfd5f0e-47d6-4807-b27d-51b153b3a1ad",
    "resource": {
      "resourceType": "Observation",
      "id": "9dfd5f0e-47d6-4807-b27d-51b153b3a1ad",
      "meta": {
        "profile": [ "http://hl7.org/fhir/us/qicore/StructureDefinition/qicore-observation-screening-assessment" ]
      },
      "status": "final",
      "category": [ {
        "coding": [ {
          "system": "http://terminology.hl7.org/CodeSystem/observation-category",
          "code": "procedure",
          "display": "Procedure"
        } ]
      }, {
        "coding": [ {
          "system": "http://terminology.hl7.org/CodeSystem/observation-category",
          "code": "survey",
          "display": "Survey"
        } ]
      } ],
      "code": {
        "coding": [ {
          "system": "http://loinc.org",
          "code": "73831-0",
          "display": "Adolescent depression screening assessment",
          "userSelected": true
        } ]
      },
      "subject": {
        "reference": "Patient/328248a7-33d6-4923-a99a-a56ec88c515e"
      },
      "effectiveDateTime": "2026-06-15T08:00:00.000Z",
      "valueCodeableConcept": {
        "coding": [ {
          "system": "http://snomed.info/sct",
          "code": "428181000124104",
          "display": "Depression screening positive (finding)",
          "userSelected": true
        } ]
      }
    }
  }, {
    "fullUrl": "https://madie.cms.gov/MedicationRequest/4238eefe-2827-40f5-b290-e354c50c55f5",
    "resource": {
      "resourceType": "MedicationRequest",
      "id": "4238eefe-2827-40f5-b290-e354c50c55f5",
      "meta": {
        "profile": [ "http://hl7.org/fhir/us/qicore/StructureDefinition/qicore-medicationrequest" ]
      },
      "status": "active",
      "intent": "order",
      "doNotPerform": false,
      "medicationCodeableConcept": {
        "coding": [ {
          "system": "http://www.nlm.nih.gov/research/umls/rxnorm",
          "code": "1190110",
          "display": "fluoxetine 60 MG Oral Tablet",
          "userSelected": true
        } ]
      },
      "subject": {
        "reference": "Patient/328248a7-33d6-4923-a99a-a56ec88c515e"
      },
      "authoredOn": "2026-06-21T08:00:00.000Z",
      "requester": {
        "reference": "Practitioner/123456"
      },
      "dispenseRequest": {
        "expectedSupplyDuration": {
          "value": 30,
          "system": "http://unitsofmeasure.org",
          "code": "days"
        }
      }
    }
  }, {
    "fullUrl": "https://madie.cms.gov/Coverage/30d55182-36d3-46a4-b8a7-b97ae3ad57cb",
    "resource": {
      "resourceType": "Coverage",
      "id": "30d55182-36d3-46a4-b8a7-b97ae3ad57cb",
      "meta": {
        "profile": [ "http://hl7.org/fhir/us/qicore/StructureDefinition/qicore-coverage" ]
      },
      "status": "active",
      "type": {
        "coding": [ {
          "system": "https://nahdo.org/sopt",
          "code": "1",
          "display": "MEDICARE"
        } ]
      },
      "subscriberId": "123456789",
      "beneficiary": {
        "reference": "Patient/328248a7-33d6-4923-a99a-a56ec88c515e"
      },
      "relationship": {
        "coding": [ {
          "system": "http://terminology.hl7.org/CodeSystem/subscriber-relationship",
          "code": "self",
          "display": "Self",
          "userSelected": true
        } ]
      },
      "period": {
        "start": "2024-12-01T00:00:00.000Z"
      },
      "payor": [ {
        "reference": "Organization/05e7cd9e-5096-454b-9f10-94a869819bb6"
      } ]
    }
  }, {
    "fullUrl": "https://madie.cms.gov/Organization/05e7cd9e-5096-454b-9f10-94a869819bb6",
    "resource": {
      "resourceType": "Organization",
      "id": "05e7cd9e-5096-454b-9f10-94a869819bb6",
      "meta": {
        "profile": [ "http://hl7.org/fhir/us/qicore/StructureDefinition/qicore-organization" ]
      },
      "identifier": [ {
        "use": "temp",
        "system": "urn:oid:2.16.840.1.113883.4.4",
        "value": "21-3259825"
      } ],
      "active": true,
      "type": [ {
        "coding": [ {
          "system": "http://terminology.hl7.org/CodeSystem/organization-type",
          "code": "pay",
          "display": "Payer"
        } ]
      } ],
      "name": "Blue Cross Blue Shield of Texas",
      "telecom": [ {
        "system": "phone",
        "value": "(+1) 972-766-6900"
      } ],
      "address": [ {
        "use": "billing",
        "type": "postal",
        "line": [ "P.O. Box 660044" ],
        "city": "Dallas",
        "state": "TX",
        "postalCode": "75266-0044",
        "country": "USA"
      } ]
    }
  }, {
    "fullUrl": "https://madie.cms.gov/Practitioner/27f652fa-dfeb-43f8-abf2-7eb858881e1d",
    "resource": {
      "resourceType": "Practitioner",
      "id": "27f652fa-dfeb-43f8-abf2-7eb858881e1d",
      "meta": {
        "profile": [ "http://hl7.org/fhir/us/qicore/StructureDefinition/qicore-practitioner" ]
      },
      "identifier": [ {
        "system": "http://hl7.org/fhir/sid/us-npi",
        "value": "1234567893"
      } ],
      "name": [ {
        "family": "Evil",
        "prefix": [ "Dr" ]
      } ]
    }
  }, {
    "fullUrl": "https://madie.cms.gov/MeasureReport/bdaacb3a-ce88-42b6-972c-32682b427822",
    "resource": {
      "resourceType": "MeasureReport",
      "id": "bdaacb3a-ce88-42b6-972c-32682b427822",
      "meta": {
        "profile": [ "http://hl7.org/fhir/us/cqfmeasures/StructureDefinition/test-case-cqfm" ]
      },
      "contained": [ {
        "resourceType": "Parameters",
        "id": "03315a7d-638f-429c-8f97-5d22db3f37bc-parameters",
        "parameter": [ {
          "name": "subject",
          "valueString": "328248a7-33d6-4923-a99a-a56ec88c515e"
        } ]
      } ],
      "extension": [ {
        "url": "http://hl7.org/fhir/StructureDefinition/cqf-inputParameters",
        "valueReference": {
          "reference": "#03315a7d-638f-429c-8f97-5d22db3f37bc-parameters"
        }
      }, {
        "url": "http://hl7.org/fhir/us/cqfmeasures/StructureDefinition/cqfm-testCaseDescription",
        "valueMarkdown": "12yo with previous positive adolescent depression screening and medication request follow up within 2 days after end of encounter. SDE details added."
      } ],
      "modifierExtension": [ {
        "url": "http://hl7.org/fhir/us/cqfmeasures/StructureDefinition/cqfm-isTestCase",
        "valueBoolean": true
      } ],
      "status": "complete",
      "type": "individual",
      "measure": "https://madie.cms.gov/Measure/CMS2FHIRPCSDepScreenAndFollowUp",
      "period": {
        "start": "2026-01-01",
        "end": "2026-12-31"
      },
      "group": [ {
        "id": "Group_1",
        "population": [ {
          "id": "InitialPopulation_1",
          "code": {
            "coding": [ {
              "system": "http://terminology.hl7.org/CodeSystem/measure-population",
              "code": "initial-population",
              "display": "Initial Population"
            } ]
          },
          "count": 1
        }, {
          "id": "Denominator_1",
          "code": {
            "coding": [ {
              "system": "http://terminology.hl7.org/CodeSystem/measure-population",
              "code": "denominator",
              "display": "Denominator"
            } ]
          },
          "count": 1
        }, {
          "id": "DenominatorExclusion_1",
          "code": {
            "coding": [ {
              "system": "http://terminology.hl7.org/CodeSystem/measure-population",
              "code": "denominator-exclusion",
              "display": "Denominator Exclusion"
            } ]
          },
          "count": 0
        }, {
          "id": "Numerator_1",
          "code": {
            "coding": [ {
              "system": "http://terminology.hl7.org/CodeSystem/measure-population",
              "code": "numerator",
              "display": "Numerator"
            } ]
          },
          "count": 1
        }, {
          "id": "DenominatorException_1",
          "code": {
            "coding": [ {
              "system": "http://terminology.hl7.org/CodeSystem/measure-population",
              "code": "denominator-exception",
              "display": "Denominator Exception"
            } ]
          },
          "count": 0
        } ],
        "measureScore": {
          "value": 1.0
        }
      } ],
      "evaluatedResource": [ {
        "reference": "Patient/328248a7-33d6-4923-a99a-a56ec88c515e"
      }, {
        "reference": "Encounter/b68dbf90-4eee-4b5b-a930-a8f400c60126"
      }, {
        "reference": "Observation/9dfd5f0e-47d6-4807-b27d-51b153b3a1ad"
      }, {
        "reference": "MedicationRequest/4238eefe-2827-40f5-b290-e354c50c55f5"
      }, {
        "reference": "Coverage/30d55182-36d3-46a4-b8a7-b97ae3ad57cb"
      }, {
        "reference": "Organization/05e7cd9e-5096-454b-9f10-94a869819bb6"
      }, {
        "reference": "Practitioner/27f652fa-dfeb-43f8-abf2-7eb858881e1d"
      } ]
    }
  } ]
}