{
  "resourceType": "Bundle",
  "id": "63594c7a6aee9629c82981df",
  "type": "transaction",
  "entry": [ {
    "fullUrl": "https://madie.cms.gov/Patient/93a4c219-3c44-4a25-866b-0525e8758bdf",
    "resource": {
      "resourceType": "Patient",
      "id": "93a4c219-3c44-4a25-866b-0525e8758bdf",
      "meta": {
        "profile": [ "http://hl7.org/fhir/us/qicore/StructureDefinition/qicore-patient" ]
      },
      "text": {
        "status": "generated",
        "div": "<div xmlns=\"http://www.w3.org/1999/xhtml\"><div class=\"hapiHeaderText\">RiskAnemiaPOAisYes<b>RISKPass</b></div><table class=\"hapiPropertyTable\"><tbody><tr><td>Date of birth</td><td><span>01 February 2004</span></td></tr></tbody></table></div>"
      },
      "extension": [ {
        "url": "http://hl7.org/fhir/us/core/StructureDefinition/us-core-race",
        "extension": [ {
          "url": "ombCategory",
          "valueCoding": {
            "system": "urn:oid:2.16.840.1.113883.6.238",
            "code": "1002-5",
            "display": "American Indian or Alaska Native",
            "userSelected": true
          }
        }, {
          "url": "text",
          "valueString": "American Indian or Alaska Native"
        } ]
      }, {
        "url": "http://hl7.org/fhir/us/core/StructureDefinition/us-core-ethnicity",
        "extension": [ {
          "url": "ombCategory",
          "valueCoding": {
            "system": "urn:oid:2.16.840.1.113883.6.238",
            "code": "2135-2",
            "display": "Hispanic or Latino",
            "userSelected": true
          }
        }, {
          "url": "text",
          "valueString": "Hispanic or Latino"
        } ]
      }, {
        "url": "http://hl7.org/fhir/us/core/StructureDefinition/us-core-sex",
        "valueCode": "248152002"
      } ],
      "identifier": [ {
        "type": {
          "coding": [ {
            "system": "http://terminology.hl7.org/CodeSystem/v2-0203",
            "code": "MR"
          } ]
        },
        "system": "https://bonnie-fhir.healthit.gov/",
        "value": "63594c7a6aee9629c82981df"
      } ],
      "active": true,
      "name": [ {
        "use": "usual",
        "family": "RiskPass",
        "given": [ "RiskAnemiaPOAisYes" ]
      } ],
      "gender": "female",
      "birthDate": "2005-02-01"
    },
    "request": {
      "method": "PUT",
      "url": "Patient/93a4c219-3c44-4a25-866b-0525e8758bdf"
    }
  }, {
    "fullUrl": "https://madie.cms.gov/Observation/7ce030d7-8ab6-43f8-a574-39ba5cf512c6",
    "resource": {
      "resourceType": "Observation",
      "id": "7ce030d7-8ab6-43f8-a574-39ba5cf512c6",
      "meta": {
        "profile": [ "http://hl7.org/fhir/us/qicore/StructureDefinition/qicore-simple-observation" ]
      },
      "status": "final",
      "category": [ {
        "coding": [ {
          "system": "http://terminology.hl7.org/CodeSystem/observation-category",
          "code": "exam",
          "display": "exam",
          "userSelected": true
        } ]
      } ],
      "code": {
        "coding": [ {
          "system": "http://loinc.org",
          "code": "93857-1"
        } ]
      },
      "subject": {
        "reference": "Patient/93a4c219-3c44-4a25-866b-0525e8758bdf"
      },
      "effectiveDateTime": "2026-02-01T08:00:00.000+00:00",
      "performer": [ {
        "reference": "Organization/example1",
        "display": "Hendricks Country Hospital"
      } ],
      "valueDateTime": "2026-02-01T08:00:00.000+00:00"
    },
    "request": {
      "method": "PUT",
      "url": "Observation/7ce030d7-8ab6-43f8-a574-39ba5cf512c6"
    }
  }, {
    "fullUrl": "https://madie.cms.gov/Observation/1717b99f-c7b2-44fb-b6fb-43aaad70e613",
    "resource": {
      "resourceType": "Observation",
      "id": "1717b99f-c7b2-44fb-b6fb-43aaad70e613",
      "meta": {
        "profile": [ "http://hl7.org/fhir/us/qicore/StructureDefinition/qicore-simple-observation" ]
      },
      "status": "final",
      "category": [ {
        "coding": [ {
          "system": "http://terminology.hl7.org/CodeSystem/observation-category",
          "code": "exam",
          "display": "exam",
          "userSelected": true
        } ]
      } ],
      "code": {
        "coding": [ {
          "system": "http://loinc.org",
          "code": "11778-8"
        } ]
      },
      "subject": {
        "reference": "Patient/93a4c219-3c44-4a25-866b-0525e8758bdf"
      },
      "effectiveDateTime": "2026-02-01T08:00:00.000+00:00",
      "performer": [ {
        "reference": "Organization/example1",
        "display": "Hendricks Country Hospital"
      } ],
      "valueDateTime": "2026-02-01T00:00:00.000+00:00"
    },
    "request": {
      "method": "PUT",
      "url": "Observation/1717b99f-c7b2-44fb-b6fb-43aaad70e613"
    }
  }, {
    "fullUrl": "https://madie.cms.gov/Encounter/b32f654c-ac76-4bc5-893a-630d67966f4f",
    "resource": {
      "resourceType": "Encounter",
      "id": "b32f654c-ac76-4bc5-893a-630d67966f4f",
      "meta": {
        "profile": [ "http://hl7.org/fhir/us/qicore/StructureDefinition/qicore-encounter" ]
      },
      "status": "finished",
      "class": {
        "system": "http://terminology.hl7.org/CodeSystem/v3-ActCode",
        "code": "IMP",
        "display": "inpatient encounter"
      },
      "type": [ {
        "coding": [ {
          "system": "http://snomed.info/sct",
          "code": "183452005"
        } ]
      } ],
      "subject": {
        "reference": "Patient/93a4c219-3c44-4a25-866b-0525e8758bdf"
      },
      "period": {
        "start": "2026-02-01T08:00:00.000+00:00",
        "end": "2026-02-05T08:15:00.000+00:00"
      },
      "reasonReference": [ {
        "reference": "Condition/b59f8911-aa90-4fd5-92dd-805d33a7ae3e"
      }, {
        "reference": "Condition/ Condition/51f75c7c-909a-477c-922b-ed113fb63a89"
      } ]
    },
    "request": {
      "method": "PUT",
      "url": "Encounter/b32f654c-ac76-4bc5-893a-630d67966f4f"
    }
  }, {
    "fullUrl": "https://madie.cms.gov/Claim/58bde512-85ba-4ac1-a353-d00069323c70",
    "resource": {
      "resourceType": "Claim",
      "id": "58bde512-85ba-4ac1-a353-d00069323c70",
      "meta": {
        "profile": [ "http://hl7.org/fhir/us/qicore/StructureDefinition/qicore-claim" ]
      },
      "status": "active",
      "type": {
        "coding": [ {
          "system": "http://terminology.hl7.org/CodeSystem/claim-type",
          "code": "institutional",
          "display": "Institutional"
        } ]
      },
      "use": "claim",
      "patient": {
        "reference": "Patient/93a4c219-3c44-4a25-866b-0525e8758bdf"
      },
      "created": "2026-11-08",
      "provider": {
        "reference": "Practitioner/990f2d93-ab15-4fe2-b7f9-5a834cf60d8c"
      },
      "priority": {
        "coding": [ {
          "system": "http://terminology.hl7.org/CodeSystem/processpriority",
          "code": "normal"
        } ]
      },
      "diagnosis": [ {
        "sequence": 1,
        "diagnosisCodeableConcept": {
          "coding": [ {
            "system": "http://hl7.org/fhir/sid/icd-10-cm",
            "code": "D50.1",
            "display": "Anemia"
          } ]
        },
        "type": [ {
          "coding": [ {
            "system": "http://terminology.hl7.org/CodeSystem/ex-diagnosistype",
            "code": "discharge",
            "display": "Discharge Diagnosis"
          } ]
        } ],
        "onAdmission": {
          "coding": [ {
            "system": "https://www.cms.gov/Medicare/Medicare-Fee-for-Service-Payment/HospitalAcqCond/Coding",
            "code": "Y"
          } ]
        }
      }, {
        "sequence": 2,
        "diagnosisCodeableConcept": {
          "coding": [ {
            "system": "http://hl7.org/fhir/sid/icd-10-cm",
            "code": "A32.7",
            "display": "Listerial sepsis"
          } ]
        },
        "type": [ {
          "coding": [ {
            "system": "http://terminology.hl7.org/CodeSystem/ex-diagnosistype",
            "code": "discharge",
            "display": "Discharge Diagnosis"
          } ]
        } ],
        "onAdmission": {
          "coding": [ {
            "system": "https://www.cms.gov/Medicare/Medicare-Fee-for-Service-Payment/HospitalAcqCond/Coding",
            "code": "N"
          } ]
        }
      } ],
      "insurance": [ {
        "sequence": 1,
        "focal": true,
        "coverage": {
          "reference": "Coverage/Coverage-1"
        }
      } ],
      "item": [ {
        "sequence": 1,
        "careTeamSequence": [ 1 ],
        "diagnosisSequence": [ 1 ],
        "productOrService": {
          "coding": [ {
            "system": "http://www.ama-assn.org/go/cpt",
            "code": "99232"
          } ]
        },
        "encounter": [ {
          "reference": "Encounter/b32f654c-ac76-4bc5-893a-630d67966f4f"
        } ]
      }, {
        "sequence": 2,
        "careTeamSequence": [ 1 ],
        "diagnosisSequence": [ 2 ],
        "productOrService": {
          "coding": [ {
            "system": "http://www.ama-assn.org/go/cpt",
            "code": "99233"
          } ]
        },
        "encounter": [ {
          "reference": "Encounter/b32f654c-ac76-4bc5-893a-630d67966f4f"
        } ]
      } ],
      "total": {
        "value": 3800,
        "currency": "USD"
      }
    },
    "request": {
      "method": "PUT",
      "url": "Claim/58bde512-85ba-4ac1-a353-d00069323c70"
    }
  }, {
    "fullUrl": "https://madie.cms.gov/Procedure/fe19dd78-fb21-4a54-bb27-b215bcd18bdb",
    "resource": {
      "resourceType": "Procedure",
      "id": "fe19dd78-fb21-4a54-bb27-b215bcd18bdb",
      "meta": {
        "profile": [ "http://hl7.org/fhir/us/qicore/StructureDefinition/qicore-procedure" ]
      },
      "extension": [ {
        "url": "http://hl7.org/fhir/us/qicore/StructureDefinition/qicore-recorded",
        "valueDateTime": "2014-04-05T13:35:00.000+00:00"
      } ],
      "status": "completed",
      "code": {
        "coding": [ {
          "system": "http://snomed.info/sct",
          "code": "10745001",
          "display": "Delivery of transverse presentation (procedure)"
        } ]
      },
      "subject": {
        "reference": "Patient/93a4c219-3c44-4a25-866b-0525e8758bdf"
      },
      "performedDateTime": "2026-02-01T08:00:00.000+00:00"
    },
    "request": {
      "method": "PUT",
      "url": "Procedure/fe19dd78-fb21-4a54-bb27-b215bcd18bdb"
    }
  }, {
    "fullUrl": "https://madie.cms.gov/Condition/b59f8911-aa90-4fd5-92dd-805d33a7ae3e",
    "resource": {
      "resourceType": "Condition",
      "id": "b59f8911-aa90-4fd5-92dd-805d33a7ae3e",
      "meta": {
        "profile": [ "http://hl7.org/fhir/us/qicore/StructureDefinition/qicore-condition-encounter-diagnosis" ]
      },
      "category": [ {
        "coding": [ {
          "system": "http://terminology.hl7.org/CodeSystem/condition-category",
          "code": "encounter-diagnosis",
          "display": "Encounter Diagnosis"
        } ]
      } ],
      "code": {
        "coding": [ {
          "system": "http://www.cms.gov/medicare/coding/ICD10",
          "version": "2023",
          "display": "Listerial sepsis",
          "userSelected": true
        } ]
      },
      "subject": {
        "reference": "Patient/93a4c219-3c44-4a25-866b-0525e8758bdf"
      },
      "encounter": {
        "reference": "Encounter/b32f654c-ac76-4bc5-893a-630d67966f4f"
      },
      "recordedDate": "2026-10-26T08:00:00.000+00:00"
    },
    "request": {
      "method": "PUT",
      "url": "Condition/b59f8911-aa90-4fd5-92dd-805d33a7ae3e"
    }
  }, {
    "fullUrl": "https://madie.cms.gov/Condition/51f75c7c-909a-477c-922b-ed113fb63a89",
    "resource": {
      "resourceType": "Condition",
      "id": "51f75c7c-909a-477c-922b-ed113fb63a89",
      "meta": {
        "profile": [ "http://hl7.org/fhir/us/qicore/StructureDefinition/qicore-condition-encounter-diagnosis" ]
      },
      "category": [ {
        "coding": [ {
          "system": "http://terminology.hl7.org/CodeSystem/condition-category",
          "code": "encounter-diagnosis",
          "display": "Encounter Diagnosis"
        } ]
      } ],
      "code": {
        "coding": [ {
          "system": "http://hl7.org/fhir/sid/icd-10-cm",
          "version": "2023",
          "code": "D50.1",
          "display": "Anemia",
          "userSelected": true
        } ]
      },
      "subject": {
        "reference": "Patient/93a4c219-3c44-4a25-866b-0525e8758bdf"
      },
      "encounter": {
        "reference": "Encounter/b32f654c-ac76-4bc5-893a-630d67966f4f"
      },
      "recordedDate": "2026-10-26T08:00:00.000+00:00"
    },
    "request": {
      "method": "PUT",
      "url": "Condition/51f75c7c-909a-477c-922b-ed113fb63a89"
    }
  }, {
    "fullUrl": "https://madie.cms.gov/Practitioner/990f2d93-ab15-4fe2-b7f9-5a834cf60d8c",
    "resource": {
      "resourceType": "Practitioner",
      "id": "990f2d93-ab15-4fe2-b7f9-5a834cf60d8c",
      "meta": {
        "profile": [ "http://hl7.org/fhir/us/qicore/StructureDefinition/qicore-practitioner" ]
      },
      "identifier": [ {
        "system": "http://hl7.org/fhir/sid/us-npi",
        "value": "9999999896"
      } ],
      "name": [ {
        "family": "Evil",
        "prefix": [ "Dr" ]
      } ]
    },
    "request": {
      "method": "PUT",
      "url": "Practitioner/990f2d93-ab15-4fe2-b7f9-5a834cf60d8c"
    }
  }, {
    "fullUrl": "https://madie.cms.gov/Coverage/ab5ba1fb-49c8-4e9f-a2b5-f24045929136",
    "resource": {
      "resourceType": "Coverage",
      "id": "ab5ba1fb-49c8-4e9f-a2b5-f24045929136",
      "meta": {
        "profile": [ "http://hl7.org/fhir/us/qicore/StructureDefinition/qicore-coverage" ]
      },
      "status": "active",
      "subscriberId": "523435",
      "beneficiary": {
        "reference": "Patient/93a4c219-3c44-4a25-866b-0525e8758bdf"
      },
      "relationship": {
        "coding": [ {
          "system": "http://terminology.hl7.org/CodeSystem/subscriber-relationship",
          "code": "self"
        } ]
      },
      "payor": [ {
        "reference": "Organization/123456"
      } ]
    },
    "request": {
      "method": "PUT",
      "url": "Coverage/ab5ba1fb-49c8-4e9f-a2b5-f24045929136"
    }
  }, {
    "fullUrl": "https://madie.cms.gov/MeasureReport/76cafbcb-2d23-434a-89a9-71503d6dcc87",
    "resource": {
      "resourceType": "MeasureReport",
      "id": "76cafbcb-2d23-434a-89a9-71503d6dcc87",
      "meta": {
        "profile": [ "http://hl7.org/fhir/us/cqfmeasures/StructureDefinition/test-case-cqfm" ]
      },
      "contained": [ {
        "resourceType": "Parameters",
        "id": "4af592e6-45f6-4128-b94e-9ec5bef48529-parameters",
        "parameter": [ {
          "name": "subject",
          "valueString": "93a4c219-3c44-4a25-866b-0525e8758bdf"
        } ]
      } ],
      "extension": [ {
        "url": "http://hl7.org/fhir/StructureDefinition/cqf-inputParameters",
        "valueReference": {
          "reference": "#4af592e6-45f6-4128-b94e-9ec5bef48529-parameters"
        }
      }, {
        "url": "http://hl7.org/fhir/us/cqfmeasures/StructureDefinition/cqfm-testCaseDescription",
        "valueMarkdown": "Risk Variable of Anemia, POA is Yes"
      } ],
      "modifierExtension": [ {
        "url": "http://hl7.org/fhir/us/cqfmeasures/StructureDefinition/cqfm-isTestCase",
        "valueBoolean": true
      } ],
      "status": "complete",
      "type": "individual",
      "measure": "https://madie.cms.gov/Measure/CMS1028FHIRPCSevereOBComps",
      "period": {
        "start": "2026-01-01",
        "end": "2026-12-31"
      },
      "group": [ {
        "id": "Group_1",
        "population": [ {
          "id": "InitialPopulation_1",
          "code": {
            "coding": [ {
              "system": "http://terminology.hl7.org/CodeSystem/measure-population",
              "code": "initial-population",
              "display": "Initial Population"
            } ]
          },
          "count": 1
        }, {
          "id": "Denominator_1",
          "code": {
            "coding": [ {
              "system": "http://terminology.hl7.org/CodeSystem/measure-population",
              "code": "denominator",
              "display": "Denominator"
            } ]
          },
          "count": 1
        }, {
          "id": "Numerator_1",
          "code": {
            "coding": [ {
              "system": "http://terminology.hl7.org/CodeSystem/measure-population",
              "code": "numerator",
              "display": "Numerator"
            } ]
          },
          "count": 1
        }, {
          "id": "NumeratorExclusion_1",
          "code": {
            "coding": [ {
              "system": "http://terminology.hl7.org/CodeSystem/measure-population",
              "code": "numerator-exclusion",
              "display": "Numerator Exclusion"
            } ]
          },
          "count": 0
        } ],
        "measureScore": {
          "value": 0.0
        }
      }, {
        "id": "Group_2",
        "population": [ {
          "id": "InitialPopulation_2",
          "code": {
            "coding": [ {
              "system": "http://terminology.hl7.org/CodeSystem/measure-population",
              "code": "initial-population",
              "display": "Initial Population"
            } ]
          },
          "count": 1
        }, {
          "id": "Denominator_2",
          "code": {
            "coding": [ {
              "system": "http://terminology.hl7.org/CodeSystem/measure-population",
              "code": "denominator",
              "display": "Denominator"
            } ]
          },
          "count": 1
        }, {
          "id": "Numerator_2",
          "code": {
            "coding": [ {
              "system": "http://terminology.hl7.org/CodeSystem/measure-population",
              "code": "numerator",
              "display": "Numerator"
            } ]
          },
          "count": 1
        }, {
          "id": "NumeratorExclusion_2",
          "code": {
            "coding": [ {
              "system": "http://terminology.hl7.org/CodeSystem/measure-population",
              "code": "numerator-exclusion",
              "display": "Numerator Exclusion"
            } ]
          },
          "count": 0
        } ],
        "measureScore": {
          "value": 0.0
        }
      } ],
      "evaluatedResource": [ {
        "reference": "Patient/93a4c219-3c44-4a25-866b-0525e8758bdf"
      }, {
        "reference": "Observation/7ce030d7-8ab6-43f8-a574-39ba5cf512c6"
      }, {
        "reference": "Observation/1717b99f-c7b2-44fb-b6fb-43aaad70e613"
      }, {
        "reference": "Encounter/b32f654c-ac76-4bc5-893a-630d67966f4f"
      }, {
        "reference": "Claim/58bde512-85ba-4ac1-a353-d00069323c70"
      }, {
        "reference": "Procedure/fe19dd78-fb21-4a54-bb27-b215bcd18bdb"
      }, {
        "reference": "Condition/b59f8911-aa90-4fd5-92dd-805d33a7ae3e"
      }, {
        "reference": "Condition/51f75c7c-909a-477c-922b-ed113fb63a89"
      }, {
        "reference": "Practitioner/990f2d93-ab15-4fe2-b7f9-5a834cf60d8c"
      }, {
        "reference": "Coverage/ab5ba1fb-49c8-4e9f-a2b5-f24045929136"
      } ]
    },
    "request": {
      "method": "PUT",
      "url": "MeasureReport/76cafbcb-2d23-434a-89a9-71503d6dcc87"
    }
  } ]
}