{
  "resourceType": "Bundle",
  "id": "tests-NumerPass-RVAnticoagulantAdminDuringEnc-bundle",
  "type": "transaction",
  "entry": [ {
    "fullUrl": "https://madie.cms.gov/Encounter/8331f8c7-28b0-4655-9114-cc02552682e5",
    "resource": {
      "resourceType": "Encounter",
      "id": "8331f8c7-28b0-4655-9114-cc02552682e5",
      "meta": {
        "profile": [ "http://hl7.org/fhir/us/qicore/StructureDefinition/qicore-encounter" ]
      },
      "status": "finished",
      "class": {
        "system": "http://terminology.hl7.org/CodeSystem/v3-ActCode",
        "code": "IMP",
        "display": "inpatient encounter"
      },
      "type": [ {
        "coding": [ {
          "system": "http://snomed.info/sct",
          "code": "183452005"
        } ]
      } ],
      "subject": {
        "reference": "Patient/a0c41f8f-c8d9-4ae5-a07d-e87b16ae1367"
      },
      "period": {
        "start": "2026-10-19T08:30:00.000+00:00",
        "end": "2026-10-30T08:15:00.000+00:00"
      },
      "reasonCode": [ {
        "coding": [ {
          "system": "http://snomed.info/sct",
          "code": "14047009"
        } ]
      }, {
        "coding": [ {
          "system": "http://snomed.info/sct",
          "code": "64859006"
        } ]
      } ]
    },
    "request": {
      "method": "PUT",
      "url": "Encounter/8331f8c7-28b0-4655-9114-cc02552682e5"
    }
  }, {
    "fullUrl": "https://madie.cms.gov/Encounter/98f91665-0f7e-4659-8c9a-97518e32786f",
    "resource": {
      "resourceType": "Encounter",
      "id": "98f91665-0f7e-4659-8c9a-97518e32786f",
      "meta": {
        "profile": [ "http://hl7.org/fhir/us/qicore/StructureDefinition/qicore-encounter" ]
      },
      "status": "finished",
      "class": {
        "system": "http://terminology.hl7.org/CodeSystem/v3-ActCode",
        "code": "EMER",
        "display": "emergency encounter"
      },
      "type": [ {
        "coding": [ {
          "system": "http://snomed.info/sct",
          "code": "4525004"
        } ]
      } ],
      "subject": {
        "reference": "Patient/a0c41f8f-c8d9-4ae5-a07d-e87b16ae1367"
      },
      "period": {
        "start": "2026-10-18T09:15:00.000+00:00",
        "end": "2026-10-19T08:15:00.000+00:00"
      }
    },
    "request": {
      "method": "PUT",
      "url": "Encounter/98f91665-0f7e-4659-8c9a-97518e32786f"
    }
  }, {
    "fullUrl": "https://madie.cms.gov/Patient/a0c41f8f-c8d9-4ae5-a07d-e87b16ae1367",
    "resource": {
      "resourceType": "Patient",
      "id": "a0c41f8f-c8d9-4ae5-a07d-e87b16ae1367",
      "meta": {
        "profile": [ "http://hl7.org/fhir/us/qicore/StructureDefinition/qicore-patient" ]
      },
      "extension": [ {
        "url": "http://hl7.org/fhir/us/core/StructureDefinition/us-core-race",
        "extension": [ {
          "url": "ombCategory",
          "valueCoding": {
            "system": "urn:oid:2.16.840.1.113883.6.238",
            "code": "2106-3",
            "display": "White"
          }
        }, {
          "url": "text",
          "valueString": "White"
        } ]
      }, {
        "url": "http://hl7.org/fhir/us/core/StructureDefinition/us-core-ethnicity",
        "extension": [ {
          "url": "ombCategory",
          "valueCoding": {
            "system": "urn:oid:2.16.840.1.113883.6.238",
            "code": "2135-2",
            "display": "Hispanic or Latino"
          }
        }, {
          "url": "text",
          "valueString": "Hispanic or Latino"
        } ]
      }, {
        "url": "http://hl7.org/fhir/us/core/StructureDefinition/us-core-sex",
        "valueCode": "248153007"
      } ],
      "identifier": [ {
        "system": "http://hospital.smarthealthit.org",
        "value": "999999999"
      } ],
      "name": [ {
        "family": "Example",
        "given": [ "Patient" ]
      } ],
      "gender": "female",
      "birthDate": "1956-01-01"
    },
    "request": {
      "method": "PUT",
      "url": "Patient/a0c41f8f-c8d9-4ae5-a07d-e87b16ae1367"
    }
  }, {
    "fullUrl": "https://madie.cms.gov/Claim/07150400-f546-4a39-b59c-5210458c2c02",
    "resource": {
      "resourceType": "Claim",
      "id": "07150400-f546-4a39-b59c-5210458c2c02",
      "meta": {
        "profile": [ "http://hl7.org/fhir/us/qicore/StructureDefinition/qicore-claim" ]
      },
      "status": "active",
      "type": {
        "coding": [ {
          "system": "http://terminology.hl7.org/CodeSystem/claim-type",
          "code": "institutional",
          "display": "Institutional"
        } ]
      },
      "use": "claim",
      "patient": {
        "reference": "Patient/a0c41f8f-c8d9-4ae5-a07d-e87b16ae1367"
      },
      "created": "2026-10-22",
      "provider": {
        "reference": "Practitioner/practitioner-1"
      },
      "priority": {
        "coding": [ {
          "system": "http://terminology.hl7.org/CodeSystem/processpriority",
          "code": "normal"
        } ]
      },
      "diagnosis": [ {
        "sequence": 1,
        "diagnosisCodeableConcept": {
          "coding": [ {
            "system": "http://snomed.info/sct",
            "code": "14047009"
          } ]
        }
      } ],
      "insurance": [ {
        "sequence": 1,
        "focal": true,
        "coverage": {
          "reference": "Coverage/coverage-1"
        }
      } ],
      "item": [ {
        "sequence": 1,
        "diagnosisSequence": [ 1, 2 ],
        "productOrService": {
          "coding": [ {
            "system": "http://terminology.hl7.org/CodeSystem/ex-USCLS",
            "code": "1101"
          } ]
        },
        "encounter": [ {
          "reference": "Encounter/8331f8c7-28b0-4655-9114-cc02552682e5"
        } ]
      } ]
    },
    "request": {
      "method": "PUT",
      "url": "Claim/07150400-f546-4a39-b59c-5210458c2c02"
    }
  }, {
    "fullUrl": "https://madie.cms.gov/Claim/106cde09-f313-4e68-b864-a1f918c8286a",
    "resource": {
      "resourceType": "Claim",
      "id": "106cde09-f313-4e68-b864-a1f918c8286a",
      "meta": {
        "profile": [ "http://hl7.org/fhir/us/qicore/StructureDefinition/qicore-claim" ]
      },
      "status": "active",
      "type": {
        "coding": [ {
          "system": "http://terminology.hl7.org/CodeSystem/claim-type",
          "code": "institutional",
          "display": "Institutional"
        } ]
      },
      "use": "claim",
      "patient": {
        "reference": "Patient/a0c41f8f-c8d9-4ae5-a07d-e87b16ae1367"
      },
      "created": "2026-11-01",
      "provider": {
        "reference": "Practitioner/practitioner-1"
      },
      "priority": {
        "coding": [ {
          "system": "http://terminology.hl7.org/CodeSystem/processpriority",
          "code": "normal"
        } ]
      },
      "diagnosis": [ {
        "sequence": 1,
        "diagnosisCodeableConcept": {
          "coding": [ {
            "system": "http://hl7.org/fhir/sid/icd-10-cm",
            "code": "M80.00XA",
            "display": "Age-related osteoporosis with current pathological fracture, unspecified site, initial encounter for fracture"
          } ]
        }
      } ],
      "insurance": [ {
        "sequence": 1,
        "focal": true,
        "coverage": {
          "reference": "Coverage/coverage-1"
        }
      } ],
      "item": [ {
        "sequence": 1,
        "diagnosisSequence": [ 1, 2 ],
        "productOrService": {
          "coding": [ {
            "system": "http://terminology.hl7.org/CodeSystem/ex-USCLS",
            "code": "1101"
          } ]
        },
        "encounter": [ {
          "reference": "Encounter/8331f8c7-28b0-4655-9114-cc02552682e5"
        } ]
      } ]
    },
    "request": {
      "method": "PUT",
      "url": "Claim/106cde09-f313-4e68-b864-a1f918c8286a"
    }
  }, {
    "fullUrl": "https://madie.cms.gov/MedicationAdministration/f9c9ab9a-a502-49d4-8a30-3168b85a635d",
    "resource": {
      "resourceType": "MedicationAdministration",
      "id": "f9c9ab9a-a502-49d4-8a30-3168b85a635d",
      "meta": {
        "profile": [ "http://hl7.org/fhir/us/qicore/StructureDefinition/qicore-medicationadministration" ]
      },
      "status": "completed",
      "medicationCodeableConcept": {
        "coding": [ {
          "system": "http://www.nlm.nih.gov/research/umls/rxnorm",
          "code": "1364435",
          "display": "apixaban 2.5 mg oral tablet"
        } ]
      },
      "subject": {
        "reference": "Patient/a0c41f8f-c8d9-4ae5-a07d-e87b16ae1367"
      },
      "effectivePeriod": {
        "start": "2026-10-23T09:00:00.000+00:00",
        "end": "2026-10-25T08:00:00.000+00:00"
      },
      "dosage": {
        "text": "Take 1 tablet by mouth twice daily",
        "route": {
          "coding": [ {
            "system": "http://snomed.info/sct",
            "code": "26643006",
            "display": "Oral route"
          } ]
        },
        "dose": {
          "value": 1,
          "unit": "tablet",
          "system": "http://unitsofmeasure.org",
          "code": "{tablet}"
        }
      }
    },
    "request": {
      "method": "PUT",
      "url": "MedicationAdministration/f9c9ab9a-a502-49d4-8a30-3168b85a635d"
    }
  }, {
    "fullUrl": "https://madie.cms.gov/Practitioner/0a02ec9c-9b63-431f-a15b-4a54d983e8db",
    "resource": {
      "resourceType": "Practitioner",
      "id": "0a02ec9c-9b63-431f-a15b-4a54d983e8db",
      "identifier": [ {
        "system": "http://www.cms.gov/identifiers/pracitioners",
        "value": "P12345"
      } ],
      "name": [ {
        "use": "official",
        "family": "Smith",
        "given": [ "John" ]
      } ],
      "qualification": [ {
        "identifier": [ {
          "system": "http://hl7.org/fhir/sid/us-npi",
          "value": "1234567890"
        } ],
        "code": {
          "coding": [ {
            "system": "http://terminology.hl7.org/CodeSystem/v2-0203",
            "code": "MD",
            "display": "Medical License number"
          } ]
        }
      } ]
    },
    "request": {
      "method": "PUT",
      "url": "Practitioner/0a02ec9c-9b63-431f-a15b-4a54d983e8db"
    }
  }, {
    "fullUrl": "https://madie.cms.gov/Coverage/92bfacf4-88aa-4631-ba93-5c3127b4b538",
    "resource": {
      "resourceType": "Coverage",
      "id": "92bfacf4-88aa-4631-ba93-5c3127b4b538",
      "status": "active",
      "beneficiary": {
        "reference": "Patient/a0c41f8f-c8d9-4ae5-a07d-e87b16ae1367"
      },
      "payor": [ {
        "reference": "Organization/a624e946-13af-4f7f-8850-b2a0a3858a03"
      } ]
    },
    "request": {
      "method": "PUT",
      "url": "Coverage/92bfacf4-88aa-4631-ba93-5c3127b4b538"
    }
  }, {
    "fullUrl": "https://madie.cms.gov/Organization/a624e946-13af-4f7f-8850-b2a0a3858a03",
    "resource": {
      "resourceType": "Organization",
      "id": "a624e946-13af-4f7f-8850-b2a0a3858a03",
      "identifier": [ {
        "system": "http://cms.gov/insurance-ids",
        "value": "AET12345"
      } ],
      "type": [ {
        "coding": [ {
          "system": "http://terminology.hl7.org/CodeSystem/organization-type",
          "code": "prov",
          "display": "Healthcare Provider"
        } ]
      } ],
      "name": "Aetna Insurance",
      "telecom": [ {
        "system": "phone",
        "value": "+1-800-123-4567"
      } ],
      "address": [ {
        "line": [ "123 Main Street" ],
        "city": "Cityville",
        "state": "CA",
        "postalCode": "12345",
        "country": "USA"
      } ]
    },
    "request": {
      "method": "PUT",
      "url": "Organization/a624e946-13af-4f7f-8850-b2a0a3858a03"
    }
  }, {
    "fullUrl": "https://madie.cms.gov/MeasureReport/802900b9-4f29-4203-93aa-a9e085c90c62",
    "resource": {
      "resourceType": "MeasureReport",
      "id": "802900b9-4f29-4203-93aa-a9e085c90c62",
      "meta": {
        "profile": [ "http://hl7.org/fhir/us/cqfmeasures/StructureDefinition/test-case-cqfm" ]
      },
      "contained": [ {
        "resourceType": "Parameters",
        "id": "50c79223-1300-4591-bb68-6a68ac5bb873-parameters",
        "parameter": [ {
          "name": "subject",
          "valueString": "a0c41f8f-c8d9-4ae5-a07d-e87b16ae1367"
        } ]
      } ],
      "extension": [ {
        "url": "http://hl7.org/fhir/StructureDefinition/cqf-inputParameters",
        "valueReference": {
          "reference": "#50c79223-1300-4591-bb68-6a68ac5bb873-parameters"
        }
      }, {
        "url": "http://hl7.org/fhir/us/cqfmeasures/StructureDefinition/cqfm-testCaseDescription",
        "valueMarkdown": "Risk Variable Encounter with Anticoagulant Administration During Encounter"
      } ],
      "modifierExtension": [ {
        "url": "http://hl7.org/fhir/us/cqfmeasures/StructureDefinition/cqfm-isTestCase",
        "valueBoolean": true
      } ],
      "status": "complete",
      "type": "individual",
      "measure": "https://madie.cms.gov/Measure/CMS1017FHIRHHFI",
      "period": {
        "start": "2026-01-01",
        "end": "2026-12-31"
      },
      "group": [ {
        "id": "Group_1",
        "population": [ {
          "id": "InitialPopulation_1",
          "code": {
            "coding": [ {
              "system": "http://terminology.hl7.org/CodeSystem/measure-population",
              "code": "initial-population",
              "display": "Initial Population"
            } ]
          },
          "count": 1
        }, {
          "id": "Denominator_1",
          "code": {
            "coding": [ {
              "system": "http://terminology.hl7.org/CodeSystem/measure-population",
              "code": "denominator",
              "display": "Denominator"
            } ]
          },
          "count": 1
        }, {
          "id": "DenominatorExclusion_1",
          "code": {
            "coding": [ {
              "system": "http://terminology.hl7.org/CodeSystem/measure-population",
              "code": "denominator-exclusion",
              "display": "Denominator Exclusion"
            } ]
          },
          "count": 0
        }, {
          "id": "Numerator_1",
          "code": {
            "coding": [ {
              "system": "http://terminology.hl7.org/CodeSystem/measure-population",
              "code": "numerator",
              "display": "Numerator"
            } ]
          },
          "count": 1
        }, {
          "id": "NumeratorExclusion_1",
          "code": {
            "coding": [ {
              "system": "http://terminology.hl7.org/CodeSystem/measure-population",
              "code": "numerator-exclusion",
              "display": "Numerator Exclusion"
            } ]
          },
          "count": 0
        }, {
          "id": "MeasureObservation_1_1_1",
          "code": {
            "coding": [ {
              "system": "http://terminology.hl7.org/CodeSystem/measure-population",
              "code": "measure-observation",
              "display": "Measure Observation"
            } ]
          },
          "count": 11
        }, {
          "id": "MeasureObservation_1_2_1",
          "code": {
            "coding": [ {
              "system": "http://terminology.hl7.org/CodeSystem/measure-population",
              "code": "measure-observation",
              "display": "Measure Observation"
            } ]
          },
          "count": 1
        } ],
        "measureScore": {
          "value": 0.0
        }
      } ],
      "evaluatedResource": [ {
        "reference": "Encounter/8331f8c7-28b0-4655-9114-cc02552682e5"
      }, {
        "reference": "Encounter/98f91665-0f7e-4659-8c9a-97518e32786f"
      }, {
        "reference": "Patient/a0c41f8f-c8d9-4ae5-a07d-e87b16ae1367"
      }, {
        "reference": "Claim/07150400-f546-4a39-b59c-5210458c2c02"
      }, {
        "reference": "Claim/106cde09-f313-4e68-b864-a1f918c8286a"
      }, {
        "reference": "MedicationAdministration/f9c9ab9a-a502-49d4-8a30-3168b85a635d"
      }, {
        "reference": "Practitioner/0a02ec9c-9b63-431f-a15b-4a54d983e8db"
      }, {
        "reference": "Coverage/92bfacf4-88aa-4631-ba93-5c3127b4b538"
      }, {
        "reference": "Organization/a624e946-13af-4f7f-8850-b2a0a3858a03"
      } ]
    },
    "request": {
      "method": "PUT",
      "url": "MeasureReport/802900b9-4f29-4203-93aa-a9e085c90c62"
    }
  } ]
}