{
  "resourceType": "Bundle",
  "id": "60f82c2e98086b570510e25c",
  "type": "transaction",
  "entry": [ {
    "fullUrl": "https://madie.cms.gov/Patient/09a4fe70-dc7a-48ed-9b97-47f0a119eabd",
    "resource": {
      "resourceType": "Patient",
      "id": "09a4fe70-dc7a-48ed-9b97-47f0a119eabd",
      "meta": {
        "profile": [ "http://hl7.org/fhir/us/qicore/StructureDefinition/qicore-patient" ]
      },
      "text": {
        "status": "generated",
        "div": "<div xmlns=\"http://www.w3.org/1999/xhtml\"><div class=\"hapiHeaderText\">MedTPA&gt;24HrsB4ED <b>DENEXFAIL </b></div><table class=\"hapiPropertyTable\"><tbody><tr><td>Identifier</td><td>ae71bb61c4c014e82b6b6691136902f4</td></tr><tr><td>Date of birth</td><td><span>26 September 1975</span></td></tr></tbody></table></div>"
      },
      "extension": [ {
        "url": "http://hl7.org/fhir/us/core/StructureDefinition/us-core-race",
        "extension": [ {
          "url": "ombCategory",
          "valueCoding": {
            "system": "urn:oid:2.16.840.1.113883.6.238",
            "code": "2054-5",
            "display": "Black or African American",
            "userSelected": true
          }
        }, {
          "url": "text",
          "valueString": "Black or African American"
        } ]
      }, {
        "url": "http://hl7.org/fhir/us/core/StructureDefinition/us-core-ethnicity",
        "extension": [ {
          "url": "ombCategory",
          "valueCoding": {
            "system": "urn:oid:2.16.840.1.113883.6.238",
            "code": "2186-5",
            "display": "Not Hispanic or Latino",
            "userSelected": true
          }
        }, {
          "url": "text",
          "valueString": "Not Hispanic or Latino"
        } ]
      } ],
      "identifier": [ {
        "type": {
          "coding": [ {
            "system": "http://terminology.hl7.org/CodeSystem/v2-0203",
            "code": "MR"
          } ]
        },
        "system": "https://bonnie-fhir.healthit.gov/",
        "value": "60f82c2e98086b570510e25c"
      } ],
      "active": true,
      "name": [ {
        "use": "usual",
        "family": "DENEXFail",
        "given": [ "MedTPAGT24HrsB4ED" ]
      } ],
      "gender": "female",
      "birthDate": "1976-09-26"
    },
    "request": {
      "method": "PUT",
      "url": "Patient/09a4fe70-dc7a-48ed-9b97-47f0a119eabd"
    }
  }, {
    "fullUrl": "https://madie.cms.gov/Encounter/77756bea-9363-44b8-846a-0f7d1a946dda",
    "resource": {
      "resourceType": "Encounter",
      "id": "77756bea-9363-44b8-846a-0f7d1a946dda",
      "meta": {
        "profile": [ "http://hl7.org/fhir/us/qicore/StructureDefinition/qicore-encounter" ]
      },
      "status": "finished",
      "class": {
        "system": "http://terminology.hl7.org/CodeSystem/v3-ActCode",
        "code": "EMER",
        "display": "emergency",
        "userSelected": true
      },
      "type": [ {
        "coding": [ {
          "system": "http://snomed.info/sct",
          "code": "4525004"
        } ]
      } ],
      "subject": {
        "reference": "Patient/09a4fe70-dc7a-48ed-9b97-47f0a119eabd"
      },
      "period": {
        "start": "2026-10-10T06:00:00.000+00:00",
        "end": "2026-10-10T07:01:00.000+00:00"
      },
      "length": {
        "value": 0,
        "unit": "days"
      }
    },
    "request": {
      "method": "PUT",
      "url": "Encounter/77756bea-9363-44b8-846a-0f7d1a946dda"
    }
  }, {
    "fullUrl": "https://madie.cms.gov/Encounter/1ae1fdd9-fa13-4e6a-a316-fd476c29b40d",
    "resource": {
      "resourceType": "Encounter",
      "id": "1ae1fdd9-fa13-4e6a-a316-fd476c29b40d",
      "meta": {
        "profile": [ "http://hl7.org/fhir/us/qicore/StructureDefinition/qicore-encounter" ]
      },
      "status": "finished",
      "class": {
        "system": "http://terminology.hl7.org/CodeSystem/v3-ActCode",
        "code": "IMP",
        "display": "inpatient encounter",
        "userSelected": true
      },
      "type": [ {
        "coding": [ {
          "system": "http://snomed.info/sct",
          "code": "32485007"
        } ]
      } ],
      "subject": {
        "reference": "Patient/09a4fe70-dc7a-48ed-9b97-47f0a119eabd"
      },
      "period": {
        "start": "2026-10-10T09:00:00.000+00:00",
        "end": "2026-10-12T11:15:00.000+00:00"
      },
      "length": {
        "value": 2,
        "unit": "days"
      },
      "reasonReference": [ {
        "reference": "Condition/0b17292b-6c27-4262-bea9-8d638ca97672"
      } ]
    },
    "request": {
      "method": "PUT",
      "url": "Encounter/1ae1fdd9-fa13-4e6a-a316-fd476c29b40d"
    }
  }, {
    "fullUrl": "https://madie.cms.gov/MedicationAdministration/b56b2707-f680-4dbd-9dc1-67d12d90a19b",
    "resource": {
      "resourceType": "MedicationAdministration",
      "id": "b56b2707-f680-4dbd-9dc1-67d12d90a19b",
      "meta": {
        "profile": [ "http://hl7.org/fhir/us/qicore/StructureDefinition/qicore-medicationadministration" ]
      },
      "status": "completed",
      "medicationCodeableConcept": {
        "coding": [ {
          "system": "http://www.nlm.nih.gov/research/umls/rxnorm",
          "code": "1804799"
        } ]
      },
      "subject": {
        "reference": "Patient/09a4fe70-dc7a-48ed-9b97-47f0a119eabd"
      },
      "effectivePeriod": {
        "start": "2026-10-09T05:00:00.000+00:00"
      }
    },
    "request": {
      "method": "PUT",
      "url": "MedicationAdministration/b56b2707-f680-4dbd-9dc1-67d12d90a19b"
    }
  }, {
    "fullUrl": "https://madie.cms.gov/Coverage/64203b38-d440-4d16-90b3-24127db020c4",
    "resource": {
      "resourceType": "Coverage",
      "id": "64203b38-d440-4d16-90b3-24127db020c4",
      "status": "active",
      "beneficiary": {
        "reference": "Patient/09a4fe70-dc7a-48ed-9b97-47f0a119eabd"
      },
      "period": {
        "start": "1976-09-26T08:00:00.000+00:00"
      },
      "payor": [ {
        "reference": "Organization/f2b0863b-118d-4bcc-843d-7da8a02953c6"
      } ]
    },
    "request": {
      "method": "PUT",
      "url": "Coverage/64203b38-d440-4d16-90b3-24127db020c4"
    }
  }, {
    "fullUrl": "https://madie.cms.gov/Condition/0b17292b-6c27-4262-bea9-8d638ca97672",
    "resource": {
      "resourceType": "Condition",
      "id": "0b17292b-6c27-4262-bea9-8d638ca97672",
      "meta": {
        "profile": [ "http://hl7.org/fhir/us/qicore/StructureDefinition/qicore-condition-encounter-diagnosis" ]
      },
      "clinicalStatus": {
        "coding": [ {
          "system": "http://terminology.hl7.org/CodeSystem/condition-clinical",
          "code": "active"
        } ]
      },
      "verificationStatus": {
        "coding": [ {
          "system": "http://terminology.hl7.org/CodeSystem/condition-ver-status",
          "code": "confirmed"
        } ]
      },
      "category": [ {
        "coding": [ {
          "system": "http://terminology.hl7.org/CodeSystem/condition-category",
          "code": "encounter-diagnosis",
          "display": "Encounter Diagnosis"
        } ]
      } ],
      "code": {
        "coding": [ {
          "system": "http://snomed.info/sct",
          "version": "2020-09",
          "code": "111297002",
          "display": "Nonparalytic stroke (disorder)",
          "userSelected": true
        } ]
      },
      "subject": {
        "reference": "Patient/09a4fe70-dc7a-48ed-9b97-47f0a119eabd"
      },
      "encounter": {
        "reference": "Encounter/1ae1fdd9-fa13-4e6a-a316-fd476c29b40d"
      },
      "recordedDate": "2026-08-12T08:00:00.000+00:00"
    },
    "request": {
      "method": "PUT",
      "url": "Condition/0b17292b-6c27-4262-bea9-8d638ca97672"
    }
  }, {
    "fullUrl": "https://madie.cms.gov/claim/5ca62962b8484628b8de1ec5",
    "resource": {
      "resourceType": "Claim",
      "id": "5ca62962b8484628b8de1ec5",
      "meta": {
        "profile": [ "http://hl7.org/fhir/us/qicore/StructureDefinition/qicore-claim" ]
      },
      "status": "active",
      "type": {
        "coding": [ {
          "system": "http://terminology.hl7.org/CodeSystem/claim-type",
          "code": "institutional"
        } ]
      },
      "use": "claim",
      "patient": {
        "reference": "Patient/5450abfd-a667-4eb9-9b59-e85feed4865c"
      },
      "created": "2026-12-01",
      "provider": {
        "reference": "Practitioner/practitioner-123456"
      },
      "priority": {
        "coding": [ {
          "system": "http://terminology.hl7.org/CodeSystem/processpriority",
          "code": "normal"
        } ]
      },
      "diagnosis": [ {
        "sequence": 1,
        "diagnosisCodeableConcept": {
          "coding": [ {
            "system": "http://hl7.org/fhir/sid/icd-10-cm",
            "code": "I63.00"
          } ]
        },
        "type": [ {
          "coding": [ {
            "system": "http://terminology.hl7.org/CodeSystem/ex-diagnosistype",
            "code": "principal"
          } ]
        } ]
      } ],
      "insurance": [ {
        "sequence": 1,
        "focal": true,
        "coverage": {
          "reference": "Coverage/5fa041661c76ba66d9959367"
        }
      } ],
      "item": [ {
        "sequence": 1,
        "diagnosisSequence": [ 1 ],
        "productOrService": {
          "coding": [ {
            "system": "http://terminology.hl7.org/CodeSystem/ex-USCLS",
            "code": "99555"
          } ]
        },
        "encounter": [ {
          "reference": "Encounter/1ae1fdd9-fa13-4e6a-a316-fd476c29b40d"
        } ]
      } ]
    },
    "request": {
      "method": "PUT",
      "url": "Claim/5ca62962b8484628b8de1ec5"
    }
  }, {
    "fullUrl": "https://madie.cms.gov/Organization/f2b0863b-118d-4bcc-843d-7da8a02953c6",
    "resource": {
      "resourceType": "Organization",
      "id": "f2b0863b-118d-4bcc-843d-7da8a02953c6",
      "meta": {
        "profile": [ "http://hl7.org/fhir/us/qicore/StructureDefinition/qicore-organization" ]
      },
      "identifier": [ {
        "use": "temp",
        "system": "urn:oid:2.16.840.1.113883.4.4",
        "value": "21-3259825"
      } ],
      "active": true,
      "type": [ {
        "coding": [ {
          "system": "http://terminology.hl7.org/CodeSystem/organization-type",
          "code": "pay",
          "display": "Payer"
        } ]
      } ],
      "name": "Blue Cross Blue Shield of Texas",
      "telecom": [ {
        "system": "phone",
        "value": "(+1) 972-766-6900"
      } ],
      "address": [ {
        "use": "billing",
        "type": "postal",
        "line": [ "P.O. Box 660044" ],
        "city": "Dallas",
        "state": "TX",
        "postalCode": "75266-0044",
        "country": "USA"
      } ]
    },
    "request": {
      "method": "PUT",
      "url": "Organization/f2b0863b-118d-4bcc-843d-7da8a02953c6"
    }
  }, {
    "fullUrl": "https://madie.cms.gov/MeasureReport/78a11da9-24b2-4971-abcd-ae9d2b275453",
    "resource": {
      "resourceType": "MeasureReport",
      "id": "78a11da9-24b2-4971-abcd-ae9d2b275453",
      "meta": {
        "profile": [ "http://hl7.org/fhir/us/cqfmeasures/StructureDefinition/test-case-cqfm" ]
      },
      "contained": [ {
        "resourceType": "Parameters",
        "id": "a58e88e2-516d-48a2-bdd4-623d3aa39df7-parameters",
        "parameter": [ {
          "name": "subject",
          "valueString": "09a4fe70-dc7a-48ed-9b97-47f0a119eabd"
        } ]
      } ],
      "extension": [ {
        "url": "http://hl7.org/fhir/StructureDefinition/cqf-inputParameters",
        "valueReference": {
          "reference": "#a58e88e2-516d-48a2-bdd4-623d3aa39df7-parameters"
        }
      }, {
        "url": "http://hl7.org/fhir/us/cqfmeasures/StructureDefinition/cqfm-testCaseDescription",
        "valueMarkdown": "Patient has ED visit <=1hour before IP encounter AND receives TPA >24 hours before ED visit, global.\"Hospitalization\" =(Ed+IP)\n"
      } ],
      "modifierExtension": [ {
        "url": "http://hl7.org/fhir/us/cqfmeasures/StructureDefinition/cqfm-isTestCase",
        "valueBoolean": true
      } ],
      "status": "complete",
      "type": "individual",
      "measure": "https://madie.cms.gov/Measure/CMS72FHIRSTKAntithromboticDay2",
      "period": {
        "start": "2026-01-01",
        "end": "2026-12-31"
      },
      "group": [ {
        "id": "Group_1",
        "population": [ {
          "id": "InitialPopulation_1",
          "code": {
            "coding": [ {
              "system": "http://terminology.hl7.org/CodeSystem/measure-population",
              "code": "initial-population",
              "display": "Initial Population"
            } ]
          },
          "count": 1
        }, {
          "id": "Denominator_1",
          "code": {
            "coding": [ {
              "system": "http://terminology.hl7.org/CodeSystem/measure-population",
              "code": "denominator",
              "display": "Denominator"
            } ]
          },
          "count": 1
        }, {
          "id": "DenominatorExclusion_1",
          "code": {
            "coding": [ {
              "system": "http://terminology.hl7.org/CodeSystem/measure-population",
              "code": "denominator-exclusion",
              "display": "Denominator Exclusion"
            } ]
          },
          "count": 0
        }, {
          "id": "Numerator_1",
          "code": {
            "coding": [ {
              "system": "http://terminology.hl7.org/CodeSystem/measure-population",
              "code": "numerator",
              "display": "Numerator"
            } ]
          },
          "count": 0
        }, {
          "id": "DenominatorException_1",
          "code": {
            "coding": [ {
              "system": "http://terminology.hl7.org/CodeSystem/measure-population",
              "code": "denominator-exception",
              "display": "Denominator Exception"
            } ]
          },
          "count": 0
        } ],
        "measureScore": {
          "value": 0.0
        }
      } ],
      "evaluatedResource": [ {
        "reference": "Patient/09a4fe70-dc7a-48ed-9b97-47f0a119eabd"
      }, {
        "reference": "Encounter/77756bea-9363-44b8-846a-0f7d1a946dda"
      }, {
        "reference": "Encounter/1ae1fdd9-fa13-4e6a-a316-fd476c29b40d"
      }, {
        "reference": "MedicationAdministration/b56b2707-f680-4dbd-9dc1-67d12d90a19b"
      }, {
        "reference": "Coverage/64203b38-d440-4d16-90b3-24127db020c4"
      }, {
        "reference": "Condition/0b17292b-6c27-4262-bea9-8d638ca97672"
      }, {
        "reference": "Claim/5ca62962b8484628b8de1ec5"
      }, {
        "reference": "Organization/f2b0863b-118d-4bcc-843d-7da8a02953c6"
      } ]
    },
    "request": {
      "method": "PUT",
      "url": "MeasureReport/78a11da9-24b2-4971-abcd-ae9d2b275453"
    }
  } ]
}