{
  "resourceType": "Bundle",
  "id": "612e6b6402c62a011f2ed965",
  "type": "transaction",
  "entry": [ {
    "fullUrl": "https://madie.cms.gov/Patient/87532ec3-3437-4936-a22f-c33c134a9779",
    "resource": {
      "resourceType": "Patient",
      "id": "87532ec3-3437-4936-a22f-c33c134a9779",
      "meta": {
        "profile": [ "http://hl7.org/fhir/us/qicore/StructureDefinition/qicore-patient" ]
      },
      "text": {
        "status": "generated",
        "div": "<div xmlns=\"http://www.w3.org/1999/xhtml\"><div class=\"hapiHeaderText\">EncDxObstetricsVTE <b>IPPFAIL </b></div><table class=\"hapiPropertyTable\"><tbody><tr><td>Identifier</td><td>b7a7425ccd6ae25cbc6ebf054c4ec0a9</td></tr><tr><td>Date of birth</td><td><span>02 September 2003</span></td></tr></tbody></table></div>"
      },
      "extension": [ {
        "url": "http://hl7.org/fhir/us/core/StructureDefinition/us-core-race",
        "extension": [ {
          "url": "ombCategory",
          "valueCoding": {
            "system": "urn:oid:2.16.840.1.113883.6.238",
            "code": "1002-5",
            "display": "American Indian or Alaska Native",
            "userSelected": true
          }
        }, {
          "url": "text",
          "valueString": "American Indian or Alaska Native"
        } ]
      }, {
        "url": "http://hl7.org/fhir/us/core/StructureDefinition/us-core-ethnicity",
        "extension": [ {
          "url": "ombCategory",
          "valueCoding": {
            "system": "urn:oid:2.16.840.1.113883.6.238",
            "code": "2135-2",
            "display": "Hispanic or Latino",
            "userSelected": true
          }
        }, {
          "url": "text",
          "valueString": "Hispanic or Latino"
        } ]
      } ],
      "identifier": [ {
        "type": {
          "coding": [ {
            "system": "http://terminology.hl7.org/CodeSystem/v2-0203",
            "code": "MR"
          } ]
        },
        "system": "https://bonnie-fhir.healthit.gov/",
        "value": "612e6b6402c62a011f2ed965"
      } ],
      "active": true,
      "name": [ {
        "use": "usual",
        "family": "IPPFail",
        "given": [ "EncDxObstetricsVTE" ]
      } ],
      "gender": "male",
      "birthDate": "2004-09-02"
    },
    "request": {
      "method": "PUT",
      "url": "Patient/87532ec3-3437-4936-a22f-c33c134a9779"
    }
  }, {
    "fullUrl": "https://madie.cms.gov/Encounter/d750b49c-43e3-49a5-beec-1b2b4ce07b42",
    "resource": {
      "resourceType": "Encounter",
      "id": "d750b49c-43e3-49a5-beec-1b2b4ce07b42",
      "meta": {
        "profile": [ "http://hl7.org/fhir/us/qicore/StructureDefinition/qicore-encounter" ]
      },
      "status": "finished",
      "class": {
        "system": "http://terminology.hl7.org/CodeSystem/v3-ActCode",
        "code": "IMP",
        "display": "inpatient encounter"
      },
      "type": [ {
        "coding": [ {
          "system": "http://snomed.info/sct",
          "code": "183452005"
        } ]
      } ],
      "subject": {
        "reference": "Patient/87532ec3-3437-4936-a22f-c33c134a9779"
      },
      "period": {
        "start": "2026-09-02T12:59:00.000+00:00",
        "end": "2026-09-02T13:14:00.000+00:00"
      },
      "length": {
        "value": 0,
        "unit": "days"
      },
      "reasonReference": [ {
        "reference": "Condition/94c6c3f7-776f-4bc7-9668-5fb4e38e6be9"
      } ]
    },
    "request": {
      "method": "PUT",
      "url": "Encounter/d750b49c-43e3-49a5-beec-1b2b4ce07b42"
    }
  }, {
    "fullUrl": "https://madie.cms.gov/Coverage/607f41f3-1423-45cd-b7de-280f3d41092d",
    "resource": {
      "resourceType": "Coverage",
      "id": "607f41f3-1423-45cd-b7de-280f3d41092d",
      "status": "active",
      "beneficiary": {
        "reference": "Patient/87532ec3-3437-4936-a22f-c33c134a9779"
      },
      "period": {
        "start": "2004-09-02T08:00:00.000+00:00"
      },
      "payor": [ {
        "reference": "Organization/ea86a08d-cc0a-48a7-bf19-bb1502310568"
      } ]
    },
    "request": {
      "method": "PUT",
      "url": "Coverage/607f41f3-1423-45cd-b7de-280f3d41092d"
    }
  }, {
    "fullUrl": "https://madie.cms.gov/Condition/94c6c3f7-776f-4bc7-9668-5fb4e38e6be9",
    "resource": {
      "resourceType": "Condition",
      "id": "94c6c3f7-776f-4bc7-9668-5fb4e38e6be9",
      "meta": {
        "profile": [ "http://hl7.org/fhir/us/qicore/StructureDefinition/qicore-condition-encounter-diagnosis" ]
      },
      "category": [ {
        "coding": [ {
          "system": "http://terminology.hl7.org/CodeSystem/condition-category",
          "code": "encounter-diagnosis",
          "display": "Encounter Diagnosis"
        } ]
      } ],
      "code": {
        "coding": [ {
          "system": "http://snomed.info/sct",
          "version": "2025-03",
          "code": "13943000",
          "display": "Failed attempted abortion complicated by embolism (disorder)",
          "userSelected": true
        } ]
      },
      "subject": {
        "reference": "Patient/87532ec3-3437-4936-a22f-c33c134a9779"
      },
      "recordedDate": "2026-07-07T08:00:00.000+00:00"
    },
    "request": {
      "method": "PUT",
      "url": "Condition/94c6c3f7-776f-4bc7-9668-5fb4e38e6be9"
    }
  }, {
    "fullUrl": "https://madie.cms.gov/Organization/ea86a08d-cc0a-48a7-bf19-bb1502310568",
    "resource": {
      "resourceType": "Organization",
      "id": "ea86a08d-cc0a-48a7-bf19-bb1502310568",
      "meta": {
        "profile": [ "http://hl7.org/fhir/us/qicore/StructureDefinition/qicore-organization" ]
      },
      "identifier": [ {
        "use": "temp",
        "system": "urn:oid:2.16.840.1.113883.4.4",
        "value": "21-3259825"
      } ],
      "active": true,
      "type": [ {
        "coding": [ {
          "system": "http://terminology.hl7.org/CodeSystem/organization-type",
          "code": "pay",
          "display": "Payer"
        } ]
      } ],
      "name": "Blue Cross Blue Shield of Texas",
      "telecom": [ {
        "system": "phone",
        "value": "(+1) 972-766-6900"
      } ],
      "address": [ {
        "use": "billing",
        "type": "postal",
        "line": [ "P.O. Box 660044" ],
        "city": "Dallas",
        "state": "TX",
        "postalCode": "75266-0044",
        "country": "USA"
      } ]
    },
    "request": {
      "method": "PUT",
      "url": "Organization/ea86a08d-cc0a-48a7-bf19-bb1502310568"
    }
  }, {
    "fullUrl": "https://madie.cms.gov/Practitioner/9bba7053-c331-4670-a3d0-7a2fb240c2be",
    "resource": {
      "resourceType": "Practitioner",
      "id": "9bba7053-c331-4670-a3d0-7a2fb240c2be",
      "identifier": [ {
        "system": "http://hl7.org/fhir/sid/us-npi",
        "value": "123456"
      } ],
      "name": [ {
        "family": "Evil",
        "prefix": [ "Dr" ]
      } ]
    },
    "request": {
      "method": "PUT",
      "url": "Practitioner/9bba7053-c331-4670-a3d0-7a2fb240c2be"
    }
  }, {
    "fullUrl": "https://madie.cms.gov/MeasureReport/173510af-76aa-487a-b9f2-f97245593992",
    "resource": {
      "resourceType": "MeasureReport",
      "id": "173510af-76aa-487a-b9f2-f97245593992",
      "meta": {
        "profile": [ "http://hl7.org/fhir/us/cqfmeasures/StructureDefinition/test-case-cqfm" ]
      },
      "contained": [ {
        "resourceType": "Parameters",
        "id": "9748b557-4009-450b-8154-fa4bee1ea422-parameters",
        "parameter": [ {
          "name": "subject",
          "valueString": "87532ec3-3437-4936-a22f-c33c134a9779"
        } ]
      } ],
      "extension": [ {
        "url": "http://hl7.org/fhir/StructureDefinition/cqf-inputParameters",
        "valueReference": {
          "reference": "#9748b557-4009-450b-8154-fa4bee1ea422-parameters"
        }
      }, {
        "url": "http://hl7.org/fhir/us/cqfmeasures/StructureDefinition/cqfm-testCaseDescription",
        "valueMarkdown": "Patient is 18 years old with LOS < 120 days during MP with obstetrics VTE diagnosis\n"
      } ],
      "modifierExtension": [ {
        "url": "http://hl7.org/fhir/us/cqfmeasures/StructureDefinition/cqfm-isTestCase",
        "valueBoolean": true
      } ],
      "status": "complete",
      "type": "individual",
      "measure": "https://madie.cms.gov/Measure/CMS108FHIRVTEProphylaxis",
      "period": {
        "start": "2026-01-01",
        "end": "2026-12-31"
      },
      "group": [ {
        "id": "Group_1",
        "population": [ {
          "id": "InitialPopulation_1",
          "code": {
            "coding": [ {
              "system": "http://terminology.hl7.org/CodeSystem/measure-population",
              "code": "initial-population",
              "display": "Initial Population"
            } ]
          },
          "count": 0
        }, {
          "id": "Denominator_1",
          "code": {
            "coding": [ {
              "system": "http://terminology.hl7.org/CodeSystem/measure-population",
              "code": "denominator",
              "display": "Denominator"
            } ]
          },
          "count": 0
        }, {
          "id": "DenominatorExclusion_1",
          "code": {
            "coding": [ {
              "system": "http://terminology.hl7.org/CodeSystem/measure-population",
              "code": "denominator-exclusion",
              "display": "Denominator Exclusion"
            } ]
          },
          "count": 0
        }, {
          "id": "Numerator_1",
          "code": {
            "coding": [ {
              "system": "http://terminology.hl7.org/CodeSystem/measure-population",
              "code": "numerator",
              "display": "Numerator"
            } ]
          },
          "count": 0
        } ],
        "measureScore": {
          "value": 0.0
        }
      } ],
      "evaluatedResource": [ {
        "reference": "Patient/87532ec3-3437-4936-a22f-c33c134a9779"
      }, {
        "reference": "Encounter/d750b49c-43e3-49a5-beec-1b2b4ce07b42"
      }, {
        "reference": "Coverage/607f41f3-1423-45cd-b7de-280f3d41092d"
      }, {
        "reference": "Condition/94c6c3f7-776f-4bc7-9668-5fb4e38e6be9"
      }, {
        "reference": "Organization/ea86a08d-cc0a-48a7-bf19-bb1502310568"
      }, {
        "reference": "Practitioner/9bba7053-c331-4670-a3d0-7a2fb240c2be"
      } ]
    },
    "request": {
      "method": "PUT",
      "url": "MeasureReport/173510af-76aa-487a-b9f2-f97245593992"
    }
  } ]
}