{
  "resourceType": "Bundle",
  "id": "DENOMPass-RVLeukemiaDxPOA",
  "type": "transaction",
  "entry": [ {
    "fullUrl": "https://madie.cms.gov/Claim/f293aa95-3739-4cbf-9783-1cc97b624c25",
    "resource": {
      "resourceType": "Claim",
      "id": "f293aa95-3739-4cbf-9783-1cc97b624c25",
      "meta": {
        "profile": [ "http://hl7.org/fhir/us/qicore/StructureDefinition/qicore-claim" ]
      },
      "status": "active",
      "type": {
        "coding": [ {
          "system": "http://terminology.hl7.org/CodeSystem/claim-type",
          "code": "professional",
          "display": "Professional"
        } ]
      },
      "use": "claim",
      "patient": {
        "reference": "Patient/365ed821-88d1-4459-9d32-dd4fa6426335"
      },
      "created": "2026-12-12",
      "provider": {
        "reference": "Practitioner/c927b81a-5134-43c1-9018-bcd28128e9cf"
      },
      "priority": {
        "coding": [ {
          "system": "http://terminology.hl7.org/CodeSystem/processpriority",
          "code": "normal"
        } ]
      },
      "diagnosis": [ {
        "sequence": 1,
        "diagnosisCodeableConcept": {
          "coding": [ {
            "system": "http://hl7.org/fhir/sid/icd-10-cm",
            "code": "C81.00"
          } ]
        },
        "onAdmission": {
          "coding": [ {
            "system": "https://www.cms.gov/Medicare/Medicare-Fee-for-Service-Payment/HospitalAcqCond/Coding",
            "code": "Y"
          } ]
        }
      } ],
      "insurance": [ {
        "sequence": 1,
        "focal": true,
        "coverage": {
          "reference": "Coverage/263ea4e1-a780-46c2-a7fe-2232406bda91"
        }
      } ],
      "item": [ {
        "sequence": 1,
        "diagnosisSequence": [ 1, 2 ],
        "productOrService": {
          "coding": [ {
            "system": "http://terminology.hl7.org/CodeSystem/ex-USCLS",
            "code": "1101"
          } ]
        },
        "encounter": [ {
          "reference": "Encounter/dc1842ce-1d09-4c23-872e-f5c01c30bd33"
        } ]
      } ]
    },
    "request": {
      "method": "PUT",
      "url": "Claim/f293aa95-3739-4cbf-9783-1cc97b624c25"
    }
  }, {
    "fullUrl": "https://madie.cms.gov/Patient/365ed821-88d1-4459-9d32-dd4fa6426335",
    "resource": {
      "resourceType": "Patient",
      "id": "365ed821-88d1-4459-9d32-dd4fa6426335",
      "meta": {
        "profile": [ "http://hl7.org/fhir/us/qicore/StructureDefinition/qicore-patient" ]
      },
      "extension": [ {
        "url": "http://hl7.org/fhir/us/core/StructureDefinition/us-core-race",
        "extension": [ {
          "url": "ombCategory",
          "valueCoding": {
            "system": "urn:oid:2.16.840.1.113883.6.238",
            "code": "1002-5",
            "display": "American Indian or Alaska Native",
            "userSelected": true
          }
        }, {
          "url": "text",
          "valueString": "American Indian or Alaska Native"
        } ]
      }, {
        "url": "http://hl7.org/fhir/us/core/StructureDefinition/us-core-ethnicity",
        "extension": [ {
          "url": "ombCategory",
          "valueCoding": {
            "system": "urn:oid:2.16.840.1.113883.6.238",
            "code": "2135-2",
            "display": "Hispanic or Latino",
            "userSelected": true
          }
        }, {
          "url": "text",
          "valueString": "Hispanic or Latino"
        } ]
      } ],
      "identifier": [ {
        "type": {
          "coding": [ {
            "system": "http://terminology.hl7.org/CodeSystem/v2-0203",
            "code": "MR"
          } ]
        },
        "system": "https://bonnie-fhir.healthit.gov/",
        "value": "61152a3b98086b7a79cbd7c1"
      } ],
      "active": true,
      "name": [ {
        "use": "usual",
        "family": "DENOMPass",
        "given": [ "RVDeliriumDxPOA" ]
      } ],
      "gender": "female",
      "birthDate": "1964-12-11"
    },
    "request": {
      "method": "PUT",
      "url": "Patient/365ed821-88d1-4459-9d32-dd4fa6426335"
    }
  }, {
    "fullUrl": "https://madie.cms.gov/Encounter/dc1842ce-1d09-4c23-872e-f5c01c30bd33",
    "resource": {
      "resourceType": "Encounter",
      "id": "dc1842ce-1d09-4c23-872e-f5c01c30bd33",
      "meta": {
        "profile": [ "http://hl7.org/fhir/us/qicore/StructureDefinition/qicore-encounter" ]
      },
      "status": "finished",
      "class": {
        "system": "http://terminology.hl7.org/CodeSystem/v3-ActCode",
        "code": "IMP",
        "display": "inpatient encounter"
      },
      "type": [ {
        "coding": [ {
          "system": "http://snomed.info/sct",
          "code": "183452005",
          "display": "Emergency hospital admission"
        } ]
      } ],
      "subject": {
        "reference": "Patient/365ed821-88d1-4459-9d32-dd4fa6426335"
      },
      "period": {
        "start": "2026-11-12T08:00:00.000+00:00",
        "end": "2026-11-18T08:01:00.000+00:00"
      },
      "length": {
        "value": 6,
        "unit": "days"
      }
    },
    "request": {
      "method": "PUT",
      "url": "Encounter/dc1842ce-1d09-4c23-872e-f5c01c30bd33"
    }
  }, {
    "fullUrl": "https://madie.cms.gov/Practitioner/c927b81a-5134-43c1-9018-bcd28128e9cf",
    "resource": {
      "resourceType": "Practitioner",
      "id": "c927b81a-5134-43c1-9018-bcd28128e9cf",
      "identifier": [ {
        "system": "http://www.cms.gov/identifiers/pracitioners",
        "value": "P12345"
      } ],
      "name": [ {
        "use": "official",
        "family": "Smith",
        "given": [ "John" ]
      } ],
      "qualification": [ {
        "identifier": [ {
          "system": "http://hl7.org/fhir/sid/us-npi",
          "value": "1234567890"
        } ],
        "code": {
          "coding": [ {
            "system": "http://terminology.hl7.org/CodeSystem/v2-0203",
            "code": "MD",
            "display": "Medical License number"
          } ]
        }
      } ]
    },
    "request": {
      "method": "PUT",
      "url": "Practitioner/c927b81a-5134-43c1-9018-bcd28128e9cf"
    }
  }, {
    "fullUrl": "https://madie.cms.gov/Coverage/263ea4e1-a780-46c2-a7fe-2232406bda91",
    "resource": {
      "resourceType": "Coverage",
      "id": "263ea4e1-a780-46c2-a7fe-2232406bda91",
      "status": "active",
      "beneficiary": {
        "reference": "Patient/365ed821-88d1-4459-9d32-dd4fa6426335"
      },
      "payor": [ {
        "reference": "Organization/a8109ddb-b86d-4af9-abef-437a027674b6"
      } ]
    },
    "request": {
      "method": "PUT",
      "url": "Coverage/263ea4e1-a780-46c2-a7fe-2232406bda91"
    }
  }, {
    "fullUrl": "https://madie.cms.gov/Organization/a8109ddb-b86d-4af9-abef-437a027674b6",
    "resource": {
      "resourceType": "Organization",
      "id": "a8109ddb-b86d-4af9-abef-437a027674b6",
      "identifier": [ {
        "system": "http://cms.gov/insurance-ids",
        "value": "AET12345"
      } ],
      "type": [ {
        "coding": [ {
          "system": "http://terminology.hl7.org/CodeSystem/organization-type",
          "code": "prov",
          "display": "Healthcare Provider"
        } ]
      } ],
      "name": "Aetna Insurance",
      "telecom": [ {
        "system": "phone",
        "value": "+1-800-123-4567"
      } ],
      "address": [ {
        "line": [ "123 Main Street" ],
        "city": "Cityville",
        "state": "CA",
        "postalCode": "12345",
        "country": "USA"
      } ]
    },
    "request": {
      "method": "PUT",
      "url": "Organization/a8109ddb-b86d-4af9-abef-437a027674b6"
    }
  }, {
    "fullUrl": "https://madie.cms.gov/MeasureReport/9e88fbe0-1835-4e9d-ad06-a92252e3efeb",
    "resource": {
      "resourceType": "MeasureReport",
      "id": "9e88fbe0-1835-4e9d-ad06-a92252e3efeb",
      "meta": {
        "profile": [ "http://hl7.org/fhir/us/cqfmeasures/StructureDefinition/test-case-cqfm" ]
      },
      "contained": [ {
        "resourceType": "Parameters",
        "id": "57f25aae-aef8-4eac-89cb-0d01896ecef1-parameters",
        "parameter": [ {
          "name": "subject",
          "valueString": "365ed821-88d1-4459-9d32-dd4fa6426335"
        } ]
      } ],
      "extension": [ {
        "url": "http://hl7.org/fhir/StructureDefinition/cqf-inputParameters",
        "valueReference": {
          "reference": "#57f25aae-aef8-4eac-89cb-0d01896ecef1-parameters"
        }
      }, {
        "url": "http://hl7.org/fhir/us/cqfmeasures/StructureDefinition/cqfm-testCaseDescription",
        "valueMarkdown": "Encounter with Leukemia dx POA = Y. Meets RV"
      } ],
      "modifierExtension": [ {
        "url": "http://hl7.org/fhir/us/cqfmeasures/StructureDefinition/cqfm-isTestCase",
        "valueBoolean": true
      } ],
      "status": "complete",
      "type": "individual",
      "measure": "https://madie.cms.gov/Measure/CMS1017FHIRHHFI",
      "period": {
        "start": "2026-01-01",
        "end": "2026-12-31"
      },
      "group": [ {
        "id": "Group_1",
        "population": [ {
          "id": "InitialPopulation_1",
          "code": {
            "coding": [ {
              "system": "http://terminology.hl7.org/CodeSystem/measure-population",
              "code": "initial-population",
              "display": "Initial Population"
            } ]
          },
          "count": 1
        }, {
          "id": "Denominator_1",
          "code": {
            "coding": [ {
              "system": "http://terminology.hl7.org/CodeSystem/measure-population",
              "code": "denominator",
              "display": "Denominator"
            } ]
          },
          "count": 1
        }, {
          "id": "DenominatorExclusion_1",
          "code": {
            "coding": [ {
              "system": "http://terminology.hl7.org/CodeSystem/measure-population",
              "code": "denominator-exclusion",
              "display": "Denominator Exclusion"
            } ]
          },
          "count": 0
        }, {
          "id": "Numerator_1",
          "code": {
            "coding": [ {
              "system": "http://terminology.hl7.org/CodeSystem/measure-population",
              "code": "numerator",
              "display": "Numerator"
            } ]
          },
          "count": 0
        }, {
          "id": "NumeratorExclusion_1",
          "code": {
            "coding": [ {
              "system": "http://terminology.hl7.org/CodeSystem/measure-population",
              "code": "numerator-exclusion",
              "display": "Numerator Exclusion"
            } ]
          },
          "count": 0
        }, {
          "id": "MeasureObservation_1_1_1",
          "code": {
            "coding": [ {
              "system": "http://terminology.hl7.org/CodeSystem/measure-population",
              "code": "measure-observation",
              "display": "Measure Observation"
            } ]
          },
          "count": 6
        } ],
        "measureScore": {
          "value": 0.0
        }
      } ],
      "evaluatedResource": [ {
        "reference": "Claim/f293aa95-3739-4cbf-9783-1cc97b624c25"
      }, {
        "reference": "Patient/365ed821-88d1-4459-9d32-dd4fa6426335"
      }, {
        "reference": "Encounter/dc1842ce-1d09-4c23-872e-f5c01c30bd33"
      }, {
        "reference": "Practitioner/c927b81a-5134-43c1-9018-bcd28128e9cf"
      }, {
        "reference": "Coverage/263ea4e1-a780-46c2-a7fe-2232406bda91"
      }, {
        "reference": "Organization/a8109ddb-b86d-4af9-abef-437a027674b6"
      } ]
    },
    "request": {
      "method": "PUT",
      "url": "MeasureReport/9e88fbe0-1835-4e9d-ad06-a92252e3efeb"
    }
  } ]
}