{
  "resourceType": "Bundle",
  "id": "tests-DENOMPass-MedsEndOfEncounterEdgeCase-bundle",
  "type": "transaction",
  "entry": [ {
    "fullUrl": "https://madie.cms.gov/Encounter/dd740e92-540c-45ee-899e-a9c7feb30c26",
    "resource": {
      "resourceType": "Encounter",
      "id": "dd740e92-540c-45ee-899e-a9c7feb30c26",
      "meta": {
        "profile": [ "http://hl7.org/fhir/us/qicore/StructureDefinition/qicore-encounter" ]
      },
      "status": "finished",
      "class": {
        "system": "http://terminology.hl7.org/CodeSystem/v3-ActCode",
        "code": "IMP",
        "display": "Inpatient encounter"
      },
      "type": [ {
        "coding": [ {
          "system": "http://snomed.info/sct",
          "code": "183452005",
          "display": "Emergency hospital admission"
        } ]
      } ],
      "subject": {
        "reference": "Patient/7bcb6920-f361-4121-82a5-31fed13e65d6"
      },
      "period": {
        "start": "2026-01-11T08:00:00.000Z",
        "end": "2026-01-12T21:00:00.000Z"
      }
    },
    "request": {
      "method": "PUT",
      "url": "Encounter/dd740e92-540c-45ee-899e-a9c7feb30c26"
    }
  }, {
    "fullUrl": "https://madie.cms.gov/MedicationAdministration/19eccb92-77f6-44af-bc7e-a5ca30ff37ca",
    "resource": {
      "resourceType": "MedicationAdministration",
      "id": "19eccb92-77f6-44af-bc7e-a5ca30ff37ca",
      "meta": {
        "profile": [ "http://hl7.org/fhir/us/qicore/StructureDefinition/qicore-medicationadministration" ]
      },
      "status": "completed",
      "medicationCodeableConcept": {
        "coding": [ {
          "system": "http://www.nlm.nih.gov/research/umls/rxnorm",
          "code": "1670021",
          "display": "3 ML insulin degludec 200 UNT/ML Pen Injector"
        } ]
      },
      "subject": {
        "reference": "Patient/7bcb6920-f361-4121-82a5-31fed13e65d6"
      },
      "effectivePeriod": {
        "start": "2026-01-12T21:00:00.000Z"
      }
    },
    "request": {
      "method": "PUT",
      "url": "MedicationAdministration/19eccb92-77f6-44af-bc7e-a5ca30ff37ca"
    }
  }, {
    "fullUrl": "https://madie.cms.gov/Patient/7bcb6920-f361-4121-82a5-31fed13e65d6",
    "resource": {
      "resourceType": "Patient",
      "id": "7bcb6920-f361-4121-82a5-31fed13e65d6",
      "meta": {
        "profile": [ "http://hl7.org/fhir/us/qicore/StructureDefinition/qicore-patient" ]
      },
      "extension": [ {
        "url": "http://hl7.org/fhir/us/core/StructureDefinition/us-core-race",
        "extension": [ {
          "url": "ombCategory",
          "valueCoding": {
            "system": "urn:oid:2.16.840.1.113883.6.238",
            "code": "2106-3",
            "display": "White"
          }
        }, {
          "url": "text",
          "valueString": "White"
        } ]
      }, {
        "url": "http://hl7.org/fhir/us/core/StructureDefinition/us-core-ethnicity",
        "extension": [ {
          "url": "ombCategory",
          "valueCoding": {
            "system": "urn:oid:2.16.840.1.113883.6.238",
            "code": "2135-2",
            "display": "Hispanic or Latino"
          }
        }, {
          "url": "text",
          "valueString": "Hispanic or Latino"
        } ]
      }, {
        "url": "http://hl7.org/fhir/us/core/StructureDefinition/us-core-sex",
        "valueCode": "248153007"
      } ],
      "identifier": [ {
        "system": "http://hospital.smarthealthit.org",
        "value": "999999999"
      } ],
      "name": [ {
        "family": "CMSDENOMPass",
        "given": [ "MedsEndOfEncounterEdgeCase" ]
      } ],
      "gender": "female",
      "birthDate": "1956-01-01"
    },
    "request": {
      "method": "PUT",
      "url": "Patient/7bcb6920-f361-4121-82a5-31fed13e65d6"
    }
  }, {
    "fullUrl": "https://madie.cms.gov/MeasureReport/2ec7a2b4-519b-4d84-b963-e8879aa1ca44",
    "resource": {
      "resourceType": "MeasureReport",
      "id": "2ec7a2b4-519b-4d84-b963-e8879aa1ca44",
      "meta": {
        "profile": [ "http://hl7.org/fhir/us/cqfmeasures/StructureDefinition/test-case-cqfm" ]
      },
      "contained": [ {
        "resourceType": "Parameters",
        "id": "79d29feb-f10c-4b6b-b79a-aaa7abebf3a6-parameters",
        "parameter": [ {
          "name": "subject",
          "valueString": "7bcb6920-f361-4121-82a5-31fed13e65d6"
        } ]
      } ],
      "extension": [ {
        "url": "http://hl7.org/fhir/StructureDefinition/cqf-inputParameters",
        "valueReference": {
          "reference": "#79d29feb-f10c-4b6b-b79a-aaa7abebf3a6-parameters"
        }
      }, {
        "url": "http://hl7.org/fhir/us/cqfmeasures/StructureDefinition/cqfm-testCaseDescription",
        "valueMarkdown": "Encounter, med relevant period start date/time is same date/time as end of encounter date/time. No lab tests. Meets denom rule - med must start during encounter.\n\n(CMS #9)"
      } ],
      "modifierExtension": [ {
        "url": "http://hl7.org/fhir/us/cqfmeasures/StructureDefinition/cqfm-isTestCase",
        "valueBoolean": true
      } ],
      "status": "complete",
      "type": "individual",
      "measure": "https://madie.cms.gov/Measure/NHSNGlycemicControlHypoglycemiaInitialPopulation",
      "period": {
        "start": "2026-01-01",
        "end": "2026-12-31"
      },
      "group": [ {
        "id": "Group_1",
        "population": [ {
          "id": "InitialPopulation_1",
          "code": {
            "coding": [ {
              "system": "http://terminology.hl7.org/CodeSystem/measure-population",
              "code": "initial-population",
              "display": "Initial Population"
            } ]
          },
          "count": 1
        } ],
        "measureScore": {
          "value": 0.0
        }
      } ],
      "evaluatedResource": [ {
        "reference": "Encounter/dd740e92-540c-45ee-899e-a9c7feb30c26"
      }, {
        "reference": "MedicationAdministration/19eccb92-77f6-44af-bc7e-a5ca30ff37ca"
      }, {
        "reference": "Patient/7bcb6920-f361-4121-82a5-31fed13e65d6"
      } ]
    },
    "request": {
      "method": "PUT",
      "url": "MeasureReport/2ec7a2b4-519b-4d84-b963-e8879aa1ca44"
    }
  } ]
}