{
  "resourceType": "Bundle",
  "id": "63487c300968f801225401bb",
  "type": "transaction",
  "entry": [ {
    "fullUrl": "https://madie.cms.gov/Patient/4355cfd9-9700-4bd3-b828-e7726e73f857",
    "resource": {
      "resourceType": "Patient",
      "id": "4355cfd9-9700-4bd3-b828-e7726e73f857",
      "meta": {
        "profile": [ "http://hl7.org/fhir/us/qicore/StructureDefinition/qicore-patient" ]
      },
      "text": {
        "status": "generated",
        "div": "<div xmlns=\"http://www.w3.org/1999/xhtml\"><div class=\"hapiHeaderText\">AssessParityLastMissingResult <b>DENPASS </b></div><table class=\"hapiPropertyTable\"><tbody><tr><td>Identifier</td><td>c06cc2d514ccfaffa49c54295f23978df6f00fe92fbd59d826ce4eb31140ad8c</td></tr><tr><td>Date of birth</td><td><span>14 February 1985</span></td></tr></tbody></table></div>"
      },
      "extension": [ {
        "url": "http://hl7.org/fhir/us/core/StructureDefinition/us-core-race",
        "extension": [ {
          "url": "ombCategory",
          "valueCoding": {
            "system": "urn:oid:2.16.840.1.113883.6.238",
            "code": "1002-5",
            "display": "American Indian or Alaska Native",
            "userSelected": true
          }
        }, {
          "url": "text",
          "valueString": "American Indian or Alaska Native"
        } ]
      }, {
        "url": "http://hl7.org/fhir/us/core/StructureDefinition/us-core-ethnicity",
        "extension": [ {
          "url": "ombCategory",
          "valueCoding": {
            "system": "urn:oid:2.16.840.1.113883.6.238",
            "code": "2135-2",
            "display": "Hispanic or Latino",
            "userSelected": true
          }
        }, {
          "url": "text",
          "valueString": "Hispanic or Latino"
        } ]
      } ],
      "identifier": [ {
        "type": {
          "coding": [ {
            "system": "http://terminology.hl7.org/CodeSystem/v2-0203",
            "code": "MR"
          } ]
        },
        "system": "https://bonnie-fhir.healthit.gov/",
        "value": "63487c300968f801225401bb"
      } ],
      "active": true,
      "name": [ {
        "use": "usual",
        "family": "DENPass",
        "given": [ "AssessParityLastMissingResult" ]
      } ],
      "gender": "female",
      "birthDate": "1998-02-14"
    },
    "request": {
      "method": "PUT",
      "url": "Patient/4355cfd9-9700-4bd3-b828-e7726e73f857"
    }
  }, {
    "fullUrl": "https://madie.cms.gov/Observation/d6ac9cb7-3688-453d-9f9b-2503ca74f88e",
    "resource": {
      "resourceType": "Observation",
      "id": "d6ac9cb7-3688-453d-9f9b-2503ca74f88e",
      "meta": {
        "profile": [ "http://hl7.org/fhir/us/qicore/StructureDefinition/qicore-simple-observation" ]
      },
      "status": "final",
      "category": [ {
        "coding": [ {
          "system": "http://terminology.hl7.org/CodeSystem/observation-category",
          "code": "exam",
          "display": "exam",
          "userSelected": true
        } ]
      } ],
      "code": {
        "coding": [ {
          "system": "http://loinc.org",
          "code": "11977-6"
        } ]
      },
      "subject": {
        "reference": "Patient/4355cfd9-9700-4bd3-b828-e7726e73f857"
      },
      "effectiveDateTime": "2025-10-20T09:00:00.000+00:00",
      "valueInteger": 0
    },
    "request": {
      "method": "PUT",
      "url": "Observation/d6ac9cb7-3688-453d-9f9b-2503ca74f88e"
    }
  }, {
    "fullUrl": "https://madie.cms.gov/Observation/fb6a5a86-4470-42a9-8303-17c06f3ee52c",
    "resource": {
      "resourceType": "Observation",
      "id": "fb6a5a86-4470-42a9-8303-17c06f3ee52c",
      "meta": {
        "profile": [ "http://hl7.org/fhir/us/qicore/StructureDefinition/qicore-simple-observation" ]
      },
      "status": "final",
      "category": [ {
        "coding": [ {
          "system": "http://terminology.hl7.org/CodeSystem/observation-category",
          "code": "exam",
          "display": "exam",
          "userSelected": true
        } ]
      } ],
      "code": {
        "coding": [ {
          "system": "http://loinc.org",
          "code": "11884-4"
        } ]
      },
      "subject": {
        "reference": "Patient/4355cfd9-9700-4bd3-b828-e7726e73f857"
      },
      "effectiveDateTime": "2026-06-08T20:00:00.000+00:00",
      "valueQuantity": {
        "value": 37,
        "system": "http://unitsofmeasure.org",
        "code": "wk"
      }
    },
    "request": {
      "method": "PUT",
      "url": "Observation/fb6a5a86-4470-42a9-8303-17c06f3ee52c"
    }
  }, {
    "fullUrl": "https://madie.cms.gov/Observation/7130f131-1562-4d26-a7a7-90cad2a885e7",
    "resource": {
      "resourceType": "Observation",
      "id": "7130f131-1562-4d26-a7a7-90cad2a885e7",
      "meta": {
        "profile": [ "http://hl7.org/fhir/us/qicore/StructureDefinition/qicore-simple-observation" ]
      },
      "status": "final",
      "category": [ {
        "coding": [ {
          "system": "http://terminology.hl7.org/CodeSystem/observation-category",
          "code": "exam",
          "display": "exam",
          "userSelected": true
        } ]
      } ],
      "code": {
        "coding": [ {
          "system": "http://loinc.org",
          "code": "93857-1"
        } ]
      },
      "subject": {
        "reference": "Patient/4355cfd9-9700-4bd3-b828-e7726e73f857"
      },
      "effectiveDateTime": "2026-06-08T20:00:00.000+00:00",
      "valueDateTime": "2026-06-08T20:00:00.000+00:00"
    },
    "request": {
      "method": "PUT",
      "url": "Observation/7130f131-1562-4d26-a7a7-90cad2a885e7"
    }
  }, {
    "fullUrl": "https://madie.cms.gov/Observation/3d48e685-7876-4f7e-93d4-52a8b297f429",
    "resource": {
      "resourceType": "Observation",
      "id": "3d48e685-7876-4f7e-93d4-52a8b297f429",
      "meta": {
        "profile": [ "http://hl7.org/fhir/us/qicore/StructureDefinition/qicore-simple-observation" ]
      },
      "status": "final",
      "category": [ {
        "coding": [ {
          "system": "http://terminology.hl7.org/CodeSystem/observation-category",
          "code": "exam",
          "display": "exam",
          "userSelected": true
        } ]
      } ],
      "code": {
        "coding": [ {
          "system": "http://loinc.org",
          "code": "11977-6"
        } ]
      },
      "subject": {
        "reference": "Patient/4355cfd9-9700-4bd3-b828-e7726e73f857"
      }
    },
    "request": {
      "method": "PUT",
      "url": "Observation/3d48e685-7876-4f7e-93d4-52a8b297f429"
    }
  }, {
    "fullUrl": "https://madie.cms.gov/Encounter/f05b747a-d4ed-4818-bea5-9eee13fb82db",
    "resource": {
      "resourceType": "Encounter",
      "id": "f05b747a-d4ed-4818-bea5-9eee13fb82db",
      "meta": {
        "profile": [ "http://hl7.org/fhir/us/qicore/StructureDefinition/qicore-encounter" ]
      },
      "status": "finished",
      "class": {
        "system": "http://terminology.hl7.org/CodeSystem/v3-ActCode",
        "code": "IMP",
        "display": "inpatient encounter"
      },
      "type": [ {
        "coding": [ {
          "system": "http://snomed.info/sct",
          "code": "8715000"
        } ]
      } ],
      "subject": {
        "reference": "Patient/4355cfd9-9700-4bd3-b828-e7726e73f857"
      },
      "period": {
        "start": "2026-06-08T08:00:00.000+00:00",
        "end": "2026-06-10T08:15:00.000+00:00"
      },
      "length": {
        "value": 2,
        "unit": "days"
      },
      "reasonReference": [ {
        "reference": "Condition/ed1d8f88-0181-409a-8492-8225ff0d6ccf"
      } ]
    },
    "request": {
      "method": "PUT",
      "url": "Encounter/f05b747a-d4ed-4818-bea5-9eee13fb82db"
    }
  }, {
    "fullUrl": "https://madie.cms.gov/Coverage/e6fa429b-872c-4fb2-be44-d511d4d2eb04",
    "resource": {
      "resourceType": "Coverage",
      "id": "e6fa429b-872c-4fb2-be44-d511d4d2eb04",
      "status": "active",
      "subscriberId": "523435",
      "beneficiary": {
        "reference": "Patient/4355cfd9-9700-4bd3-b828-e7726e73f857"
      },
      "relationship": {
        "coding": [ {
          "system": "http://terminology.hl7.org/CodeSystem/subscriber-relationship",
          "code": "self"
        } ]
      },
      "period": {
        "start": "1986-02-14T08:00:00.000+00:00"
      },
      "payor": [ {
        "reference": "Organization/610c7e31-517e-4954-9a3d-775cdccf6c3c"
      } ]
    },
    "request": {
      "method": "PUT",
      "url": "Coverage/e6fa429b-872c-4fb2-be44-d511d4d2eb04"
    }
  }, {
    "fullUrl": "https://madie.cms.gov/Procedure/b183e0cb-bbe7-4548-b9fb-31f96bef64e9",
    "resource": {
      "resourceType": "Procedure",
      "id": "b183e0cb-bbe7-4548-b9fb-31f96bef64e9",
      "meta": {
        "profile": [ "http://hl7.org/fhir/us/qicore/StructureDefinition/qicore-procedure" ]
      },
      "extension": [ {
        "url": "http://hl7.org/fhir/us/qicore/StructureDefinition/qicore-recorded",
        "valueDateTime": "2014-04-05T13:35:00.000+00:00"
      } ],
      "status": "completed",
      "code": {
        "coding": [ {
          "system": "http://www.cms.gov/Medicare/Coding/ICD10",
          "code": "10D00Z0"
        } ]
      },
      "subject": {
        "reference": "Patient/4355cfd9-9700-4bd3-b828-e7726e73f857"
      },
      "performedPeriod": {
        "start": "2026-06-08T20:00:00.000+00:00",
        "end": "2026-06-08T20:15:00.000+00:00"
      }
    },
    "request": {
      "method": "PUT",
      "url": "Procedure/b183e0cb-bbe7-4548-b9fb-31f96bef64e9"
    }
  }, {
    "fullUrl": "https://madie.cms.gov/Condition/ed1d8f88-0181-409a-8492-8225ff0d6ccf",
    "resource": {
      "resourceType": "Condition",
      "id": "ed1d8f88-0181-409a-8492-8225ff0d6ccf",
      "meta": {
        "profile": [ "http://hl7.org/fhir/us/qicore/StructureDefinition/qicore-condition-encounter-diagnosis" ]
      },
      "category": [ {
        "coding": [ {
          "system": "http://terminology.hl7.org/CodeSystem/condition-category",
          "code": "encounter-diagnosis",
          "display": "Encounter Diagnosis"
        } ]
      } ],
      "code": {
        "coding": [ {
          "system": "http://snomed.info/sct",
          "version": "2022-09",
          "code": "169826009",
          "display": "Single live birth from singleton pregnancy (finding)",
          "userSelected": true
        } ]
      },
      "subject": {
        "reference": "Patient/4355cfd9-9700-4bd3-b828-e7726e73f857"
      },
      "encounter": {
        "reference": "Encounter/f05b747a-d4ed-4818-bea5-9eee13fb82db"
      },
      "recordedDate": "2026-10-18T08:00:00.000+00:00"
    },
    "request": {
      "method": "PUT",
      "url": "Condition/ed1d8f88-0181-409a-8492-8225ff0d6ccf"
    }
  }, {
    "fullUrl": "https://madie.cms.gov/Organization/610c7e31-517e-4954-9a3d-775cdccf6c3c",
    "resource": {
      "resourceType": "Organization",
      "id": "610c7e31-517e-4954-9a3d-775cdccf6c3c",
      "meta": {
        "profile": [ "http://hl7.org/fhir/us/qicore/StructureDefinition/qicore-organization" ]
      },
      "identifier": [ {
        "use": "temp",
        "system": "urn:oid:2.16.840.1.113883.4.4",
        "value": "21-3259825"
      } ],
      "active": true,
      "type": [ {
        "coding": [ {
          "system": "http://terminology.hl7.org/CodeSystem/organization-type",
          "code": "pay",
          "display": "Payer"
        } ]
      } ],
      "name": "Blue Cross Blue Shield of Texas",
      "telecom": [ {
        "system": "phone",
        "value": "(+1) 972-766-6900"
      } ],
      "address": [ {
        "use": "billing",
        "type": "postal",
        "line": [ "P.O. Box 660044" ],
        "city": "Dallas",
        "state": "TX",
        "postalCode": "75266-0044",
        "country": "USA"
      } ]
    },
    "request": {
      "method": "PUT",
      "url": "Organization/610c7e31-517e-4954-9a3d-775cdccf6c3c"
    }
  }, {
    "fullUrl": "https://madie.cms.gov/Practitioner/eb0a1077-add9-40c2-95b3-8a6d8a58e381",
    "resource": {
      "resourceType": "Practitioner",
      "id": "eb0a1077-add9-40c2-95b3-8a6d8a58e381",
      "meta": {
        "profile": [ "http://hl7.org/fhir/us/qicore/StructureDefinition/qicore-practitioner" ]
      },
      "identifier": [ {
        "system": "http://hl7.org/fhir/sid/us-npi",
        "value": "1234567890"
      } ],
      "name": [ {
        "family": "Evil",
        "prefix": [ "Dr" ]
      } ]
    },
    "request": {
      "method": "PUT",
      "url": "Practitioner/eb0a1077-add9-40c2-95b3-8a6d8a58e381"
    }
  }, {
    "fullUrl": "https://madie.cms.gov/MeasureReport/1c593219-905c-4d73-97fa-c7f15fe67718",
    "resource": {
      "resourceType": "MeasureReport",
      "id": "1c593219-905c-4d73-97fa-c7f15fe67718",
      "meta": {
        "profile": [ "http://hl7.org/fhir/us/cqfmeasures/StructureDefinition/test-case-cqfm" ]
      },
      "contained": [ {
        "resourceType": "Parameters",
        "id": "789b4ac1-831f-499d-af2c-02ae417a7e11-parameters",
        "parameter": [ {
          "name": "subject",
          "valueString": "4355cfd9-9700-4bd3-b828-e7726e73f857"
        } ]
      } ],
      "extension": [ {
        "url": "http://hl7.org/fhir/StructureDefinition/cqf-inputParameters",
        "valueReference": {
          "reference": "#789b4ac1-831f-499d-af2c-02ae417a7e11-parameters"
        }
      }, {
        "url": "http://hl7.org/fhir/us/cqfmeasures/StructureDefinition/cqfm-testCaseDescription",
        "valueMarkdown": "Two Parities, first Parity=0 but last Parity is missing result, relevant date/time less than 42 weeks prior to delivery date/time\n"
      } ],
      "modifierExtension": [ {
        "url": "http://hl7.org/fhir/us/cqfmeasures/StructureDefinition/cqfm-isTestCase",
        "valueBoolean": true
      } ],
      "status": "complete",
      "type": "individual",
      "measure": "https://madie.cms.gov/Measure/CMS0334FHIRPCCesareanBirth",
      "period": {
        "start": "2026-01-01",
        "end": "2026-12-31"
      },
      "group": [ {
        "id": "Group_1",
        "population": [ {
          "id": "InitialPopulation_1",
          "code": {
            "coding": [ {
              "system": "http://terminology.hl7.org/CodeSystem/measure-population",
              "code": "initial-population",
              "display": "Initial Population"
            } ]
          },
          "count": 1
        }, {
          "id": "Denominator_1",
          "code": {
            "coding": [ {
              "system": "http://terminology.hl7.org/CodeSystem/measure-population",
              "code": "denominator",
              "display": "Denominator"
            } ]
          },
          "count": 1
        }, {
          "id": "DenominatorExclusion_1",
          "code": {
            "coding": [ {
              "system": "http://terminology.hl7.org/CodeSystem/measure-population",
              "code": "denominator-exclusion",
              "display": "Denominator Exclusion"
            } ]
          },
          "count": 0
        }, {
          "id": "Numerator_1",
          "code": {
            "coding": [ {
              "system": "http://terminology.hl7.org/CodeSystem/measure-population",
              "code": "numerator",
              "display": "Numerator"
            } ]
          },
          "count": 1
        } ],
        "measureScore": {
          "value": 0.0
        }
      } ],
      "evaluatedResource": [ {
        "reference": "Patient/4355cfd9-9700-4bd3-b828-e7726e73f857"
      }, {
        "reference": "Observation/d6ac9cb7-3688-453d-9f9b-2503ca74f88e"
      }, {
        "reference": "Observation/fb6a5a86-4470-42a9-8303-17c06f3ee52c"
      }, {
        "reference": "Observation/7130f131-1562-4d26-a7a7-90cad2a885e7"
      }, {
        "reference": "Observation/3d48e685-7876-4f7e-93d4-52a8b297f429"
      }, {
        "reference": "Encounter/f05b747a-d4ed-4818-bea5-9eee13fb82db"
      }, {
        "reference": "Coverage/e6fa429b-872c-4fb2-be44-d511d4d2eb04"
      }, {
        "reference": "Procedure/b183e0cb-bbe7-4548-b9fb-31f96bef64e9"
      }, {
        "reference": "Condition/ed1d8f88-0181-409a-8492-8225ff0d6ccf"
      }, {
        "reference": "Organization/610c7e31-517e-4954-9a3d-775cdccf6c3c"
      }, {
        "reference": "Practitioner/eb0a1077-add9-40c2-95b3-8a6d8a58e381"
      } ]
    },
    "request": {
      "method": "PUT",
      "url": "MeasureReport/1c593219-905c-4d73-97fa-c7f15fe67718"
    }
  } ]
}