{
  "resourceType": "Bundle",
  "id": "tests-143372f5-cf0d-420f-a55c-63e0c74e8013-bundle",
  "type": "transaction",
  "entry": [ {
    "fullUrl": "https://madie.cms.gov/Coverage/2c5cfb24-7e3d-486a-b66f-bddfa996f06a",
    "resource": {
      "resourceType": "Coverage",
      "id": "2c5cfb24-7e3d-486a-b66f-bddfa996f06a",
      "meta": {
        "profile": [ "http://hl7.org/fhir/us/qicore/StructureDefinition/qicore-coverage" ]
      },
      "status": "active",
      "type": {
        "coding": [ {
          "system": "https://nahdo.org/sopt",
          "version": "9.2",
          "code": "512",
          "display": "Commercial Managed Care - PPO"
        } ]
      },
      "beneficiary": {
        "reference": "Patient/143372f5-cf0d-420f-a55c-63e0c74e8013"
      },
      "period": {
        "start": "2024-12-01T00:00:00.000+00:00"
      },
      "payor": [ {
        "reference": "Organization/be9f43e3-6c3f-4410-aed8-7a39be7bcf3b"
      } ]
    },
    "request": {
      "method": "PUT",
      "url": "Coverage/2c5cfb24-7e3d-486a-b66f-bddfa996f06a"
    }
  }, {
    "fullUrl": "https://madie.cms.gov/Observation/300cf680-b0c9-4bd9-8841-cdb2c8df7214",
    "resource": {
      "resourceType": "Observation",
      "id": "300cf680-b0c9-4bd9-8841-cdb2c8df7214",
      "meta": {
        "profile": [ "http://hl7.org/fhir/us/qicore/StructureDefinition/qicore-observation-lab" ]
      },
      "status": "final",
      "category": [ {
        "coding": [ {
          "system": "http://terminology.hl7.org/CodeSystem/observation-category",
          "code": "laboratory",
          "display": "Laboratory"
        } ]
      } ],
      "code": {
        "coding": [ {
          "system": "http://loinc.org",
          "version": "2.72",
          "code": "2160-0",
          "display": "Creatinine [Mass/volume] in Serum or Plasma",
          "userSelected": true
        } ]
      },
      "subject": {
        "reference": "Patient/143372f5-cf0d-420f-a55c-63e0c74e8013"
      },
      "effectiveDateTime": "2026-10-01T07:50:00.000+00:00",
      "issued": "2026-10-01T08:20:00.000+00:00",
      "valueQuantity": {
        "value": 0.6,
        "unit": "mg/dL",
        "system": "http://unitsofmeasure.org",
        "code": "mg/dL"
      }
    },
    "request": {
      "method": "PUT",
      "url": "Observation/300cf680-b0c9-4bd9-8841-cdb2c8df7214"
    }
  }, {
    "fullUrl": "https://madie.cms.gov/Patient/143372f5-cf0d-420f-a55c-63e0c74e8013",
    "resource": {
      "resourceType": "Patient",
      "id": "143372f5-cf0d-420f-a55c-63e0c74e8013",
      "meta": {
        "profile": [ "http://hl7.org/fhir/us/qicore/StructureDefinition/qicore-patient" ]
      },
      "text": {
        "status": "generated",
        "div": "<div xmlns=\"http://www.w3.org/1999/xhtml\"><div class=\"hapiHeaderText\">Age17InpatientHospStartTime <b>IPPFail </b></div><table class=\"hapiPropertyTable\"><tbody><tr><td>Identifier</td><td>f0eda1c9668fdacdcad3378589bf6e0a71e7dec1618f14fca4d442ec96e402b1</td></tr><tr><td>Date of birth</td><td><span>30 September 2006</span></td></tr></tbody></table></div>"
      },
      "extension": [ {
        "url": "http://hl7.org/fhir/us/core/StructureDefinition/us-core-race",
        "extension": [ {
          "url": "ombCategory",
          "valueCoding": {
            "system": "urn:oid:2.16.840.1.113883.6.238",
            "code": "1002-5",
            "display": "American Indian or Alaska Native",
            "userSelected": true
          }
        }, {
          "url": "text",
          "valueString": "American Indian or Alaska Native"
        } ]
      }, {
        "url": "http://hl7.org/fhir/us/core/StructureDefinition/us-core-ethnicity",
        "extension": [ {
          "url": "ombCategory",
          "valueCoding": {
            "system": "urn:oid:2.16.840.1.113883.6.238",
            "code": "2135-2",
            "display": "Hispanic or Latino",
            "userSelected": true
          }
        }, {
          "url": "text",
          "valueString": "Hispanic or Latino"
        } ]
      }, {
        "url": "http://hl7.org/fhir/us/core/StructureDefinition/us-core-sex",
        "valueCode": "248152002"
      } ],
      "identifier": [ {
        "type": {
          "coding": [ {
            "system": "http://terminology.hl7.org/CodeSystem/v2-0203",
            "code": "MR"
          } ]
        },
        "system": "http://bonnie-fhir.healthit.gov/",
        "value": "IPPFail-Age17InpatientHospStartTime"
      } ],
      "active": true,
      "name": [ {
        "use": "usual",
        "family": "IPPFail",
        "given": [ "Age17InpatientHospStartTime" ]
      } ],
      "gender": "female",
      "birthDate": "2009-09-30"
    },
    "request": {
      "method": "PUT",
      "url": "Patient/143372f5-cf0d-420f-a55c-63e0c74e8013"
    }
  }, {
    "fullUrl": "https://madie.cms.gov/MedicationAdministration/619d1ff6-d1f1-48e0-bfa4-b399723e0381",
    "resource": {
      "resourceType": "MedicationAdministration",
      "id": "619d1ff6-d1f1-48e0-bfa4-b399723e0381",
      "meta": {
        "profile": [ "http://hl7.org/fhir/us/qicore/StructureDefinition/qicore-medicationadministration" ]
      },
      "status": "completed",
      "medicationCodeableConcept": {
        "coding": [ {
          "system": "http://www.nlm.nih.gov/research/umls/rxnorm",
          "code": "1010600"
        } ]
      },
      "subject": {
        "reference": "Patient/143372f5-cf0d-420f-a55c-63e0c74e8013"
      },
      "effectivePeriod": {
        "start": "2026-09-29T08:00:00.000+00:00",
        "end": "2026-09-29T08:15:00.000+00:00"
      }
    },
    "request": {
      "method": "PUT",
      "url": "MedicationAdministration/619d1ff6-d1f1-48e0-bfa4-b399723e0381"
    }
  }, {
    "fullUrl": "https://madie.cms.gov/Encounter/d746b8e2-f941-4859-9a31-af1ba8ee1eaf",
    "resource": {
      "resourceType": "Encounter",
      "id": "d746b8e2-f941-4859-9a31-af1ba8ee1eaf",
      "meta": {
        "profile": [ "http://hl7.org/fhir/us/qicore/StructureDefinition/qicore-encounter" ]
      },
      "status": "finished",
      "class": {
        "system": "http://terminology.hl7.org/CodeSystem/v3-ActCode",
        "code": "EMER",
        "display": "emergency"
      },
      "type": [ {
        "coding": [ {
          "system": "http://snomed.info/sct",
          "code": "4525004"
        } ]
      } ],
      "subject": {
        "reference": "Patient/143372f5-cf0d-420f-a55c-63e0c74e8013"
      },
      "period": {
        "start": "2026-09-29T06:00:00.000+00:00",
        "end": "2026-09-29T08:00:00.000+00:00"
      }
    },
    "request": {
      "method": "PUT",
      "url": "Encounter/d746b8e2-f941-4859-9a31-af1ba8ee1eaf"
    }
  }, {
    "fullUrl": "https://madie.cms.gov/Observation/0878bf98-c538-4ff7-ba58-52c50d635d53",
    "resource": {
      "resourceType": "Observation",
      "id": "0878bf98-c538-4ff7-ba58-52c50d635d53",
      "meta": {
        "profile": [ "http://hl7.org/fhir/us/qicore/StructureDefinition/qicore-observation-lab" ]
      },
      "status": "final",
      "category": [ {
        "coding": [ {
          "system": "http://terminology.hl7.org/CodeSystem/observation-category",
          "code": "laboratory",
          "display": "Laboratory"
        } ]
      } ],
      "code": {
        "coding": [ {
          "system": "http://loinc.org",
          "code": "2160-0",
          "display": "Creatinine [Mass/volume] in Serum or Plasma"
        } ]
      },
      "subject": {
        "reference": "Patient/143372f5-cf0d-420f-a55c-63e0c74e8013"
      },
      "effectiveDateTime": "2026-09-29T07:59:00.000+00:00",
      "issued": "2026-09-29T08:29:00.000+00:00",
      "valueQuantity": {
        "value": 0.8,
        "unit": "mg/dL",
        "system": "http://unitsofmeasure.org",
        "code": "mg/dL"
      }
    },
    "request": {
      "method": "PUT",
      "url": "Observation/0878bf98-c538-4ff7-ba58-52c50d635d53"
    }
  }, {
    "fullUrl": "https://madie.cms.gov/Observation/fc02cf8e-2f69-4e34-ae6a-47a399f4e137",
    "resource": {
      "resourceType": "Observation",
      "id": "fc02cf8e-2f69-4e34-ae6a-47a399f4e137",
      "meta": {
        "profile": [ "http://hl7.org/fhir/us/qicore/StructureDefinition/qicore-observation-lab" ]
      },
      "status": "final",
      "category": [ {
        "coding": [ {
          "system": "http://terminology.hl7.org/CodeSystem/observation-category",
          "code": "laboratory",
          "display": "Laboratory"
        } ]
      } ],
      "code": {
        "coding": [ {
          "system": "http://loinc.org",
          "version": "2.72",
          "code": "2160-0",
          "display": "Creatinine [Mass/volume] in Serum or Plasma",
          "userSelected": true
        } ]
      },
      "subject": {
        "reference": "Patient/143372f5-cf0d-420f-a55c-63e0c74e8013"
      },
      "effectiveDateTime": "2026-09-29T07:35:00.000+00:00",
      "issued": "2026-09-29T08:05:00.000+00:00",
      "valueQuantity": {
        "value": 1.6,
        "unit": "mg/dL",
        "system": "http://unitsofmeasure.org",
        "code": "mg/dL"
      }
    },
    "request": {
      "method": "PUT",
      "url": "Observation/fc02cf8e-2f69-4e34-ae6a-47a399f4e137"
    }
  }, {
    "fullUrl": "https://madie.cms.gov/Encounter/f2320a8a-9192-4dcd-a535-55555cbec74c",
    "resource": {
      "resourceType": "Encounter",
      "id": "f2320a8a-9192-4dcd-a535-55555cbec74c",
      "meta": {
        "profile": [ "http://hl7.org/fhir/us/qicore/StructureDefinition/qicore-encounter" ]
      },
      "status": "finished",
      "class": {
        "system": "http://terminology.hl7.org/CodeSystem/v3-ActCode",
        "code": "IMP",
        "display": "inpatient encounter"
      },
      "type": [ {
        "coding": [ {
          "system": "http://snomed.info/sct",
          "code": "183452005"
        } ]
      } ],
      "subject": {
        "reference": "Patient/143372f5-cf0d-420f-a55c-63e0c74e8013"
      },
      "period": {
        "start": "2026-09-29T08:00:00.000+00:00",
        "end": "2026-10-03T20:00:00.000+00:00"
      }
    },
    "request": {
      "method": "PUT",
      "url": "Encounter/f2320a8a-9192-4dcd-a535-55555cbec74c"
    }
  }, {
    "fullUrl": "https://madie.cms.gov/Observation/193daab3-3fa4-457b-8268-d1c759e7ab8a",
    "resource": {
      "resourceType": "Observation",
      "id": "193daab3-3fa4-457b-8268-d1c759e7ab8a",
      "meta": {
        "profile": [ "http://hl7.org/fhir/us/qicore/StructureDefinition/qicore-observation-lab" ]
      },
      "status": "final",
      "category": [ {
        "coding": [ {
          "system": "http://terminology.hl7.org/CodeSystem/observation-category",
          "code": "laboratory",
          "display": "Laboratory"
        } ]
      } ],
      "code": {
        "coding": [ {
          "system": "http://loinc.org",
          "version": "2.72",
          "code": "2160-0",
          "display": "Creatinine [Mass/volume] in Serum or Plasma",
          "userSelected": true
        } ]
      },
      "subject": {
        "reference": "Patient/143372f5-cf0d-420f-a55c-63e0c74e8013"
      },
      "effectiveDateTime": "2026-09-29T08:01:00.000+00:00",
      "issued": "2026-09-29T08:31:00.000+00:00",
      "valueQuantity": {
        "value": 1.1,
        "unit": "mg/dL",
        "system": "http://unitsofmeasure.org",
        "code": "mg/dL"
      }
    },
    "request": {
      "method": "PUT",
      "url": "Observation/193daab3-3fa4-457b-8268-d1c759e7ab8a"
    }
  }, {
    "fullUrl": "https://madie.cms.gov/Organization/be9f43e3-6c3f-4410-aed8-7a39be7bcf3b",
    "resource": {
      "resourceType": "Organization",
      "id": "be9f43e3-6c3f-4410-aed8-7a39be7bcf3b",
      "meta": {
        "profile": [ "http://hl7.org/fhir/us/qicore/StructureDefinition/qicore-organization" ]
      },
      "identifier": [ {
        "use": "temp",
        "system": "urn:oid:2.16.840.1.113883.4.4",
        "value": "21-3259825"
      } ],
      "active": true,
      "type": [ {
        "coding": [ {
          "system": "http://terminology.hl7.org/CodeSystem/organization-type",
          "code": "pay",
          "display": "Payer"
        } ]
      } ],
      "name": "Blue Cross Blue Shield of Texas",
      "telecom": [ {
        "system": "phone",
        "value": "(+1) 972-766-6900"
      } ],
      "address": [ {
        "use": "billing",
        "type": "postal",
        "line": [ "P.O. Box 660044" ],
        "city": "Dallas",
        "state": "TX",
        "postalCode": "75266-0044",
        "country": "USA"
      } ]
    },
    "request": {
      "method": "PUT",
      "url": "Organization/be9f43e3-6c3f-4410-aed8-7a39be7bcf3b"
    }
  }, {
    "fullUrl": "https://madie.cms.gov/Observation/5362848b-ddc2-40c7-92a4-2e67462c7407",
    "resource": {
      "resourceType": "Observation",
      "id": "5362848b-ddc2-40c7-92a4-2e67462c7407",
      "meta": {
        "profile": [ "http://hl7.org/fhir/us/qicore/StructureDefinition/qicore-observation-lab" ]
      },
      "status": "final",
      "category": [ {
        "coding": [ {
          "system": "http://terminology.hl7.org/CodeSystem/observation-category",
          "code": "laboratory",
          "display": "Laboratory"
        } ]
      } ],
      "code": {
        "coding": [ {
          "system": "http://loinc.org",
          "code": "2160-0",
          "display": "Creatinine [Mass/volume] in Serum or Plasma"
        } ]
      },
      "subject": {
        "reference": "Patient/143372f5-cf0d-420f-a55c-63e0c74e8013"
      },
      "effectiveDateTime": "2026-09-29T07:00:00.000+00:00",
      "issued": "2026-09-29T07:30:00.000+00:00",
      "valueQuantity": {
        "value": 0.9,
        "unit": "mg/dL",
        "system": "http://unitsofmeasure.org",
        "code": "mg/dL"
      }
    },
    "request": {
      "method": "PUT",
      "url": "Observation/5362848b-ddc2-40c7-92a4-2e67462c7407"
    }
  }, {
    "fullUrl": "https://madie.cms.gov/MeasureReport/7f1b406c-e018-4176-b0e8-1b6ef438e2a3",
    "resource": {
      "resourceType": "MeasureReport",
      "id": "7f1b406c-e018-4176-b0e8-1b6ef438e2a3",
      "meta": {
        "profile": [ "http://hl7.org/fhir/us/cqfmeasures/StructureDefinition/test-case-cqfm" ]
      },
      "contained": [ {
        "resourceType": "Parameters",
        "id": "e0d2d3db-85bd-48de-9693-64eec69dd214-parameters",
        "parameter": [ {
          "name": "subject",
          "valueString": "143372f5-cf0d-420f-a55c-63e0c74e8013"
        } ]
      } ],
      "extension": [ {
        "url": "http://hl7.org/fhir/StructureDefinition/cqf-inputParameters",
        "valueReference": {
          "reference": "#e0d2d3db-85bd-48de-9693-64eec69dd214-parameters"
        }
      }, {
        "url": "http://hl7.org/fhir/us/cqfmeasures/StructureDefinition/cqfm-testCaseDescription",
        "valueMarkdown": "Not 18 on INPT admission\nVScode: Initial Population=[]"
      } ],
      "modifierExtension": [ {
        "url": "http://hl7.org/fhir/us/cqfmeasures/StructureDefinition/cqfm-isTestCase",
        "valueBoolean": true
      } ],
      "status": "complete",
      "type": "individual",
      "measure": "https://madie.cms.gov/Measure/CMS832FHIRHHAKI",
      "period": {
        "start": "2026-01-01",
        "end": "2026-12-31"
      },
      "group": [ {
        "id": "Group_1",
        "population": [ {
          "id": "InitialPopulation_1",
          "code": {
            "coding": [ {
              "system": "http://terminology.hl7.org/CodeSystem/measure-population",
              "code": "initial-population",
              "display": "Initial Population"
            } ]
          },
          "count": 0
        }, {
          "id": "Denominator_1",
          "code": {
            "coding": [ {
              "system": "http://terminology.hl7.org/CodeSystem/measure-population",
              "code": "denominator",
              "display": "Denominator"
            } ]
          },
          "count": 0
        }, {
          "id": "DenominatorExclusion_1",
          "code": {
            "coding": [ {
              "system": "http://terminology.hl7.org/CodeSystem/measure-population",
              "code": "denominator-exclusion",
              "display": "Denominator Exclusion"
            } ]
          },
          "count": 0
        }, {
          "id": "Numerator_1",
          "code": {
            "coding": [ {
              "system": "http://terminology.hl7.org/CodeSystem/measure-population",
              "code": "numerator",
              "display": "Numerator"
            } ]
          },
          "count": 0
        } ],
        "measureScore": {
          "value": 0.0
        }
      } ],
      "evaluatedResource": [ {
        "reference": "Coverage/2c5cfb24-7e3d-486a-b66f-bddfa996f06a"
      }, {
        "reference": "Observation/300cf680-b0c9-4bd9-8841-cdb2c8df7214"
      }, {
        "reference": "Patient/143372f5-cf0d-420f-a55c-63e0c74e8013"
      }, {
        "reference": "MedicationAdministration/619d1ff6-d1f1-48e0-bfa4-b399723e0381"
      }, {
        "reference": "Encounter/d746b8e2-f941-4859-9a31-af1ba8ee1eaf"
      }, {
        "reference": "Observation/0878bf98-c538-4ff7-ba58-52c50d635d53"
      }, {
        "reference": "Observation/fc02cf8e-2f69-4e34-ae6a-47a399f4e137"
      }, {
        "reference": "Encounter/f2320a8a-9192-4dcd-a535-55555cbec74c"
      }, {
        "reference": "Observation/193daab3-3fa4-457b-8268-d1c759e7ab8a"
      }, {
        "reference": "Organization/be9f43e3-6c3f-4410-aed8-7a39be7bcf3b"
      }, {
        "reference": "Observation/5362848b-ddc2-40c7-92a4-2e67462c7407"
      } ]
    },
    "request": {
      "method": "PUT",
      "url": "MeasureReport/7f1b406c-e018-4176-b0e8-1b6ef438e2a3"
    }
  } ]
}