{
  "resourceType": "Bundle",
  "id": "NUMERPass-EncDuringInitiationPhase",
  "type": "transaction",
  "entry": [ {
    "fullUrl": "https://madie.cms.gov/Patient/c16f791c-c333-4050-bcb3-e069df87c5d5",
    "resource": {
      "resourceType": "Patient",
      "id": "c16f791c-c333-4050-bcb3-e069df87c5d5",
      "meta": {
        "profile": [ "http://hl7.org/fhir/us/qicore/StructureDefinition/qicore-patient" ]
      },
      "extension": [ {
        "url": "http://hl7.org/fhir/us/core/StructureDefinition/us-core-race",
        "extension": [ {
          "url": "ombCategory",
          "valueCoding": {
            "system": "urn:oid:2.16.840.1.113883.6.238",
            "code": "2028-9",
            "display": "Asian"
          }
        }, {
          "url": "text",
          "valueString": "Asian"
        } ]
      }, {
        "url": "http://hl7.org/fhir/us/core/StructureDefinition/us-core-ethnicity",
        "extension": [ {
          "url": "ombCategory",
          "valueCoding": {
            "system": "urn:oid:2.16.840.1.113883.6.238",
            "code": "2135-2",
            "display": "Hispanic or Latino"
          }
        }, {
          "url": "text",
          "valueString": "Hispanic or Latino"
        } ]
      } ],
      "identifier": [ {
        "system": "http://hospital.smarthealthit.org",
        "value": "999999995"
      } ],
      "name": [ {
        "family": "Bertha",
        "given": [ "Betty" ]
      } ],
      "gender": "female",
      "birthDate": "2017-12-31"
    },
    "request": {
      "method": "PUT",
      "url": "Patient/c16f791c-c333-4050-bcb3-e069df87c5d5"
    }
  }, {
    "fullUrl": "https://madie.cms.gov/Encounter/ad29ee33-40cf-4ac4-bbb4-4f5e31535fbe",
    "resource": {
      "resourceType": "Encounter",
      "id": "ad29ee33-40cf-4ac4-bbb4-4f5e31535fbe",
      "meta": {
        "profile": [ "http://hl7.org/fhir/us/qicore/StructureDefinition/qicore-encounter" ]
      },
      "status": "finished",
      "class": {
        "system": "http://terminology.hl7.org/CodeSystem/v3-ActCode",
        "code": "AMB",
        "display": "ambulatory"
      },
      "type": [ {
        "coding": [ {
          "system": "http://snomed.info/sct",
          "code": "185464004",
          "display": "Out of hours visit - not night visit (procedure)"
        } ]
      } ],
      "subject": {
        "reference": "Patient/c16f791c-c333-4050-bcb3-e069df87c5d5"
      },
      "period": {
        "start": "2026-01-01T00:00:00.000+00:00",
        "end": "2026-01-01T01:00:00.000+00:00"
      }
    },
    "request": {
      "method": "PUT",
      "url": "Encounter/ad29ee33-40cf-4ac4-bbb4-4f5e31535fbe"
    }
  }, {
    "fullUrl": "https://madie.cms.gov/MedicationRequest/50bd8e65-c69e-4b88-9996-ebe7b41b1dce",
    "resource": {
      "resourceType": "MedicationRequest",
      "id": "50bd8e65-c69e-4b88-9996-ebe7b41b1dce",
      "meta": {
        "profile": [ "http://hl7.org/fhir/us/qicore/StructureDefinition/qicore-medicationrequest" ]
      },
      "status": "completed",
      "intent": "order",
      "medicationCodeableConcept": {
        "coding": [ {
          "system": "http://www.nlm.nih.gov/research/umls/rxnorm",
          "code": "884173",
          "display": "clonidine hydrochloride 0.1 MG Oral Tablet"
        } ]
      },
      "subject": {
        "reference": "Patient/c16f791c-c333-4050-bcb3-e069df87c5d5"
      },
      "authoredOn": "2026-01-01T00:00:00.000+00:00",
      "requester": {
        "reference": "Practitioner/example"
      },
      "dosageInstruction": [ {
        "timing": {
          "repeat": {
            "boundsPeriod": {
              "start": "2026-01-01T00:00:00.000+00:00",
              "end": "2026-03-31T23:59:59.000+00:00"
            }
          }
        }
      } ],
      "dispenseRequest": {
        "expectedSupplyDuration": {
          "value": 90,
          "system": "http://unitsofmeasure.org",
          "code": "d"
        }
      }
    },
    "request": {
      "method": "PUT",
      "url": "MedicationRequest/50bd8e65-c69e-4b88-9996-ebe7b41b1dce"
    }
  }, {
    "fullUrl": "https://madie.cms.gov/Encounter/405568a9-5a2c-46e2-b1be-1d9b84b11182",
    "resource": {
      "resourceType": "Encounter",
      "id": "405568a9-5a2c-46e2-b1be-1d9b84b11182",
      "meta": {
        "profile": [ "http://hl7.org/fhir/us/qicore/StructureDefinition/qicore-encounter" ]
      },
      "status": "finished",
      "class": {
        "system": "http://terminology.hl7.org/CodeSystem/v3-ActCode",
        "code": "AMB",
        "display": "ambulatory"
      },
      "type": [ {
        "coding": [ {
          "system": "http://www.ama-assn.org/go/cpt",
          "code": "90791",
          "display": "Psychiatric diagnostic evaluation"
        } ]
      } ],
      "subject": {
        "reference": "Patient/c16f791c-c333-4050-bcb3-e069df87c5d5"
      },
      "period": {
        "start": "2026-01-31T00:00:00.000+00:00",
        "end": "2026-01-31T01:00:00.000+00:00"
      }
    },
    "request": {
      "method": "PUT",
      "url": "Encounter/405568a9-5a2c-46e2-b1be-1d9b84b11182"
    }
  }, {
    "fullUrl": "https://madie.cms.gov/MeasureReport/05ac88bb-2b10-48bb-be63-35afdd7df7c0",
    "resource": {
      "resourceType": "MeasureReport",
      "id": "05ac88bb-2b10-48bb-be63-35afdd7df7c0",
      "meta": {
        "profile": [ "http://hl7.org/fhir/us/cqfmeasures/StructureDefinition/test-case-cqfm" ]
      },
      "contained": [ {
        "resourceType": "Parameters",
        "id": "7cb91633-d99c-4c54-b091-2ce89a6b0532-parameters",
        "parameter": [ {
          "name": "subject",
          "valueString": "c16f791c-c333-4050-bcb3-e069df87c5d5"
        } ]
      } ],
      "extension": [ {
        "url": "http://hl7.org/fhir/StructureDefinition/cqf-inputParameters",
        "valueReference": {
          "reference": "#7cb91633-d99c-4c54-b091-2ce89a6b0532-parameters"
        }
      }, {
        "url": "http://hl7.org/fhir/us/cqfmeasures/StructureDefinition/cqfm-testCaseDescription",
        "valueMarkdown": "Numerator encounter during initiation phase"
      } ],
      "modifierExtension": [ {
        "url": "http://hl7.org/fhir/us/cqfmeasures/StructureDefinition/cqfm-isTestCase",
        "valueBoolean": true
      } ],
      "status": "complete",
      "type": "individual",
      "measure": "https://madie.cms.gov/Measure/CMS136FHIRChildADHDMedFollowUp",
      "period": {
        "start": "2026-01-01",
        "end": "2026-12-31"
      },
      "group": [ {
        "id": "Group_1",
        "population": [ {
          "id": "InitialPopulation_1",
          "code": {
            "coding": [ {
              "system": "http://terminology.hl7.org/CodeSystem/measure-population",
              "code": "initial-population",
              "display": "Initial Population"
            } ]
          },
          "count": 1
        }, {
          "id": "Denominator_1",
          "code": {
            "coding": [ {
              "system": "http://terminology.hl7.org/CodeSystem/measure-population",
              "code": "denominator",
              "display": "Denominator"
            } ]
          },
          "count": 1
        }, {
          "id": "DenominatorExclusion_1",
          "code": {
            "coding": [ {
              "system": "http://terminology.hl7.org/CodeSystem/measure-population",
              "code": "denominator-exclusion",
              "display": "Denominator Exclusion"
            } ]
          },
          "count": 0
        }, {
          "id": "Numerator_1",
          "code": {
            "coding": [ {
              "system": "http://terminology.hl7.org/CodeSystem/measure-population",
              "code": "numerator",
              "display": "Numerator"
            } ]
          },
          "count": 1
        } ],
        "measureScore": {
          "value": 1.0
        }
      }, {
        "id": "Group_2",
        "population": [ {
          "id": "InitialPopulation_2",
          "code": {
            "coding": [ {
              "system": "http://terminology.hl7.org/CodeSystem/measure-population",
              "code": "initial-population",
              "display": "Initial Population"
            } ]
          },
          "count": 0
        }, {
          "id": "Denominator_2",
          "code": {
            "coding": [ {
              "system": "http://terminology.hl7.org/CodeSystem/measure-population",
              "code": "denominator",
              "display": "Denominator"
            } ]
          },
          "count": 0
        }, {
          "id": "DenominatorExclusion_2",
          "code": {
            "coding": [ {
              "system": "http://terminology.hl7.org/CodeSystem/measure-population",
              "code": "denominator-exclusion",
              "display": "Denominator Exclusion"
            } ]
          },
          "count": 0
        }, {
          "id": "Numerator_2",
          "code": {
            "coding": [ {
              "system": "http://terminology.hl7.org/CodeSystem/measure-population",
              "code": "numerator",
              "display": "Numerator"
            } ]
          },
          "count": 0
        } ],
        "measureScore": {
          "value": 1.0
        }
      } ],
      "evaluatedResource": [ {
        "reference": "Patient/c16f791c-c333-4050-bcb3-e069df87c5d5"
      }, {
        "reference": "Encounter/ad29ee33-40cf-4ac4-bbb4-4f5e31535fbe"
      }, {
        "reference": "MedicationRequest/50bd8e65-c69e-4b88-9996-ebe7b41b1dce"
      }, {
        "reference": "Encounter/405568a9-5a2c-46e2-b1be-1d9b84b11182"
      } ]
    },
    "request": {
      "method": "PUT",
      "url": "MeasureReport/05ac88bb-2b10-48bb-be63-35afdd7df7c0"
    }
  } ]
}