{
  "resourceType": "Bundle",
  "id": "NUMERPass-AllVaccines",
  "type": "transaction",
  "entry": [ {
    "fullUrl": "https://madie.cms.gov/Patient/6d067136-ea2a-4ff3-a8bf-54ea13fcd261",
    "resource": {
      "resourceType": "Patient",
      "id": "6d067136-ea2a-4ff3-a8bf-54ea13fcd261",
      "meta": {
        "profile": [ "http://hl7.org/fhir/us/qicore/StructureDefinition/qicore-patient" ]
      },
      "extension": [ {
        "url": "http://hl7.org/fhir/us/core/StructureDefinition/us-core-race",
        "extension": [ {
          "url": "ombCategory",
          "valueCoding": {
            "system": "urn:oid:2.16.840.1.113883.6.238",
            "code": "2028-9",
            "display": "Asian"
          }
        }, {
          "url": "text",
          "valueString": "Asian"
        } ]
      }, {
        "url": "http://hl7.org/fhir/us/core/StructureDefinition/us-core-ethnicity",
        "extension": [ {
          "url": "ombCategory",
          "valueCoding": {
            "system": "urn:oid:2.16.840.1.113883.6.238",
            "code": "2135-2",
            "display": "Hispanic or Latino"
          }
        }, {
          "url": "text",
          "valueString": "Hispanic or Latino"
        } ]
      } ],
      "identifier": [ {
        "system": "http://hospital.smarthealthit.org",
        "value": "999999995"
      } ],
      "name": [ {
        "family": "Bertha",
        "given": [ "Betty" ]
      } ],
      "gender": "female",
      "birthDate": "2024-01-01"
    },
    "request": {
      "method": "PUT",
      "url": "Patient/6d067136-ea2a-4ff3-a8bf-54ea13fcd261"
    }
  }, {
    "fullUrl": "https://madie.cms.gov/Encounter/87f8b868-a459-426d-b28a-36b39543067e",
    "resource": {
      "resourceType": "Encounter",
      "id": "87f8b868-a459-426d-b28a-36b39543067e",
      "meta": {
        "profile": [ "http://hl7.org/fhir/us/qicore/StructureDefinition/qicore-encounter" ]
      },
      "status": "finished",
      "class": {
        "system": "http://terminology.hl7.org/CodeSystem/v3-ActCode",
        "code": "AMB",
        "display": "ambulatory"
      },
      "type": [ {
        "coding": [ {
          "system": "http://snomed.info/sct",
          "code": "185317003",
          "display": "Telephone encounter (procedure)"
        } ]
      } ],
      "subject": {
        "reference": "Patient/6d067136-ea2a-4ff3-a8bf-54ea13fcd261"
      },
      "period": {
        "start": "2026-01-01T01:00:00.000+00:00",
        "end": "2026-01-01T01:15:00.000+00:00"
      }
    },
    "request": {
      "method": "PUT",
      "url": "Encounter/87f8b868-a459-426d-b28a-36b39543067e"
    }
  }, {
    "fullUrl": "https://madie.cms.gov/Immunization/a5af1194-9e1a-446f-94f1-48cf9a504063",
    "resource": {
      "resourceType": "Immunization",
      "id": "a5af1194-9e1a-446f-94f1-48cf9a504063",
      "meta": {
        "profile": [ "http://hl7.org/fhir/us/qicore/StructureDefinition/qicore-immunization" ]
      },
      "status": "completed",
      "vaccineCode": {
        "coding": [ {
          "system": "http://hl7.org/fhir/sid/cvx",
          "code": "146",
          "display": "DTaP,IPV,Hib,HepB"
        } ]
      },
      "patient": {
        "reference": "Patient/6d067136-ea2a-4ff3-a8bf-54ea13fcd261"
      },
      "occurrenceDateTime": "2025-01-02T00:00:00.000+00:00",
      "recorded": "2025-01-02T00:00:00.000+00:00",
      "primarySource": true
    },
    "request": {
      "method": "PUT",
      "url": "Immunization/a5af1194-9e1a-446f-94f1-48cf9a504063"
    }
  }, {
    "fullUrl": "https://madie.cms.gov/Immunization/4e4254eb-194b-4305-8184-539d46975aa5",
    "resource": {
      "resourceType": "Immunization",
      "id": "4e4254eb-194b-4305-8184-539d46975aa5",
      "meta": {
        "profile": [ "http://hl7.org/fhir/us/qicore/StructureDefinition/qicore-immunization" ]
      },
      "status": "completed",
      "vaccineCode": {
        "coding": [ {
          "system": "http://hl7.org/fhir/sid/cvx",
          "code": "146",
          "display": "DTaP,IPV,Hib,HepB"
        } ]
      },
      "patient": {
        "reference": "Patient/6d067136-ea2a-4ff3-a8bf-54ea13fcd261"
      },
      "occurrenceDateTime": "2025-01-05T00:00:00.000+00:00",
      "recorded": "2025-01-02T00:00:00.000+00:00",
      "primarySource": true
    },
    "request": {
      "method": "PUT",
      "url": "Immunization/4e4254eb-194b-4305-8184-539d46975aa5"
    }
  }, {
    "fullUrl": "https://madie.cms.gov/Immunization/31e1c26b-ef32-46f9-a47b-78405db979d8",
    "resource": {
      "resourceType": "Immunization",
      "id": "31e1c26b-ef32-46f9-a47b-78405db979d8",
      "meta": {
        "profile": [ "http://hl7.org/fhir/us/qicore/StructureDefinition/qicore-immunization" ]
      },
      "status": "completed",
      "vaccineCode": {
        "coding": [ {
          "system": "http://hl7.org/fhir/sid/cvx",
          "code": "146",
          "display": "DTaP,IPV,Hib,HepB"
        } ]
      },
      "patient": {
        "reference": "Patient/6d067136-ea2a-4ff3-a8bf-54ea13fcd261"
      },
      "occurrenceDateTime": "2025-01-07T00:00:00.000+00:00",
      "recorded": "2025-01-02T00:00:00.000+00:00",
      "primarySource": true
    },
    "request": {
      "method": "PUT",
      "url": "Immunization/31e1c26b-ef32-46f9-a47b-78405db979d8"
    }
  }, {
    "fullUrl": "https://madie.cms.gov/Immunization/52a39684-7d4c-462b-bb38-a1bb9f39d06e",
    "resource": {
      "resourceType": "Immunization",
      "id": "52a39684-7d4c-462b-bb38-a1bb9f39d06e",
      "meta": {
        "profile": [ "http://hl7.org/fhir/us/qicore/StructureDefinition/qicore-immunization" ]
      },
      "status": "completed",
      "vaccineCode": {
        "coding": [ {
          "system": "http://hl7.org/fhir/sid/cvx",
          "code": "146",
          "display": "DTaP,IPV,Hib,HepB"
        } ]
      },
      "patient": {
        "reference": "Patient/6d067136-ea2a-4ff3-a8bf-54ea13fcd261"
      },
      "occurrenceDateTime": "2025-01-10T00:00:00.000+00:00",
      "recorded": "2025-01-02T00:00:00.000+00:00",
      "primarySource": true
    },
    "request": {
      "method": "PUT",
      "url": "Immunization/52a39684-7d4c-462b-bb38-a1bb9f39d06e"
    }
  }, {
    "fullUrl": "https://madie.cms.gov/Immunization/e2a19a63-8ee8-4a43-bf27-999224b0f3ea",
    "resource": {
      "resourceType": "Immunization",
      "id": "e2a19a63-8ee8-4a43-bf27-999224b0f3ea",
      "meta": {
        "profile": [ "http://hl7.org/fhir/us/qicore/StructureDefinition/qicore-immunization" ]
      },
      "status": "completed",
      "vaccineCode": {
        "coding": [ {
          "system": "http://hl7.org/fhir/sid/cvx",
          "code": "146",
          "display": "DTaP,IPV,Hib,HepB"
        } ]
      },
      "patient": {
        "reference": "Patient/6d067136-ea2a-4ff3-a8bf-54ea13fcd261"
      },
      "occurrenceDateTime": "2025-01-02T00:00:00.000+00:00",
      "recorded": "2025-01-02T00:00:00.000+00:00",
      "primarySource": true
    },
    "request": {
      "method": "PUT",
      "url": "Immunization/e2a19a63-8ee8-4a43-bf27-999224b0f3ea"
    }
  }, {
    "fullUrl": "https://madie.cms.gov/Immunization/53ab3b0c-ccf5-4990-8b8c-1e355a404e9f",
    "resource": {
      "resourceType": "Immunization",
      "id": "53ab3b0c-ccf5-4990-8b8c-1e355a404e9f",
      "meta": {
        "profile": [ "http://hl7.org/fhir/us/qicore/StructureDefinition/qicore-immunization" ]
      },
      "status": "completed",
      "vaccineCode": {
        "coding": [ {
          "system": "http://hl7.org/fhir/sid/cvx",
          "code": "146",
          "display": "DTaP,IPV,Hib,HepB"
        } ]
      },
      "patient": {
        "reference": "Patient/6d067136-ea2a-4ff3-a8bf-54ea13fcd261"
      },
      "occurrenceDateTime": "2025-01-06T00:00:00.000+00:00",
      "recorded": "2025-01-02T00:00:00.000+00:00",
      "primarySource": true
    },
    "request": {
      "method": "PUT",
      "url": "Immunization/53ab3b0c-ccf5-4990-8b8c-1e355a404e9f"
    }
  }, {
    "fullUrl": "https://madie.cms.gov/Immunization/5e0e09f3-bd6f-4b1f-b074-a318e9919f8f",
    "resource": {
      "resourceType": "Immunization",
      "id": "5e0e09f3-bd6f-4b1f-b074-a318e9919f8f",
      "meta": {
        "profile": [ "http://hl7.org/fhir/us/qicore/StructureDefinition/qicore-immunization" ]
      },
      "status": "completed",
      "vaccineCode": {
        "coding": [ {
          "system": "http://hl7.org/fhir/sid/cvx",
          "code": "146",
          "display": "DTaP,IPV,Hib,HepB"
        } ]
      },
      "patient": {
        "reference": "Patient/6d067136-ea2a-4ff3-a8bf-54ea13fcd261"
      },
      "occurrenceDateTime": "2025-01-09T00:00:00.000+00:00",
      "recorded": "2025-01-02T00:00:00.000+00:00",
      "primarySource": true
    },
    "request": {
      "method": "PUT",
      "url": "Immunization/5e0e09f3-bd6f-4b1f-b074-a318e9919f8f"
    }
  }, {
    "fullUrl": "https://madie.cms.gov/Immunization/cc03103b-fa87-4405-97f8-eab76a5b94f5",
    "resource": {
      "resourceType": "Immunization",
      "id": "cc03103b-fa87-4405-97f8-eab76a5b94f5",
      "meta": {
        "profile": [ "http://hl7.org/fhir/us/qicore/StructureDefinition/qicore-immunization" ]
      },
      "status": "completed",
      "vaccineCode": {
        "coding": [ {
          "system": "http://hl7.org/fhir/sid/cvx",
          "code": "94",
          "display": "measles, mumps, rubella, and varicella virus vaccine"
        } ]
      },
      "patient": {
        "reference": "Patient/6d067136-ea2a-4ff3-a8bf-54ea13fcd261"
      },
      "occurrenceDateTime": "2025-01-02T00:00:00.000+00:00",
      "recorded": "2025-01-02T00:00:00.000+00:00",
      "primarySource": true
    },
    "request": {
      "method": "PUT",
      "url": "Immunization/cc03103b-fa87-4405-97f8-eab76a5b94f5"
    }
  }, {
    "fullUrl": "https://madie.cms.gov/Immunization/8153c612-ad87-4504-ba8a-b66d63afaf8c",
    "resource": {
      "resourceType": "Immunization",
      "id": "8153c612-ad87-4504-ba8a-b66d63afaf8c",
      "meta": {
        "profile": [ "http://hl7.org/fhir/us/qicore/StructureDefinition/qicore-immunization" ]
      },
      "status": "completed",
      "vaccineCode": {
        "coding": [ {
          "system": "http://hl7.org/fhir/sid/cvx",
          "code": "49",
          "display": "Haemophilus influenzae type b vaccine, PRP-OMP conjugate"
        } ]
      },
      "patient": {
        "reference": "Patient/6d067136-ea2a-4ff3-a8bf-54ea13fcd261"
      },
      "occurrenceDateTime": "2025-01-02T00:00:00.000+00:00",
      "recorded": "2025-01-02T00:00:00.000+00:00",
      "primarySource": true
    },
    "request": {
      "method": "PUT",
      "url": "Immunization/8153c612-ad87-4504-ba8a-b66d63afaf8c"
    }
  }, {
    "fullUrl": "https://madie.cms.gov/Immunization/4634411b-37b9-407c-a0dc-99986480955e",
    "resource": {
      "resourceType": "Immunization",
      "id": "4634411b-37b9-407c-a0dc-99986480955e",
      "meta": {
        "profile": [ "http://hl7.org/fhir/us/qicore/StructureDefinition/qicore-immunization" ]
      },
      "status": "completed",
      "vaccineCode": {
        "coding": [ {
          "system": "http://hl7.org/fhir/sid/cvx",
          "code": "49",
          "display": "Haemophilus influenzae type b vaccine, PRP-OMP conjugate"
        } ]
      },
      "patient": {
        "reference": "Patient/6d067136-ea2a-4ff3-a8bf-54ea13fcd261"
      },
      "occurrenceDateTime": "2025-01-02T00:00:00.000+00:00",
      "recorded": "2025-01-02T00:00:00.000+00:00",
      "primarySource": true
    },
    "request": {
      "method": "PUT",
      "url": "Immunization/4634411b-37b9-407c-a0dc-99986480955e"
    }
  }, {
    "fullUrl": "https://madie.cms.gov/Immunization/209b3732-19cb-48ea-af37-3923e4f46b4c",
    "resource": {
      "resourceType": "Immunization",
      "id": "209b3732-19cb-48ea-af37-3923e4f46b4c",
      "meta": {
        "profile": [ "http://hl7.org/fhir/us/qicore/StructureDefinition/qicore-immunization" ]
      },
      "status": "completed",
      "vaccineCode": {
        "coding": [ {
          "system": "http://hl7.org/fhir/sid/cvx",
          "code": "49",
          "display": "Haemophilus influenzae type b vaccine, PRP-OMP conjugate"
        } ]
      },
      "patient": {
        "reference": "Patient/6d067136-ea2a-4ff3-a8bf-54ea13fcd261"
      },
      "occurrenceDateTime": "2025-01-02T00:00:00.000+00:00",
      "recorded": "2025-01-02T00:00:00.000+00:00",
      "primarySource": true
    },
    "request": {
      "method": "PUT",
      "url": "Immunization/209b3732-19cb-48ea-af37-3923e4f46b4c"
    }
  }, {
    "fullUrl": "https://madie.cms.gov/Immunization/8c61780e-b3cf-4dab-9f81-084a998d9cc5",
    "resource": {
      "resourceType": "Immunization",
      "id": "8c61780e-b3cf-4dab-9f81-084a998d9cc5",
      "meta": {
        "profile": [ "http://hl7.org/fhir/us/qicore/StructureDefinition/qicore-immunization" ]
      },
      "status": "completed",
      "vaccineCode": {
        "coding": [ {
          "system": "http://hl7.org/fhir/sid/cvx",
          "code": "51",
          "display": "Haemophilus influenzae type b conjugate and Hepatitis B vaccine"
        } ]
      },
      "patient": {
        "reference": "Patient/6d067136-ea2a-4ff3-a8bf-54ea13fcd261"
      },
      "occurrenceDateTime": "2025-01-02T00:00:00.000+00:00",
      "recorded": "2025-01-02T00:00:00.000+00:00",
      "primarySource": true
    },
    "request": {
      "method": "PUT",
      "url": "Immunization/8c61780e-b3cf-4dab-9f81-084a998d9cc5"
    }
  }, {
    "fullUrl": "https://madie.cms.gov/Immunization/61454b5b-c981-48f0-a160-32cc872d5813",
    "resource": {
      "resourceType": "Immunization",
      "id": "61454b5b-c981-48f0-a160-32cc872d5813",
      "meta": {
        "profile": [ "http://hl7.org/fhir/us/qicore/StructureDefinition/qicore-immunization" ]
      },
      "status": "completed",
      "vaccineCode": {
        "coding": [ {
          "system": "http://hl7.org/fhir/sid/cvx",
          "code": "51",
          "display": "Haemophilus influenzae type b conjugate and Hepatitis B vaccine"
        } ]
      },
      "patient": {
        "reference": "Patient/6d067136-ea2a-4ff3-a8bf-54ea13fcd261"
      },
      "occurrenceDateTime": "2025-01-10T00:00:00.000+00:00",
      "recorded": "2025-01-02T00:00:00.000+00:00",
      "primarySource": true
    },
    "request": {
      "method": "PUT",
      "url": "Immunization/61454b5b-c981-48f0-a160-32cc872d5813"
    }
  }, {
    "fullUrl": "https://madie.cms.gov/Immunization/5e8dacdf-94ae-4d6f-b32c-08550f801eae",
    "resource": {
      "resourceType": "Immunization",
      "id": "5e8dacdf-94ae-4d6f-b32c-08550f801eae",
      "meta": {
        "profile": [ "http://hl7.org/fhir/us/qicore/StructureDefinition/qicore-immunization" ]
      },
      "status": "completed",
      "vaccineCode": {
        "coding": [ {
          "system": "http://hl7.org/fhir/sid/cvx",
          "code": "51",
          "display": "Haemophilus influenzae type b conjugate and Hepatitis B vaccine"
        } ]
      },
      "patient": {
        "reference": "Patient/6d067136-ea2a-4ff3-a8bf-54ea13fcd261"
      },
      "occurrenceDateTime": "2025-01-12T00:00:00.000+00:00",
      "recorded": "2025-01-02T00:00:00.000+00:00",
      "primarySource": true
    },
    "request": {
      "method": "PUT",
      "url": "Immunization/5e8dacdf-94ae-4d6f-b32c-08550f801eae"
    }
  }, {
    "fullUrl": "https://madie.cms.gov/Immunization/568b6a62-2693-4ca5-ba67-872d62c7ebe9",
    "resource": {
      "resourceType": "Immunization",
      "id": "568b6a62-2693-4ca5-ba67-872d62c7ebe9",
      "meta": {
        "profile": [ "http://hl7.org/fhir/us/qicore/StructureDefinition/qicore-immunization" ]
      },
      "status": "completed",
      "vaccineCode": {
        "coding": [ {
          "system": "http://hl7.org/fhir/sid/cvx",
          "code": "94",
          "display": "measles, mumps, rubella, and varicella virus vaccine"
        } ]
      },
      "patient": {
        "reference": "Patient/6d067136-ea2a-4ff3-a8bf-54ea13fcd261"
      },
      "occurrenceDateTime": "2025-01-02T00:00:00.000+00:00",
      "recorded": "2025-01-02T00:00:00.000+00:00",
      "primarySource": true
    },
    "request": {
      "method": "PUT",
      "url": "Immunization/568b6a62-2693-4ca5-ba67-872d62c7ebe9"
    }
  }, {
    "fullUrl": "https://madie.cms.gov/Immunization/46114d80-718e-4302-b87e-67be2cb2159e",
    "resource": {
      "resourceType": "Immunization",
      "id": "46114d80-718e-4302-b87e-67be2cb2159e",
      "meta": {
        "profile": [ "http://hl7.org/fhir/us/qicore/StructureDefinition/qicore-immunization" ]
      },
      "status": "completed",
      "vaccineCode": {
        "coding": [ {
          "system": "http://hl7.org/fhir/sid/cvx",
          "code": "215",
          "display": "Pneumococcal conjugate vaccine 15-valent (PCV15), polysaccharide CRM197 conjugate, adjuvant, preservative free"
        } ]
      },
      "patient": {
        "reference": "Patient/6d067136-ea2a-4ff3-a8bf-54ea13fcd261"
      },
      "occurrenceDateTime": "2025-01-12T00:00:00.000+00:00",
      "recorded": "2025-01-02T00:00:00.000+00:00",
      "primarySource": true
    },
    "request": {
      "method": "PUT",
      "url": "Immunization/46114d80-718e-4302-b87e-67be2cb2159e"
    }
  }, {
    "fullUrl": "https://madie.cms.gov/Immunization/2cc01939-9a39-4a83-83bd-abc04592cf76",
    "resource": {
      "resourceType": "Immunization",
      "id": "2cc01939-9a39-4a83-83bd-abc04592cf76",
      "meta": {
        "profile": [ "http://hl7.org/fhir/us/qicore/StructureDefinition/qicore-immunization" ]
      },
      "status": "completed",
      "vaccineCode": {
        "coding": [ {
          "system": "http://hl7.org/fhir/sid/cvx",
          "code": "215",
          "display": "Pneumococcal conjugate vaccine 15-valent (PCV15), polysaccharide CRM197 conjugate, adjuvant, preservative free"
        } ]
      },
      "patient": {
        "reference": "Patient/6d067136-ea2a-4ff3-a8bf-54ea13fcd261"
      },
      "occurrenceDateTime": "2025-01-14T00:00:00.000+00:00",
      "recorded": "2025-01-02T00:00:00.000+00:00",
      "primarySource": true
    },
    "request": {
      "method": "PUT",
      "url": "Immunization/2cc01939-9a39-4a83-83bd-abc04592cf76"
    }
  }, {
    "fullUrl": "https://madie.cms.gov/Immunization/e8661990-523c-48e9-b138-c7525b52d561",
    "resource": {
      "resourceType": "Immunization",
      "id": "e8661990-523c-48e9-b138-c7525b52d561",
      "meta": {
        "profile": [ "http://hl7.org/fhir/us/qicore/StructureDefinition/qicore-immunization" ]
      },
      "status": "completed",
      "vaccineCode": {
        "coding": [ {
          "system": "http://hl7.org/fhir/sid/cvx",
          "code": "215",
          "display": "Pneumococcal conjugate vaccine 15-valent (PCV15), polysaccharide CRM197 conjugate, adjuvant, preservative free"
        } ]
      },
      "patient": {
        "reference": "Patient/6d067136-ea2a-4ff3-a8bf-54ea13fcd261"
      },
      "occurrenceDateTime": "2025-01-20T00:00:00.000+00:00",
      "recorded": "2025-01-02T00:00:00.000+00:00",
      "primarySource": true
    },
    "request": {
      "method": "PUT",
      "url": "Immunization/e8661990-523c-48e9-b138-c7525b52d561"
    }
  }, {
    "fullUrl": "https://madie.cms.gov/Immunization/18e8dd9a-b07a-42c9-aa7c-ffdc7cf78f30",
    "resource": {
      "resourceType": "Immunization",
      "id": "18e8dd9a-b07a-42c9-aa7c-ffdc7cf78f30",
      "meta": {
        "profile": [ "http://hl7.org/fhir/us/qicore/StructureDefinition/qicore-immunization" ]
      },
      "status": "completed",
      "vaccineCode": {
        "coding": [ {
          "system": "http://hl7.org/fhir/sid/cvx",
          "code": "215",
          "display": "Pneumococcal conjugate vaccine 15-valent (PCV15), polysaccharide CRM197 conjugate, adjuvant, preservative free"
        } ]
      },
      "patient": {
        "reference": "Patient/6d067136-ea2a-4ff3-a8bf-54ea13fcd261"
      },
      "occurrenceDateTime": "2025-01-22T00:00:00.000+00:00",
      "recorded": "2025-01-02T00:00:00.000+00:00",
      "primarySource": true
    },
    "request": {
      "method": "PUT",
      "url": "Immunization/18e8dd9a-b07a-42c9-aa7c-ffdc7cf78f30"
    }
  }, {
    "fullUrl": "https://madie.cms.gov/Immunization/956fe1f8-2961-41be-9f16-d293e61778b2",
    "resource": {
      "resourceType": "Immunization",
      "id": "956fe1f8-2961-41be-9f16-d293e61778b2",
      "meta": {
        "profile": [ "http://hl7.org/fhir/us/qicore/StructureDefinition/qicore-immunization" ]
      },
      "status": "completed",
      "vaccineCode": {
        "coding": [ {
          "system": "http://hl7.org/fhir/sid/cvx",
          "code": "85",
          "display": "hepatitis A vaccine, unspecified formulation"
        } ]
      },
      "patient": {
        "reference": "Patient/6d067136-ea2a-4ff3-a8bf-54ea13fcd261"
      },
      "occurrenceDateTime": "2025-01-02T00:00:00.000+00:00",
      "recorded": "2025-01-02T00:00:00.000+00:00",
      "primarySource": true
    },
    "request": {
      "method": "PUT",
      "url": "Immunization/956fe1f8-2961-41be-9f16-d293e61778b2"
    }
  }, {
    "fullUrl": "https://madie.cms.gov/Immunization/492b8bdc-0559-4e74-a851-e5571799ac75",
    "resource": {
      "resourceType": "Immunization",
      "id": "492b8bdc-0559-4e74-a851-e5571799ac75",
      "meta": {
        "profile": [ "http://hl7.org/fhir/us/qicore/StructureDefinition/qicore-immunization" ]
      },
      "status": "completed",
      "vaccineCode": {
        "coding": [ {
          "system": "http://hl7.org/fhir/sid/cvx",
          "code": "119",
          "display": "rotavirus, live, monovalent vaccine"
        } ]
      },
      "patient": {
        "reference": "Patient/6d067136-ea2a-4ff3-a8bf-54ea13fcd261"
      },
      "occurrenceDateTime": "2025-01-02T00:00:00.000+00:00",
      "recorded": "2025-01-02T00:00:00.000+00:00",
      "primarySource": true
    },
    "request": {
      "method": "PUT",
      "url": "Immunization/492b8bdc-0559-4e74-a851-e5571799ac75"
    }
  }, {
    "fullUrl": "https://madie.cms.gov/Immunization/b1c529df-d408-4d19-baf1-0097f7425acd",
    "resource": {
      "resourceType": "Immunization",
      "id": "b1c529df-d408-4d19-baf1-0097f7425acd",
      "meta": {
        "profile": [ "http://hl7.org/fhir/us/qicore/StructureDefinition/qicore-immunization" ]
      },
      "status": "completed",
      "vaccineCode": {
        "coding": [ {
          "system": "http://hl7.org/fhir/sid/cvx",
          "code": "119",
          "display": "rotavirus, live, monovalent vaccine"
        } ]
      },
      "patient": {
        "reference": "Patient/6d067136-ea2a-4ff3-a8bf-54ea13fcd261"
      },
      "occurrenceDateTime": "2025-01-07T00:00:00.000+00:00",
      "recorded": "2025-01-02T00:00:00.000+00:00",
      "primarySource": true
    },
    "request": {
      "method": "PUT",
      "url": "Immunization/b1c529df-d408-4d19-baf1-0097f7425acd"
    }
  }, {
    "fullUrl": "https://madie.cms.gov/Immunization/6b442e58-3927-409b-b498-c615bbda1f6b",
    "resource": {
      "resourceType": "Immunization",
      "id": "6b442e58-3927-409b-b498-c615bbda1f6b",
      "meta": {
        "profile": [ "http://hl7.org/fhir/us/qicore/StructureDefinition/qicore-immunization" ]
      },
      "status": "completed",
      "vaccineCode": {
        "coding": [ {
          "system": "http://hl7.org/fhir/sid/cvx",
          "code": "153",
          "display": "Influenza, injectable, MDCK, preservative free"
        } ]
      },
      "patient": {
        "reference": "Patient/6d067136-ea2a-4ff3-a8bf-54ea13fcd261"
      },
      "occurrenceDateTime": "2025-01-02T00:00:00.000+00:00",
      "recorded": "2025-01-02T00:00:00.000+00:00",
      "primarySource": true
    },
    "request": {
      "method": "PUT",
      "url": "Immunization/6b442e58-3927-409b-b498-c615bbda1f6b"
    }
  }, {
    "fullUrl": "https://madie.cms.gov/Immunization/0c8ad6b8-967f-4c71-b400-bc91bd4d1fa6",
    "resource": {
      "resourceType": "Immunization",
      "id": "0c8ad6b8-967f-4c71-b400-bc91bd4d1fa6",
      "meta": {
        "profile": [ "http://hl7.org/fhir/us/qicore/StructureDefinition/qicore-immunization" ]
      },
      "status": "completed",
      "vaccineCode": {
        "coding": [ {
          "system": "http://hl7.org/fhir/sid/cvx",
          "code": "153",
          "display": "Influenza, injectable, MDCK, preservative free"
        } ]
      },
      "patient": {
        "reference": "Patient/6d067136-ea2a-4ff3-a8bf-54ea13fcd261"
      },
      "occurrenceDateTime": "2025-01-10T00:00:00.000+00:00",
      "recorded": "2025-01-02T00:00:00.000+00:00",
      "primarySource": true
    },
    "request": {
      "method": "PUT",
      "url": "Immunization/0c8ad6b8-967f-4c71-b400-bc91bd4d1fa6"
    }
  }, {
    "fullUrl": "https://madie.cms.gov/MeasureReport/602bd467-d3b9-4e68-9477-fd62d898f905",
    "resource": {
      "resourceType": "MeasureReport",
      "id": "602bd467-d3b9-4e68-9477-fd62d898f905",
      "meta": {
        "profile": [ "http://hl7.org/fhir/us/cqfmeasures/StructureDefinition/test-case-cqfm" ]
      },
      "contained": [ {
        "resourceType": "Parameters",
        "id": "581b182e-b6a3-4ca5-9200-5e3684cd1318-parameters",
        "parameter": [ {
          "name": "subject",
          "valueString": "6d067136-ea2a-4ff3-a8bf-54ea13fcd261"
        } ]
      } ],
      "extension": [ {
        "url": "http://hl7.org/fhir/StructureDefinition/cqf-inputParameters",
        "valueReference": {
          "reference": "#581b182e-b6a3-4ca5-9200-5e3684cd1318-parameters"
        }
      }, {
        "url": "http://hl7.org/fhir/us/cqfmeasures/StructureDefinition/cqfm-testCaseDescription",
        "valueMarkdown": "All vaccines met - immunizations"
      } ],
      "modifierExtension": [ {
        "url": "http://hl7.org/fhir/us/cqfmeasures/StructureDefinition/cqfm-isTestCase",
        "valueBoolean": true
      } ],
      "status": "complete",
      "type": "individual",
      "measure": "https://madie.cms.gov/Measure/CMS117FHIRChildImmunStatus",
      "period": {
        "start": "2026-01-01",
        "end": "2026-12-31"
      },
      "group": [ {
        "id": "Group_1",
        "population": [ {
          "id": "InitialPopulation_1",
          "code": {
            "coding": [ {
              "system": "http://terminology.hl7.org/CodeSystem/measure-population",
              "code": "initial-population",
              "display": "Initial Population"
            } ]
          },
          "count": 1
        }, {
          "id": "Denominator_1",
          "code": {
            "coding": [ {
              "system": "http://terminology.hl7.org/CodeSystem/measure-population",
              "code": "denominator",
              "display": "Denominator"
            } ]
          },
          "count": 1
        }, {
          "id": "DenominatorExclusion_1",
          "code": {
            "coding": [ {
              "system": "http://terminology.hl7.org/CodeSystem/measure-population",
              "code": "denominator-exclusion",
              "display": "Denominator Exclusion"
            } ]
          },
          "count": 0
        }, {
          "id": "Numerator_1",
          "code": {
            "coding": [ {
              "system": "http://terminology.hl7.org/CodeSystem/measure-population",
              "code": "numerator",
              "display": "Numerator"
            } ]
          },
          "count": 1
        } ],
        "measureScore": {
          "value": 1.0
        }
      } ],
      "evaluatedResource": [ {
        "reference": "Patient/6d067136-ea2a-4ff3-a8bf-54ea13fcd261"
      }, {
        "reference": "Encounter/87f8b868-a459-426d-b28a-36b39543067e"
      }, {
        "reference": "Immunization/a5af1194-9e1a-446f-94f1-48cf9a504063"
      }, {
        "reference": "Immunization/4e4254eb-194b-4305-8184-539d46975aa5"
      }, {
        "reference": "Immunization/31e1c26b-ef32-46f9-a47b-78405db979d8"
      }, {
        "reference": "Immunization/52a39684-7d4c-462b-bb38-a1bb9f39d06e"
      }, {
        "reference": "Immunization/e2a19a63-8ee8-4a43-bf27-999224b0f3ea"
      }, {
        "reference": "Immunization/53ab3b0c-ccf5-4990-8b8c-1e355a404e9f"
      }, {
        "reference": "Immunization/5e0e09f3-bd6f-4b1f-b074-a318e9919f8f"
      }, {
        "reference": "Immunization/cc03103b-fa87-4405-97f8-eab76a5b94f5"
      }, {
        "reference": "Immunization/8153c612-ad87-4504-ba8a-b66d63afaf8c"
      }, {
        "reference": "Immunization/4634411b-37b9-407c-a0dc-99986480955e"
      }, {
        "reference": "Immunization/209b3732-19cb-48ea-af37-3923e4f46b4c"
      }, {
        "reference": "Immunization/8c61780e-b3cf-4dab-9f81-084a998d9cc5"
      }, {
        "reference": "Immunization/61454b5b-c981-48f0-a160-32cc872d5813"
      }, {
        "reference": "Immunization/5e8dacdf-94ae-4d6f-b32c-08550f801eae"
      }, {
        "reference": "Immunization/568b6a62-2693-4ca5-ba67-872d62c7ebe9"
      }, {
        "reference": "Immunization/46114d80-718e-4302-b87e-67be2cb2159e"
      }, {
        "reference": "Immunization/2cc01939-9a39-4a83-83bd-abc04592cf76"
      }, {
        "reference": "Immunization/e8661990-523c-48e9-b138-c7525b52d561"
      }, {
        "reference": "Immunization/18e8dd9a-b07a-42c9-aa7c-ffdc7cf78f30"
      }, {
        "reference": "Immunization/956fe1f8-2961-41be-9f16-d293e61778b2"
      }, {
        "reference": "Immunization/492b8bdc-0559-4e74-a851-e5571799ac75"
      }, {
        "reference": "Immunization/b1c529df-d408-4d19-baf1-0097f7425acd"
      }, {
        "reference": "Immunization/6b442e58-3927-409b-b498-c615bbda1f6b"
      }, {
        "reference": "Immunization/0c8ad6b8-967f-4c71-b400-bc91bd4d1fa6"
      } ]
    },
    "request": {
      "method": "PUT",
      "url": "MeasureReport/602bd467-d3b9-4e68-9477-fd62d898f905"
    }
  } ]
}