{
  "resourceType": "Bundle",
  "id": "Patient-11-Fail-HospiceEncDuringMPNoDischarge",
  "type": "transaction",
  "entry": [ {
    "fullUrl": "https://madie.cms.gov/Patient/35317aef-07fd-4c19-aa61-01a0f61dfe4c",
    "resource": {
      "resourceType": "Patient",
      "id": "35317aef-07fd-4c19-aa61-01a0f61dfe4c",
      "meta": {
        "profile": [ "http://hl7.org/fhir/us/qicore/StructureDefinition/qicore-patient" ]
      },
      "extension": [ {
        "url": "http://hl7.org/fhir/us/core/StructureDefinition/us-core-race",
        "extension": [ {
          "url": "ombCategory",
          "valueCoding": {
            "system": "urn:oid:2.16.840.1.113883.6.238",
            "code": "2028-9",
            "display": "Asian"
          }
        }, {
          "url": "text",
          "valueString": "Asian"
        } ]
      }, {
        "url": "http://hl7.org/fhir/us/core/StructureDefinition/us-core-ethnicity",
        "extension": [ {
          "url": "ombCategory",
          "valueCoding": {
            "system": "urn:oid:2.16.840.1.113883.6.238",
            "code": "2135-2",
            "display": "Hispanic or Latino"
          }
        }, {
          "url": "text",
          "valueString": "Hispanic or Latino"
        } ]
      } ],
      "identifier": [ {
        "system": "http://hospital.smarthealthit.org",
        "value": "999999995"
      } ],
      "name": [ {
        "family": "Bertha",
        "given": [ "Betty" ]
      } ],
      "gender": "female",
      "birthDate": "2007-01-01"
    },
    "request": {
      "method": "PUT",
      "url": "Patient/35317aef-07fd-4c19-aa61-01a0f61dfe4c"
    }
  }, {
    "fullUrl": "https://madie.cms.gov/Encounter/5be92002-8c7d-4f50-ad35-fcad1b6f0687",
    "resource": {
      "resourceType": "Encounter",
      "id": "5be92002-8c7d-4f50-ad35-fcad1b6f0687",
      "meta": {
        "profile": [ "http://hl7.org/fhir/us/qicore/StructureDefinition/qicore-encounter" ]
      },
      "status": "finished",
      "class": {
        "system": "http://terminology.hl7.org/CodeSystem/v3-ActCode",
        "code": "AMB",
        "display": "ambulatory"
      },
      "type": [ {
        "coding": [ {
          "system": "http://snomed.info/sct",
          "code": "3391000175108",
          "display": "Office visit for pediatric care and assessment (procedure)"
        } ]
      } ],
      "subject": {
        "reference": "Patient/35317aef-07fd-4c19-aa61-01a0f61dfe4c"
      },
      "period": {
        "start": "2026-01-01T00:00:00.000+00:00",
        "end": "2026-01-01T01:00:00.000+00:00"
      }
    },
    "request": {
      "method": "PUT",
      "url": "Encounter/5be92002-8c7d-4f50-ad35-fcad1b6f0687"
    }
  }, {
    "fullUrl": "https://madie.cms.gov/MedicationDispense/2e9f1881-1255-4cbd-ba78-3632a6643a55",
    "resource": {
      "resourceType": "MedicationDispense",
      "id": "2e9f1881-1255-4cbd-ba78-3632a6643a55",
      "meta": {
        "profile": [ "http://hl7.org/fhir/us/qicore/StructureDefinition/qicore-medicationdispense" ]
      },
      "status": "completed",
      "medicationCodeableConcept": {
        "coding": [ {
          "system": "http://www.nlm.nih.gov/research/umls/rxnorm",
          "code": "1099316",
          "display": "desipramine hydrochloride 75 MG Oral Tablet"
        } ]
      },
      "subject": {
        "reference": "Patient/35317aef-07fd-4c19-aa61-01a0f61dfe4c"
      },
      "daysSupply": {
        "value": 10,
        "system": "http://unitsofmeasure.org",
        "code": "d"
      },
      "whenHandedOver": "2026-01-01T01:00:00.000+00:00"
    },
    "request": {
      "method": "PUT",
      "url": "MedicationDispense/2e9f1881-1255-4cbd-ba78-3632a6643a55"
    }
  }, {
    "fullUrl": "https://madie.cms.gov/MedicationDispense/2e9f1881-1255-4cbd-ba78-3632a6643a55-0",
    "resource": {
      "resourceType": "MedicationDispense",
      "id": "2e9f1881-1255-4cbd-ba78-3632a6643a55-0",
      "meta": {
        "profile": [ "http://hl7.org/fhir/us/qicore/StructureDefinition/qicore-medicationdispense" ]
      },
      "status": "completed",
      "medicationCodeableConcept": {
        "coding": [ {
          "system": "http://www.nlm.nih.gov/research/umls/rxnorm",
          "code": "1099316",
          "display": "desipramine hydrochloride 75 MG Oral Tablet"
        } ]
      },
      "subject": {
        "reference": "Patient/35317aef-07fd-4c19-aa61-01a0f61dfe4c"
      },
      "daysSupply": {
        "value": 10,
        "system": "http://unitsofmeasure.org",
        "code": "d"
      },
      "whenHandedOver": "2026-03-01T01:00:00.000+00:00"
    },
    "request": {
      "method": "PUT",
      "url": "MedicationDispense/2e9f1881-1255-4cbd-ba78-3632a6643a55-0"
    }
  }, {
    "fullUrl": "https://madie.cms.gov/Condition/38c07576-f982-4752-a97e-dbce9f0bd8a0",
    "resource": {
      "resourceType": "Condition",
      "id": "38c07576-f982-4752-a97e-dbce9f0bd8a0",
      "meta": {
        "profile": [ "http://hl7.org/fhir/us/qicore/StructureDefinition/qicore-condition-encounter-diagnosis" ]
      },
      "clinicalStatus": {
        "coding": [ {
          "system": "http://terminology.hl7.org/CodeSystem/condition-clinical",
          "code": "active"
        } ]
      },
      "category": [ {
        "coding": [ {
          "system": "http://terminology.hl7.org/CodeSystem/condition-category",
          "code": "encounter-diagnosis",
          "display": "Encounter Diagnosis"
        } ]
      } ],
      "code": {
        "coding": [ {
          "system": "http://snomed.info/sct",
          "code": "15193003",
          "display": "Severe recurrent major depression with psychotic features, mood-incongruent (disorder)"
        } ]
      },
      "subject": {
        "reference": "Patient/35317aef-07fd-4c19-aa61-01a0f61dfe4c"
      },
      "onsetDateTime": "2026-01-01T01:00:00.000+00:00"
    },
    "request": {
      "method": "PUT",
      "url": "Condition/38c07576-f982-4752-a97e-dbce9f0bd8a0"
    }
  }, {
    "fullUrl": "https://madie.cms.gov/Encounter/5be92002-8c7d-4f50-ad35-fcad1b6f0687-1",
    "resource": {
      "resourceType": "Encounter",
      "id": "5be92002-8c7d-4f50-ad35-fcad1b6f0687-1",
      "meta": {
        "profile": [ "http://hl7.org/fhir/us/qicore/StructureDefinition/qicore-encounter" ]
      },
      "status": "finished",
      "class": {
        "system": "http://terminology.hl7.org/CodeSystem/v3-ActCode",
        "code": "AMB",
        "display": "ambulatory"
      },
      "type": [ {
        "coding": [ {
          "system": "http://snomed.info/sct",
          "code": "183452005",
          "display": "Emergency hospital admission (procedure)"
        } ]
      } ],
      "subject": {
        "reference": "Patient/35317aef-07fd-4c19-aa61-01a0f61dfe4c"
      },
      "period": {
        "start": "2025-12-31T00:00:00.000+00:00",
        "end": "2026-01-01T01:00:00.000+00:00"
      }
    },
    "request": {
      "method": "PUT",
      "url": "Encounter/5be92002-8c7d-4f50-ad35-fcad1b6f0687-1"
    }
  }, {
    "fullUrl": "https://madie.cms.gov/MeasureReport/8542017c-4a03-4e27-9c6b-24f1f050195f",
    "resource": {
      "resourceType": "MeasureReport",
      "id": "8542017c-4a03-4e27-9c6b-24f1f050195f",
      "meta": {
        "profile": [ "http://hl7.org/fhir/us/cqfmeasures/StructureDefinition/test-case-cqfm" ]
      },
      "contained": [ {
        "resourceType": "Parameters",
        "id": "48b66acd-af24-480b-aa8b-53ba1f3f5e88-parameters",
        "parameter": [ {
          "name": "subject",
          "valueString": "35317aef-07fd-4c19-aa61-01a0f61dfe4c"
        } ]
      } ],
      "extension": [ {
        "url": "http://hl7.org/fhir/StructureDefinition/cqf-inputParameters",
        "valueReference": {
          "reference": "#48b66acd-af24-480b-aa8b-53ba1f3f5e88-parameters"
        }
      }, {
        "url": "http://hl7.org/fhir/us/cqfmeasures/StructureDefinition/cqfm-testCaseDescription",
        "valueMarkdown": "Hospice inpatient encounter during MP but no discharge"
      } ],
      "modifierExtension": [ {
        "url": "http://hl7.org/fhir/us/cqfmeasures/StructureDefinition/cqfm-isTestCase",
        "valueBoolean": true
      } ],
      "status": "complete",
      "type": "individual",
      "measure": "https://madie.cms.gov/Measure/CMS128FHIRAntidepressantMgmt",
      "period": {
        "start": "2026-01-01",
        "end": "2026-12-31"
      },
      "group": [ {
        "id": "Group_1",
        "population": [ {
          "id": "InitialPopulation_1",
          "code": {
            "coding": [ {
              "system": "http://terminology.hl7.org/CodeSystem/measure-population",
              "code": "initial-population",
              "display": "Initial Population"
            } ]
          },
          "count": 1
        }, {
          "id": "Denominator_1",
          "code": {
            "coding": [ {
              "system": "http://terminology.hl7.org/CodeSystem/measure-population",
              "code": "denominator",
              "display": "Denominator"
            } ]
          },
          "count": 1
        }, {
          "id": "DenominatorExclusion_1",
          "code": {
            "coding": [ {
              "system": "http://terminology.hl7.org/CodeSystem/measure-population",
              "code": "denominator-exclusion",
              "display": "Denominator Exclusion"
            } ]
          },
          "count": 0
        }, {
          "id": "Numerator_1",
          "code": {
            "coding": [ {
              "system": "http://terminology.hl7.org/CodeSystem/measure-population",
              "code": "numerator",
              "display": "Numerator"
            } ]
          },
          "count": 0
        } ],
        "measureScore": {
          "value": 1.0
        }
      }, {
        "id": "Group_2",
        "population": [ {
          "id": "InitialPopulation_2",
          "code": {
            "coding": [ {
              "system": "http://terminology.hl7.org/CodeSystem/measure-population",
              "code": "initial-population",
              "display": "Initial Population"
            } ]
          },
          "count": 1
        }, {
          "id": "Denominator_2",
          "code": {
            "coding": [ {
              "system": "http://terminology.hl7.org/CodeSystem/measure-population",
              "code": "denominator",
              "display": "Denominator"
            } ]
          },
          "count": 1
        }, {
          "id": "DenominatorExclusion_2",
          "code": {
            "coding": [ {
              "system": "http://terminology.hl7.org/CodeSystem/measure-population",
              "code": "denominator-exclusion",
              "display": "Denominator Exclusion"
            } ]
          },
          "count": 0
        }, {
          "id": "Numerator_2",
          "code": {
            "coding": [ {
              "system": "http://terminology.hl7.org/CodeSystem/measure-population",
              "code": "numerator",
              "display": "Numerator"
            } ]
          },
          "count": 0
        } ],
        "measureScore": {
          "value": 1.0
        }
      } ],
      "evaluatedResource": [ {
        "reference": "Patient/35317aef-07fd-4c19-aa61-01a0f61dfe4c"
      }, {
        "reference": "Encounter/5be92002-8c7d-4f50-ad35-fcad1b6f0687"
      }, {
        "reference": "MedicationDispense/2e9f1881-1255-4cbd-ba78-3632a6643a55"
      }, {
        "reference": "MedicationDispense/2e9f1881-1255-4cbd-ba78-3632a6643a55-0"
      }, {
        "reference": "Condition/38c07576-f982-4752-a97e-dbce9f0bd8a0"
      }, {
        "reference": "Encounter/5be92002-8c7d-4f50-ad35-fcad1b6f0687-1"
      } ]
    },
    "request": {
      "method": "PUT",
      "url": "MeasureReport/8542017c-4a03-4e27-9c6b-24f1f050195f"
    }
  } ]
}