{
  "resourceType": "Bundle",
  "id": "62c880ed0111a60120dc2224",
  "type": "transaction",
  "entry": [ {
    "fullUrl": "https://madie.cms.gov/Patient/9972f780-aa2f-40e0-ba7d-133d7fe38bc9",
    "resource": {
      "resourceType": "Patient",
      "id": "9972f780-aa2f-40e0-ba7d-133d7fe38bc9",
      "meta": {
        "profile": [ "http://hl7.org/fhir/us/qicore/StructureDefinition/qicore-patient" ]
      },
      "extension": [ {
        "url": "http://hl7.org/fhir/us/core/StructureDefinition/us-core-race",
        "extension": [ {
          "url": "ombCategory",
          "valueCoding": {
            "system": "urn:oid:2.16.840.1.113883.6.238",
            "code": "1002-5",
            "display": "American Indian or Alaska Native"
          }
        }, {
          "url": "text",
          "valueString": "American Indian or Alaska Native"
        } ]
      }, {
        "url": "http://hl7.org/fhir/us/core/StructureDefinition/us-core-ethnicity",
        "extension": [ {
          "url": "ombCategory",
          "valueCoding": {
            "system": "urn:oid:2.16.840.1.113883.6.238",
            "code": "2135-2",
            "display": "Hispanic or Latino"
          }
        }, {
          "url": "text",
          "valueString": "Hispanic or Latino"
        } ]
      } ],
      "identifier": [ {
        "type": {
          "coding": [ {
            "system": "http://terminology.hl7.org/CodeSystem/v2-0203",
            "code": "MR"
          } ]
        },
        "system": "https://bonnie-fhir.healthit.gov/",
        "value": "62c880ed0111a60120dc2224"
      } ],
      "active": true,
      "name": [ {
        "use": "usual",
        "family": "NUMERFailPop1",
        "given": [ "PainAssessNoResult" ]
      } ],
      "gender": "female",
      "birthDate": "1947-03-11"
    },
    "request": {
      "method": "PUT",
      "url": "Patient/9972f780-aa2f-40e0-ba7d-133d7fe38bc9"
    }
  }, {
    "fullUrl": "https://madie.cms.gov/Observation/bd425b30-58e4-467c-9d36-6b168b2ab501",
    "resource": {
      "resourceType": "Observation",
      "id": "bd425b30-58e4-467c-9d36-6b168b2ab501",
      "meta": {
        "profile": [ "http://hl7.org/fhir/us/qicore/StructureDefinition/qicore-observation-screening-assessment" ]
      },
      "status": "final",
      "category": [ {
        "coding": [ {
          "system": "http://terminology.hl7.org/CodeSystem/observation-category",
          "code": "survey",
          "display": "Survey"
        } ],
        "text": "Survey"
      } ],
      "code": {
        "coding": [ {
          "system": "http://loinc.org",
          "code": "38208-5",
          "display": "Pain severity - Reported"
        } ],
        "text": "Pain severity - Reported"
      },
      "subject": {
        "reference": "Patient/9972f780-aa2f-40e0-ba7d-133d7fe38bc9"
      },
      "effectiveDateTime": "2026-03-02T09:00:00.000+00:00"
    },
    "request": {
      "method": "PUT",
      "url": "Observation/bd425b30-58e4-467c-9d36-6b168b2ab501"
    }
  }, {
    "fullUrl": "https://madie.cms.gov/Condition/a2d2ba80-c866-47be-ae21-fc06f6d57093",
    "resource": {
      "resourceType": "Condition",
      "id": "a2d2ba80-c866-47be-ae21-fc06f6d57093",
      "meta": {
        "profile": [ "http://hl7.org/fhir/us/qicore/StructureDefinition/qicore-condition-problems-health-concerns" ]
      },
      "clinicalStatus": {
        "coding": [ {
          "system": "http://terminology.hl7.org/CodeSystem/condition-clinical",
          "code": "active",
          "display": "active"
        } ]
      },
      "verificationStatus": {
        "coding": [ {
          "system": "http://terminology.hl7.org/CodeSystem/condition-ver-status",
          "code": "confirmed",
          "display": "Confirmed"
        } ]
      },
      "category": [ {
        "coding": [ {
          "system": "http://terminology.hl7.org/CodeSystem/condition-category",
          "code": "problem-list-item",
          "display": "Problem List Item"
        } ]
      } ],
      "code": {
        "coding": [ {
          "system": "http://hl7.org/fhir/sid/icd-10-cm",
          "code": "C00.0"
        } ]
      },
      "subject": {
        "reference": "Patient/9972f780-aa2f-40e0-ba7d-133d7fe38bc9"
      },
      "onsetDateTime": "2026-02-17T14:50:00.000+00:00"
    },
    "request": {
      "method": "PUT",
      "url": "Condition/a2d2ba80-c866-47be-ae21-fc06f6d57093"
    }
  }, {
    "fullUrl": "https://madie.cms.gov/Encounter/fffd8ff9-47e6-4c43-b96c-f217df75899b",
    "resource": {
      "resourceType": "Encounter",
      "id": "fffd8ff9-47e6-4c43-b96c-f217df75899b",
      "meta": {
        "profile": [ "http://hl7.org/fhir/us/qicore/StructureDefinition/qicore-encounter" ]
      },
      "status": "finished",
      "class": {
        "system": "http://terminology.hl7.org/CodeSystem/v3-ActCode",
        "code": "AMB",
        "display": "ambulatory",
        "userSelected": true
      },
      "type": [ {
        "coding": [ {
          "system": "http://www.ama-assn.org/go/cpt",
          "code": "99203"
        } ]
      } ],
      "subject": {
        "reference": "Patient/9972f780-aa2f-40e0-ba7d-133d7fe38bc9"
      },
      "period": {
        "start": "2026-03-02T09:00:00.000+00:00",
        "end": "2026-03-02T09:30:00.000+00:00"
      }
    },
    "request": {
      "method": "PUT",
      "url": "Encounter/fffd8ff9-47e6-4c43-b96c-f217df75899b"
    }
  }, {
    "fullUrl": "https://madie.cms.gov/Coverage/ba927f32-4e12-46ab-8386-fdc617b139cb",
    "resource": {
      "resourceType": "Coverage",
      "id": "ba927f32-4e12-46ab-8386-fdc617b139cb",
      "meta": {
        "profile": [ "http://hl7.org/fhir/us/qicore/StructureDefinition/qicore-coverage" ]
      },
      "status": "active",
      "beneficiary": {
        "reference": "Patient/9972f780-aa2f-40e0-ba7d-133d7fe38bc9"
      },
      "period": {
        "start": "1947-03-11T08:00:00.000+00:00"
      },
      "payor": [ {
        "reference": "Organization/5a730421-557b-473a-9b0d-10035de6644e"
      } ]
    },
    "request": {
      "method": "PUT",
      "url": "Coverage/ba927f32-4e12-46ab-8386-fdc617b139cb"
    }
  }, {
    "fullUrl": "https://madie.cms.gov/Procedure/b539a1c1-8dbe-4756-a2b7-8db2c404dd01",
    "resource": {
      "resourceType": "Procedure",
      "id": "b539a1c1-8dbe-4756-a2b7-8db2c404dd01",
      "meta": {
        "profile": [ "http://hl7.org/fhir/us/qicore/StructureDefinition/qicore-procedure" ]
      },
      "extension": [ {
        "url": "http://hl7.org/fhir/us/qicore/StructureDefinition/qicore-recorded",
        "valueDateTime": "2026-02-20T12:35:00.000+00:00"
      } ],
      "status": "completed",
      "code": {
        "coding": [ {
          "system": "http://www.ama-assn.org/go/cpt",
          "code": "96409"
        } ]
      },
      "subject": {
        "reference": "Patient/9972f780-aa2f-40e0-ba7d-133d7fe38bc9"
      },
      "performedPeriod": {
        "start": "2026-02-20T10:45:00.000+00:00",
        "end": "2026-02-20T11:30:00.000+00:00"
      }
    },
    "request": {
      "method": "PUT",
      "url": "Procedure/b539a1c1-8dbe-4756-a2b7-8db2c404dd01"
    }
  }, {
    "fullUrl": "https://madie.cms.gov/Procedure/758ba557-5b0d-4cf4-9027-f4c195b2676c",
    "resource": {
      "resourceType": "Procedure",
      "id": "758ba557-5b0d-4cf4-9027-f4c195b2676c",
      "meta": {
        "profile": [ "http://hl7.org/fhir/us/qicore/StructureDefinition/qicore-procedure" ]
      },
      "extension": [ {
        "url": "http://hl7.org/fhir/us/qicore/StructureDefinition/qicore-recorded",
        "valueDateTime": "2026-03-18T12:35:00.000+00:00"
      } ],
      "status": "completed",
      "code": {
        "coding": [ {
          "system": "http://www.ama-assn.org/go/cpt",
          "code": "96409"
        } ]
      },
      "subject": {
        "reference": "Patient/9972f780-aa2f-40e0-ba7d-133d7fe38bc9"
      },
      "performedPeriod": {
        "start": "2026-03-18T12:30:00.000+00:00",
        "end": "2026-03-18T12:35:00.000+00:00"
      }
    },
    "request": {
      "method": "PUT",
      "url": "Procedure/758ba557-5b0d-4cf4-9027-f4c195b2676c"
    }
  }, {
    "fullUrl": "https://madie.cms.gov/Organization/5a730421-557b-473a-9b0d-10035de6644e",
    "resource": {
      "resourceType": "Organization",
      "id": "5a730421-557b-473a-9b0d-10035de6644e",
      "meta": {
        "profile": [ "http://hl7.org/fhir/us/qicore/StructureDefinition/qicore-organization" ]
      },
      "identifier": [ {
        "use": "temp",
        "system": "urn:oid:2.16.840.1.113883.4.4",
        "value": "21-3259825"
      } ],
      "active": true,
      "type": [ {
        "coding": [ {
          "system": "http://terminology.hl7.org/CodeSystem/organization-type",
          "code": "pay",
          "display": "Payer"
        } ]
      } ],
      "name": "Blue Cross Blue Shield of Texas",
      "telecom": [ {
        "system": "phone",
        "value": "(+1) 972-766-6900"
      } ],
      "address": [ {
        "use": "billing",
        "type": "postal",
        "line": [ "P.O. Box 660044" ],
        "city": "Dallas",
        "state": "TX",
        "postalCode": "75266-0044",
        "country": "USA"
      } ]
    },
    "request": {
      "method": "PUT",
      "url": "Organization/5a730421-557b-473a-9b0d-10035de6644e"
    }
  }, {
    "fullUrl": "https://madie.cms.gov/Practitioner/46d94e56-2ae3-47c1-ad93-ae48f4ecd551",
    "resource": {
      "resourceType": "Practitioner",
      "id": "46d94e56-2ae3-47c1-ad93-ae48f4ecd551",
      "meta": {
        "profile": [ "http://hl7.org/fhir/us/qicore/StructureDefinition/qicore-practitioner" ]
      },
      "identifier": [ {
        "system": "http://hl7.org/fhir/sid/us-npi",
        "value": "1234567890"
      } ],
      "name": [ {
        "family": "Evil",
        "prefix": [ "Dr" ]
      } ]
    },
    "request": {
      "method": "PUT",
      "url": "Practitioner/46d94e56-2ae3-47c1-ad93-ae48f4ecd551"
    }
  }, {
    "fullUrl": "https://madie.cms.gov/MeasureReport/17ffaaff-f814-456d-a5b2-9481b621a657",
    "resource": {
      "resourceType": "MeasureReport",
      "id": "17ffaaff-f814-456d-a5b2-9481b621a657",
      "meta": {
        "profile": [ "http://hl7.org/fhir/us/cqfmeasures/StructureDefinition/test-case-cqfm" ]
      },
      "contained": [ {
        "resourceType": "Parameters",
        "id": "401afb18-5ebf-4f34-8c39-128154d2a4b5-parameters",
        "parameter": [ {
          "name": "subject",
          "valueString": "9972f780-aa2f-40e0-ba7d-133d7fe38bc9"
        } ]
      } ],
      "extension": [ {
        "url": "http://hl7.org/fhir/StructureDefinition/cqf-inputParameters",
        "valueReference": {
          "reference": "#401afb18-5ebf-4f34-8c39-128154d2a4b5-parameters"
        }
      }, {
        "url": "http://hl7.org/fhir/us/cqfmeasures/StructureDefinition/cqfm-testCaseDescription",
        "valueMarkdown": "Chemotherapy administered prior and after office visit. Pain intensity assessment was performed during an office visit, but no result.\n"
      } ],
      "modifierExtension": [ {
        "url": "http://hl7.org/fhir/us/cqfmeasures/StructureDefinition/cqfm-isTestCase",
        "valueBoolean": true
      } ],
      "status": "complete",
      "type": "individual",
      "measure": "https://madie.cms.gov/Measure/CMS157FHIRPainIntensityQuantified",
      "period": {
        "start": "2026-01-01",
        "end": "2026-12-31"
      },
      "group": [ {
        "id": "Group_1",
        "population": [ {
          "id": "InitialPopulation_1",
          "code": {
            "coding": [ {
              "system": "http://terminology.hl7.org/CodeSystem/measure-population",
              "code": "initial-population",
              "display": "Initial Population"
            } ]
          },
          "count": 1
        }, {
          "id": "Denominator_1",
          "code": {
            "coding": [ {
              "system": "http://terminology.hl7.org/CodeSystem/measure-population",
              "code": "denominator",
              "display": "Denominator"
            } ]
          },
          "count": 1
        }, {
          "id": "Numerator_1",
          "code": {
            "coding": [ {
              "system": "http://terminology.hl7.org/CodeSystem/measure-population",
              "code": "numerator",
              "display": "Numerator"
            } ]
          },
          "count": 0
        } ],
        "measureScore": {
          "value": 0.0
        }
      }, {
        "id": "Group_2",
        "population": [ {
          "id": "InitialPopulation_2",
          "code": {
            "coding": [ {
              "system": "http://terminology.hl7.org/CodeSystem/measure-population",
              "code": "initial-population",
              "display": "Initial Population"
            } ]
          },
          "count": 0
        }, {
          "id": "Denominator_2",
          "code": {
            "coding": [ {
              "system": "http://terminology.hl7.org/CodeSystem/measure-population",
              "code": "denominator",
              "display": "Denominator"
            } ]
          },
          "count": 0
        }, {
          "id": "Numerator_2",
          "code": {
            "coding": [ {
              "system": "http://terminology.hl7.org/CodeSystem/measure-population",
              "code": "numerator",
              "display": "Numerator"
            } ]
          },
          "count": 0
        } ],
        "measureScore": {
          "value": 0.0
        }
      } ],
      "evaluatedResource": [ {
        "reference": "Patient/9972f780-aa2f-40e0-ba7d-133d7fe38bc9"
      }, {
        "reference": "Observation/bd425b30-58e4-467c-9d36-6b168b2ab501"
      }, {
        "reference": "Condition/a2d2ba80-c866-47be-ae21-fc06f6d57093"
      }, {
        "reference": "Encounter/fffd8ff9-47e6-4c43-b96c-f217df75899b"
      }, {
        "reference": "Coverage/ba927f32-4e12-46ab-8386-fdc617b139cb"
      }, {
        "reference": "Procedure/b539a1c1-8dbe-4756-a2b7-8db2c404dd01"
      }, {
        "reference": "Procedure/758ba557-5b0d-4cf4-9027-f4c195b2676c"
      }, {
        "reference": "Organization/5a730421-557b-473a-9b0d-10035de6644e"
      }, {
        "reference": "Practitioner/46d94e56-2ae3-47c1-ad93-ae48f4ecd551"
      } ]
    },
    "request": {
      "method": "PUT",
      "url": "MeasureReport/17ffaaff-f814-456d-a5b2-9481b621a657"
    }
  } ]
}