{
  "resourceType": "Bundle",
  "id": "633b3f9e0968f80122503cd4",
  "type": "transaction",
  "entry": [ {
    "fullUrl": "https://madie.cms.gov/Patient/aa12a3d9-20e7-4c0e-b5c1-a4de7eb5f15c",
    "resource": {
      "resourceType": "Patient",
      "id": "aa12a3d9-20e7-4c0e-b5c1-a4de7eb5f15c",
      "meta": {
        "profile": [ "http://hl7.org/fhir/us/qicore/StructureDefinition/qicore-patient" ]
      },
      "text": {
        "status": "generated",
        "div": "<div xmlns=\"http://www.w3.org/1999/xhtml\"><div class=\"hapiHeaderText\">LastAssPrfEstDELRelvTmEQDELRsltDtTime<b>DENOMPASS</b></div><table class=\"hapiPropertyTable\"><tbody><tr><td>Date of birth</td><td><span>01 February 2004</span></td></tr></tbody></table></div>"
      },
      "extension": [ {
        "url": "http://hl7.org/fhir/us/core/StructureDefinition/us-core-race",
        "extension": [ {
          "url": "ombCategory",
          "valueCoding": {
            "system": "urn:oid:2.16.840.1.113883.6.238",
            "code": "1002-5",
            "display": "American Indian or Alaska Native",
            "userSelected": true
          }
        }, {
          "url": "text",
          "valueString": "American Indian or Alaska Native"
        } ]
      }, {
        "url": "http://hl7.org/fhir/us/core/StructureDefinition/us-core-ethnicity",
        "extension": [ {
          "url": "ombCategory",
          "valueCoding": {
            "system": "urn:oid:2.16.840.1.113883.6.238",
            "code": "2135-2",
            "display": "Hispanic or Latino",
            "userSelected": true
          }
        }, {
          "url": "text",
          "valueString": "Hispanic or Latino"
        } ]
      } ],
      "identifier": [ {
        "type": {
          "coding": [ {
            "system": "http://terminology.hl7.org/CodeSystem/v2-0203",
            "code": "MR"
          } ]
        },
        "system": "https://bonnie-fhir.healthit.gov/",
        "value": "633b3f9e0968f80122503cd4"
      } ],
      "active": true,
      "name": [ {
        "use": "usual",
        "family": "DENOMPass",
        "given": [ "LastAssPrfEstDELRelvTmEQDELRsltDtTime" ]
      } ],
      "gender": "female",
      "birthDate": "2005-02-01"
    },
    "request": {
      "method": "PUT",
      "url": "Patient/aa12a3d9-20e7-4c0e-b5c1-a4de7eb5f15c"
    }
  }, {
    "fullUrl": "https://madie.cms.gov/Observation/9172651c-0145-4002-91cc-086cd7b835b1",
    "resource": {
      "resourceType": "Observation",
      "id": "9172651c-0145-4002-91cc-086cd7b835b1",
      "meta": {
        "profile": [ "http://hl7.org/fhir/us/qicore/StructureDefinition/qicore-simple-observation" ]
      },
      "status": "final",
      "category": [ {
        "coding": [ {
          "system": "http://terminology.hl7.org/CodeSystem/observation-category",
          "code": "exam",
          "display": "exam",
          "userSelected": true
        } ]
      } ],
      "code": {
        "coding": [ {
          "system": "http://loinc.org",
          "code": "93857-1"
        } ]
      },
      "subject": {
        "reference": "Patient/aa12a3d9-20e7-4c0e-b5c1-a4de7eb5f15c"
      },
      "effectiveDateTime": "2026-02-01T08:00:00.000+00:00",
      "performer": [ {
        "reference": "Organization/example1",
        "display": "Hendricks Country Hospital"
      } ],
      "valueDateTime": "2026-02-01T08:00:00.000+00:00"
    },
    "request": {
      "method": "PUT",
      "url": "Observation/9172651c-0145-4002-91cc-086cd7b835b1"
    }
  }, {
    "fullUrl": "https://madie.cms.gov/Observation/31aed0d2-903f-45d3-8a89-8601db56484b",
    "resource": {
      "resourceType": "Observation",
      "id": "31aed0d2-903f-45d3-8a89-8601db56484b",
      "meta": {
        "profile": [ "http://hl7.org/fhir/us/qicore/StructureDefinition/qicore-simple-observation" ]
      },
      "status": "final",
      "category": [ {
        "coding": [ {
          "system": "http://terminology.hl7.org/CodeSystem/observation-category",
          "code": "exam",
          "display": "exam",
          "userSelected": true
        } ]
      } ],
      "code": {
        "coding": [ {
          "system": "http://loinc.org",
          "code": "11778-8"
        } ]
      },
      "subject": {
        "reference": "Patient/aa12a3d9-20e7-4c0e-b5c1-a4de7eb5f15c"
      },
      "effectiveDateTime": "2026-02-01T08:00:00.000+00:00",
      "performer": [ {
        "reference": "Organization/example1",
        "display": "Hendricks Country Hospital"
      } ],
      "valueDateTime": "2026-02-01T08:00:00.000+00:00"
    },
    "request": {
      "method": "PUT",
      "url": "Observation/31aed0d2-903f-45d3-8a89-8601db56484b"
    }
  }, {
    "fullUrl": "https://madie.cms.gov/Encounter/1f10a9db-f828-4d31-be9f-bc75895dca98",
    "resource": {
      "resourceType": "Encounter",
      "id": "1f10a9db-f828-4d31-be9f-bc75895dca98",
      "meta": {
        "profile": [ "http://hl7.org/fhir/us/qicore/StructureDefinition/qicore-encounter" ]
      },
      "status": "finished",
      "class": {
        "system": "http://terminology.hl7.org/CodeSystem/v3-ActCode",
        "code": "IMP",
        "display": "inpatient encounter"
      },
      "type": [ {
        "coding": [ {
          "system": "http://snomed.info/sct",
          "code": "183452005"
        } ]
      } ],
      "subject": {
        "reference": "Patient/aa12a3d9-20e7-4c0e-b5c1-a4de7eb5f15c"
      },
      "period": {
        "start": "2026-02-01T08:00:00.000+00:00",
        "end": "2026-02-05T08:15:00.000+00:00"
      }
    },
    "request": {
      "method": "PUT",
      "url": "Encounter/1f10a9db-f828-4d31-be9f-bc75895dca98"
    }
  }, {
    "fullUrl": "https://madie.cms.gov/Procedure/0edf0197-4aa8-4027-b03b-a032d8f1d286",
    "resource": {
      "resourceType": "Procedure",
      "id": "0edf0197-4aa8-4027-b03b-a032d8f1d286",
      "meta": {
        "profile": [ "http://hl7.org/fhir/us/qicore/StructureDefinition/qicore-procedure" ]
      },
      "extension": [ {
        "url": "http://hl7.org/fhir/us/qicore/StructureDefinition/qicore-recorded",
        "valueDateTime": "2014-04-05T13:35:00.000+00:00"
      } ],
      "status": "completed",
      "code": {
        "coding": [ {
          "system": "http://snomed.info/sct",
          "code": "10745001"
        } ]
      },
      "subject": {
        "reference": "Patient/aa12a3d9-20e7-4c0e-b5c1-a4de7eb5f15c"
      },
      "performedPeriod": {
        "start": "2026-02-01T08:00:00.000+00:00",
        "end": "2026-02-05T08:15:00.000+00:00"
      }
    },
    "request": {
      "method": "PUT",
      "url": "Procedure/0edf0197-4aa8-4027-b03b-a032d8f1d286"
    }
  }, {
    "fullUrl": "https://madie.cms.gov/Coverage/5a7372bd-c036-4276-86a5-071a8ab3c586",
    "resource": {
      "resourceType": "Coverage",
      "id": "5a7372bd-c036-4276-86a5-071a8ab3c586",
      "meta": {
        "profile": [ "http://hl7.org/fhir/us/qicore/StructureDefinition/qicore-coverage" ]
      },
      "status": "active",
      "subscriberId": "523435",
      "beneficiary": {
        "reference": "Patient/aa12a3d9-20e7-4c0e-b5c1-a4de7eb5f15c"
      },
      "relationship": {
        "coding": [ {
          "system": "http://terminology.hl7.org/CodeSystem/subscriber-relationship",
          "code": "self"
        } ]
      },
      "payor": [ {
        "reference": "Organization/587ee29e-1c9a-4e7d-8c58-7dd6575d85dc"
      } ]
    },
    "request": {
      "method": "PUT",
      "url": "Coverage/5a7372bd-c036-4276-86a5-071a8ab3c586"
    }
  }, {
    "fullUrl": "https://madie.cms.gov/Organization/587ee29e-1c9a-4e7d-8c58-7dd6575d85dc",
    "resource": {
      "resourceType": "Organization",
      "id": "587ee29e-1c9a-4e7d-8c58-7dd6575d85dc",
      "meta": {
        "profile": [ "http://hl7.org/fhir/us/qicore/StructureDefinition/qicore-organization" ]
      },
      "identifier": [ {
        "use": "temp",
        "system": "urn:oid:2.16.840.1.113883.4.4",
        "value": "21-3259825"
      } ],
      "active": true,
      "type": [ {
        "coding": [ {
          "system": "http://terminology.hl7.org/CodeSystem/organization-type",
          "code": "pay",
          "display": "Payer"
        } ]
      } ],
      "name": "Blue Cross Blue Shield of Texas",
      "telecom": [ {
        "system": "phone",
        "value": "(+1) 972-766-6900"
      } ],
      "address": [ {
        "use": "billing",
        "type": "postal",
        "line": [ "P.O. Box 660044" ],
        "city": "Dallas",
        "state": "TX",
        "postalCode": "75266-0044",
        "country": "USA"
      } ]
    },
    "request": {
      "method": "PUT",
      "url": "Organization/587ee29e-1c9a-4e7d-8c58-7dd6575d85dc"
    }
  }, {
    "fullUrl": "https://madie.cms.gov/Practitioner/d0ae32c2-43dd-412c-92b4-8ffe25833cbf",
    "resource": {
      "resourceType": "Practitioner",
      "id": "d0ae32c2-43dd-412c-92b4-8ffe25833cbf",
      "meta": {
        "profile": [ "http://hl7.org/fhir/us/qicore/StructureDefinition/qicore-practitioner" ]
      },
      "identifier": [ {
        "system": "http://hl7.org/fhir/sid/us-npi",
        "value": "1234567890"
      } ],
      "name": [ {
        "family": "Evil",
        "prefix": [ "Dr" ]
      } ]
    },
    "request": {
      "method": "PUT",
      "url": "Practitioner/d0ae32c2-43dd-412c-92b4-8ffe25833cbf"
    }
  }, {
    "fullUrl": "https://madie.cms.gov/MeasureReport/1193b561-3f1b-4815-a520-1795ab4a9c3a",
    "resource": {
      "resourceType": "MeasureReport",
      "id": "1193b561-3f1b-4815-a520-1795ab4a9c3a",
      "meta": {
        "profile": [ "http://hl7.org/fhir/us/cqfmeasures/StructureDefinition/test-case-cqfm" ]
      },
      "contained": [ {
        "resourceType": "Parameters",
        "id": "3fa53e56-58bb-422f-bf95-096cb6c86c1c-parameters",
        "parameter": [ {
          "name": "subject",
          "valueString": "aa12a3d9-20e7-4c0e-b5c1-a4de7eb5f15c"
        } ]
      } ],
      "extension": [ {
        "url": "http://hl7.org/fhir/StructureDefinition/cqf-inputParameters",
        "valueReference": {
          "reference": "#3fa53e56-58bb-422f-bf95-096cb6c86c1c-parameters"
        }
      }, {
        "url": "http://hl7.org/fhir/us/cqfmeasures/StructureDefinition/cqfm-testCaseDescription",
        "valueMarkdown": "Last assessment Performed, Estimated Delivery Date, Relevant time, equal to Delivery Result Date/Time\n"
      } ],
      "modifierExtension": [ {
        "url": "http://hl7.org/fhir/us/cqfmeasures/StructureDefinition/cqfm-isTestCase",
        "valueBoolean": true
      } ],
      "status": "complete",
      "type": "individual",
      "measure": "https://madie.cms.gov/Measure/CMS1028FHIRPCSevereOBComps",
      "period": {
        "start": "2026-01-01",
        "end": "2026-12-31"
      },
      "group": [ {
        "id": "Group_1",
        "population": [ {
          "id": "InitialPopulation_1",
          "code": {
            "coding": [ {
              "system": "http://terminology.hl7.org/CodeSystem/measure-population",
              "code": "initial-population",
              "display": "Initial Population"
            } ]
          },
          "count": 1
        }, {
          "id": "Denominator_1",
          "code": {
            "coding": [ {
              "system": "http://terminology.hl7.org/CodeSystem/measure-population",
              "code": "denominator",
              "display": "Denominator"
            } ]
          },
          "count": 1
        }, {
          "id": "Numerator_1",
          "code": {
            "coding": [ {
              "system": "http://terminology.hl7.org/CodeSystem/measure-population",
              "code": "numerator",
              "display": "Numerator"
            } ]
          },
          "count": 0
        }, {
          "id": "NumeratorExclusion_1",
          "code": {
            "coding": [ {
              "system": "http://terminology.hl7.org/CodeSystem/measure-population",
              "code": "numerator-exclusion",
              "display": "Numerator Exclusion"
            } ]
          },
          "count": 0
        } ],
        "measureScore": {
          "value": 0.0
        }
      }, {
        "id": "Group_2",
        "population": [ {
          "id": "InitialPopulation_2",
          "code": {
            "coding": [ {
              "system": "http://terminology.hl7.org/CodeSystem/measure-population",
              "code": "initial-population",
              "display": "Initial Population"
            } ]
          },
          "count": 1
        }, {
          "id": "Denominator_2",
          "code": {
            "coding": [ {
              "system": "http://terminology.hl7.org/CodeSystem/measure-population",
              "code": "denominator",
              "display": "Denominator"
            } ]
          },
          "count": 1
        }, {
          "id": "Numerator_2",
          "code": {
            "coding": [ {
              "system": "http://terminology.hl7.org/CodeSystem/measure-population",
              "code": "numerator",
              "display": "Numerator"
            } ]
          },
          "count": 0
        }, {
          "id": "NumeratorExclusion_2",
          "code": {
            "coding": [ {
              "system": "http://terminology.hl7.org/CodeSystem/measure-population",
              "code": "numerator-exclusion",
              "display": "Numerator Exclusion"
            } ]
          },
          "count": 0
        } ],
        "measureScore": {
          "value": 0.0
        }
      } ],
      "evaluatedResource": [ {
        "reference": "Patient/aa12a3d9-20e7-4c0e-b5c1-a4de7eb5f15c"
      }, {
        "reference": "Observation/9172651c-0145-4002-91cc-086cd7b835b1"
      }, {
        "reference": "Observation/31aed0d2-903f-45d3-8a89-8601db56484b"
      }, {
        "reference": "Encounter/1f10a9db-f828-4d31-be9f-bc75895dca98"
      }, {
        "reference": "Procedure/0edf0197-4aa8-4027-b03b-a032d8f1d286"
      }, {
        "reference": "Coverage/5a7372bd-c036-4276-86a5-071a8ab3c586"
      }, {
        "reference": "Organization/587ee29e-1c9a-4e7d-8c58-7dd6575d85dc"
      }, {
        "reference": "Practitioner/d0ae32c2-43dd-412c-92b4-8ffe25833cbf"
      } ]
    },
    "request": {
      "method": "PUT",
      "url": "MeasureReport/1193b561-3f1b-4815-a520-1795ab4a9c3a"
    }
  } ]
}