{
  "resourceType": "Bundle",
  "id": "63487c2d0968f80122540157",
  "type": "transaction",
  "entry": [ {
    "fullUrl": "https://madie.cms.gov/Patient/deba38c2-7841-4133-a2e6-981e9095d19c",
    "resource": {
      "resourceType": "Patient",
      "id": "deba38c2-7841-4133-a2e6-981e9095d19c",
      "meta": {
        "profile": [ "http://hl7.org/fhir/us/qicore/StructureDefinition/qicore-patient" ]
      },
      "text": {
        "status": "generated",
        "div": "<div xmlns=\"http://www.w3.org/1999/xhtml\"><div class=\"hapiHeaderText\">AssessPreTerm0RelDtTimeB4TimeOfDeliv <b>DENPASS </b></div><table class=\"hapiPropertyTable\"><tbody><tr><td>Identifier</td><td>68ae6e24f0fface97c058e998841dc5fd1e621f11f5d5bc2aeef1a3a248ebc14</td></tr><tr><td>Date of birth</td><td><span>14 February 1985</span></td></tr></tbody></table></div>"
      },
      "extension": [ {
        "url": "http://hl7.org/fhir/us/core/StructureDefinition/us-core-race",
        "extension": [ {
          "url": "ombCategory",
          "valueCoding": {
            "system": "urn:oid:2.16.840.1.113883.6.238",
            "code": "1002-5",
            "display": "American Indian or Alaska Native",
            "userSelected": true
          }
        }, {
          "url": "text",
          "valueString": "American Indian or Alaska Native"
        } ]
      }, {
        "url": "http://hl7.org/fhir/us/core/StructureDefinition/us-core-ethnicity",
        "extension": [ {
          "url": "ombCategory",
          "valueCoding": {
            "system": "urn:oid:2.16.840.1.113883.6.238",
            "code": "2135-2",
            "display": "Hispanic or Latino",
            "userSelected": true
          }
        }, {
          "url": "text",
          "valueString": "Hispanic or Latino"
        } ]
      } ],
      "identifier": [ {
        "type": {
          "coding": [ {
            "system": "http://terminology.hl7.org/CodeSystem/v2-0203",
            "code": "MR"
          } ]
        },
        "system": "https://bonnie-fhir.healthit.gov/",
        "value": "63487c2d0968f80122540157"
      } ],
      "active": true,
      "name": [ {
        "use": "usual",
        "family": "DENPass",
        "given": [ "AssessPreTerm0RelDtTimeB4TimeOfDeliv" ]
      } ],
      "gender": "female",
      "birthDate": "1998-02-14"
    },
    "request": {
      "method": "PUT",
      "url": "Patient/deba38c2-7841-4133-a2e6-981e9095d19c"
    }
  }, {
    "fullUrl": "https://madie.cms.gov/Observation/930c7241-1b95-46b0-ae0d-8734261c48e7",
    "resource": {
      "resourceType": "Observation",
      "id": "930c7241-1b95-46b0-ae0d-8734261c48e7",
      "meta": {
        "profile": [ "http://hl7.org/fhir/us/qicore/StructureDefinition/qicore-simple-observation" ]
      },
      "status": "final",
      "category": [ {
        "coding": [ {
          "system": "http://terminology.hl7.org/CodeSystem/observation-category",
          "code": "exam",
          "display": "exam",
          "userSelected": true
        } ]
      } ],
      "code": {
        "coding": [ {
          "system": "http://loinc.org",
          "code": "11639-2"
        } ]
      },
      "subject": {
        "reference": "Patient/deba38c2-7841-4133-a2e6-981e9095d19c"
      },
      "effectiveDateTime": "2025-09-19T09:00:00.000+00:00",
      "valueInteger": 0
    },
    "request": {
      "method": "PUT",
      "url": "Observation/930c7241-1b95-46b0-ae0d-8734261c48e7"
    }
  }, {
    "fullUrl": "https://madie.cms.gov/Observation/55482679-36bf-43c1-9d7c-1a975ca51e85",
    "resource": {
      "resourceType": "Observation",
      "id": "55482679-36bf-43c1-9d7c-1a975ca51e85",
      "meta": {
        "profile": [ "http://hl7.org/fhir/us/qicore/StructureDefinition/qicore-simple-observation" ]
      },
      "status": "final",
      "category": [ {
        "coding": [ {
          "system": "http://terminology.hl7.org/CodeSystem/observation-category",
          "code": "exam",
          "display": "exam",
          "userSelected": true
        } ]
      } ],
      "code": {
        "coding": [ {
          "system": "http://loinc.org",
          "code": "11637-6"
        } ]
      },
      "subject": {
        "reference": "Patient/deba38c2-7841-4133-a2e6-981e9095d19c"
      },
      "effectiveDateTime": "2026-06-08T09:00:00.000+00:00",
      "valueInteger": 0
    },
    "request": {
      "method": "PUT",
      "url": "Observation/55482679-36bf-43c1-9d7c-1a975ca51e85"
    }
  }, {
    "fullUrl": "https://madie.cms.gov/Observation/91c55338-ba78-44f3-b688-fda16bf4a916",
    "resource": {
      "resourceType": "Observation",
      "id": "91c55338-ba78-44f3-b688-fda16bf4a916",
      "meta": {
        "profile": [ "http://hl7.org/fhir/us/qicore/StructureDefinition/qicore-simple-observation" ]
      },
      "status": "final",
      "category": [ {
        "coding": [ {
          "system": "http://terminology.hl7.org/CodeSystem/observation-category",
          "code": "exam",
          "display": "exam",
          "userSelected": true
        } ]
      } ],
      "code": {
        "coding": [ {
          "system": "http://loinc.org",
          "code": "11884-4"
        } ]
      },
      "subject": {
        "reference": "Patient/deba38c2-7841-4133-a2e6-981e9095d19c"
      },
      "effectiveDateTime": "2026-06-08T20:00:00.000+00:00",
      "valueQuantity": {
        "value": 37,
        "system": "http://unitsofmeasure.org",
        "code": "wk"
      }
    },
    "request": {
      "method": "PUT",
      "url": "Observation/91c55338-ba78-44f3-b688-fda16bf4a916"
    }
  }, {
    "fullUrl": "https://madie.cms.gov/Observation/9ff8254b-6828-4e59-b67d-b1037defded8",
    "resource": {
      "resourceType": "Observation",
      "id": "9ff8254b-6828-4e59-b67d-b1037defded8",
      "meta": {
        "profile": [ "http://hl7.org/fhir/us/qicore/StructureDefinition/qicore-simple-observation" ]
      },
      "status": "final",
      "category": [ {
        "coding": [ {
          "system": "http://terminology.hl7.org/CodeSystem/observation-category",
          "code": "exam",
          "display": "exam",
          "userSelected": true
        } ]
      } ],
      "code": {
        "coding": [ {
          "system": "http://loinc.org",
          "code": "93857-1"
        } ]
      },
      "subject": {
        "reference": "Patient/deba38c2-7841-4133-a2e6-981e9095d19c"
      },
      "effectiveDateTime": "2026-06-08T20:00:00.000+00:00",
      "valueDateTime": "2026-06-08T20:00:00.000+00:00"
    },
    "request": {
      "method": "PUT",
      "url": "Observation/9ff8254b-6828-4e59-b67d-b1037defded8"
    }
  }, {
    "fullUrl": "https://madie.cms.gov/Encounter/33e472e3-047a-4b86-b3f6-16a5a77eb8a9",
    "resource": {
      "resourceType": "Encounter",
      "id": "33e472e3-047a-4b86-b3f6-16a5a77eb8a9",
      "meta": {
        "profile": [ "http://hl7.org/fhir/us/qicore/StructureDefinition/qicore-encounter" ]
      },
      "status": "finished",
      "class": {
        "system": "http://terminology.hl7.org/CodeSystem/v3-ActCode",
        "code": "IMP",
        "display": "inpatient encounter"
      },
      "type": [ {
        "coding": [ {
          "system": "http://snomed.info/sct",
          "code": "8715000"
        } ]
      } ],
      "subject": {
        "reference": "Patient/deba38c2-7841-4133-a2e6-981e9095d19c"
      },
      "period": {
        "start": "2026-06-08T08:00:00.000+00:00",
        "end": "2026-06-10T08:15:00.000+00:00"
      },
      "length": {
        "value": 2,
        "unit": "days"
      },
      "reasonReference": [ {
        "reference": "Condition/04ed5a06-d2f6-46b3-a669-898d57644513"
      } ]
    },
    "request": {
      "method": "PUT",
      "url": "Encounter/33e472e3-047a-4b86-b3f6-16a5a77eb8a9"
    }
  }, {
    "fullUrl": "https://madie.cms.gov/Procedure/d49cf390-4ddf-47ff-b9b0-d8c5ae173f0e",
    "resource": {
      "resourceType": "Procedure",
      "id": "d49cf390-4ddf-47ff-b9b0-d8c5ae173f0e",
      "meta": {
        "profile": [ "http://hl7.org/fhir/us/qicore/StructureDefinition/qicore-procedure" ]
      },
      "extension": [ {
        "url": "http://hl7.org/fhir/us/qicore/StructureDefinition/qicore-recorded",
        "valueDateTime": "2014-04-05T13:35:00.000+00:00"
      } ],
      "status": "completed",
      "code": {
        "coding": [ {
          "system": "http://www.cms.gov/Medicare/Coding/ICD10",
          "code": "10D00Z0"
        }, {
          "system": "http://snomed.info/sct",
          "code": "4504004"
        } ]
      },
      "subject": {
        "reference": "Patient/deba38c2-7841-4133-a2e6-981e9095d19c"
      },
      "performedPeriod": {
        "start": "2026-06-08T20:00:00.000+00:00",
        "end": "2026-06-08T20:15:00.000+00:00"
      }
    },
    "request": {
      "method": "PUT",
      "url": "Procedure/d49cf390-4ddf-47ff-b9b0-d8c5ae173f0e"
    }
  }, {
    "fullUrl": "https://madie.cms.gov/Condition/04ed5a06-d2f6-46b3-a669-898d57644513",
    "resource": {
      "resourceType": "Condition",
      "id": "04ed5a06-d2f6-46b3-a669-898d57644513",
      "meta": {
        "profile": [ "http://hl7.org/fhir/us/qicore/StructureDefinition/qicore-condition-encounter-diagnosis" ]
      },
      "category": [ {
        "coding": [ {
          "system": "http://terminology.hl7.org/CodeSystem/condition-category",
          "code": "encounter-diagnosis",
          "display": "Encounter Diagnosis"
        } ]
      } ],
      "code": {
        "coding": [ {
          "system": "http://snomed.info/sct",
          "version": "2022-09",
          "code": "169826009",
          "display": "Single live birth from singleton pregnancy (finding)",
          "userSelected": true
        } ]
      },
      "subject": {
        "reference": "Patient/deba38c2-7841-4133-a2e6-981e9095d19c"
      },
      "encounter": {
        "reference": "Encounter/33e472e3-047a-4b86-b3f6-16a5a77eb8a9"
      },
      "recordedDate": "2026-10-20T08:00:00.000+00:00"
    },
    "request": {
      "method": "PUT",
      "url": "Condition/04ed5a06-d2f6-46b3-a669-898d57644513"
    }
  }, {
    "fullUrl": "https://madie.cms.gov/Coverage/87e6868e-2b78-477f-9b08-2256ed7f8837",
    "resource": {
      "resourceType": "Coverage",
      "id": "87e6868e-2b78-477f-9b08-2256ed7f8837",
      "meta": {
        "profile": [ "http://hl7.org/fhir/us/qicore/StructureDefinition/qicore-coverage" ]
      },
      "status": "active",
      "subscriberId": "523435",
      "beneficiary": {
        "reference": "Patient/deba38c2-7841-4133-a2e6-981e9095d19c"
      },
      "relationship": {
        "coding": [ {
          "system": "http://terminology.hl7.org/CodeSystem/subscriber-relationship",
          "code": "self"
        } ]
      },
      "payor": [ {
        "reference": "Organization/45d63dd4-d22d-4e08-a0be-9c8d6d173495"
      } ]
    },
    "request": {
      "method": "PUT",
      "url": "Coverage/87e6868e-2b78-477f-9b08-2256ed7f8837"
    }
  }, {
    "fullUrl": "https://madie.cms.gov/Organization/45d63dd4-d22d-4e08-a0be-9c8d6d173495",
    "resource": {
      "resourceType": "Organization",
      "id": "45d63dd4-d22d-4e08-a0be-9c8d6d173495",
      "meta": {
        "profile": [ "http://hl7.org/fhir/us/qicore/StructureDefinition/qicore-organization" ]
      },
      "identifier": [ {
        "use": "temp",
        "system": "urn:oid:2.16.840.1.113883.4.4",
        "value": "21-3259825"
      } ],
      "active": true,
      "type": [ {
        "coding": [ {
          "system": "http://terminology.hl7.org/CodeSystem/organization-type",
          "code": "pay",
          "display": "Payer"
        } ]
      } ],
      "name": "Blue Cross Blue Shield of Texas",
      "telecom": [ {
        "system": "phone",
        "value": "(+1) 972-766-6900"
      } ],
      "address": [ {
        "use": "billing",
        "type": "postal",
        "line": [ "P.O. Box 660044" ],
        "city": "Dallas",
        "state": "TX",
        "postalCode": "75266-0044",
        "country": "USA"
      } ]
    },
    "request": {
      "method": "PUT",
      "url": "Organization/45d63dd4-d22d-4e08-a0be-9c8d6d173495"
    }
  }, {
    "fullUrl": "https://madie.cms.gov/Practitioner/04f7cde9-0cd6-4b5f-bef9-c86ef0c47fb6",
    "resource": {
      "resourceType": "Practitioner",
      "id": "04f7cde9-0cd6-4b5f-bef9-c86ef0c47fb6",
      "meta": {
        "profile": [ "http://hl7.org/fhir/us/qicore/StructureDefinition/qicore-practitioner" ]
      },
      "identifier": [ {
        "system": "http://hl7.org/fhir/sid/us-npi",
        "value": "1234567890"
      } ],
      "name": [ {
        "family": "Evil",
        "prefix": [ "Dr" ]
      } ]
    },
    "request": {
      "method": "PUT",
      "url": "Practitioner/04f7cde9-0cd6-4b5f-bef9-c86ef0c47fb6"
    }
  }, {
    "fullUrl": "https://madie.cms.gov/MeasureReport/9209f836-039e-45ab-9038-790f64ab05d9",
    "resource": {
      "resourceType": "MeasureReport",
      "id": "9209f836-039e-45ab-9038-790f64ab05d9",
      "meta": {
        "profile": [ "http://hl7.org/fhir/us/cqfmeasures/StructureDefinition/test-case-cqfm" ]
      },
      "contained": [ {
        "resourceType": "Parameters",
        "id": "073b3cdc-14d7-4e5b-90aa-297edba23c46-parameters",
        "parameter": [ {
          "name": "subject",
          "valueString": "deba38c2-7841-4133-a2e6-981e9095d19c"
        } ]
      } ],
      "extension": [ {
        "url": "http://hl7.org/fhir/StructureDefinition/cqf-inputParameters",
        "valueReference": {
          "reference": "#073b3cdc-14d7-4e5b-90aa-297edba23c46-parameters"
        }
      }, {
        "url": "http://hl7.org/fhir/us/cqfmeasures/StructureDefinition/cqfm-testCaseDescription",
        "valueMarkdown": "\"Preterm Births=0, relevant date/time before Asse delivery datetime\nTerm Newborn=0, authored < 42weeks prior to Asse delivery\"\n"
      } ],
      "modifierExtension": [ {
        "url": "http://hl7.org/fhir/us/cqfmeasures/StructureDefinition/cqfm-isTestCase",
        "valueBoolean": true
      } ],
      "status": "complete",
      "type": "individual",
      "measure": "https://madie.cms.gov/Measure/CMS0334FHIRPCCesareanBirth",
      "period": {
        "start": "2026-01-01",
        "end": "2026-12-31"
      },
      "group": [ {
        "id": "Group_1",
        "population": [ {
          "id": "InitialPopulation_1",
          "code": {
            "coding": [ {
              "system": "http://terminology.hl7.org/CodeSystem/measure-population",
              "code": "initial-population",
              "display": "Initial Population"
            } ]
          },
          "count": 1
        }, {
          "id": "Denominator_1",
          "code": {
            "coding": [ {
              "system": "http://terminology.hl7.org/CodeSystem/measure-population",
              "code": "denominator",
              "display": "Denominator"
            } ]
          },
          "count": 1
        }, {
          "id": "DenominatorExclusion_1",
          "code": {
            "coding": [ {
              "system": "http://terminology.hl7.org/CodeSystem/measure-population",
              "code": "denominator-exclusion",
              "display": "Denominator Exclusion"
            } ]
          },
          "count": 0
        }, {
          "id": "Numerator_1",
          "code": {
            "coding": [ {
              "system": "http://terminology.hl7.org/CodeSystem/measure-population",
              "code": "numerator",
              "display": "Numerator"
            } ]
          },
          "count": 1
        } ],
        "measureScore": {
          "value": 0.0
        }
      } ],
      "evaluatedResource": [ {
        "reference": "Patient/deba38c2-7841-4133-a2e6-981e9095d19c"
      }, {
        "reference": "Observation/930c7241-1b95-46b0-ae0d-8734261c48e7"
      }, {
        "reference": "Observation/55482679-36bf-43c1-9d7c-1a975ca51e85"
      }, {
        "reference": "Observation/91c55338-ba78-44f3-b688-fda16bf4a916"
      }, {
        "reference": "Observation/9ff8254b-6828-4e59-b67d-b1037defded8"
      }, {
        "reference": "Encounter/33e472e3-047a-4b86-b3f6-16a5a77eb8a9"
      }, {
        "reference": "Procedure/d49cf390-4ddf-47ff-b9b0-d8c5ae173f0e"
      }, {
        "reference": "Condition/04ed5a06-d2f6-46b3-a669-898d57644513"
      }, {
        "reference": "Coverage/87e6868e-2b78-477f-9b08-2256ed7f8837"
      }, {
        "reference": "Organization/45d63dd4-d22d-4e08-a0be-9c8d6d173495"
      }, {
        "reference": "Practitioner/04f7cde9-0cd6-4b5f-bef9-c86ef0c47fb6"
      } ]
    },
    "request": {
      "method": "PUT",
      "url": "MeasureReport/9209f836-039e-45ab-9038-790f64ab05d9"
    }
  } ]
}