{
  "resourceType": "Bundle",
  "id": "tests-Encounter-Medication-Lab-bundle",
  "type": "transaction",
  "entry": [ {
    "fullUrl": "https://madie.cms.gov/Patient/a3d7add3-8a14-4c22-a510-ddf143c477c1",
    "resource": {
      "resourceType": "Patient",
      "id": "a3d7add3-8a14-4c22-a510-ddf143c477c1",
      "meta": {
        "profile": [ "http://hl7.org/fhir/us/qicore/StructureDefinition/qicore-patient" ]
      },
      "identifier": [ {
        "system": "http://hospital.smarthealthit.org",
        "value": "999999999"
      } ],
      "name": [ {
        "use": "official",
        "family": "CMSNUMERPass",
        "given": [ "2EncOneNumerator" ]
      } ],
      "gender": "male",
      "birthDate": "1980-01-01"
    },
    "request": {
      "method": "PUT",
      "url": "Patient/a3d7add3-8a14-4c22-a510-ddf143c477c1"
    }
  }, {
    "fullUrl": "https://madie.cms.gov/Encounter/67c41846-26d4-4e26-b172-8740c0a557ca",
    "resource": {
      "resourceType": "Encounter",
      "id": "67c41846-26d4-4e26-b172-8740c0a557ca",
      "meta": {
        "profile": [ "http://hl7.org/fhir/us/qicore/StructureDefinition/qicore-encounter" ]
      },
      "status": "finished",
      "class": {
        "system": "http://terminology.hl7.org/CodeSystem/v3-ActCode",
        "code": "IMP",
        "display": "Inpatient encounter"
      },
      "type": [ {
        "coding": [ {
          "system": "http://snomed.info/sct",
          "code": "183452005",
          "display": "Emergency hospital admission (procedure)"
        } ]
      } ],
      "subject": {
        "reference": "Patient/a3d7add3-8a14-4c22-a510-ddf143c477c1"
      },
      "period": {
        "start": "2026-01-16T08:00:00.000Z",
        "end": "2026-01-19T09:00:00.000Z"
      }
    },
    "request": {
      "method": "PUT",
      "url": "Encounter/67c41846-26d4-4e26-b172-8740c0a557ca"
    }
  }, {
    "fullUrl": "https://madie.cms.gov/MedicationAdministration/7d6f8cff-d43a-43b4-b30f-95db28554fa0",
    "resource": {
      "resourceType": "MedicationAdministration",
      "id": "7d6f8cff-d43a-43b4-b30f-95db28554fa0",
      "meta": {
        "profile": [ "http://hl7.org/fhir/us/qicore/StructureDefinition/qicore-medicationadministration" ]
      },
      "status": "completed",
      "medicationCodeableConcept": {
        "coding": [ {
          "system": "http://www.nlm.nih.gov/research/umls/rxnorm",
          "code": "1543202",
          "display": "insulin, regular, human 4 UNT Inhalation Powder"
        } ]
      },
      "subject": {
        "reference": "Patient/a3d7add3-8a14-4c22-a510-ddf143c477c1"
      },
      "effectivePeriod": {
        "start": "2026-01-16T08:00:00.000Z",
        "end": "2026-01-16T09:00:00.000Z"
      }
    },
    "request": {
      "method": "PUT",
      "url": "MedicationAdministration/7d6f8cff-d43a-43b4-b30f-95db28554fa0"
    }
  }, {
    "fullUrl": "https://madie.cms.gov/Observation/718cc523-0d39-47c2-8001-2a0af41dc143",
    "resource": {
      "resourceType": "Observation",
      "id": "718cc523-0d39-47c2-8001-2a0af41dc143",
      "meta": {
        "profile": [ "http://hl7.org/fhir/us/qicore/StructureDefinition/qicore-observation-lab" ]
      },
      "status": "final",
      "category": [ {
        "coding": [ {
          "system": "http://terminology.hl7.org/CodeSystem/observation-category",
          "code": "laboratory",
          "display": "Laboratory"
        } ],
        "text": "Laboratory"
      } ],
      "code": {
        "coding": [ {
          "system": "http://loinc.org",
          "code": "1556-0",
          "display": "Fasting glucose [Mass/volume] in Capillary blood"
        } ]
      },
      "subject": {
        "reference": "Patient/a3d7add3-8a14-4c22-a510-ddf143c477c1"
      },
      "effectivePeriod": {
        "start": "2026-01-16T08:00:00.000Z",
        "end": "2026-01-16T08:00:00.000Z"
      },
      "issued": "2026-01-16T08:00:00.000Z",
      "valueQuantity": {
        "value": 39.9,
        "unit": "mg/dL"
      }
    },
    "request": {
      "method": "PUT",
      "url": "Observation/718cc523-0d39-47c2-8001-2a0af41dc143"
    }
  }, {
    "fullUrl": "https://madie.cms.gov/Observation/8cdfc33f-c2b1-4fad-b5f7-37cb0b7aac45",
    "resource": {
      "resourceType": "Observation",
      "id": "8cdfc33f-c2b1-4fad-b5f7-37cb0b7aac45",
      "meta": {
        "profile": [ "http://hl7.org/fhir/us/qicore/StructureDefinition/qicore-observation-lab" ]
      },
      "status": "final",
      "category": [ {
        "coding": [ {
          "system": "http://terminology.hl7.org/CodeSystem/observation-category",
          "code": "laboratory",
          "display": "Laboratory"
        } ],
        "text": "Laboratory"
      } ],
      "code": {
        "coding": [ {
          "system": "http://loinc.org",
          "code": "1556-0",
          "display": "Fasting glucose [Mass/volume] in Capillary blood"
        } ]
      },
      "subject": {
        "reference": "Patient/a3d7add3-8a14-4c22-a510-ddf143c477c1"
      },
      "effectivePeriod": {
        "start": "2026-01-16T08:05:00.000Z",
        "end": "2026-01-16T08:05:00.000Z"
      },
      "issued": "2026-01-16T08:05:00.000Z",
      "valueQuantity": {
        "value": 70,
        "unit": "mg/dL"
      }
    },
    "request": {
      "method": "PUT",
      "url": "Observation/8cdfc33f-c2b1-4fad-b5f7-37cb0b7aac45"
    }
  }, {
    "fullUrl": "https://madie.cms.gov/Encounter/a7d64ddf-c911-467b-ada8-8330cd9bb8d8",
    "resource": {
      "resourceType": "Encounter",
      "id": "a7d64ddf-c911-467b-ada8-8330cd9bb8d8",
      "meta": {
        "profile": [ "http://hl7.org/fhir/us/qicore/StructureDefinition/qicore-encounter" ]
      },
      "status": "finished",
      "class": {
        "system": "http://terminology.hl7.org/CodeSystem/v3-ActCode",
        "code": "EMER",
        "display": "emergency"
      },
      "type": [ {
        "coding": [ {
          "system": "http://snomed.info/sct",
          "code": "4525004",
          "display": "Emergency department patient visit (procedure)"
        } ]
      } ],
      "subject": {
        "reference": "Patient/a3d7add3-8a14-4c22-a510-ddf143c477c1"
      },
      "period": {
        "start": "2026-01-22T08:00:00.000Z",
        "end": "2026-01-23T08:00:00.000Z"
      }
    },
    "request": {
      "method": "PUT",
      "url": "Encounter/a7d64ddf-c911-467b-ada8-8330cd9bb8d8"
    }
  }, {
    "fullUrl": "https://madie.cms.gov/Encounter/ad130c9b-b3f0-47be-a9d2-e45c472d2d67",
    "resource": {
      "resourceType": "Encounter",
      "id": "ad130c9b-b3f0-47be-a9d2-e45c472d2d67",
      "meta": {
        "profile": [ "http://hl7.org/fhir/us/qicore/StructureDefinition/qicore-encounter" ]
      },
      "status": "finished",
      "class": {
        "system": "http://terminology.hl7.org/CodeSystem/v3-ActCode",
        "code": "IMP",
        "display": "Inpatient encounter"
      },
      "type": [ {
        "coding": [ {
          "system": "http://snomed.info/sct",
          "code": "183452005",
          "display": "Emergency hospital admission (procedure)"
        } ]
      } ],
      "subject": {
        "reference": "Patient/a3d7add3-8a14-4c22-a510-ddf143c477c1"
      },
      "period": {
        "start": "2026-01-23T08:00:00.000Z",
        "end": "2026-01-29T08:00:00.000Z"
      }
    },
    "request": {
      "method": "PUT",
      "url": "Encounter/ad130c9b-b3f0-47be-a9d2-e45c472d2d67"
    }
  }, {
    "fullUrl": "https://madie.cms.gov/MedicationAdministration/df0c0262-d79e-4904-9742-9fa9f48e882b",
    "resource": {
      "resourceType": "MedicationAdministration",
      "id": "df0c0262-d79e-4904-9742-9fa9f48e882b",
      "meta": {
        "profile": [ "http://hl7.org/fhir/us/qicore/StructureDefinition/qicore-medicationadministration" ]
      },
      "status": "completed",
      "medicationCodeableConcept": {
        "coding": [ {
          "system": "http://www.nlm.nih.gov/research/umls/rxnorm",
          "code": "1543202",
          "display": "insulin, regular, human 4 UNT Inhalation Powder"
        } ]
      },
      "subject": {
        "reference": "Patient/a3d7add3-8a14-4c22-a510-ddf143c477c1"
      },
      "effectivePeriod": {
        "start": "2026-01-22T08:00:00.000Z",
        "end": "2026-01-22T08:15:00.000Z"
      }
    },
    "request": {
      "method": "PUT",
      "url": "MedicationAdministration/df0c0262-d79e-4904-9742-9fa9f48e882b"
    }
  }, {
    "fullUrl": "https://madie.cms.gov/Observation/f2810375-747e-4238-8b43-5053d3e49f60",
    "resource": {
      "resourceType": "Observation",
      "id": "f2810375-747e-4238-8b43-5053d3e49f60",
      "meta": {
        "profile": [ "http://hl7.org/fhir/us/qicore/StructureDefinition/qicore-observation-lab" ]
      },
      "status": "final",
      "category": [ {
        "coding": [ {
          "system": "http://terminology.hl7.org/CodeSystem/observation-category",
          "code": "laboratory",
          "display": "Laboratory"
        } ],
        "text": "Laboratory"
      } ],
      "code": {
        "coding": [ {
          "system": "http://loinc.org",
          "code": "1556-0",
          "display": "Fasting glucose [Mass/volume] in Capillary blood"
        } ]
      },
      "subject": {
        "reference": "Patient/a3d7add3-8a14-4c22-a510-ddf143c477c1"
      },
      "effectivePeriod": {
        "start": "2026-01-22T08:00:00.000Z",
        "end": "2026-01-22T08:15:00.000Z"
      },
      "issued": "2026-01-22T08:00:00.000Z",
      "valueQuantity": {
        "value": 39.9,
        "unit": "mg/dL"
      }
    },
    "request": {
      "method": "PUT",
      "url": "Observation/f2810375-747e-4238-8b43-5053d3e49f60"
    }
  }, {
    "fullUrl": "https://madie.cms.gov/Observation/6b147aca-7756-42fa-868c-3ef6891f563e",
    "resource": {
      "resourceType": "Observation",
      "id": "6b147aca-7756-42fa-868c-3ef6891f563e",
      "meta": {
        "profile": [ "http://hl7.org/fhir/us/qicore/StructureDefinition/qicore-observation-lab" ]
      },
      "status": "final",
      "category": [ {
        "coding": [ {
          "system": "http://terminology.hl7.org/CodeSystem/observation-category",
          "code": "laboratory",
          "display": "Laboratory"
        } ],
        "text": "Laboratory"
      } ],
      "code": {
        "coding": [ {
          "system": "http://loinc.org",
          "code": "1556-0",
          "display": "Fasting glucose [Mass/volume] in Capillary blood"
        } ]
      },
      "subject": {
        "reference": "Patient/a3d7add3-8a14-4c22-a510-ddf143c477c1"
      },
      "effectivePeriod": {
        "start": "2026-01-22T08:05:00.000Z",
        "end": "2026-01-22T08:05:00.000Z"
      },
      "issued": "2026-01-22T08:05:00.000Z",
      "valueQuantity": {
        "value": 80.1,
        "unit": "mg/dL"
      }
    },
    "request": {
      "method": "PUT",
      "url": "Observation/6b147aca-7756-42fa-868c-3ef6891f563e"
    }
  }, {
    "fullUrl": "https://madie.cms.gov/MeasureReport/a3e25f0c-4df7-48fc-9f1e-771c1b922abb",
    "resource": {
      "resourceType": "MeasureReport",
      "id": "a3e25f0c-4df7-48fc-9f1e-771c1b922abb",
      "meta": {
        "profile": [ "http://hl7.org/fhir/us/cqfmeasures/StructureDefinition/test-case-cqfm" ]
      },
      "contained": [ {
        "resourceType": "Parameters",
        "id": "a5081066-ce21-4813-9e83-42c987b95d76-parameters",
        "parameter": [ {
          "name": "subject",
          "valueString": "a3d7add3-8a14-4c22-a510-ddf143c477c1"
        } ]
      } ],
      "extension": [ {
        "url": "http://hl7.org/fhir/StructureDefinition/cqf-inputParameters",
        "valueReference": {
          "reference": "#a5081066-ce21-4813-9e83-42c987b95d76-parameters"
        }
      }, {
        "url": "http://hl7.org/fhir/us/cqfmeasures/StructureDefinition/cqfm-testCaseDescription",
        "valueMarkdown": "1st IP Encounter with med. Lab LT 40, followed by lab LT 80 within 5 minutes. Meets Numerator. 2nd enc starts in ED. Has lab LT 40 followed by lab GT 80 within 5 minutes. Does not meet numerator. IPP/Denom = 2, Num = 1 \n\n(CMS #26)"
      } ],
      "modifierExtension": [ {
        "url": "http://hl7.org/fhir/us/cqfmeasures/StructureDefinition/cqfm-isTestCase",
        "valueBoolean": true
      } ],
      "status": "complete",
      "type": "individual",
      "measure": "https://madie.cms.gov/Measure/NHSNGlycemicControlHypoglycemiaInitialPopulation",
      "period": {
        "start": "2026-01-01",
        "end": "2026-12-31"
      },
      "group": [ {
        "id": "Group_1",
        "population": [ {
          "id": "InitialPopulation_1",
          "code": {
            "coding": [ {
              "system": "http://terminology.hl7.org/CodeSystem/measure-population",
              "code": "initial-population",
              "display": "Initial Population"
            } ]
          },
          "count": 2
        } ],
        "measureScore": {
          "value": 0.0
        }
      } ],
      "evaluatedResource": [ {
        "reference": "Patient/a3d7add3-8a14-4c22-a510-ddf143c477c1"
      }, {
        "reference": "Encounter/67c41846-26d4-4e26-b172-8740c0a557ca"
      }, {
        "reference": "MedicationAdministration/7d6f8cff-d43a-43b4-b30f-95db28554fa0"
      }, {
        "reference": "Observation/718cc523-0d39-47c2-8001-2a0af41dc143"
      }, {
        "reference": "Observation/8cdfc33f-c2b1-4fad-b5f7-37cb0b7aac45"
      }, {
        "reference": "Encounter/a7d64ddf-c911-467b-ada8-8330cd9bb8d8"
      }, {
        "reference": "Encounter/ad130c9b-b3f0-47be-a9d2-e45c472d2d67"
      }, {
        "reference": "MedicationAdministration/df0c0262-d79e-4904-9742-9fa9f48e882b"
      }, {
        "reference": "Observation/f2810375-747e-4238-8b43-5053d3e49f60"
      }, {
        "reference": "Observation/6b147aca-7756-42fa-868c-3ef6891f563e"
      } ]
    },
    "request": {
      "method": "PUT",
      "url": "MeasureReport/a3e25f0c-4df7-48fc-9f1e-771c1b922abb"
    }
  } ]
}