{
  "resourceType": "Bundle",
  "id": "633b3f9e0968f80122503cc6",
  "type": "transaction",
  "entry": [ {
    "fullUrl": "https://madie.cms.gov/Patient/d7103361-816e-4396-8d63-d1f8fb4e7b2d",
    "resource": {
      "resourceType": "Patient",
      "id": "d7103361-816e-4396-8d63-d1f8fb4e7b2d",
      "meta": {
        "profile": [ "http://hl7.org/fhir/us/qicore/StructureDefinition/qicore-patient" ]
      },
      "text": {
        "status": "generated",
        "div": "<div xmlns=\"http://www.w3.org/1999/xhtml\"><div class=\"hapiHeaderText\">DelProcStartEncEnd<b>IPPASS</b></div><table class=\"hapiPropertyTable\"><tbody><tr><td>Date of birth</td><td><span>31 January 2004</span></td></tr></tbody></table></div>"
      },
      "extension": [ {
        "url": "http://hl7.org/fhir/us/core/StructureDefinition/us-core-race",
        "extension": [ {
          "url": "ombCategory",
          "valueCoding": {
            "system": "urn:oid:2.16.840.1.113883.6.238",
            "code": "1002-5",
            "display": "American Indian or Alaska Native",
            "userSelected": true
          }
        }, {
          "url": "text",
          "valueString": "American Indian or Alaska Native"
        } ]
      }, {
        "url": "http://hl7.org/fhir/us/core/StructureDefinition/us-core-ethnicity",
        "extension": [ {
          "url": "ombCategory",
          "valueCoding": {
            "system": "urn:oid:2.16.840.1.113883.6.238",
            "code": "2135-2",
            "display": "Hispanic or Latino",
            "userSelected": true
          }
        }, {
          "url": "text",
          "valueString": "Hispanic or Latino"
        } ]
      } ],
      "identifier": [ {
        "type": {
          "coding": [ {
            "system": "http://terminology.hl7.org/CodeSystem/v2-0203",
            "code": "MR"
          } ]
        },
        "system": "https://bonnie-fhir.healthit.gov/",
        "value": "633b3f9e0968f80122503cc6"
      } ],
      "active": true,
      "name": [ {
        "use": "usual",
        "family": "IPPass",
        "given": [ "DelProcStartEncEnd" ]
      } ],
      "gender": "female",
      "birthDate": "2005-01-31"
    },
    "request": {
      "method": "PUT",
      "url": "Patient/d7103361-816e-4396-8d63-d1f8fb4e7b2d"
    }
  }, {
    "fullUrl": "https://madie.cms.gov/Encounter/e3f085a4-a9e4-4e2e-91db-be016f5a46ac",
    "resource": {
      "resourceType": "Encounter",
      "id": "e3f085a4-a9e4-4e2e-91db-be016f5a46ac",
      "meta": {
        "profile": [ "http://hl7.org/fhir/us/qicore/StructureDefinition/qicore-encounter" ]
      },
      "status": "finished",
      "class": {
        "system": "http://terminology.hl7.org/CodeSystem/v3-ActCode",
        "code": "IMP",
        "display": "inpatient encounter"
      },
      "type": [ {
        "coding": [ {
          "system": "http://snomed.info/sct",
          "code": "183452005"
        } ]
      } ],
      "subject": {
        "reference": "Patient/d7103361-816e-4396-8d63-d1f8fb4e7b2d"
      },
      "period": {
        "start": "2026-02-01T08:00:00.000+00:00",
        "end": "2026-02-05T08:15:00.000+00:00"
      }
    },
    "request": {
      "method": "PUT",
      "url": "Encounter/e3f085a4-a9e4-4e2e-91db-be016f5a46ac"
    }
  }, {
    "fullUrl": "https://madie.cms.gov/Procedure/840aedcb-c2ba-442d-a50f-27793b31c958",
    "resource": {
      "resourceType": "Procedure",
      "id": "840aedcb-c2ba-442d-a50f-27793b31c958",
      "meta": {
        "profile": [ "http://hl7.org/fhir/us/qicore/StructureDefinition/qicore-procedure" ]
      },
      "extension": [ {
        "url": "http://hl7.org/fhir/us/qicore/StructureDefinition/qicore-recorded",
        "valueDateTime": "2014-04-05T13:35:00.000+00:00"
      } ],
      "status": "completed",
      "code": {
        "coding": [ {
          "system": "http://snomed.info/sct",
          "code": "10745001"
        } ]
      },
      "subject": {
        "reference": "Patient/d7103361-816e-4396-8d63-d1f8fb4e7b2d"
      },
      "performedPeriod": {
        "start": "2026-02-05T08:15:00.000+00:00",
        "end": "2026-02-05T08:15:00.000+00:00"
      }
    },
    "request": {
      "method": "PUT",
      "url": "Procedure/840aedcb-c2ba-442d-a50f-27793b31c958"
    }
  }, {
    "fullUrl": "https://madie.cms.gov/Coverage/701b217c-a618-489b-9a93-dba3921c3cc8",
    "resource": {
      "resourceType": "Coverage",
      "id": "701b217c-a618-489b-9a93-dba3921c3cc8",
      "meta": {
        "profile": [ "http://hl7.org/fhir/us/qicore/StructureDefinition/qicore-coverage" ]
      },
      "status": "active",
      "beneficiary": {
        "reference": "Patient/d7103361-816e-4396-8d63-d1f8fb4e7b2d"
      },
      "payor": [ {
        "reference": "Organization/b7e333c8-bbec-4c04-a76e-8557fe48fe44"
      } ]
    },
    "request": {
      "method": "PUT",
      "url": "Coverage/701b217c-a618-489b-9a93-dba3921c3cc8"
    }
  }, {
    "fullUrl": "https://madie.cms.gov/Organization/b7e333c8-bbec-4c04-a76e-8557fe48fe44",
    "resource": {
      "resourceType": "Organization",
      "id": "b7e333c8-bbec-4c04-a76e-8557fe48fe44",
      "meta": {
        "profile": [ "http://hl7.org/fhir/us/qicore/StructureDefinition/qicore-organization" ]
      },
      "identifier": [ {
        "use": "temp",
        "system": "urn:oid:2.16.840.1.113883.4.4",
        "value": "21-3259825"
      } ],
      "active": true,
      "type": [ {
        "coding": [ {
          "system": "http://terminology.hl7.org/CodeSystem/organization-type",
          "code": "pay",
          "display": "Payer"
        } ]
      } ],
      "name": "Blue Cross Blue Shield of Texas",
      "telecom": [ {
        "system": "phone",
        "value": "(+1) 972-766-6900"
      } ],
      "address": [ {
        "use": "billing",
        "type": "postal",
        "line": [ "P.O. Box 660044" ],
        "city": "Dallas",
        "state": "TX",
        "postalCode": "75266-0044",
        "country": "USA"
      } ]
    },
    "request": {
      "method": "PUT",
      "url": "Organization/b7e333c8-bbec-4c04-a76e-8557fe48fe44"
    }
  }, {
    "fullUrl": "https://madie.cms.gov/Practitioner/b5d23a8a-e014-4a27-8fc7-204b17175917",
    "resource": {
      "resourceType": "Practitioner",
      "id": "b5d23a8a-e014-4a27-8fc7-204b17175917",
      "identifier": [ {
        "system": "http://hl7.org/fhir/sid/us-npi",
        "value": "123456"
      } ],
      "name": [ {
        "family": "Evil",
        "prefix": [ "Dr" ]
      } ]
    },
    "request": {
      "method": "PUT",
      "url": "Practitioner/b5d23a8a-e014-4a27-8fc7-204b17175917"
    }
  }, {
    "fullUrl": "https://madie.cms.gov/MeasureReport/d536679c-ae87-4322-b1c2-b6d3a3d38969",
    "resource": {
      "resourceType": "MeasureReport",
      "id": "d536679c-ae87-4322-b1c2-b6d3a3d38969",
      "meta": {
        "profile": [ "http://hl7.org/fhir/us/cqfmeasures/StructureDefinition/test-case-cqfm" ]
      },
      "contained": [ {
        "resourceType": "Parameters",
        "id": "9f7e26bc-f188-4b4d-b816-c32ce268907e-parameters",
        "parameter": [ {
          "name": "subject",
          "valueString": "d7103361-816e-4396-8d63-d1f8fb4e7b2d"
        } ]
      } ],
      "extension": [ {
        "url": "http://hl7.org/fhir/StructureDefinition/cqf-inputParameters",
        "valueReference": {
          "reference": "#9f7e26bc-f188-4b4d-b816-c32ce268907e-parameters"
        }
      }, {
        "url": "http://hl7.org/fhir/us/cqfmeasures/StructureDefinition/cqfm-testCaseDescription",
        "valueMarkdown": "Delivery procedure start equals encounter end\n"
      } ],
      "modifierExtension": [ {
        "url": "http://hl7.org/fhir/us/cqfmeasures/StructureDefinition/cqfm-isTestCase",
        "valueBoolean": true
      } ],
      "status": "complete",
      "type": "individual",
      "measure": "https://madie.cms.gov/Measure/CMS1028FHIRPCSevereOBComps",
      "period": {
        "start": "2026-01-01",
        "end": "2026-12-31"
      },
      "group": [ {
        "id": "Group_1",
        "population": [ {
          "id": "InitialPopulation_1",
          "code": {
            "coding": [ {
              "system": "http://terminology.hl7.org/CodeSystem/measure-population",
              "code": "initial-population",
              "display": "Initial Population"
            } ]
          },
          "count": 1
        }, {
          "id": "Denominator_1",
          "code": {
            "coding": [ {
              "system": "http://terminology.hl7.org/CodeSystem/measure-population",
              "code": "denominator",
              "display": "Denominator"
            } ]
          },
          "count": 0
        }, {
          "id": "Numerator_1",
          "code": {
            "coding": [ {
              "system": "http://terminology.hl7.org/CodeSystem/measure-population",
              "code": "numerator",
              "display": "Numerator"
            } ]
          },
          "count": 0
        }, {
          "id": "NumeratorExclusion_1",
          "code": {
            "coding": [ {
              "system": "http://terminology.hl7.org/CodeSystem/measure-population",
              "code": "numerator-exclusion",
              "display": "Numerator Exclusion"
            } ]
          },
          "count": 0
        } ],
        "measureScore": {
          "value": 0.0
        }
      }, {
        "id": "Group_2",
        "population": [ {
          "id": "InitialPopulation_2",
          "code": {
            "coding": [ {
              "system": "http://terminology.hl7.org/CodeSystem/measure-population",
              "code": "initial-population",
              "display": "Initial Population"
            } ]
          },
          "count": 1
        }, {
          "id": "Denominator_2",
          "code": {
            "coding": [ {
              "system": "http://terminology.hl7.org/CodeSystem/measure-population",
              "code": "denominator",
              "display": "Denominator"
            } ]
          },
          "count": 0
        }, {
          "id": "Numerator_2",
          "code": {
            "coding": [ {
              "system": "http://terminology.hl7.org/CodeSystem/measure-population",
              "code": "numerator",
              "display": "Numerator"
            } ]
          },
          "count": 0
        }, {
          "id": "NumeratorExclusion_2",
          "code": {
            "coding": [ {
              "system": "http://terminology.hl7.org/CodeSystem/measure-population",
              "code": "numerator-exclusion",
              "display": "Numerator Exclusion"
            } ]
          },
          "count": 0
        } ],
        "measureScore": {
          "value": 0.0
        }
      } ],
      "evaluatedResource": [ {
        "reference": "Patient/d7103361-816e-4396-8d63-d1f8fb4e7b2d"
      }, {
        "reference": "Encounter/e3f085a4-a9e4-4e2e-91db-be016f5a46ac"
      }, {
        "reference": "Procedure/840aedcb-c2ba-442d-a50f-27793b31c958"
      }, {
        "reference": "Coverage/701b217c-a618-489b-9a93-dba3921c3cc8"
      }, {
        "reference": "Organization/b7e333c8-bbec-4c04-a76e-8557fe48fe44"
      }, {
        "reference": "Practitioner/b5d23a8a-e014-4a27-8fc7-204b17175917"
      } ]
    },
    "request": {
      "method": "PUT",
      "url": "MeasureReport/d536679c-ae87-4322-b1c2-b6d3a3d38969"
    }
  } ]
}