{
  "resourceType": "Bundle",
  "id": "612e6f6b02c62a011f2f1c62",
  "type": "transaction",
  "entry": [ {
    "fullUrl": "https://madie.cms.gov/Patient/8bc6fd51-97ab-4227-9934-0b232fef8f71",
    "resource": {
      "resourceType": "Patient",
      "id": "8bc6fd51-97ab-4227-9934-0b232fef8f71",
      "meta": {
        "profile": [ "http://hl7.org/fhir/us/qicore/StructureDefinition/qicore-patient" ]
      },
      "text": {
        "status": "generated",
        "div": "<div xmlns=\"http://www.w3.org/1999/xhtml\"><div class=\"hapiHeaderText\">CMPerfDuringObsGT1HrBFAdmCMO1DayBFAdm <b>DENEXFAIL </b></div><table class=\"hapiPropertyTable\"><tbody><tr><td>Identifier</td><td>ca18d6e37e170afcef4732571aa1f371744051b417fc365332415a5c544ef910</td></tr><tr><td>Date of birth</td><td><span>03 March 1974</span></td></tr></tbody></table></div>"
      },
      "extension": [ {
        "url": "http://hl7.org/fhir/us/core/StructureDefinition/us-core-race",
        "extension": [ {
          "url": "ombCategory",
          "valueCoding": {
            "system": "urn:oid:2.16.840.1.113883.6.238",
            "code": "1002-5",
            "display": "American Indian or Alaska Native",
            "userSelected": true
          }
        }, {
          "url": "text",
          "valueString": "American Indian or Alaska Native"
        } ]
      }, {
        "url": "http://hl7.org/fhir/us/core/StructureDefinition/us-core-ethnicity",
        "extension": [ {
          "url": "ombCategory",
          "valueCoding": {
            "system": "urn:oid:2.16.840.1.113883.6.238",
            "code": "2135-2",
            "display": "Hispanic or Latino",
            "userSelected": true
          }
        }, {
          "url": "text",
          "valueString": "Hispanic or Latino"
        } ]
      } ],
      "identifier": [ {
        "type": {
          "coding": [ {
            "system": "http://terminology.hl7.org/CodeSystem/v2-0203",
            "code": "MR"
          } ]
        },
        "system": "https://bonnie-fhir.healthit.gov/",
        "value": "612e6f6b02c62a011f2f1c62"
      } ],
      "active": true,
      "name": [ {
        "use": "usual",
        "family": "DENEXFail",
        "given": [ "CMPerfDuringObsGT1HrBFAdmCMO1DayBFAdm" ]
      } ],
      "gender": "female",
      "birthDate": "1975-03-03"
    },
    "request": {
      "method": "PUT",
      "url": "Patient/8bc6fd51-97ab-4227-9934-0b232fef8f71"
    }
  }, {
    "fullUrl": "https://madie.cms.gov/Encounter/d3ab3d1d-6843-447e-8d42-9c154913498c",
    "resource": {
      "resourceType": "Encounter",
      "id": "d3ab3d1d-6843-447e-8d42-9c154913498c",
      "meta": {
        "profile": [ "http://hl7.org/fhir/us/qicore/StructureDefinition/qicore-encounter" ]
      },
      "status": "finished",
      "class": {
        "system": "http://terminology.hl7.org/CodeSystem/v3-ActCode",
        "code": "EMER",
        "display": "emergency"
      },
      "type": [ {
        "coding": [ {
          "system": "http://snomed.info/sct",
          "code": "4525004"
        } ]
      } ],
      "subject": {
        "reference": "Patient/8bc6fd51-97ab-4227-9934-0b232fef8f71"
      },
      "period": {
        "start": "2026-12-03T04:00:00.000+00:00",
        "end": "2026-12-04T05:00:00.000+00:00"
      },
      "length": {
        "value": 1.0,
        "unit": "days"
      }
    },
    "request": {
      "method": "PUT",
      "url": "Encounter/d3ab3d1d-6843-447e-8d42-9c154913498c"
    }
  }, {
    "fullUrl": "https://madie.cms.gov/Encounter/b62b1927-87af-4c55-8ae6-c76c663d4a9a",
    "resource": {
      "resourceType": "Encounter",
      "id": "b62b1927-87af-4c55-8ae6-c76c663d4a9a",
      "meta": {
        "profile": [ "http://hl7.org/fhir/us/qicore/StructureDefinition/qicore-encounter" ]
      },
      "status": "finished",
      "class": {
        "system": "http://terminology.hl7.org/CodeSystem/v3-ActCode",
        "code": "IMP",
        "display": "inpatient encounter"
      },
      "type": [ {
        "coding": [ {
          "system": "http://snomed.info/sct",
          "code": "8715000"
        } ]
      } ],
      "subject": {
        "reference": "Patient/8bc6fd51-97ab-4227-9934-0b232fef8f71"
      },
      "period": {
        "start": "2026-12-04T07:16:00.000+00:00",
        "end": "2026-12-30T08:15:00.000+00:00"
      },
      "length": {
        "value": 26.0,
        "unit": "days"
      },
      "location": [ {
        "location": {
          "reference": "Location/d55fb3bb-202b-420f-8b75-752bca54a7b9"
        },
        "period": {
          "start": "2026-12-26T08:00:00.000+00:00",
          "end": "2026-12-28T08:15:00.000+00:00"
        }
      } ]
    },
    "request": {
      "method": "PUT",
      "url": "Encounter/b62b1927-87af-4c55-8ae6-c76c663d4a9a"
    }
  }, {
    "fullUrl": "https://madie.cms.gov/Encounter/e54ebd71-ab06-4fa1-9d68-f1d4c72dff10",
    "resource": {
      "resourceType": "Encounter",
      "id": "e54ebd71-ab06-4fa1-9d68-f1d4c72dff10",
      "meta": {
        "profile": [ "http://hl7.org/fhir/us/qicore/StructureDefinition/qicore-encounter" ]
      },
      "status": "finished",
      "class": {
        "system": "http://terminology.hl7.org/CodeSystem/v3-ActCode",
        "code": "OBSENC",
        "display": "observation encounter"
      },
      "type": [ {
        "coding": [ {
          "system": "http://snomed.info/sct",
          "code": "448951000124107"
        } ]
      } ],
      "subject": {
        "reference": "Patient/8bc6fd51-97ab-4227-9934-0b232fef8f71"
      },
      "period": {
        "start": "2026-12-04T05:15:00.000+00:00",
        "end": "2026-12-04T06:15:00.000+00:00"
      }
    },
    "request": {
      "method": "PUT",
      "url": "Encounter/e54ebd71-ab06-4fa1-9d68-f1d4c72dff10"
    }
  }, {
    "fullUrl": "https://madie.cms.gov/Procedure/e6fa2578-4c51-4749-a9a7-93d55c7eb6c6",
    "resource": {
      "resourceType": "Procedure",
      "id": "e6fa2578-4c51-4749-a9a7-93d55c7eb6c6",
      "meta": {
        "profile": [ "http://hl7.org/fhir/us/qicore/StructureDefinition/qicore-procedure" ]
      },
      "extension": [ {
        "url": "http://hl7.org/fhir/us/qicore/StructureDefinition/qicore-recorded",
        "valueDateTime": "2013-12-03T13:35:00.000+00:00"
      } ],
      "status": "completed",
      "code": {
        "coding": [ {
          "system": "http://snomed.info/sct",
          "code": "133918004"
        } ]
      },
      "subject": {
        "reference": "Patient/8bc6fd51-97ab-4227-9934-0b232fef8f71"
      },
      "performedPeriod": {
        "start": "2026-12-03T06:00:00.000+00:00"
      }
    },
    "request": {
      "method": "PUT",
      "url": "Procedure/e6fa2578-4c51-4749-a9a7-93d55c7eb6c6"
    }
  }, {
    "fullUrl": "https://madie.cms.gov/Coverage/02b631cf-ff54-4e39-8737-6ba6a8b1d001",
    "resource": {
      "resourceType": "Coverage",
      "id": "02b631cf-ff54-4e39-8737-6ba6a8b1d001",
      "status": "active",
      "beneficiary": {
        "reference": "Patient/8bc6fd51-97ab-4227-9934-0b232fef8f71"
      },
      "period": {
        "start": "1975-03-03T08:00:00.000+00:00"
      },
      "payor": [ {
        "reference": "Organization/dfd3ef92-c959-450f-a1a5-471da253f08c"
      } ]
    },
    "request": {
      "method": "PUT",
      "url": "Coverage/02b631cf-ff54-4e39-8737-6ba6a8b1d001"
    }
  }, {
    "fullUrl": "https://madie.cms.gov/Location/d55fb3bb-202b-420f-8b75-752bca54a7b9",
    "resource": {
      "resourceType": "Location",
      "id": "d55fb3bb-202b-420f-8b75-752bca54a7b9",
      "meta": {
        "profile": [ "http://hl7.org/fhir/us/qicore/StructureDefinition/qicore-location" ]
      },
      "identifier": [ {
        "use": "usual",
        "system": "http://exampleoflocation.com",
        "value": "B1-S.F2"
      } ],
      "name": "Medical Surgical East, first floor",
      "type": [ {
        "coding": [ {
          "system": "https://www.cdc.gov/nhsn/cdaportal/terminology/codesystem/hsloc.html",
          "code": "1025-6",
          "display": "Trauma Critical Care",
          "userSelected": true
        } ]
      } ]
    },
    "request": {
      "method": "PUT",
      "url": "Location/d55fb3bb-202b-420f-8b75-752bca54a7b9"
    }
  }, {
    "fullUrl": "https://madie.cms.gov/Organization/dfd3ef92-c959-450f-a1a5-471da253f08c",
    "resource": {
      "resourceType": "Organization",
      "id": "dfd3ef92-c959-450f-a1a5-471da253f08c",
      "meta": {
        "profile": [ "http://hl7.org/fhir/us/qicore/StructureDefinition/qicore-organization" ]
      },
      "identifier": [ {
        "use": "temp",
        "system": "urn:oid:2.16.840.1.113883.4.4",
        "value": "21-3259825"
      } ],
      "active": true,
      "type": [ {
        "coding": [ {
          "system": "http://terminology.hl7.org/CodeSystem/organization-type",
          "code": "pay",
          "display": "Payer"
        } ]
      } ],
      "name": "Blue Cross Blue Shield of Texas",
      "telecom": [ {
        "system": "phone",
        "value": "(+1) 972-766-6900"
      } ],
      "address": [ {
        "use": "billing",
        "type": "postal",
        "line": [ "P.O. Box 660044" ],
        "city": "Dallas",
        "state": "TX",
        "postalCode": "75266-0044",
        "country": "USA"
      } ]
    },
    "request": {
      "method": "PUT",
      "url": "Organization/dfd3ef92-c959-450f-a1a5-471da253f08c"
    }
  }, {
    "fullUrl": "https://madie.cms.gov/Practitioner/bb8e9dca-b2b4-491e-a4ce-79b3544384d0",
    "resource": {
      "resourceType": "Practitioner",
      "id": "bb8e9dca-b2b4-491e-a4ce-79b3544384d0",
      "identifier": [ {
        "system": "http://hl7.org/fhir/sid/us-npi",
        "value": "123456"
      } ],
      "name": [ {
        "family": "Evil",
        "prefix": [ "Dr" ]
      } ]
    },
    "request": {
      "method": "PUT",
      "url": "Practitioner/bb8e9dca-b2b4-491e-a4ce-79b3544384d0"
    }
  }, {
    "fullUrl": "https://madie.cms.gov/MeasureReport/e6092f27-5331-406e-8a72-ba0b6f942248",
    "resource": {
      "resourceType": "MeasureReport",
      "id": "e6092f27-5331-406e-8a72-ba0b6f942248",
      "meta": {
        "profile": [ "http://hl7.org/fhir/us/cqfmeasures/StructureDefinition/test-case-cqfm" ]
      },
      "contained": [ {
        "resourceType": "Parameters",
        "id": "e51865ba-38fc-46d0-b835-1444290f3b27-parameters",
        "parameter": [ {
          "name": "subject",
          "valueString": "8bc6fd51-97ab-4227-9934-0b232fef8f71"
        } ]
      } ],
      "extension": [ {
        "url": "http://hl7.org/fhir/StructureDefinition/cqf-inputParameters",
        "valueReference": {
          "reference": "#e51865ba-38fc-46d0-b835-1444290f3b27-parameters"
        }
      }, {
        "url": "http://hl7.org/fhir/us/cqfmeasures/StructureDefinition/cqfm-testCaseDescription",
        "valueMarkdown": "meets IPP and Denominator, inpatient visit starts >1 hour after the end of Observation AND Comfort Measures are performed during Obs. This case fails because CMO is one day before Adm date\n"
      } ],
      "modifierExtension": [ {
        "url": "http://hl7.org/fhir/us/cqfmeasures/StructureDefinition/cqfm-isTestCase",
        "valueBoolean": true
      } ],
      "status": "complete",
      "type": "individual",
      "measure": "https://madie.cms.gov/Measure/CMS190FHIRVTEProphylaxisICU",
      "period": {
        "start": "2026-01-01",
        "end": "2026-12-31"
      },
      "group": [ {
        "id": "Group_1",
        "population": [ {
          "id": "InitialPopulation_1",
          "code": {
            "coding": [ {
              "system": "http://terminology.hl7.org/CodeSystem/measure-population",
              "code": "initial-population",
              "display": "Initial Population"
            } ]
          },
          "count": 1
        }, {
          "id": "Denominator_1",
          "code": {
            "coding": [ {
              "system": "http://terminology.hl7.org/CodeSystem/measure-population",
              "code": "denominator",
              "display": "Denominator"
            } ]
          },
          "count": 1
        }, {
          "id": "DenominatorExclusion_1",
          "code": {
            "coding": [ {
              "system": "http://terminology.hl7.org/CodeSystem/measure-population",
              "code": "denominator-exclusion",
              "display": "Denominator Exclusion"
            } ]
          },
          "count": 0
        }, {
          "id": "Numerator_1",
          "code": {
            "coding": [ {
              "system": "http://terminology.hl7.org/CodeSystem/measure-population",
              "code": "numerator",
              "display": "Numerator"
            } ]
          },
          "count": 0
        }, {
          "id": "DenominatorException_1",
          "code": {
            "coding": [ {
              "system": "http://terminology.hl7.org/CodeSystem/measure-population",
              "code": "denominator-exception",
              "display": "Denominator Exception"
            } ]
          },
          "count": 0
        } ],
        "measureScore": {
          "value": 0.0
        }
      } ],
      "evaluatedResource": [ {
        "reference": "Patient/8bc6fd51-97ab-4227-9934-0b232fef8f71"
      }, {
        "reference": "Encounter/d3ab3d1d-6843-447e-8d42-9c154913498c"
      }, {
        "reference": "Encounter/b62b1927-87af-4c55-8ae6-c76c663d4a9a"
      }, {
        "reference": "Encounter/e54ebd71-ab06-4fa1-9d68-f1d4c72dff10"
      }, {
        "reference": "Procedure/e6fa2578-4c51-4749-a9a7-93d55c7eb6c6"
      }, {
        "reference": "Coverage/02b631cf-ff54-4e39-8737-6ba6a8b1d001"
      }, {
        "reference": "Location/d55fb3bb-202b-420f-8b75-752bca54a7b9"
      }, {
        "reference": "Organization/dfd3ef92-c959-450f-a1a5-471da253f08c"
      }, {
        "reference": "Practitioner/bb8e9dca-b2b4-491e-a4ce-79b3544384d0"
      } ]
    },
    "request": {
      "method": "PUT",
      "url": "MeasureReport/e6092f27-5331-406e-8a72-ba0b6f942248"
    }
  } ]
}