{
  "resourceType": "Bundle",
  "id": "62bc59a13e113102f8cedc61",
  "type": "collection",
  "entry": [ {
    "fullUrl": "https://madie.cms.gov/Patient/c5bfac21-0dbf-4cf5-bc92-d7eff1d0a6c6",
    "resource": {
      "resourceType": "Patient",
      "id": "c5bfac21-0dbf-4cf5-bc92-d7eff1d0a6c6",
      "meta": {
        "profile": [ "http://hl7.org/fhir/us/qicore/StructureDefinition/qicore-patient" ]
      },
      "extension": [ {
        "url": "http://hl7.org/fhir/us/core/StructureDefinition/us-core-race",
        "extension": [ {
          "url": "ombCategory",
          "valueCoding": {
            "system": "urn:oid:2.16.840.1.113883.6.238",
            "code": "1002-5",
            "display": "American Indian or Alaska Native",
            "userSelected": true
          }
        }, {
          "url": "text",
          "valueString": "American Indian or Alaska Native"
        } ]
      }, {
        "url": "http://hl7.org/fhir/us/core/StructureDefinition/us-core-ethnicity",
        "extension": [ {
          "url": "ombCategory",
          "valueCoding": {
            "system": "urn:oid:2.16.840.1.113883.6.238",
            "code": "2135-2",
            "display": "Hispanic or Latino",
            "userSelected": true
          }
        }, {
          "url": "text",
          "valueString": "Hispanic or Latino"
        } ]
      } ],
      "identifier": [ {
        "type": {
          "coding": [ {
            "system": "http://terminology.hl7.org/CodeSystem/v2-0203",
            "code": "MR"
          } ]
        },
        "system": "https://bonnie-fhir.healthit.gov/",
        "value": "62bc59a13e113102f8cedc61"
      } ],
      "name": [ {
        "family": "DENEXCEPPass",
        "given": [ "NoDEXAOrderedDueToPatientRefusal" ]
      } ],
      "gender": "male",
      "birthDate": "1961-06-14"
    }
  }, {
    "fullUrl": "https://madie.cms.gov/Encounter/ddbe31bd-8d5a-48c7-bd2f-27ab5fd3f10b",
    "resource": {
      "resourceType": "Encounter",
      "id": "ddbe31bd-8d5a-48c7-bd2f-27ab5fd3f10b",
      "meta": {
        "profile": [ "http://hl7.org/fhir/us/qicore/StructureDefinition/qicore-encounter" ]
      },
      "status": "finished",
      "class": {
        "system": "http://terminology.hl7.org/CodeSystem/v3-ActCode",
        "code": "AMB",
        "display": "ambulatory"
      },
      "type": [ {
        "coding": [ {
          "system": "http://snomed.info/sct",
          "version": "http://snomed.info/sct/731000124108/version/20240401",
          "code": "185463005",
          "display": "Visit out of hours (procedure)"
        } ]
      } ],
      "subject": {
        "reference": "Patient/c5bfac21-0dbf-4cf5-bc92-d7eff1d0a6c6"
      },
      "period": {
        "start": "2026-06-25T08:00:00.000+00:00",
        "end": "2026-06-25T08:15:00.000+00:00"
      }
    }
  }, {
    "fullUrl": "https://madie.cms.gov/Condition/d890b88a-f0e3-448d-bb94-4b1f6a84187d",
    "resource": {
      "resourceType": "Condition",
      "id": "d890b88a-f0e3-448d-bb94-4b1f6a84187d",
      "meta": {
        "profile": [ "http://hl7.org/fhir/us/qicore/StructureDefinition/qicore-condition-problems-health-concerns" ]
      },
      "clinicalStatus": {
        "coding": [ {
          "system": "http://terminology.hl7.org/CodeSystem/condition-clinical",
          "code": "active",
          "display": "Active"
        } ]
      },
      "verificationStatus": {
        "coding": [ {
          "system": "http://terminology.hl7.org/CodeSystem/condition-ver-status",
          "code": "confirmed"
        } ]
      },
      "category": [ {
        "coding": [ {
          "system": "http://terminology.hl7.org/CodeSystem/condition-category",
          "code": "problem-list-item",
          "display": "Problem List Item"
        } ]
      } ],
      "code": {
        "coding": [ {
          "system": "http://snomed.info/sct",
          "version": "http://snomed.info/sct/731000124108/version/20250301",
          "code": "254900004",
          "display": "Carcinoma of prostate (disorder)",
          "userSelected": true
        } ]
      },
      "subject": {
        "reference": "Patient/c5bfac21-0dbf-4cf5-bc92-d7eff1d0a6c6"
      },
      "onsetPeriod": {
        "start": "2026-06-25T08:00:00.000+00:00"
      }
    }
  }, {
    "fullUrl": "https://madie.cms.gov/ServiceRequest/ee49885a-70b8-46b4-96a7-4c72d7044744",
    "resource": {
      "resourceType": "ServiceRequest",
      "id": "ee49885a-70b8-46b4-96a7-4c72d7044744",
      "meta": {
        "profile": [ "http://hl7.org/fhir/us/qicore/StructureDefinition/qicore-servicerequest" ]
      },
      "status": "active",
      "intent": "order",
      "code": {
        "coding": [ {
          "system": "http://snomed.info/sct",
          "version": "http://snomed.info/sct/731000124108/version/20250301",
          "code": "456381000124102",
          "display": "Injection of leuprolide acetate for twelve month period (regime/therapy)"
        } ]
      },
      "subject": {
        "reference": "Patient/c5bfac21-0dbf-4cf5-bc92-d7eff1d0a6c6"
      },
      "authoredOn": "2026-06-25T08:00:00.000+00:00"
    }
  }, {
    "fullUrl": "https://madie.cms.gov/MedicationRequest/416093d3-a0d6-4b43-9182-efa3b432f78e",
    "resource": {
      "resourceType": "MedicationRequest",
      "id": "416093d3-a0d6-4b43-9182-efa3b432f78e",
      "meta": {
        "profile": [ "http://hl7.org/fhir/us/qicore/StructureDefinition/qicore-medicationrequest" ]
      },
      "status": "active",
      "intent": "order",
      "medicationCodeableConcept": {
        "coding": [ {
          "system": "http://www.nlm.nih.gov/research/umls/rxnorm",
          "code": "1115257",
          "display": "1.5 ML leuprolide acetate 30 MG/ML Prefilled Syringe",
          "userSelected": true
        } ]
      },
      "subject": {
        "reference": "Patient/c5bfac21-0dbf-4cf5-bc92-d7eff1d0a6c6"
      },
      "authoredOn": "2026-06-25T08:00:00.000+00:00",
      "requester": {
        "reference": "http://myGoodHealthcare.com/fhir/Practitioner/a8d23a8e-99bb-41a0-8b1a-0f42ee2a3a73"
      },
      "dosageInstruction": [ {
        "timing": {
          "repeat": {
            "boundsPeriod": {
              "start": "2026-06-25T08:00:00.000+00:00",
              "end": "2026-07-25T08:15:00.000+00:00"
            }
          }
        }
      } ]
    }
  }, {
    "fullUrl": "https://madie.cms.gov/Practitioner/a8d23a8e-99bb-41a0-8b1a-0f42ee2a3a73",
    "resource": {
      "resourceType": "Practitioner",
      "id": "a8d23a8e-99bb-41a0-8b1a-0f42ee2a3a73",
      "meta": {
        "profile": [ "http://hl7.org/fhir/us/qicore/StructureDefinition/qicore-practitioner" ]
      },
      "identifier": [ {
        "use": "temp",
        "system": "urn:oid:2.16.840.1.113883.4.336",
        "value": "Practitioner-23"
      } ],
      "active": true,
      "name": [ {
        "family": "Careful",
        "given": [ "Adam" ],
        "prefix": [ "Dr" ]
      } ],
      "address": [ {
        "use": "home",
        "line": [ "534 Erewhon St" ],
        "city": "PleasantVille",
        "state": "UT",
        "postalCode": "84414"
      } ],
      "qualification": [ {
        "identifier": [ {
          "system": "http://example.org/UniversityIdentifier",
          "value": "12345"
        } ],
        "code": {
          "coding": [ {
            "system": "http://terminology.hl7.org/CodeSystem/v2-0360|2.7",
            "code": "BS",
            "display": "Bachelor of Science"
          } ],
          "text": "Bachelor of Science"
        },
        "period": {
          "start": "1996"
        },
        "issuer": {
          "display": "Example University"
        }
      } ]
    }
  }, {
    "fullUrl": "https://madie.cms.gov/ServiceRequest/d067549b-ec88-467a-9de9-4ccd468319ce",
    "resource": {
      "resourceType": "ServiceRequest",
      "id": "d067549b-ec88-467a-9de9-4ccd468319ce",
      "meta": {
        "profile": [ "http://hl7.org/fhir/us/qicore/StructureDefinition/qicore-servicenotrequested" ]
      },
      "extension": [ {
        "url": "http://hl7.org/fhir/us/qicore/StructureDefinition/qicore-doNotPerformReason",
        "valueCodeableConcept": {
          "coding": [ {
            "system": "http://snomed.info/sct",
            "code": "413311005",
            "display": "Patient non-compliant - declined intervention / support (situation)"
          } ]
        }
      } ],
      "status": "completed",
      "intent": "order",
      "doNotPerform": true,
      "code": {
        "coding": [ {
          "system": "http://loinc.org",
          "version": "2.71",
          "code": "38265-5",
          "display": "DXA Radius and Ulna [T-score] Bone density",
          "userSelected": true
        } ]
      },
      "subject": {
        "reference": "Patient/c5bfac21-0dbf-4cf5-bc92-d7eff1d0a6c6"
      },
      "authoredOn": "2026-07-25T08:00:00.000+00:00"
    }
  }, {
    "fullUrl": "https://madie.cms.gov/MeasureReport/ff0dae36-899e-426e-9f9d-0b7270a49bfb",
    "resource": {
      "resourceType": "MeasureReport",
      "id": "ff0dae36-899e-426e-9f9d-0b7270a49bfb",
      "meta": {
        "profile": [ "http://hl7.org/fhir/us/cqfmeasures/StructureDefinition/test-case-cqfm" ]
      },
      "contained": [ {
        "resourceType": "Parameters",
        "id": "4f681828-b3cf-4b17-83b0-114236702015-parameters",
        "parameter": [ {
          "name": "subject",
          "valueString": "c5bfac21-0dbf-4cf5-bc92-d7eff1d0a6c6"
        } ]
      } ],
      "extension": [ {
        "url": "http://hl7.org/fhir/StructureDefinition/cqf-inputParameters",
        "valueReference": {
          "reference": "#4f681828-b3cf-4b17-83b0-114236702015-parameters"
        }
      }, {
        "url": "http://hl7.org/fhir/us/cqfmeasures/StructureDefinition/cqfm-testCaseDescription",
        "valueMarkdown": "Prostate cancer and ADT given.  DEXA ordered but patient refused.  DENEXCEP pass   "
      } ],
      "modifierExtension": [ {
        "url": "http://hl7.org/fhir/us/cqfmeasures/StructureDefinition/cqfm-isTestCase",
        "valueBoolean": true
      } ],
      "status": "complete",
      "type": "individual",
      "measure": "https://madie.cms.gov/Measure/CMS645FHIRBoneDensityPCADTherapy",
      "period": {
        "start": "2026-01-01",
        "end": "2026-12-31"
      },
      "group": [ {
        "id": "Group_1",
        "population": [ {
          "id": "InitialPopulation_1",
          "code": {
            "coding": [ {
              "system": "http://terminology.hl7.org/CodeSystem/measure-population",
              "code": "initial-population",
              "display": "Initial Population"
            } ]
          },
          "count": 1
        }, {
          "id": "Denominator_1",
          "code": {
            "coding": [ {
              "system": "http://terminology.hl7.org/CodeSystem/measure-population",
              "code": "denominator",
              "display": "Denominator"
            } ]
          },
          "count": 1
        }, {
          "id": "Numerator_1",
          "code": {
            "coding": [ {
              "system": "http://terminology.hl7.org/CodeSystem/measure-population",
              "code": "numerator",
              "display": "Numerator"
            } ]
          },
          "count": 0
        }, {
          "id": "DenominatorException_1",
          "code": {
            "coding": [ {
              "system": "http://terminology.hl7.org/CodeSystem/measure-population",
              "code": "denominator-exception",
              "display": "Denominator Exception"
            } ]
          },
          "count": 1
        } ],
        "measureScore": {
          "value": 1.0
        }
      } ],
      "evaluatedResource": [ {
        "reference": "Patient/c5bfac21-0dbf-4cf5-bc92-d7eff1d0a6c6"
      }, {
        "reference": "Encounter/ddbe31bd-8d5a-48c7-bd2f-27ab5fd3f10b"
      }, {
        "reference": "Condition/d890b88a-f0e3-448d-bb94-4b1f6a84187d"
      }, {
        "reference": "ServiceRequest/ee49885a-70b8-46b4-96a7-4c72d7044744"
      }, {
        "reference": "MedicationRequest/416093d3-a0d6-4b43-9182-efa3b432f78e"
      }, {
        "reference": "Practitioner/a8d23a8e-99bb-41a0-8b1a-0f42ee2a3a73"
      }, {
        "reference": "ServiceRequest/d067549b-ec88-467a-9de9-4ccd468319ce"
      } ]
    }
  } ]
}