{
  "resourceType": "Bundle",
  "id": "tests-NUMERPass-Lab2is81AfterEncounterEnd-bundle",
  "type": "transaction",
  "entry": [ {
    "fullUrl": "https://madie.cms.gov/Encounter/bc664ff4-68d4-47f4-94cb-060a37bf56a5",
    "resource": {
      "resourceType": "Encounter",
      "id": "bc664ff4-68d4-47f4-94cb-060a37bf56a5",
      "meta": {
        "profile": [ "http://hl7.org/fhir/us/qicore/StructureDefinition/qicore-encounter" ]
      },
      "status": "finished",
      "class": {
        "system": "http://terminology.hl7.org/CodeSystem/v3-ActCode",
        "code": "IMP",
        "display": "Inpatient encounter"
      },
      "type": [ {
        "coding": [ {
          "system": "http://snomed.info/sct",
          "code": "183452005",
          "display": "Inpatient encounter"
        } ]
      } ],
      "period": {
        "start": "2026-07-11T08:00:00.000+00:00",
        "end": "2026-07-16T21:00:00.000+00:00"
      }
    },
    "request": {
      "method": "PUT",
      "url": "Encounter/bc664ff4-68d4-47f4-94cb-060a37bf56a5"
    }
  }, {
    "fullUrl": "https://madie.cms.gov/MedicationAdministration/943b0f5d-3add-42f9-9aad-40837eaa4567",
    "resource": {
      "resourceType": "MedicationAdministration",
      "id": "943b0f5d-3add-42f9-9aad-40837eaa4567",
      "meta": {
        "profile": [ "http://hl7.org/fhir/us/qicore/StructureDefinition/qicore-medicationadministration" ]
      },
      "status": "completed",
      "medicationCodeableConcept": {
        "coding": [ {
          "system": "http://www.nlm.nih.gov/research/umls/rxnorm",
          "code": "1653202",
          "display": "Hypoglycemics Severe Hypoglycemia"
        } ]
      },
      "subject": {
        "reference": "Patient/37fd9c7e-bf9e-4769-b448-094ed97bd3e8"
      },
      "effectivePeriod": {
        "start": "2026-07-16T08:00:00.000+00:00",
        "end": "2026-07-16T09:00:00.000+00:00"
      }
    },
    "request": {
      "method": "PUT",
      "url": "MedicationAdministration/943b0f5d-3add-42f9-9aad-40837eaa4567"
    }
  }, {
    "fullUrl": "https://madie.cms.gov/Observation/eeb9cf11-b9e1-451d-95a1-7b463871e5f5",
    "resource": {
      "resourceType": "Observation",
      "id": "eeb9cf11-b9e1-451d-95a1-7b463871e5f5",
      "meta": {
        "profile": [ "http://hl7.org/fhir/us/qicore/StructureDefinition/qicore-observation-lab" ]
      },
      "status": "final",
      "code": {
        "coding": [ {
          "system": "http://loinc.org",
          "code": "1556-0",
          "display": "Glucose Lab Test Mass Per Volume"
        } ]
      },
      "subject": {
        "reference": "Patient/37fd9c7e-bf9e-4769-b448-094ed97bd3e8"
      },
      "effectivePeriod": {
        "start": "2026-07-16T20:58:00.000+00:00",
        "end": "2026-07-16T20:58:00.000+00:00"
      },
      "issued": "2026-07-16T20:58:00.000+00:00",
      "valueQuantity": {
        "value": 35,
        "unit": "mg/dL"
      }
    },
    "request": {
      "method": "PUT",
      "url": "Observation/eeb9cf11-b9e1-451d-95a1-7b463871e5f5"
    }
  }, {
    "fullUrl": "https://madie.cms.gov/Observation/1e5b4578-37ea-48b7-90eb-566b396941fc",
    "resource": {
      "resourceType": "Observation",
      "id": "1e5b4578-37ea-48b7-90eb-566b396941fc",
      "meta": {
        "profile": [ "http://hl7.org/fhir/us/qicore/StructureDefinition/qicore-observation-lab" ]
      },
      "status": "final",
      "code": {
        "coding": [ {
          "system": "http://loinc.org",
          "code": "1556-0",
          "display": "Glucose Lab Test Mass Per Volume"
        } ]
      },
      "subject": {
        "reference": "Patient/37fd9c7e-bf9e-4769-b448-094ed97bd3e8"
      },
      "effectivePeriod": {
        "start": "2026-07-16T21:01:00.000+00:00",
        "end": "2026-07-16T21:01:00.000+00:00"
      },
      "issued": "2026-07-16T21:01:00.000+00:00",
      "valueQuantity": {
        "value": 81,
        "unit": "mg/dL"
      }
    },
    "request": {
      "method": "PUT",
      "url": "Observation/1e5b4578-37ea-48b7-90eb-566b396941fc"
    }
  }, {
    "fullUrl": "https://madie.cms.gov/Patient/37fd9c7e-bf9e-4769-b448-094ed97bd3e8",
    "resource": {
      "resourceType": "Patient",
      "id": "37fd9c7e-bf9e-4769-b448-094ed97bd3e8",
      "meta": {
        "profile": [ "http://hl7.org/fhir/us/qicore/StructureDefinition/qicore-patient" ]
      },
      "extension": [ {
        "url": "http://hl7.org/fhir/us/core/StructureDefinition/us-core-race",
        "extension": [ {
          "url": "ombCategory",
          "valueCoding": {
            "system": "urn:oid:2.16.840.1.113883.6.238",
            "code": "2106-3",
            "display": "White"
          }
        }, {
          "url": "text",
          "valueString": "White"
        } ]
      }, {
        "url": "http://hl7.org/fhir/us/core/StructureDefinition/us-core-ethnicity",
        "extension": [ {
          "url": "ombCategory",
          "valueCoding": {
            "system": "urn:oid:2.16.840.1.113883.6.238",
            "code": "2135-2",
            "display": "Hispanic or Latino"
          }
        }, {
          "url": "text",
          "valueString": "Hispanic or Latino"
        } ]
      }, {
        "url": "http://hl7.org/fhir/us/core/StructureDefinition/us-core-sex",
        "valueCode": "248153007"
      } ],
      "identifier": [ {
        "system": "http://hospital.smarthealthit.org",
        "value": "999999999"
      } ],
      "name": [ {
        "family": "Example",
        "given": [ "Patient" ]
      } ],
      "gender": "female",
      "birthDate": "2000-07-11"
    },
    "request": {
      "method": "PUT",
      "url": "Patient/37fd9c7e-bf9e-4769-b448-094ed97bd3e8"
    }
  }, {
    "fullUrl": "https://madie.cms.gov/MeasureReport/6c210a7d-98b1-4d37-a268-45d14a7e7b1d",
    "resource": {
      "resourceType": "MeasureReport",
      "id": "6c210a7d-98b1-4d37-a268-45d14a7e7b1d",
      "meta": {
        "profile": [ "http://hl7.org/fhir/us/cqfmeasures/StructureDefinition/test-case-cqfm" ]
      },
      "contained": [ {
        "resourceType": "Parameters",
        "id": "173f2de5-3287-4cb0-98c2-de49f8afa4dd-parameters",
        "parameter": [ {
          "name": "subject",
          "valueString": "37fd9c7e-bf9e-4769-b448-094ed97bd3e8"
        } ]
      } ],
      "extension": [ {
        "url": "http://hl7.org/fhir/StructureDefinition/cqf-inputParameters",
        "valueReference": {
          "reference": "#173f2de5-3287-4cb0-98c2-de49f8afa4dd-parameters"
        }
      }, {
        "url": "http://hl7.org/fhir/us/cqfmeasures/StructureDefinition/cqfm-testCaseDescription",
        "valueMarkdown": "Encounter ends 7/16 at 9pm. Hypo med given. Lab test 1 with result done 7/16 at 8:58pm within 24 hours of med = 35. Lab test 2 with result done 3 minutes later at 9:01pm (1 minute after discharge ) = 81. Numerator pass since high result is after enc"
      } ],
      "modifierExtension": [ {
        "url": "http://hl7.org/fhir/us/cqfmeasures/StructureDefinition/cqfm-isTestCase",
        "valueBoolean": true
      } ],
      "status": "complete",
      "type": "individual",
      "measure": "https://madie.cms.gov/Measure/CMS816FHIRHHHypo",
      "period": {
        "start": "2026-01-01",
        "end": "2026-12-31"
      },
      "group": [ {
        "id": "Group_1",
        "population": [ {
          "id": "InitialPopulation_1",
          "code": {
            "coding": [ {
              "system": "http://terminology.hl7.org/CodeSystem/measure-population",
              "code": "initial-population",
              "display": "Initial Population"
            } ]
          },
          "count": 1
        }, {
          "id": "Denominator_1",
          "code": {
            "coding": [ {
              "system": "http://terminology.hl7.org/CodeSystem/measure-population",
              "code": "denominator",
              "display": "Denominator"
            } ]
          },
          "count": 1
        }, {
          "id": "Numerator_1",
          "code": {
            "coding": [ {
              "system": "http://terminology.hl7.org/CodeSystem/measure-population",
              "code": "numerator",
              "display": "Numerator"
            } ]
          },
          "count": 1
        } ],
        "measureScore": {
          "value": 0.0
        }
      } ],
      "evaluatedResource": [ {
        "reference": "Encounter/bc664ff4-68d4-47f4-94cb-060a37bf56a5"
      }, {
        "reference": "MedicationAdministration/943b0f5d-3add-42f9-9aad-40837eaa4567"
      }, {
        "reference": "Observation/eeb9cf11-b9e1-451d-95a1-7b463871e5f5"
      }, {
        "reference": "Observation/1e5b4578-37ea-48b7-90eb-566b396941fc"
      }, {
        "reference": "Patient/37fd9c7e-bf9e-4769-b448-094ed97bd3e8"
      } ]
    },
    "request": {
      "method": "PUT",
      "url": "MeasureReport/6c210a7d-98b1-4d37-a268-45d14a7e7b1d"
    }
  } ]
}