{
  "resourceType": "Bundle",
  "id": "TMT-PATIENT-BUNDLE-19",
  "type": "collection",
  "entry": [ {
    "fullUrl": "https://madie.cms.gov/Patient/d48f4307-df8d-4533-88bb-923c458d7501",
    "resource": {
      "resourceType": "Patient",
      "id": "d48f4307-df8d-4533-88bb-923c458d7501",
      "meta": {
        "profile": [ "http://hl7.org/fhir/us/qicore/StructureDefinition/qicore-patient" ]
      },
      "text": {
        "status": "generated",
        "div": "<div xmlns=\"http://www.w3.org/1999/xhtml\"><div class=\"hapiHeaderText\">DOVE-IPP-PASS <b>PATIENT </b></div><table class=\"hapiPropertyTable\"><tbody><tr><td>Identifier</td><td>679a60f5-1866-49a0-9992-a7ded2451985</td></tr><tr><td>Date of birth</td><td><span>10 May 1960</span></td></tr></tbody></table></div>"
      },
      "extension": [ {
        "url": "http://hl7.org/fhir/us/core/StructureDefinition/us-core-race",
        "extension": [ {
          "url": "ombCategory",
          "valueCoding": {
            "system": "urn:oid:2.16.840.1.113883.6.238",
            "code": "1002-5",
            "display": "American Indian or Alaska Native",
            "userSelected": true
          }
        }, {
          "url": "text",
          "valueString": "American Indian or Alaska Native"
        }, {
          "url": "detailed",
          "valueCoding": {
            "system": "urn:oid:2.16.840.1.113883.6.238",
            "code": "1653-5",
            "display": "Tohono O'Odham"
          }
        } ]
      }, {
        "url": "http://hl7.org/fhir/us/core/StructureDefinition/us-core-ethnicity",
        "extension": [ {
          "url": "ombCategory",
          "valueCoding": {
            "system": "urn:oid:2.16.840.1.113883.6.238",
            "code": "2135-2",
            "display": "Hispanic or Latino",
            "userSelected": true
          }
        }, {
          "url": "text",
          "valueString": "Hispanic or Latino"
        }, {
          "url": "detailed",
          "valueCoding": {
            "system": "urn:oid:2.16.840.1.113883.6.238",
            "code": "2153-5",
            "display": "Mexican American Indian"
          }
        } ]
      }, {
        "id": "sex",
        "url": "http://hl7.org/fhir/us/core/StructureDefinition/us-core-sex",
        "valueCode": "248152002"
      } ],
      "identifier": [ {
        "use": "usual",
        "type": {
          "coding": [ {
            "system": "http://terminology.hl7.org/CodeSystem/v2-0203",
            "code": "MR"
          } ]
        },
        "system": "urn:oid:1.2.36.146.595.217.0.1",
        "value": "12345",
        "period": {
          "start": "1995-05-06"
        },
        "assigner": {
          "display": "Acme Healthcare"
        }
      } ],
      "active": true,
      "name": [ {
        "use": "official",
        "family": "Dovetestpatient19",
        "given": [ "Sarah" ]
      } ],
      "telecom": [ {
        "system": "phone",
        "value": "(212) 212 1212",
        "use": "mobile",
        "rank": 1
      } ],
      "gender": "female",
      "birthDate": "1946-09-25",
      "_birthDate": {
        "extension": [ {
          "url": "http://hl7.org/fhir/StructureDefinition/patient-birthTime",
          "valueDateTime": "1946-09-25T19:35:45.000+00:00"
        } ]
      },
      "deceasedBoolean": false,
      "address": [ {
        "use": "home",
        "type": "both",
        "text": "1600 Pennslyvania Ave",
        "line": [ "1600 Pennslyvania Ave" ],
        "city": "Washington DC",
        "state": "DC",
        "postalCode": "20500",
        "period": {
          "start": "1946-12-25"
        }
      } ],
      "contact": [ {
        "relationship": [ {
          "coding": [ {
            "system": "http://terminology.hl7.org/CodeSystem/v2-0131",
            "code": "N"
          } ]
        } ],
        "name": {
          "family": "du Marché",
          "_family": {
            "extension": [ {
              "url": "http://hl7.org/fhir/StructureDefinition/humanname-own-prefix",
              "valueString": "VV"
            } ]
          },
          "given": [ "Bénédicte" ]
        },
        "telecom": [ {
          "system": "phone",
          "value": "+33 (237) 998327"
        } ],
        "address": {
          "use": "home",
          "type": "both",
          "line": [ "534 Erewhon St" ],
          "city": "PleasantVille",
          "district": "Rainbow",
          "state": "VT",
          "postalCode": "3999",
          "period": {
            "start": "1974-12-25"
          }
        },
        "gender": "female",
        "period": {
          "start": "2012"
        }
      } ],
      "managingOrganization": {
        "reference": "Organization/example"
      }
    }
  }, {
    "fullUrl": "https://madie.cms.gov/Encounter/5f6fcef8-dd74-4cbf-80f2-4040b5baa2b2",
    "resource": {
      "resourceType": "Encounter",
      "id": "5f6fcef8-dd74-4cbf-80f2-4040b5baa2b2",
      "meta": {
        "profile": [ "http://hl7.org/fhir/us/qicore/StructureDefinition/qicore-encounter" ]
      },
      "text": {
        "status": "generated",
        "div": "<div xmlns=\"http://www.w3.org/1999/xhtml\"><div class=\"hapiHeaderText\">Generic Resource Narrative for Testing</div><table class=\"hapiPropertyTable\"><tbody><tr><td>Identifier</td><td>resource narrative</td></tr></tbody></table></div>"
      },
      "status": "finished",
      "class": {
        "system": "http://terminology.hl7.org/CodeSystem/v3-ActCode",
        "code": "IMP",
        "display": "inpatient encounter"
      },
      "type": [ {
        "coding": [ {
          "system": "http://snomed.info/sct",
          "code": "183452005",
          "display": "Emergency hospital admission (procedure)"
        } ]
      } ],
      "subject": {
        "reference": "Patient/d48f4307-df8d-4533-88bb-923c458d7501"
      },
      "period": {
        "start": "2026-01-01T02:30:00.000+00:00",
        "end": "2026-01-01T22:30:00.000+00:00"
      },
      "length": {
        "value": 20,
        "unit": "hours"
      },
      "reasonCode": [ {
        "coding": [ {
          "system": "http://hl7.org/fhir/sid/icd-10-cm",
          "code": "I82.3",
          "display": "Embolism and thrombosis of renal vein",
          "userSelected": true
        } ]
      } ],
      "reasonReference": [ {
        "reference": "Condition/53e1d0b8-73d9-441b-b9df-90a1f153a151"
      } ]
    }
  }, {
    "fullUrl": "https://madie.cms.gov/Encounter/d5a75fa5-be82-4197-a535-bf9803f33681",
    "resource": {
      "resourceType": "Encounter",
      "id": "d5a75fa5-be82-4197-a535-bf9803f33681",
      "meta": {
        "profile": [ "http://hl7.org/fhir/us/qicore/StructureDefinition/qicore-encounter" ]
      },
      "text": {
        "status": "generated",
        "div": "<div xmlns=\"http://www.w3.org/1999/xhtml\"><div class=\"hapiHeaderText\">Generic Resource Narrative for Testing</div><table class=\"hapiPropertyTable\"><tbody><tr><td>Identifier</td><td>resource narrative</td></tr></tbody></table></div>"
      },
      "status": "finished",
      "class": {
        "system": "http://terminology.hl7.org/CodeSystem/v3-ActCode",
        "code": "IMP",
        "display": "inpatient encounter"
      },
      "type": [ {
        "coding": [ {
          "system": "http://snomed.info/sct",
          "code": "183452005",
          "display": "Emergency hospital admission (procedure)"
        } ]
      } ],
      "subject": {
        "reference": "Patient/d48f4307-df8d-4533-88bb-923c458d7501"
      },
      "period": {
        "start": "2026-07-01T02:31:00.000+00:00",
        "end": "2026-07-01T22:31:00.000+00:00"
      },
      "length": {
        "value": 20,
        "unit": "hours"
      },
      "reasonCode": [ {
        "coding": [ {
          "system": "http://hl7.org/fhir/sid/icd-10-cm",
          "code": "I82.3",
          "display": "Embolism and thrombosis of renal vein",
          "userSelected": true
        } ]
      } ],
      "reasonReference": [ {
        "reference": "Condition/26078e42-6cd5-4456-a7b2-c0e73da590fd"
      } ]
    }
  }, {
    "fullUrl": "https://madie.cms.gov/Condition/53e1d0b8-73d9-441b-b9df-90a1f153a151",
    "resource": {
      "resourceType": "Condition",
      "id": "53e1d0b8-73d9-441b-b9df-90a1f153a151",
      "meta": {
        "profile": [ "http://hl7.org/fhir/us/qicore/StructureDefinition/qicore-condition-encounter-diagnosis" ]
      },
      "text": {
        "status": "generated",
        "div": "<div xmlns=\"http://www.w3.org/1999/xhtml\"><div class=\"hapiHeaderText\">Generic Resource Narrative for Testing</div><table class=\"hapiPropertyTable\"><tbody><tr><td>Identifier</td><td>resource narrative</td></tr></tbody></table></div>"
      },
      "clinicalStatus": {
        "coding": [ {
          "system": "http://terminology.hl7.org/CodeSystem/condition-clinical",
          "code": "active"
        } ]
      },
      "verificationStatus": {
        "coding": [ {
          "system": "http://terminology.hl7.org/CodeSystem/condition-ver-status",
          "code": "confirmed"
        } ]
      },
      "category": [ {
        "coding": [ {
          "system": "http://terminology.hl7.org/CodeSystem/condition-category",
          "code": "encounter-diagnosis",
          "display": "Encounter Diagnosis"
        } ]
      } ],
      "code": {
        "coding": [ {
          "system": "http://hl7.org/fhir/sid/icd-10-cm",
          "code": "I82.3",
          "display": "Embolism and thrombosis of renal vein"
        } ],
        "text": "Embolism and thrombosis of renal vein"
      },
      "subject": {
        "reference": "Patient/d48f4307-df8d-4533-88bb-923c458d7501"
      },
      "encounter": {
        "reference": "Encounter/5f6fcef8-dd74-4cbf-80f2-4040b5baa2b2"
      },
      "onsetDateTime": "2026-01-01T04:30:00.000+00:00",
      "recordedDate": "2026-01-01T04:30:00.000+00:00"
    }
  }, {
    "fullUrl": "https://madie.cms.gov/Condition/26078e42-6cd5-4456-a7b2-c0e73da590fd",
    "resource": {
      "resourceType": "Condition",
      "id": "26078e42-6cd5-4456-a7b2-c0e73da590fd",
      "meta": {
        "profile": [ "http://hl7.org/fhir/us/qicore/StructureDefinition/qicore-condition-encounter-diagnosis" ]
      },
      "text": {
        "status": "generated",
        "div": "<div xmlns=\"http://www.w3.org/1999/xhtml\"><div class=\"hapiHeaderText\">Generic Resource Narrative for Testing</div><table class=\"hapiPropertyTable\"><tbody><tr><td>Identifier</td><td>resource narrative</td></tr></tbody></table></div>"
      },
      "clinicalStatus": {
        "coding": [ {
          "system": "http://terminology.hl7.org/CodeSystem/condition-clinical",
          "code": "active"
        } ]
      },
      "verificationStatus": {
        "coding": [ {
          "system": "http://terminology.hl7.org/CodeSystem/condition-ver-status",
          "code": "confirmed"
        } ]
      },
      "category": [ {
        "coding": [ {
          "system": "http://terminology.hl7.org/CodeSystem/condition-category",
          "code": "encounter-diagnosis",
          "display": "Encounter Diagnosis"
        } ]
      } ],
      "code": {
        "coding": [ {
          "system": "http://hl7.org/fhir/sid/icd-10-cm",
          "code": "I82.3",
          "display": "Embolism and thrombosis of renal vein"
        } ],
        "text": "Embolism and thrombosis of renal vein"
      },
      "subject": {
        "reference": "Patient/d48f4307-df8d-4533-88bb-923c458d7501"
      },
      "encounter": {
        "reference": "Encounter/d5a75fa5-be82-4197-a535-bf9803f33681"
      },
      "onsetDateTime": "2026-07-01T04:30:00.000+00:00",
      "recordedDate": "2026-07-01T04:30:00.000+00:00"
    }
  }, {
    "fullUrl": "https://madie.cms.gov/Encounter/4c0f798d-0821-42f3-9c7a-4a44641329b4",
    "resource": {
      "resourceType": "Encounter",
      "id": "4c0f798d-0821-42f3-9c7a-4a44641329b4",
      "meta": {
        "profile": [ "http://hl7.org/fhir/us/qicore/StructureDefinition/qicore-encounter" ]
      },
      "text": {
        "status": "generated",
        "div": "<div xmlns=\"http://www.w3.org/1999/xhtml\"><div class=\"hapiHeaderText\">Generic Resource Narrative for Testing</div><table class=\"hapiPropertyTable\"><tbody><tr><td>Identifier</td><td>resource narrative</td></tr></tbody></table></div>"
      },
      "status": "finished",
      "class": {
        "system": "http://terminology.hl7.org/CodeSystem/v3-ActCode",
        "code": "AMB",
        "display": "ambulatory"
      },
      "type": [ {
        "coding": [ {
          "system": "http://www.ama-assn.org/go/cpt",
          "code": "99202",
          "display": "Office or other outpatient visit for the evaluation and management of a new patient, which requires a medically appropriate history and/or examination and straightforward medical decision making. When using time for code selection, 15-29 minutes of total time is spent on the date of the encounter."
        } ]
      } ],
      "subject": {
        "reference": "Patient/d48f4307-df8d-4533-88bb-923c458d7501"
      },
      "period": {
        "start": "2025-12-02T17:48:57.000+00:00",
        "end": "2025-12-02T18:00:00.000+00:00"
      },
      "length": {
        "value": 20,
        "unit": "hours"
      },
      "reasonCode": [ {
        "coding": [ {
          "system": "http://snomed.info/sct",
          "code": "10601006",
          "display": "Pain in lower limb (finding)",
          "userSelected": true
        } ]
      } ],
      "reasonReference": [ {
        "reference": "Condition/1d32722a-5a6f-4610-8319-7887df811aa1"
      } ]
    }
  }, {
    "fullUrl": "https://madie.cms.gov/Encounter/713de14a-e826-4128-8ef8-8b3c3d4edba7",
    "resource": {
      "resourceType": "Encounter",
      "id": "713de14a-e826-4128-8ef8-8b3c3d4edba7",
      "meta": {
        "profile": [ "http://hl7.org/fhir/us/qicore/StructureDefinition/qicore-encounter" ]
      },
      "text": {
        "status": "generated",
        "div": "<div xmlns=\"http://www.w3.org/1999/xhtml\"><div class=\"hapiHeaderText\">Generic Resource Narrative for Testing</div><table class=\"hapiPropertyTable\"><tbody><tr><td>Identifier</td><td>resource narrative</td></tr></tbody></table></div>"
      },
      "status": "finished",
      "class": {
        "system": "http://terminology.hl7.org/CodeSystem/v3-ActCode",
        "code": "AMB",
        "display": "ambulatory"
      },
      "type": [ {
        "coding": [ {
          "system": "http://www.ama-assn.org/go/cpt",
          "code": "99202",
          "display": "Office or other outpatient visit for the evaluation and management of a new patient, which requires a medically appropriate history and/or examination and straightforward medical decision making. When using time for code selection, 15-29 minutes of total time is spent on the date of the encounter."
        } ]
      } ],
      "subject": {
        "reference": "Patient/d48f4307-df8d-4533-88bb-923c458d7501"
      },
      "period": {
        "start": "2026-06-11T02:30:00.000+00:00",
        "end": "2026-06-11T18:00:00.000+00:00"
      },
      "length": {
        "value": 20,
        "unit": "hours"
      },
      "reasonCode": [ {
        "coding": [ {
          "system": "http://snomed.info/sct",
          "code": "10601006",
          "display": "Pain in lower limb (finding)",
          "userSelected": true
        } ]
      } ],
      "reasonReference": [ {
        "reference": "Condition/1d32722a-5a6f-4610-8319-7887df811aa1"
      } ]
    }
  }, {
    "fullUrl": "https://madie.cms.gov/Condition/1d32722a-5a6f-4610-8319-7887df811aa1",
    "resource": {
      "resourceType": "Condition",
      "id": "1d32722a-5a6f-4610-8319-7887df811aa1",
      "meta": {
        "profile": [ "http://hl7.org/fhir/us/qicore/StructureDefinition/qicore-condition-encounter-diagnosis" ]
      },
      "text": {
        "status": "generated",
        "div": "<div xmlns=\"http://www.w3.org/1999/xhtml\"><div class=\"hapiHeaderText\">Generic Resource Narrative for Testing</div><table class=\"hapiPropertyTable\"><tbody><tr><td>Identifier</td><td>resource narrative</td></tr></tbody></table></div>"
      },
      "clinicalStatus": {
        "coding": [ {
          "system": "http://terminology.hl7.org/CodeSystem/condition-clinical",
          "code": "active"
        } ]
      },
      "verificationStatus": {
        "coding": [ {
          "system": "http://terminology.hl7.org/CodeSystem/condition-ver-status",
          "code": "confirmed"
        } ]
      },
      "category": [ {
        "coding": [ {
          "system": "http://terminology.hl7.org/CodeSystem/condition-category",
          "code": "encounter-diagnosis",
          "display": "Encounter Diagnosis"
        } ]
      } ],
      "code": {
        "coding": [ {
          "system": "http://snomed.info/sct",
          "code": "10601006",
          "display": "Pain in lower limb (finding)"
        } ],
        "text": "Pain in lower limb (finding)"
      },
      "subject": {
        "reference": "Patient/d48f4307-df8d-4533-88bb-923c458d7501"
      },
      "encounter": {
        "reference": "Encounter/4c0f798d-0821-42f3-9c7a-4a44641329b4"
      },
      "onsetDateTime": "2025-12-02T17:48:57.000+00:00",
      "recordedDate": "2025-12-02T17:48:57.000+00:00"
    }
  }, {
    "fullUrl": "https://madie.cms.gov/Condition/99ba3b5d-8546-47ee-8251-72489a0da6ee",
    "resource": {
      "resourceType": "Condition",
      "id": "99ba3b5d-8546-47ee-8251-72489a0da6ee",
      "meta": {
        "profile": [ "http://hl7.org/fhir/us/qicore/StructureDefinition/qicore-condition-encounter-diagnosis" ]
      },
      "text": {
        "status": "generated",
        "div": "<div xmlns=\"http://www.w3.org/1999/xhtml\"><div class=\"hapiHeaderText\">Generic Resource Narrative for Testing</div><table class=\"hapiPropertyTable\"><tbody><tr><td>Identifier</td><td>resource narrative</td></tr></tbody></table></div>"
      },
      "clinicalStatus": {
        "coding": [ {
          "system": "http://terminology.hl7.org/CodeSystem/condition-clinical",
          "code": "active"
        } ]
      },
      "verificationStatus": {
        "coding": [ {
          "system": "http://terminology.hl7.org/CodeSystem/condition-ver-status",
          "code": "confirmed"
        } ]
      },
      "category": [ {
        "coding": [ {
          "system": "http://terminology.hl7.org/CodeSystem/condition-category",
          "code": "encounter-diagnosis",
          "display": "Encounter Diagnosis"
        } ]
      } ],
      "code": {
        "coding": [ {
          "system": "http://snomed.info/sct",
          "code": "10601006",
          "display": "Pain in lower limb (finding)"
        } ],
        "text": "Pain in lower limb (finding)"
      },
      "subject": {
        "reference": "Patient/d48f4307-df8d-4533-88bb-923c458d7501"
      },
      "encounter": {
        "reference": "Encounter/713de14a-e826-4128-8ef8-8b3c3d4edba7"
      },
      "onsetDateTime": "2026-06-11T17:48:57.000+00:00",
      "recordedDate": "2026-06-11T17:48:57.000+00:00"
    }
  }, {
    "fullUrl": "https://madie.cms.gov/Observation/7ad6d477-84c3-412a-af3f-f441e4398666",
    "resource": {
      "resourceType": "Observation",
      "id": "7ad6d477-84c3-412a-af3f-f441e4398666",
      "meta": {
        "profile": [ "http://hl7.org/fhir/us/qicore/StructureDefinition/qicore-observation-clinical-result" ]
      },
      "text": {
        "status": "generated",
        "div": "<div xmlns=\"http://www.w3.org/1999/xhtml\"><div class=\"hapiHeaderText\">Generic Resource Narrative for Testing</div><table class=\"hapiPropertyTable\"><tbody><tr><td>Identifier</td><td>resource narrative</td></tr></tbody></table></div>"
      },
      "status": "final",
      "category": [ {
        "coding": [ {
          "system": "http://terminology.hl7.org/CodeSystem/observation-category",
          "code": "imaging",
          "display": "Imaging"
        } ],
        "text": "Imaging"
      } ],
      "code": {
        "coding": [ {
          "system": "http://www.ama-assn.org/go/cpt",
          "code": "71260",
          "display": "Computed tomography, thorax, diagnostic; with contrast material(s)"
        } ],
        "text": "Computed tomography, thorax, diagnostic; with contrast material(s)"
      },
      "subject": {
        "reference": "Patient/d48f4307-df8d-4533-88bb-923c458d7501"
      },
      "encounter": {
        "display": "Computed tomography"
      },
      "effectiveDateTime": "2026-01-01T17:48:57.000+00:00",
      "performer": [ {
        "reference": "Practitioner/example",
        "display": "Practitioner"
      } ],
      "valueString": "Regular (R)"
    }
  }, {
    "fullUrl": "https://madie.cms.gov/DiagnosticReport/8829f29e-576e-431f-8d5e-a8fadd1188eb",
    "resource": {
      "resourceType": "DiagnosticReport",
      "id": "8829f29e-576e-431f-8d5e-a8fadd1188eb",
      "meta": {
        "profile": [ "http://hl7.org/fhir/us/qicore/StructureDefinition/qicore-diagnosticreport-note" ]
      },
      "text": {
        "status": "generated",
        "div": "<div xmlns=\"http://www.w3.org/1999/xhtml\"><div class=\"hapiHeaderText\">Generic Resource Narrative for Testing</div><table class=\"hapiPropertyTable\"><tbody><tr><td>Identifier</td><td>resource narrative</td></tr></tbody></table></div>"
      },
      "status": "final",
      "category": [ {
        "coding": [ {
          "system": "http://loinc.org",
          "code": "LP29684-5",
          "display": "Radiology"
        } ],
        "text": "Imaging"
      } ],
      "code": {
        "coding": [ {
          "system": "http://www.ama-assn.org/go/cpt",
          "code": "71260",
          "display": "Computed tomography, thorax, diagnostic; with contrast material(s)"
        } ],
        "text": "Computed tomography, thorax, diagnostic; with contrast material(s)"
      },
      "subject": {
        "reference": "Patient/d48f4307-df8d-4533-88bb-923c458d7501"
      },
      "encounter": {
        "display": "Computed tomography"
      },
      "effectiveDateTime": "2026-01-01T17:48:57.000+00:00",
      "performer": [ {
        "reference": "Practitioner/example",
        "display": "Practitioner"
      } ]
    }
  }, {
    "fullUrl": "https://madie.cms.gov/Observation/e9cde5d7-0f6b-40da-b993-a115d3ef081d",
    "resource": {
      "resourceType": "Observation",
      "id": "e9cde5d7-0f6b-40da-b993-a115d3ef081d",
      "meta": {
        "profile": [ "http://hl7.org/fhir/us/qicore/StructureDefinition/qicore-observation-clinical-result" ]
      },
      "text": {
        "status": "generated",
        "div": "<div xmlns=\"http://www.w3.org/1999/xhtml\"><div class=\"hapiHeaderText\">Generic Resource Narrative for Testing</div><table class=\"hapiPropertyTable\"><tbody><tr><td>Identifier</td><td>resource narrative</td></tr></tbody></table></div>"
      },
      "status": "final",
      "category": [ {
        "coding": [ {
          "system": "http://terminology.hl7.org/CodeSystem/observation-category",
          "code": "imaging",
          "display": "Imaging"
        } ],
        "text": "Imaging"
      } ],
      "code": {
        "coding": [ {
          "system": "http://www.ama-assn.org/go/cpt",
          "code": "71260",
          "display": "Computed tomography, thorax, diagnostic; with contrast material(s)"
        } ],
        "text": "Computed tomography, thorax, diagnostic; with contrast material(s)"
      },
      "subject": {
        "reference": "Patient/d48f4307-df8d-4533-88bb-923c458d7501"
      },
      "encounter": {
        "display": "Computed tomography"
      },
      "effectiveDateTime": "2026-07-01T17:48:57.000+00:00",
      "performer": [ {
        "reference": "Practitioner/example",
        "display": "Practitioner"
      } ],
      "valueString": "Regular (R)"
    }
  }, {
    "fullUrl": "https://madie.cms.gov/DiagnosticReport/3028325b-a7b4-4963-b2f2-3bb6e80838bb",
    "resource": {
      "resourceType": "DiagnosticReport",
      "id": "3028325b-a7b4-4963-b2f2-3bb6e80838bb",
      "meta": {
        "profile": [ "http://hl7.org/fhir/us/qicore/StructureDefinition/qicore-diagnosticreport-note" ]
      },
      "text": {
        "status": "generated",
        "div": "<div xmlns=\"http://www.w3.org/1999/xhtml\"><div class=\"hapiHeaderText\">Generic Resource Narrative for Testing</div><table class=\"hapiPropertyTable\"><tbody><tr><td>Identifier</td><td>resource narrative</td></tr></tbody></table></div>"
      },
      "status": "final",
      "category": [ {
        "coding": [ {
          "system": "http://loinc.org",
          "code": "LP29684-5",
          "display": "Radiology"
        } ],
        "text": "Imaging"
      } ],
      "code": {
        "coding": [ {
          "system": "http://www.ama-assn.org/go/cpt",
          "code": "71260",
          "display": "Computed tomography, thorax, diagnostic; with contrast material(s)"
        } ],
        "text": "Computed tomography, thorax, diagnostic; with contrast material(s)"
      },
      "subject": {
        "reference": "Patient/d48f4307-df8d-4533-88bb-923c458d7501"
      },
      "encounter": {
        "display": "Computed tomography"
      },
      "effectiveDateTime": "2026-07-01T17:48:57.000+00:00",
      "performer": [ {
        "reference": "Practitioner/example",
        "display": "Practitioner"
      } ]
    }
  }, {
    "fullUrl": "https://madie.cms.gov/MedicationRequest/a2af9a71-4fc5-4f62-9217-4bc898c92389",
    "resource": {
      "resourceType": "MedicationRequest",
      "id": "a2af9a71-4fc5-4f62-9217-4bc898c92389",
      "meta": {
        "profile": [ "http://hl7.org/fhir/us/qicore/StructureDefinition/qicore-medicationrequest" ]
      },
      "text": {
        "status": "generated",
        "div": "<div xmlns=\"http://www.w3.org/1999/xhtml\"><div class=\"hapiHeaderText\">Generic Resource Narrative for Testing</div><table class=\"hapiPropertyTable\"><tbody><tr><td>Identifier</td><td>resource narrative</td></tr></tbody></table></div>"
      },
      "status": "active",
      "intent": "order",
      "category": [ {
        "coding": [ {
          "system": "http://terminology.hl7.org/CodeSystem/medicationrequest-category",
          "code": "discharge",
          "display": "Discharge",
          "userSelected": true
        } ]
      } ],
      "medicationCodeableConcept": {
        "coding": [ {
          "system": "http://www.nlm.nih.gov/research/umls/rxnorm",
          "code": "114194"
        } ]
      },
      "subject": {
        "reference": "Patient/d48f4307-df8d-4533-88bb-923c458d7501"
      },
      "authoredOn": "2026-01-01T06:30:00.000+00:00",
      "requester": {
        "reference": "Practitioner/example"
      }
    }
  }, {
    "fullUrl": "https://madie.cms.gov/MedicationRequest/7cb9c13f-3bbb-4887-ad4b-6111dab9debd",
    "resource": {
      "resourceType": "MedicationRequest",
      "id": "7cb9c13f-3bbb-4887-ad4b-6111dab9debd",
      "meta": {
        "profile": [ "http://hl7.org/fhir/us/qicore/StructureDefinition/qicore-medicationrequest" ]
      },
      "text": {
        "status": "generated",
        "div": "<div xmlns=\"http://www.w3.org/1999/xhtml\"><div class=\"hapiHeaderText\">Generic Resource Narrative for Testing</div><table class=\"hapiPropertyTable\"><tbody><tr><td>Identifier</td><td>resource narrative</td></tr></tbody></table></div>"
      },
      "status": "active",
      "intent": "order",
      "category": [ {
        "coding": [ {
          "system": "http://terminology.hl7.org/CodeSystem/medicationrequest-category",
          "code": "discharge",
          "display": "Discharge",
          "userSelected": true
        } ]
      } ],
      "medicationCodeableConcept": {
        "coding": [ {
          "system": "http://www.nlm.nih.gov/research/umls/rxnorm",
          "code": "114194"
        } ]
      },
      "subject": {
        "reference": "Patient/d48f4307-df8d-4533-88bb-923c458d7501"
      },
      "authoredOn": "2026-07-01T06:30:00.000+00:00",
      "requester": {
        "reference": "Practitioner/example"
      }
    }
  }, {
    "fullUrl": "https://madie.cms.gov/Coverage/153af78c-8767-483b-8e4b-954d63bdd620",
    "resource": {
      "resourceType": "Coverage",
      "id": "153af78c-8767-483b-8e4b-954d63bdd620",
      "meta": {
        "profile": [ "http://hl7.org/fhir/us/qicore/StructureDefinition/qicore-coverage" ]
      },
      "text": {
        "status": "generated",
        "div": "<div xmlns=\"http://www.w3.org/1999/xhtml\"><div class=\"hapiHeaderText\">Generic Resource Narrative for Testing</div><table class=\"hapiPropertyTable\"><tbody><tr><td>Identifier</td><td>resource narrative</td></tr></tbody></table></div>"
      },
      "status": "active",
      "type": {
        "coding": [ {
          "system": "https://nahdo.org/sopt",
          "code": "59",
          "display": "Other Private Insurance"
        } ]
      },
      "policyHolder": {
        "reference": "Patient/d48f4307-df8d-4533-88bb-923c458d7501"
      },
      "subscriber": {
        "reference": "Patient/d48f4307-df8d-4533-88bb-923c458d7501"
      },
      "subscriberId": "888009336",
      "beneficiary": {
        "reference": "Patient/d48f4307-df8d-4533-88bb-923c458d7501"
      },
      "dependent": "0",
      "relationship": {
        "coding": [ {
          "system": "http://terminology.hl7.org/CodeSystem/subscriber-relationship",
          "code": "self"
        } ]
      },
      "period": {
        "start": "2026-01-10T08:00:00.000+00:00",
        "end": "2026-12-31T08:15:00.000+00:00"
      },
      "payor": [ {
        "reference": "Organization/7ba1dcd3-21a6-4faa-880a-7a706b5ec02d"
      } ]
    }
  }, {
    "fullUrl": "https://madie.cms.gov/Claim/80c8cd52-8db7-401d-b6bd-21ab62db4c75",
    "resource": {
      "resourceType": "Claim",
      "id": "80c8cd52-8db7-401d-b6bd-21ab62db4c75",
      "meta": {
        "profile": [ "http://hl7.org/fhir/us/qicore/StructureDefinition/qicore-claim" ]
      },
      "text": {
        "status": "generated",
        "div": "<div xmlns=\"http://www.w3.org/1999/xhtml\"><div class=\"hapiHeaderText\">Generic Resource Narrative for Testing</div><table class=\"hapiPropertyTable\"><tbody><tr><td>Identifier</td><td>resource narrative</td></tr></tbody></table></div>"
      },
      "status": "active",
      "type": {
        "coding": [ {
          "system": "http://terminology.hl7.org/CodeSystem/claim-type",
          "code": "institutional"
        } ]
      },
      "use": "claim",
      "patient": {
        "reference": "Patient/d48f4307-df8d-4533-88bb-923c458d7501"
      },
      "created": "2026-01-01",
      "provider": {
        "reference": "Practitioner/practitioner-123456"
      },
      "priority": {
        "coding": [ {
          "system": "http://terminology.hl7.org/CodeSystem/processpriority",
          "code": "normal"
        } ]
      },
      "diagnosis": [ {
        "sequence": 1,
        "diagnosisCodeableConcept": {
          "coding": [ {
            "system": "http://hl7.org/fhir/sid/icd-10-cm",
            "code": "I63.00"
          } ]
        },
        "type": [ {
          "coding": [ {
            "system": "http://terminology.hl7.org/CodeSystem/ex-diagnosistype",
            "code": "principal"
          } ]
        } ]
      } ],
      "insurance": [ {
        "sequence": 1,
        "focal": true,
        "coverage": {
          "reference": "Coverage/5fa041661c76ba66d9959367"
        }
      } ],
      "item": [ {
        "sequence": 1,
        "diagnosisSequence": [ 1 ],
        "productOrService": {
          "coding": [ {
            "system": "http://terminology.hl7.org/CodeSystem/ex-USCLS",
            "code": "99555"
          } ]
        },
        "encounter": [ {
          "reference": "Encounter/5f6fcef8-dd74-4cbf-80f2-4040b5baa2b2"
        } ]
      } ]
    }
  }, {
    "fullUrl": "https://madie.cms.gov/Organization/7ba1dcd3-21a6-4faa-880a-7a706b5ec02d",
    "resource": {
      "resourceType": "Organization",
      "id": "7ba1dcd3-21a6-4faa-880a-7a706b5ec02d",
      "meta": {
        "profile": [ "http://hl7.org/fhir/us/qicore/StructureDefinition/qicore-organization" ]
      },
      "text": {
        "status": "generated",
        "div": "<div xmlns=\"http://www.w3.org/1999/xhtml\"><div class=\"hapiHeaderText\">Generic Resource Narrative for Testing</div><table class=\"hapiPropertyTable\"><tbody><tr><td>Identifier</td><td>resource narrative</td></tr></tbody></table></div>"
      },
      "identifier": [ {
        "use": "temp",
        "system": "urn:oid:2.16.840.1.113883.4.4",
        "value": "21-3259825"
      } ],
      "active": true,
      "type": [ {
        "coding": [ {
          "system": "http://terminology.hl7.org/CodeSystem/organization-type",
          "code": "pay",
          "display": "Payer"
        } ]
      } ],
      "name": "Blue Cross Blue Shield of Texas",
      "telecom": [ {
        "system": "phone",
        "value": "(+1) 972-766-6900"
      } ],
      "address": [ {
        "use": "billing",
        "type": "postal",
        "line": [ "P.O. Box 660044" ],
        "city": "Dallas",
        "state": "TX",
        "postalCode": "75266-0044",
        "country": "USA"
      } ]
    }
  }, {
    "fullUrl": "https://madie.cms.gov/MeasureReport/01d873a1-8253-4c6f-bca2-636d7f729fa9",
    "resource": {
      "resourceType": "MeasureReport",
      "id": "01d873a1-8253-4c6f-bca2-636d7f729fa9",
      "meta": {
        "profile": [ "http://hl7.org/fhir/us/cqfmeasures/StructureDefinition/test-case-cqfm" ]
      },
      "contained": [ {
        "resourceType": "Parameters",
        "id": "34fa74fe-9ec6-409f-8a58-75b28752c966-parameters",
        "parameter": [ {
          "name": "subject",
          "valueString": "d48f4307-df8d-4533-88bb-923c458d7501"
        } ]
      } ],
      "extension": [ {
        "url": "http://hl7.org/fhir/StructureDefinition/cqf-inputParameters",
        "valueReference": {
          "reference": "#34fa74fe-9ec6-409f-8a58-75b28752c966-parameters"
        }
      }, {
        "url": "http://hl7.org/fhir/us/cqfmeasures/StructureDefinition/cqfm-testCaseDescription",
        "valueMarkdown": "2 qualified VTE encounters which are exactly 6 months + 1 minute apart during the same MP.  "
      } ],
      "modifierExtension": [ {
        "url": "http://hl7.org/fhir/us/cqfmeasures/StructureDefinition/cqfm-isTestCase",
        "valueBoolean": true
      } ],
      "status": "complete",
      "type": "individual",
      "measure": "https://madie.cms.gov/Measure/CMS1173FHIRDiagnosticDelayVTE",
      "period": {
        "start": "2026-01-01",
        "end": "2026-12-31"
      },
      "group": [ {
        "id": "Group_1",
        "population": [ {
          "id": "InitialPopulation_1",
          "code": {
            "coding": [ {
              "system": "http://terminology.hl7.org/CodeSystem/measure-population",
              "code": "initial-population",
              "display": "Initial Population"
            } ]
          },
          "count": 2
        }, {
          "id": "Denominator_1",
          "code": {
            "coding": [ {
              "system": "http://terminology.hl7.org/CodeSystem/measure-population",
              "code": "denominator",
              "display": "Denominator"
            } ]
          },
          "count": 2
        }, {
          "id": "DenominatorExclusion_1",
          "code": {
            "coding": [ {
              "system": "http://terminology.hl7.org/CodeSystem/measure-population",
              "code": "denominator-exclusion",
              "display": "Denominator Exclusion"
            } ]
          },
          "count": 0
        }, {
          "id": "Numerator_1",
          "code": {
            "coding": [ {
              "system": "http://terminology.hl7.org/CodeSystem/measure-population",
              "code": "numerator",
              "display": "Numerator"
            } ]
          },
          "count": 2
        } ],
        "measureScore": {
          "value": 0.0
        }
      } ],
      "evaluatedResource": [ {
        "reference": "Patient/d48f4307-df8d-4533-88bb-923c458d7501"
      }, {
        "reference": "Encounter/5f6fcef8-dd74-4cbf-80f2-4040b5baa2b2"
      }, {
        "reference": "Encounter/d5a75fa5-be82-4197-a535-bf9803f33681"
      }, {
        "reference": "Condition/53e1d0b8-73d9-441b-b9df-90a1f153a151"
      }, {
        "reference": "Condition/26078e42-6cd5-4456-a7b2-c0e73da590fd"
      }, {
        "reference": "Encounter/4c0f798d-0821-42f3-9c7a-4a44641329b4"
      }, {
        "reference": "Encounter/713de14a-e826-4128-8ef8-8b3c3d4edba7"
      }, {
        "reference": "Condition/1d32722a-5a6f-4610-8319-7887df811aa1"
      }, {
        "reference": "Condition/99ba3b5d-8546-47ee-8251-72489a0da6ee"
      }, {
        "reference": "Observation/7ad6d477-84c3-412a-af3f-f441e4398666"
      }, {
        "reference": "DiagnosticReport/8829f29e-576e-431f-8d5e-a8fadd1188eb"
      }, {
        "reference": "Observation/e9cde5d7-0f6b-40da-b993-a115d3ef081d"
      }, {
        "reference": "DiagnosticReport/3028325b-a7b4-4963-b2f2-3bb6e80838bb"
      }, {
        "reference": "MedicationRequest/a2af9a71-4fc5-4f62-9217-4bc898c92389"
      }, {
        "reference": "MedicationRequest/7cb9c13f-3bbb-4887-ad4b-6111dab9debd"
      }, {
        "reference": "Coverage/153af78c-8767-483b-8e4b-954d63bdd620"
      }, {
        "reference": "Claim/80c8cd52-8db7-401d-b6bd-21ab62db4c75"
      }, {
        "reference": "Organization/7ba1dcd3-21a6-4faa-880a-7a706b5ec02d"
      } ]
    }
  } ]
}