{
  "resourceType": "Bundle",
  "id": "tests-DENOMPass-MedRelPeriodStartsNoEnd-bundle",
  "type": "transaction",
  "entry": [ {
    "fullUrl": "https://madie.cms.gov/MedicationAdministration/f7717644-8cd9-4413-a8f7-6c3d60a1c1a6",
    "resource": {
      "resourceType": "MedicationAdministration",
      "id": "f7717644-8cd9-4413-a8f7-6c3d60a1c1a6",
      "meta": {
        "profile": [ "http://hl7.org/fhir/us/qicore/StructureDefinition/qicore-medicationadministration" ]
      },
      "status": "completed",
      "medicationCodeableConcept": {
        "coding": [ {
          "system": "http://www.nlm.nih.gov/research/umls/rxnorm",
          "code": "1654862",
          "display": "Hypoglycemics Severe Hypoglycemia"
        } ]
      },
      "subject": {
        "reference": "Patient/1d2bb25a-21a7-4529-9486-a320d4864719"
      },
      "effectivePeriod": {
        "start": "2026-07-11T08:00:00.000+00:00"
      }
    },
    "request": {
      "method": "PUT",
      "url": "MedicationAdministration/f7717644-8cd9-4413-a8f7-6c3d60a1c1a6"
    }
  }, {
    "fullUrl": "https://madie.cms.gov/Encounter/a319b1e8-8ec4-4384-a077-087f5e496014",
    "resource": {
      "resourceType": "Encounter",
      "id": "a319b1e8-8ec4-4384-a077-087f5e496014",
      "meta": {
        "profile": [ "http://hl7.org/fhir/us/qicore/StructureDefinition/qicore-encounter" ]
      },
      "status": "finished",
      "class": {
        "system": "http://terminology.hl7.org/CodeSystem/v3-ActCode",
        "code": "IMP",
        "display": "inpatient encounter"
      },
      "type": [ {
        "coding": [ {
          "system": "http://snomed.info/sct",
          "code": "183452005",
          "display": "Inpatient encounter"
        } ]
      } ],
      "period": {
        "start": "2026-07-11T08:00:00.000+00:00",
        "end": "2026-07-12T21:00:00.000+00:00"
      }
    },
    "request": {
      "method": "PUT",
      "url": "Encounter/a319b1e8-8ec4-4384-a077-087f5e496014"
    }
  }, {
    "fullUrl": "https://madie.cms.gov/Patient/1d2bb25a-21a7-4529-9486-a320d4864719",
    "resource": {
      "resourceType": "Patient",
      "id": "1d2bb25a-21a7-4529-9486-a320d4864719",
      "meta": {
        "profile": [ "http://hl7.org/fhir/us/qicore/StructureDefinition/qicore-patient" ]
      },
      "extension": [ {
        "url": "http://hl7.org/fhir/us/core/StructureDefinition/us-core-race",
        "extension": [ {
          "url": "ombCategory",
          "valueCoding": {
            "system": "urn:oid:2.16.840.1.113883.6.238",
            "code": "2106-3",
            "display": "White"
          }
        }, {
          "url": "text",
          "valueString": "White"
        } ]
      }, {
        "url": "http://hl7.org/fhir/us/core/StructureDefinition/us-core-ethnicity",
        "extension": [ {
          "url": "ombCategory",
          "valueCoding": {
            "system": "urn:oid:2.16.840.1.113883.6.238",
            "code": "2135-2",
            "display": "Hispanic or Latino"
          }
        }, {
          "url": "text",
          "valueString": "Hispanic or Latino"
        } ]
      }, {
        "url": "http://hl7.org/fhir/us/core/StructureDefinition/us-core-sex",
        "valueCode": "248153007"
      } ],
      "identifier": [ {
        "system": "http://hospital.smarthealthit.org",
        "value": "999999999"
      } ],
      "name": [ {
        "family": "Example",
        "given": [ "Patient" ]
      } ],
      "gender": "female",
      "birthDate": "1956-01-01"
    },
    "request": {
      "method": "PUT",
      "url": "Patient/1d2bb25a-21a7-4529-9486-a320d4864719"
    }
  }, {
    "fullUrl": "https://madie.cms.gov/MeasureReport/b0513b24-8789-4c07-a13d-322d9defbeb8",
    "resource": {
      "resourceType": "MeasureReport",
      "id": "b0513b24-8789-4c07-a13d-322d9defbeb8",
      "meta": {
        "profile": [ "http://hl7.org/fhir/us/cqfmeasures/StructureDefinition/test-case-cqfm" ]
      },
      "contained": [ {
        "resourceType": "Parameters",
        "id": "878f9edb-3c00-4d5b-9cc1-c607c327abf4-parameters",
        "parameter": [ {
          "name": "subject",
          "valueString": "1d2bb25a-21a7-4529-9486-a320d4864719"
        } ]
      } ],
      "extension": [ {
        "url": "http://hl7.org/fhir/StructureDefinition/cqf-inputParameters",
        "valueReference": {
          "reference": "#878f9edb-3c00-4d5b-9cc1-c607c327abf4-parameters"
        }
      }, {
        "url": "http://hl7.org/fhir/us/cqfmeasures/StructureDefinition/cqfm-testCaseDescription",
        "valueMarkdown": "Right age with encounter, meds administered, no lab tests. Med relevant period starts during encounter, no relevant end period. Meets denominator as med relevant period must start during encounter but no end required."
      } ],
      "modifierExtension": [ {
        "url": "http://hl7.org/fhir/us/cqfmeasures/StructureDefinition/cqfm-isTestCase",
        "valueBoolean": true
      } ],
      "status": "complete",
      "type": "individual",
      "measure": "https://madie.cms.gov/Measure/CMS816FHIRHHHypo",
      "period": {
        "start": "2026-01-01",
        "end": "2026-12-31"
      },
      "group": [ {
        "id": "Group_1",
        "population": [ {
          "id": "InitialPopulation_1",
          "code": {
            "coding": [ {
              "system": "http://terminology.hl7.org/CodeSystem/measure-population",
              "code": "initial-population",
              "display": "Initial Population"
            } ]
          },
          "count": 1
        }, {
          "id": "Denominator_1",
          "code": {
            "coding": [ {
              "system": "http://terminology.hl7.org/CodeSystem/measure-population",
              "code": "denominator",
              "display": "Denominator"
            } ]
          },
          "count": 1
        }, {
          "id": "Numerator_1",
          "code": {
            "coding": [ {
              "system": "http://terminology.hl7.org/CodeSystem/measure-population",
              "code": "numerator",
              "display": "Numerator"
            } ]
          },
          "count": 0
        } ],
        "measureScore": {
          "value": 0.0
        }
      } ],
      "evaluatedResource": [ {
        "reference": "MedicationAdministration/f7717644-8cd9-4413-a8f7-6c3d60a1c1a6"
      }, {
        "reference": "Encounter/a319b1e8-8ec4-4384-a077-087f5e496014"
      }, {
        "reference": "Patient/1d2bb25a-21a7-4529-9486-a320d4864719"
      } ]
    },
    "request": {
      "method": "PUT",
      "url": "MeasureReport/b0513b24-8789-4c07-a13d-322d9defbeb8"
    }
  } ]
}