{
  "resourceType": "Bundle",
  "id": "62fa553af4a8c3cd9f455395",
  "type": "transaction",
  "entry": [ {
    "fullUrl": "https://madie.cms.gov/Patient/ebbf9c22-fb8c-498b-a261-11d177d10e45",
    "resource": {
      "resourceType": "Patient",
      "id": "ebbf9c22-fb8c-498b-a261-11d177d10e45",
      "meta": {
        "profile": [ "http://hl7.org/fhir/us/qicore/StructureDefinition/qicore-patient" ]
      },
      "extension": [ {
        "url": "http://hl7.org/fhir/us/core/StructureDefinition/us-core-race",
        "extension": [ {
          "url": "ombCategory",
          "valueCoding": {
            "system": "urn:oid:2.16.840.1.113883.6.238",
            "code": "2054-5",
            "display": "Black or African American",
            "userSelected": true
          }
        }, {
          "url": "text",
          "valueString": "Black or African American"
        } ]
      }, {
        "url": "http://hl7.org/fhir/us/core/StructureDefinition/us-core-ethnicity",
        "extension": [ {
          "url": "ombCategory",
          "valueCoding": {
            "system": "urn:oid:2.16.840.1.113883.6.238",
            "code": "2186-5",
            "display": "Not Hispanic or Latino",
            "userSelected": true
          }
        }, {
          "url": "text",
          "valueString": "Not Hispanic or Latino"
        } ]
      } ],
      "identifier": [ {
        "type": {
          "coding": [ {
            "system": "http://terminology.hl7.org/CodeSystem/v2-0203",
            "code": "MR"
          } ]
        },
        "system": "https://bonnie-fhir.healthit.gov/",
        "value": "62fa553af4a8c3cd9f455395"
      } ],
      "name": [ {
        "family": "IPPFail",
        "given": [ "NoEncounter" ]
      } ],
      "gender": "male",
      "birthDate": "2006-07-01"
    },
    "request": {
      "method": "PUT",
      "url": "Patient/ebbf9c22-fb8c-498b-a261-11d177d10e45"
    }
  }, {
    "fullUrl": "https://madie.cms.gov/Condition/3e2fc864-17fa-4225-bfba-130b7b407aea",
    "resource": {
      "resourceType": "Condition",
      "id": "3e2fc864-17fa-4225-bfba-130b7b407aea",
      "meta": {
        "profile": [ "http://hl7.org/fhir/us/qicore/StructureDefinition/qicore-condition-encounter-diagnosis" ]
      },
      "clinicalStatus": {
        "coding": [ {
          "system": "http://terminology.hl7.org/CodeSystem/condition-clinical",
          "code": "active",
          "display": "active",
          "userSelected": true
        } ]
      },
      "category": [ {
        "coding": [ {
          "system": "http://terminology.hl7.org/CodeSystem/condition-category",
          "code": "encounter-diagnosis",
          "display": "Encounter Diagnosis",
          "userSelected": true
        } ]
      } ],
      "code": {
        "coding": [ {
          "system": "http://snomed.info/sct",
          "version": "2021-09",
          "code": "102781000119107",
          "display": "Sensory neuropathy due to type 1 diabetes mellitus (disorder)",
          "userSelected": true
        } ]
      },
      "subject": {
        "reference": "Patient/ebbf9c22-fb8c-498b-a261-11d177d10e45"
      },
      "onsetDateTime": "2026-08-14T20:00:00.000+00:00"
    },
    "request": {
      "method": "PUT",
      "url": "Condition/3e2fc864-17fa-4225-bfba-130b7b407aea"
    }
  }, {
    "fullUrl": "https://madie.cms.gov/MeasureReport/619d79eb-0628-4529-880c-8de24a9ffcf9",
    "resource": {
      "resourceType": "MeasureReport",
      "id": "619d79eb-0628-4529-880c-8de24a9ffcf9",
      "meta": {
        "profile": [ "http://hl7.org/fhir/us/cqfmeasures/StructureDefinition/test-case-cqfm" ]
      },
      "contained": [ {
        "resourceType": "Parameters",
        "id": "84c2419b-d952-4ddd-95e7-c80e7b9c6afb-parameters",
        "parameter": [ {
          "name": "subject",
          "valueString": "ebbf9c22-fb8c-498b-a261-11d177d10e45"
        } ]
      } ],
      "extension": [ {
        "url": "http://hl7.org/fhir/StructureDefinition/cqf-inputParameters",
        "valueReference": {
          "reference": "#84c2419b-d952-4ddd-95e7-c80e7b9c6afb-parameters"
        }
      }, {
        "url": "http://hl7.org/fhir/us/cqfmeasures/StructureDefinition/cqfm-testCaseDescription",
        "valueMarkdown": "This patient is 20 years old and has active diabetes but no qualifying encounter. This case tests the IPP criteria."
      } ],
      "modifierExtension": [ {
        "url": "http://hl7.org/fhir/us/cqfmeasures/StructureDefinition/cqfm-isTestCase",
        "valueBoolean": true
      } ],
      "status": "complete",
      "type": "individual",
      "measure": "https://madie.cms.gov/Measure/CMS951FHIRKidneyHealthEval",
      "period": {
        "start": "2026-01-01",
        "end": "2026-12-31"
      },
      "group": [ {
        "id": "Group_1",
        "population": [ {
          "id": "InitialPopulation_1",
          "code": {
            "coding": [ {
              "system": "http://terminology.hl7.org/CodeSystem/measure-population",
              "code": "initial-population",
              "display": "Initial Population"
            } ]
          },
          "count": 0
        }, {
          "id": "Denominator_1",
          "code": {
            "coding": [ {
              "system": "http://terminology.hl7.org/CodeSystem/measure-population",
              "code": "denominator",
              "display": "Denominator"
            } ]
          },
          "count": 0
        }, {
          "id": "DenominatorExclusion_1",
          "code": {
            "coding": [ {
              "system": "http://terminology.hl7.org/CodeSystem/measure-population",
              "code": "denominator-exclusion",
              "display": "Denominator Exclusion"
            } ]
          },
          "count": 0
        }, {
          "id": "Numerator_1",
          "code": {
            "coding": [ {
              "system": "http://terminology.hl7.org/CodeSystem/measure-population",
              "code": "numerator",
              "display": "Numerator"
            } ]
          },
          "count": 0
        } ],
        "measureScore": {
          "value": 1.0
        }
      } ],
      "evaluatedResource": [ {
        "reference": "Patient/ebbf9c22-fb8c-498b-a261-11d177d10e45"
      }, {
        "reference": "Condition/3e2fc864-17fa-4225-bfba-130b7b407aea"
      } ]
    },
    "request": {
      "method": "PUT",
      "url": "MeasureReport/619d79eb-0628-4529-880c-8de24a9ffcf9"
    }
  } ]
}