{
  "resourceType": "Bundle",
  "id": "633b3f9f0968f80122503cdb",
  "type": "transaction",
  "entry": [ {
    "fullUrl": "https://madie.cms.gov/Patient/66beff7a-68d0-4040-8558-b9bdd5b00120",
    "resource": {
      "resourceType": "Patient",
      "id": "66beff7a-68d0-4040-8558-b9bdd5b00120",
      "meta": {
        "profile": [ "http://hl7.org/fhir/us/qicore/StructureDefinition/qicore-patient" ]
      },
      "text": {
        "status": "generated",
        "div": "<div xmlns=\"http://www.w3.org/1999/xhtml\"><div class=\"hapiHeaderText\">BldTxRelvDtTimeMNDayEncEnds<b>NUMFail</b></div><table class=\"hapiPropertyTable\"><tbody><tr><td>Date of birth</td><td><span>01 February 2004</span></td></tr></tbody></table></div>"
      },
      "extension": [ {
        "url": "http://hl7.org/fhir/us/core/StructureDefinition/us-core-race",
        "extension": [ {
          "url": "ombCategory",
          "valueCoding": {
            "system": "urn:oid:2.16.840.1.113883.6.238",
            "code": "1002-5",
            "display": "American Indian or Alaska Native",
            "userSelected": true
          }
        }, {
          "url": "text",
          "valueString": "American Indian or Alaska Native"
        } ]
      }, {
        "url": "http://hl7.org/fhir/us/core/StructureDefinition/us-core-ethnicity",
        "extension": [ {
          "url": "ombCategory",
          "valueCoding": {
            "system": "urn:oid:2.16.840.1.113883.6.238",
            "code": "2135-2",
            "display": "Hispanic or Latino",
            "userSelected": true
          }
        }, {
          "url": "text",
          "valueString": "Hispanic or Latino"
        } ]
      } ],
      "identifier": [ {
        "type": {
          "coding": [ {
            "system": "http://terminology.hl7.org/CodeSystem/v2-0203",
            "code": "MR"
          } ]
        },
        "system": "https://bonnie-fhir.healthit.gov/",
        "value": "633b3f9f0968f80122503cdb"
      } ],
      "active": true,
      "name": [ {
        "use": "usual",
        "family": "NUMFail",
        "given": [ "BldTxRelvDtTimeMNDayEncEnds" ]
      } ],
      "gender": "female",
      "birthDate": "2005-02-01"
    },
    "request": {
      "method": "PUT",
      "url": "Patient/66beff7a-68d0-4040-8558-b9bdd5b00120"
    }
  }, {
    "fullUrl": "https://madie.cms.gov/Observation/54534bb9-9385-4ca9-afae-19fed560e356",
    "resource": {
      "resourceType": "Observation",
      "id": "54534bb9-9385-4ca9-afae-19fed560e356",
      "meta": {
        "profile": [ "http://hl7.org/fhir/us/qicore/StructureDefinition/qicore-simple-observation" ]
      },
      "status": "final",
      "category": [ {
        "coding": [ {
          "system": "http://terminology.hl7.org/CodeSystem/observation-category",
          "code": "exam",
          "display": "exam",
          "userSelected": true
        } ]
      } ],
      "code": {
        "coding": [ {
          "system": "http://loinc.org",
          "code": "93857-1"
        } ]
      },
      "subject": {
        "reference": "Patient/66beff7a-68d0-4040-8558-b9bdd5b00120"
      },
      "effectiveDateTime": "2026-02-01T08:00:00.000+00:00",
      "performer": [ {
        "reference": "Organization/example1",
        "display": "Hendricks Country Hospital"
      } ],
      "valueDateTime": "2026-02-01T08:00:00.000+00:00"
    },
    "request": {
      "method": "PUT",
      "url": "Observation/54534bb9-9385-4ca9-afae-19fed560e356"
    }
  }, {
    "fullUrl": "https://madie.cms.gov/Observation/1ec44059-f29c-4237-80ac-4eabb19254f4",
    "resource": {
      "resourceType": "Observation",
      "id": "1ec44059-f29c-4237-80ac-4eabb19254f4",
      "meta": {
        "profile": [ "http://hl7.org/fhir/us/qicore/StructureDefinition/qicore-simple-observation" ]
      },
      "status": "final",
      "category": [ {
        "coding": [ {
          "system": "http://terminology.hl7.org/CodeSystem/observation-category",
          "code": "exam",
          "display": "exam",
          "userSelected": true
        } ]
      } ],
      "code": {
        "coding": [ {
          "system": "http://loinc.org",
          "code": "11884-4"
        } ]
      },
      "subject": {
        "reference": "Patient/66beff7a-68d0-4040-8558-b9bdd5b00120"
      },
      "effectiveDateTime": "2026-02-01T08:00:00.000+00:00",
      "performer": [ {
        "reference": "Organization/example1",
        "display": "Hendricks Country Hospital"
      } ],
      "valueQuantity": {
        "value": 20,
        "system": "http://unitsofmeasure.org",
        "code": "wk"
      }
    },
    "request": {
      "method": "PUT",
      "url": "Observation/1ec44059-f29c-4237-80ac-4eabb19254f4"
    }
  }, {
    "fullUrl": "https://madie.cms.gov/Observation/6e959a10-02e1-4720-879e-9b1f6f4eec85",
    "resource": {
      "resourceType": "Observation",
      "id": "6e959a10-02e1-4720-879e-9b1f6f4eec85",
      "meta": {
        "profile": [ "http://hl7.org/fhir/us/qicore/StructureDefinition/qicore-simple-observation" ]
      },
      "status": "final",
      "category": [ {
        "coding": [ {
          "system": "http://terminology.hl7.org/CodeSystem/observation-category",
          "code": "exam",
          "display": "exam",
          "userSelected": true
        } ]
      } ],
      "code": {
        "coding": [ {
          "system": "http://loinc.org",
          "code": "11884-4"
        } ]
      },
      "subject": {
        "reference": "Patient/66beff7a-68d0-4040-8558-b9bdd5b00120"
      },
      "effectiveDateTime": "2026-02-01T08:01:00.000+00:00",
      "performer": [ {
        "reference": "Organization/example1",
        "display": "Hendricks Country Hospital"
      } ]
    },
    "request": {
      "method": "PUT",
      "url": "Observation/6e959a10-02e1-4720-879e-9b1f6f4eec85"
    }
  }, {
    "fullUrl": "https://madie.cms.gov/Encounter/d4f24f8b-435c-4f31-9fad-64fc6344eb6c",
    "resource": {
      "resourceType": "Encounter",
      "id": "d4f24f8b-435c-4f31-9fad-64fc6344eb6c",
      "meta": {
        "profile": [ "http://hl7.org/fhir/us/qicore/StructureDefinition/qicore-encounter" ]
      },
      "status": "finished",
      "class": {
        "system": "http://terminology.hl7.org/CodeSystem/v3-ActCode",
        "code": "IMP",
        "display": "inpatient encounter"
      },
      "type": [ {
        "coding": [ {
          "system": "http://snomed.info/sct",
          "code": "183452005"
        } ]
      } ],
      "subject": {
        "reference": "Patient/66beff7a-68d0-4040-8558-b9bdd5b00120"
      },
      "period": {
        "start": "2026-02-01T08:00:00.000+00:00",
        "end": "2026-02-05T08:15:00.000+00:00"
      }
    },
    "request": {
      "method": "PUT",
      "url": "Encounter/d4f24f8b-435c-4f31-9fad-64fc6344eb6c"
    }
  }, {
    "fullUrl": "https://madie.cms.gov/Coverage/42610533-fb0f-4fdc-a848-c9fcf0917b00",
    "resource": {
      "resourceType": "Coverage",
      "id": "42610533-fb0f-4fdc-a848-c9fcf0917b00",
      "status": "active",
      "subscriberId": "523435",
      "beneficiary": {
        "reference": "Patient/66beff7a-68d0-4040-8558-b9bdd5b00120"
      },
      "relationship": {
        "coding": [ {
          "system": "http://terminology.hl7.org/CodeSystem/subscriber-relationship",
          "code": "self"
        } ]
      },
      "period": {
        "start": "2005-02-01T08:00:00.000+00:00"
      },
      "payor": [ {
        "reference": "Organization/8175b673-bf36-4d84-a913-87510bf8270c"
      } ]
    },
    "request": {
      "method": "PUT",
      "url": "Coverage/42610533-fb0f-4fdc-a848-c9fcf0917b00"
    }
  }, {
    "fullUrl": "https://madie.cms.gov/Procedure/a732be45-fb8d-485a-8ffb-596d4f0c2bba",
    "resource": {
      "resourceType": "Procedure",
      "id": "a732be45-fb8d-485a-8ffb-596d4f0c2bba",
      "meta": {
        "profile": [ "http://hl7.org/fhir/us/qicore/StructureDefinition/qicore-procedure" ]
      },
      "extension": [ {
        "url": "http://hl7.org/fhir/us/qicore/StructureDefinition/qicore-recorded",
        "valueDateTime": "2014-04-05T13:35:00.000+00:00"
      } ],
      "status": "completed",
      "code": {
        "coding": [ {
          "system": "http://snomed.info/sct",
          "code": "10745001"
        } ]
      },
      "subject": {
        "reference": "Patient/66beff7a-68d0-4040-8558-b9bdd5b00120"
      },
      "performedPeriod": {
        "start": "2026-02-01T08:00:00.000+00:00",
        "end": "2026-02-05T08:15:00.000+00:00"
      }
    },
    "request": {
      "method": "PUT",
      "url": "Procedure/a732be45-fb8d-485a-8ffb-596d4f0c2bba"
    }
  }, {
    "fullUrl": "https://madie.cms.gov/Procedure/8cdc5caf-5216-411f-9f25-975dd7d42a45",
    "resource": {
      "resourceType": "Procedure",
      "id": "8cdc5caf-5216-411f-9f25-975dd7d42a45",
      "meta": {
        "profile": [ "http://hl7.org/fhir/us/qicore/StructureDefinition/qicore-procedure" ]
      },
      "extension": [ {
        "url": "http://hl7.org/fhir/us/qicore/StructureDefinition/qicore-recorded",
        "valueDateTime": "2026-02-01T04:01:00.000+00:00"
      } ],
      "status": "completed",
      "code": {
        "coding": [ {
          "system": "http://snomed.info/sct",
          "code": "11397000"
        } ]
      },
      "subject": {
        "reference": "Patient/66beff7a-68d0-4040-8558-b9bdd5b00120"
      },
      "performedPeriod": {
        "start": "2026-02-06T00:00:00.000+00:00",
        "end": "2026-02-06T11:59:00.000+00:00"
      }
    },
    "request": {
      "method": "PUT",
      "url": "Procedure/8cdc5caf-5216-411f-9f25-975dd7d42a45"
    }
  }, {
    "fullUrl": "https://madie.cms.gov/Organization/8175b673-bf36-4d84-a913-87510bf8270c",
    "resource": {
      "resourceType": "Organization",
      "id": "8175b673-bf36-4d84-a913-87510bf8270c",
      "meta": {
        "profile": [ "http://hl7.org/fhir/us/qicore/StructureDefinition/qicore-organization" ]
      },
      "identifier": [ {
        "use": "temp",
        "system": "urn:oid:2.16.840.1.113883.4.4",
        "value": "21-3259825"
      } ],
      "active": true,
      "type": [ {
        "coding": [ {
          "system": "http://terminology.hl7.org/CodeSystem/organization-type",
          "code": "pay",
          "display": "Payer"
        } ]
      } ],
      "name": "Blue Cross Blue Shield of Texas",
      "telecom": [ {
        "system": "phone",
        "value": "(+1) 972-766-6900"
      } ],
      "address": [ {
        "use": "billing",
        "type": "postal",
        "line": [ "P.O. Box 660044" ],
        "city": "Dallas",
        "state": "TX",
        "postalCode": "75266-0044",
        "country": "USA"
      } ]
    },
    "request": {
      "method": "PUT",
      "url": "Organization/8175b673-bf36-4d84-a913-87510bf8270c"
    }
  }, {
    "fullUrl": "https://madie.cms.gov/Practitioner/a81fb29b-31ba-4186-af67-5efa0c85e68c",
    "resource": {
      "resourceType": "Practitioner",
      "id": "a81fb29b-31ba-4186-af67-5efa0c85e68c",
      "meta": {
        "profile": [ "http://hl7.org/fhir/us/qicore/StructureDefinition/qicore-practitioner" ]
      },
      "identifier": [ {
        "system": "http://hl7.org/fhir/sid/us-npi",
        "value": "9999999896"
      } ],
      "name": [ {
        "family": "Evil",
        "prefix": [ "Dr" ]
      } ]
    },
    "request": {
      "method": "PUT",
      "url": "Practitioner/a81fb29b-31ba-4186-af67-5efa0c85e68c"
    }
  }, {
    "fullUrl": "https://madie.cms.gov/MeasureReport/b93b0a1e-0102-477e-86b8-06041b35b2db",
    "resource": {
      "resourceType": "MeasureReport",
      "id": "b93b0a1e-0102-477e-86b8-06041b35b2db",
      "meta": {
        "profile": [ "http://hl7.org/fhir/us/cqfmeasures/StructureDefinition/test-case-cqfm" ]
      },
      "contained": [ {
        "resourceType": "Parameters",
        "id": "702d0504-d09b-4f7f-a510-9aa98dc6131b-parameters",
        "parameter": [ {
          "name": "subject",
          "valueString": "66beff7a-68d0-4040-8558-b9bdd5b00120"
        } ]
      } ],
      "extension": [ {
        "url": "http://hl7.org/fhir/StructureDefinition/cqf-inputParameters",
        "valueReference": {
          "reference": "#702d0504-d09b-4f7f-a510-9aa98dc6131b-parameters"
        }
      }, {
        "url": "http://hl7.org/fhir/us/cqfmeasures/StructureDefinition/cqfm-testCaseDescription",
        "valueMarkdown": "Blood Transfusion Relevant Date Time midnight day encounter ends\n"
      } ],
      "modifierExtension": [ {
        "url": "http://hl7.org/fhir/us/cqfmeasures/StructureDefinition/cqfm-isTestCase",
        "valueBoolean": true
      } ],
      "status": "complete",
      "type": "individual",
      "measure": "https://madie.cms.gov/Measure/CMS1028FHIRPCSevereOBComps",
      "period": {
        "start": "2026-01-01",
        "end": "2026-12-31"
      },
      "group": [ {
        "id": "Group_1",
        "population": [ {
          "id": "InitialPopulation_1",
          "code": {
            "coding": [ {
              "system": "http://terminology.hl7.org/CodeSystem/measure-population",
              "code": "initial-population",
              "display": "Initial Population"
            } ]
          },
          "count": 1
        }, {
          "id": "Denominator_1",
          "code": {
            "coding": [ {
              "system": "http://terminology.hl7.org/CodeSystem/measure-population",
              "code": "denominator",
              "display": "Denominator"
            } ]
          },
          "count": 1
        }, {
          "id": "Numerator_1",
          "code": {
            "coding": [ {
              "system": "http://terminology.hl7.org/CodeSystem/measure-population",
              "code": "numerator",
              "display": "Numerator"
            } ]
          },
          "count": 0
        }, {
          "id": "NumeratorExclusion_1",
          "code": {
            "coding": [ {
              "system": "http://terminology.hl7.org/CodeSystem/measure-population",
              "code": "numerator-exclusion",
              "display": "Numerator Exclusion"
            } ]
          },
          "count": 0
        } ],
        "measureScore": {
          "value": 0.0
        }
      }, {
        "id": "Group_2",
        "population": [ {
          "id": "InitialPopulation_2",
          "code": {
            "coding": [ {
              "system": "http://terminology.hl7.org/CodeSystem/measure-population",
              "code": "initial-population",
              "display": "Initial Population"
            } ]
          },
          "count": 1
        }, {
          "id": "Denominator_2",
          "code": {
            "coding": [ {
              "system": "http://terminology.hl7.org/CodeSystem/measure-population",
              "code": "denominator",
              "display": "Denominator"
            } ]
          },
          "count": 1
        }, {
          "id": "Numerator_2",
          "code": {
            "coding": [ {
              "system": "http://terminology.hl7.org/CodeSystem/measure-population",
              "code": "numerator",
              "display": "Numerator"
            } ]
          },
          "count": 0
        }, {
          "id": "NumeratorExclusion_2",
          "code": {
            "coding": [ {
              "system": "http://terminology.hl7.org/CodeSystem/measure-population",
              "code": "numerator-exclusion",
              "display": "Numerator Exclusion"
            } ]
          },
          "count": 0
        } ],
        "measureScore": {
          "value": 0.0
        }
      } ],
      "evaluatedResource": [ {
        "reference": "Patient/66beff7a-68d0-4040-8558-b9bdd5b00120"
      }, {
        "reference": "Observation/54534bb9-9385-4ca9-afae-19fed560e356"
      }, {
        "reference": "Observation/1ec44059-f29c-4237-80ac-4eabb19254f4"
      }, {
        "reference": "Observation/6e959a10-02e1-4720-879e-9b1f6f4eec85"
      }, {
        "reference": "Encounter/d4f24f8b-435c-4f31-9fad-64fc6344eb6c"
      }, {
        "reference": "Coverage/42610533-fb0f-4fdc-a848-c9fcf0917b00"
      }, {
        "reference": "Procedure/a732be45-fb8d-485a-8ffb-596d4f0c2bba"
      }, {
        "reference": "Procedure/8cdc5caf-5216-411f-9f25-975dd7d42a45"
      }, {
        "reference": "Organization/8175b673-bf36-4d84-a913-87510bf8270c"
      }, {
        "reference": "Practitioner/a81fb29b-31ba-4186-af67-5efa0c85e68c"
      } ]
    },
    "request": {
      "method": "PUT",
      "url": "MeasureReport/b93b0a1e-0102-477e-86b8-06041b35b2db"
    }
  } ]
}