{
  "resourceType": "Bundle",
  "id": "NUMFail-InitHOOS91DaysB4THAFUHOOS425DaysAfterTHA",
  "type": "collection",
  "entry": [ {
    "fullUrl": "https://madie.cms.gov/Patient/0f65b705-a1fd-41b4-8834-2a200e582472",
    "resource": {
      "resourceType": "Patient",
      "id": "0f65b705-a1fd-41b4-8834-2a200e582472",
      "meta": {
        "profile": [ "http://hl7.org/fhir/us/qicore/StructureDefinition/qicore-patient" ]
      },
      "extension": [ {
        "url": "http://hl7.org/fhir/us/core/StructureDefinition/us-core-race",
        "extension": [ {
          "url": "ombCategory",
          "valueCoding": {
            "system": "urn:oid:2.16.840.1.113883.6.238",
            "code": "2028-9",
            "display": "Asian"
          }
        }, {
          "url": "text",
          "valueString": "Asian"
        } ]
      }, {
        "url": "http://hl7.org/fhir/us/core/StructureDefinition/us-core-ethnicity",
        "extension": [ {
          "url": "ombCategory",
          "valueCoding": {
            "system": "urn:oid:2.16.840.1.113883.6.238",
            "code": "2135-2",
            "display": "Hispanic or Latino"
          }
        }, {
          "url": "text",
          "valueString": "Hispanic or Latino"
        } ]
      } ],
      "identifier": [ {
        "system": "http://hospital.smarthealthit.org",
        "value": "999999995"
      } ],
      "name": [ {
        "family": "Bertha",
        "given": [ "Betty" ]
      } ],
      "gender": "female",
      "birthDate": "2007-01-01"
    }
  }, {
    "fullUrl": "https://madie.cms.gov/Procedure/f6f2a480-9287-4cc6-9c7f-2d3bb226df3b",
    "resource": {
      "resourceType": "Procedure",
      "id": "f6f2a480-9287-4cc6-9c7f-2d3bb226df3b",
      "meta": {
        "profile": [ "http://hl7.org/fhir/us/qicore/StructureDefinition/qicore-procedure" ]
      },
      "extension": [ {
        "url": "http://hl7.org/fhir/us/qicore/StructureDefinition/qicore-recorded",
        "valueDateTime": "2024-11-01T00:00:00.000+00:00"
      } ],
      "status": "completed",
      "code": {
        "coding": [ {
          "system": "http://www.cms.gov/Medicare/Coding/ICD10",
          "code": "0SR9019",
          "display": "Replacement of Right Hip Joint with Metal Synthetic Substitute, Cemented, Open Approach"
        } ]
      },
      "subject": {
        "reference": "Patient/0f65b705-a1fd-41b4-8834-2a200e582472"
      },
      "performedPeriod": {
        "start": "2024-11-01T00:00:00.000+00:00",
        "end": "2024-11-01T01:00:00.000+00:00"
      }
    }
  }, {
    "fullUrl": "https://madie.cms.gov/Encounter/ec703dba-46e6-4164-83b3-6693d3e2bac8",
    "resource": {
      "resourceType": "Encounter",
      "id": "ec703dba-46e6-4164-83b3-6693d3e2bac8",
      "meta": {
        "profile": [ "http://hl7.org/fhir/us/qicore/StructureDefinition/qicore-encounter" ]
      },
      "status": "finished",
      "class": {
        "system": "http://terminology.hl7.org/CodeSystem/v3-ActCode",
        "code": "AMB",
        "display": "ambulatory"
      },
      "type": [ {
        "coding": [ {
          "system": "http://snomed.info/sct",
          "version": "http://snomed.info/sct/731000124108/version/20250301",
          "code": "281036007",
          "display": "Follow-up consultation (procedure)"
        } ]
      } ],
      "subject": {
        "reference": "Patient/0f65b705-a1fd-41b4-8834-2a200e582472"
      },
      "period": {
        "start": "2025-11-01T00:00:00.000+00:00",
        "end": "2025-11-01T01:15:00.000+00:00"
      }
    }
  }, {
    "fullUrl": "https://madie.cms.gov/Observation/8e331f9e-2b54-4be8-8ccf-30274a4c163b",
    "resource": {
      "resourceType": "Observation",
      "id": "8e331f9e-2b54-4be8-8ccf-30274a4c163b",
      "meta": {
        "profile": [ "http://hl7.org/fhir/us/qicore/StructureDefinition/qicore-observation-screening-assessment" ]
      },
      "status": "final",
      "category": [ {
        "coding": [ {
          "system": "http://terminology.hl7.org/CodeSystem/observation-category",
          "code": "survey"
        } ]
      } ],
      "code": {
        "coding": [ {
          "system": "http://loinc.org",
          "code": "72093-8",
          "display": "Quality of life score [HOOS]"
        } ]
      },
      "subject": {
        "reference": "Patient/0f65b705-a1fd-41b4-8834-2a200e582472"
      },
      "effectivePeriod": {
        "start": "2024-08-02T00:00:00.000+00:00",
        "end": "2024-08-02T01:00:00.000+00:00"
      },
      "valueInteger": 60
    }
  }, {
    "fullUrl": "https://madie.cms.gov/Observation/94127e39-6236-471f-9da8-404ae1dcc723",
    "resource": {
      "resourceType": "Observation",
      "id": "94127e39-6236-471f-9da8-404ae1dcc723",
      "meta": {
        "profile": [ "http://hl7.org/fhir/us/qicore/StructureDefinition/qicore-observation-screening-assessment" ]
      },
      "status": "final",
      "category": [ {
        "coding": [ {
          "system": "http://terminology.hl7.org/CodeSystem/observation-category",
          "code": "survey"
        } ]
      } ],
      "code": {
        "coding": [ {
          "system": "http://loinc.org",
          "code": "72094-6",
          "display": "Sport-recreation score [HOOS]"
        } ]
      },
      "subject": {
        "reference": "Patient/0f65b705-a1fd-41b4-8834-2a200e582472"
      },
      "effectivePeriod": {
        "start": "2024-08-02T00:00:00.000+00:00",
        "end": "2024-08-02T01:00:00.000+00:00"
      },
      "valueInteger": 60
    }
  }, {
    "fullUrl": "https://madie.cms.gov/Observation/fef7fba0-8e19-4d87-b420-334c65d18bc4",
    "resource": {
      "resourceType": "Observation",
      "id": "fef7fba0-8e19-4d87-b420-334c65d18bc4",
      "meta": {
        "profile": [ "http://hl7.org/fhir/us/qicore/StructureDefinition/qicore-observation-screening-assessment" ]
      },
      "status": "final",
      "category": [ {
        "coding": [ {
          "system": "http://terminology.hl7.org/CodeSystem/observation-category",
          "code": "survey"
        } ]
      } ],
      "code": {
        "coding": [ {
          "system": "http://loinc.org",
          "code": "72095-3",
          "display": "Activities of daily living score [HOOS]"
        } ]
      },
      "subject": {
        "reference": "Patient/0f65b705-a1fd-41b4-8834-2a200e582472"
      },
      "effectivePeriod": {
        "start": "2024-08-02T00:00:00.000+00:00",
        "end": "2024-08-02T01:00:00.000+00:00"
      },
      "valueInteger": 60
    }
  }, {
    "fullUrl": "https://madie.cms.gov/Observation/51ef4bb8-1301-4d07-aca7-2c07c14db270",
    "resource": {
      "resourceType": "Observation",
      "id": "51ef4bb8-1301-4d07-aca7-2c07c14db270",
      "meta": {
        "profile": [ "http://hl7.org/fhir/us/qicore/StructureDefinition/qicore-observation-screening-assessment" ]
      },
      "status": "final",
      "category": [ {
        "coding": [ {
          "system": "http://terminology.hl7.org/CodeSystem/observation-category",
          "code": "survey"
        } ]
      } ],
      "code": {
        "coding": [ {
          "system": "http://loinc.org",
          "code": "72096-1",
          "display": "Symptoms score [HOOS]"
        } ]
      },
      "subject": {
        "reference": "Patient/0f65b705-a1fd-41b4-8834-2a200e582472"
      },
      "effectivePeriod": {
        "start": "2024-08-02T00:00:00.000+00:00",
        "end": "2024-08-02T01:00:00.000+00:00"
      },
      "valueInteger": 60
    }
  }, {
    "fullUrl": "https://madie.cms.gov/Observation/e47e4095-a40a-4912-98e6-7b5dfba25bee",
    "resource": {
      "resourceType": "Observation",
      "id": "e47e4095-a40a-4912-98e6-7b5dfba25bee",
      "meta": {
        "profile": [ "http://hl7.org/fhir/us/qicore/StructureDefinition/qicore-observation-screening-assessment" ]
      },
      "status": "final",
      "category": [ {
        "coding": [ {
          "system": "http://terminology.hl7.org/CodeSystem/observation-category",
          "code": "survey"
        } ]
      } ],
      "code": {
        "coding": [ {
          "system": "http://loinc.org",
          "code": "72097-9",
          "display": "Pain score [HOOS]"
        } ]
      },
      "subject": {
        "reference": "Patient/0f65b705-a1fd-41b4-8834-2a200e582472"
      },
      "effectivePeriod": {
        "start": "2024-08-02T00:00:00.000+00:00",
        "end": "2024-08-02T01:00:00.000+00:00"
      },
      "valueInteger": 60
    }
  }, {
    "fullUrl": "https://madie.cms.gov/Observation/68abfd43-0bfc-49fa-8581-f5eea7e9a9f1",
    "resource": {
      "resourceType": "Observation",
      "id": "68abfd43-0bfc-49fa-8581-f5eea7e9a9f1",
      "meta": {
        "profile": [ "http://hl7.org/fhir/us/qicore/StructureDefinition/qicore-observation-screening-assessment" ]
      },
      "status": "final",
      "category": [ {
        "coding": [ {
          "system": "http://terminology.hl7.org/CodeSystem/observation-category",
          "code": "survey"
        } ]
      } ],
      "code": {
        "coding": [ {
          "system": "http://loinc.org",
          "code": "72093-8",
          "display": "Quality of life score [HOOS]"
        } ]
      },
      "subject": {
        "reference": "Patient/0f65b705-a1fd-41b4-8834-2a200e582472"
      },
      "effectivePeriod": {
        "start": "2025-12-30T00:00:00.000+00:00",
        "end": "2025-12-30T01:00:00.000+00:00"
      },
      "valueInteger": 60
    }
  }, {
    "fullUrl": "https://madie.cms.gov/Observation/1953e863-c510-44ee-bd4c-91fe8578177a",
    "resource": {
      "resourceType": "Observation",
      "id": "1953e863-c510-44ee-bd4c-91fe8578177a",
      "meta": {
        "profile": [ "http://hl7.org/fhir/us/qicore/StructureDefinition/qicore-observation-screening-assessment" ]
      },
      "status": "final",
      "category": [ {
        "coding": [ {
          "system": "http://terminology.hl7.org/CodeSystem/observation-category",
          "code": "survey"
        } ]
      } ],
      "code": {
        "coding": [ {
          "system": "http://loinc.org",
          "code": "72094-6",
          "display": "Sport-recreation score [HOOS]"
        } ]
      },
      "subject": {
        "reference": "Patient/0f65b705-a1fd-41b4-8834-2a200e582472"
      },
      "effectivePeriod": {
        "start": "2025-12-30T00:00:00.000+00:00",
        "end": "2025-12-30T01:00:00.000+00:00"
      },
      "valueInteger": 60
    }
  }, {
    "fullUrl": "https://madie.cms.gov/Observation/b5946ffd-20f2-400f-8a1b-54e3d199e761",
    "resource": {
      "resourceType": "Observation",
      "id": "b5946ffd-20f2-400f-8a1b-54e3d199e761",
      "meta": {
        "profile": [ "http://hl7.org/fhir/us/qicore/StructureDefinition/qicore-observation-screening-assessment" ]
      },
      "status": "final",
      "category": [ {
        "coding": [ {
          "system": "http://terminology.hl7.org/CodeSystem/observation-category",
          "code": "survey"
        } ]
      } ],
      "code": {
        "coding": [ {
          "system": "http://loinc.org",
          "code": "72095-3",
          "display": "Activities of daily living score [HOOS]"
        } ]
      },
      "subject": {
        "reference": "Patient/0f65b705-a1fd-41b4-8834-2a200e582472"
      },
      "effectivePeriod": {
        "start": "2025-12-30T00:00:00.000+00:00",
        "end": "2025-12-30T01:00:00.000+00:00"
      },
      "valueInteger": 60
    }
  }, {
    "fullUrl": "https://madie.cms.gov/Observation/b48a2b1a-bf80-41a8-b898-30918ced4583",
    "resource": {
      "resourceType": "Observation",
      "id": "b48a2b1a-bf80-41a8-b898-30918ced4583",
      "meta": {
        "profile": [ "http://hl7.org/fhir/us/qicore/StructureDefinition/qicore-observation-screening-assessment" ]
      },
      "status": "final",
      "category": [ {
        "coding": [ {
          "system": "http://terminology.hl7.org/CodeSystem/observation-category",
          "code": "survey"
        } ]
      } ],
      "code": {
        "coding": [ {
          "system": "http://loinc.org",
          "code": "72096-1",
          "display": "Symptoms score [HOOS]"
        } ]
      },
      "subject": {
        "reference": "Patient/0f65b705-a1fd-41b4-8834-2a200e582472"
      },
      "effectivePeriod": {
        "start": "2025-12-30T00:00:00.000+00:00",
        "end": "2025-12-30T01:00:00.000+00:00"
      },
      "valueInteger": 60
    }
  }, {
    "fullUrl": "https://madie.cms.gov/Observation/7de6caed-b9bc-45f8-a3d3-144bc6336fd1",
    "resource": {
      "resourceType": "Observation",
      "id": "7de6caed-b9bc-45f8-a3d3-144bc6336fd1",
      "meta": {
        "profile": [ "http://hl7.org/fhir/us/qicore/StructureDefinition/qicore-observation-screening-assessment" ]
      },
      "status": "final",
      "category": [ {
        "coding": [ {
          "system": "http://terminology.hl7.org/CodeSystem/observation-category",
          "code": "survey"
        } ]
      } ],
      "code": {
        "coding": [ {
          "system": "http://loinc.org",
          "code": "72097-9",
          "display": "Pain score [HOOS]"
        } ]
      },
      "subject": {
        "reference": "Patient/0f65b705-a1fd-41b4-8834-2a200e582472"
      },
      "effectivePeriod": {
        "start": "2025-12-30T00:00:00.000+00:00",
        "end": "2025-12-30T01:00:00.000+00:00"
      },
      "valueInteger": 60
    }
  }, {
    "fullUrl": "https://madie.cms.gov/MeasureReport/f54c2d2f-9507-43ff-b27a-c47a57d60059",
    "resource": {
      "resourceType": "MeasureReport",
      "id": "f54c2d2f-9507-43ff-b27a-c47a57d60059",
      "meta": {
        "profile": [ "http://hl7.org/fhir/us/cqfmeasures/StructureDefinition/test-case-cqfm" ]
      },
      "contained": [ {
        "resourceType": "Parameters",
        "id": "d61711c2-9bfc-4cae-963a-0ab550687847-parameters",
        "parameter": [ {
          "name": "subject",
          "valueString": "0f65b705-a1fd-41b4-8834-2a200e582472"
        } ]
      } ],
      "extension": [ {
        "url": "http://hl7.org/fhir/StructureDefinition/cqf-inputParameters",
        "valueReference": {
          "reference": "#d61711c2-9bfc-4cae-963a-0ab550687847-parameters"
        }
      }, {
        "url": "http://hl7.org/fhir/us/cqfmeasures/StructureDefinition/cqfm-testCaseDescription",
        "valueMarkdown": "Patient w/ a THA Procedure 11/1, Initial Hip Assessment 91 days before THA Procedure(8/2), and FollowUp Hip Assessment HOOS 425 days after THA Procedure (12/30)\""
      } ],
      "modifierExtension": [ {
        "url": "http://hl7.org/fhir/us/cqfmeasures/StructureDefinition/cqfm-isTestCase",
        "valueBoolean": true
      } ],
      "status": "complete",
      "type": "individual",
      "measure": "https://madie.cms.gov/Measure/CMS56FHIRFuncStatHipReplacement",
      "period": {
        "start": "2026-01-01",
        "end": "2026-12-31"
      },
      "group": [ {
        "id": "Group_1",
        "population": [ {
          "id": "InitialPopulation_1",
          "code": {
            "coding": [ {
              "system": "http://terminology.hl7.org/CodeSystem/measure-population",
              "code": "initial-population",
              "display": "Initial Population"
            } ]
          },
          "count": 1
        }, {
          "id": "Denominator_1",
          "code": {
            "coding": [ {
              "system": "http://terminology.hl7.org/CodeSystem/measure-population",
              "code": "denominator",
              "display": "Denominator"
            } ]
          },
          "count": 1
        }, {
          "id": "DenominatorExclusion_1",
          "code": {
            "coding": [ {
              "system": "http://terminology.hl7.org/CodeSystem/measure-population",
              "code": "denominator-exclusion",
              "display": "Denominator Exclusion"
            } ]
          },
          "count": 0
        }, {
          "id": "Numerator_1",
          "code": {
            "coding": [ {
              "system": "http://terminology.hl7.org/CodeSystem/measure-population",
              "code": "numerator",
              "display": "Numerator"
            } ]
          },
          "count": 0
        } ],
        "measureScore": {
          "value": 1.0
        }
      } ],
      "evaluatedResource": [ {
        "reference": "Patient/0f65b705-a1fd-41b4-8834-2a200e582472"
      }, {
        "reference": "Procedure/f6f2a480-9287-4cc6-9c7f-2d3bb226df3b"
      }, {
        "reference": "Encounter/ec703dba-46e6-4164-83b3-6693d3e2bac8"
      }, {
        "reference": "Observation/8e331f9e-2b54-4be8-8ccf-30274a4c163b"
      }, {
        "reference": "Observation/94127e39-6236-471f-9da8-404ae1dcc723"
      }, {
        "reference": "Observation/fef7fba0-8e19-4d87-b420-334c65d18bc4"
      }, {
        "reference": "Observation/51ef4bb8-1301-4d07-aca7-2c07c14db270"
      }, {
        "reference": "Observation/e47e4095-a40a-4912-98e6-7b5dfba25bee"
      }, {
        "reference": "Observation/68abfd43-0bfc-49fa-8581-f5eea7e9a9f1"
      }, {
        "reference": "Observation/1953e863-c510-44ee-bd4c-91fe8578177a"
      }, {
        "reference": "Observation/b5946ffd-20f2-400f-8a1b-54e3d199e761"
      }, {
        "reference": "Observation/b48a2b1a-bf80-41a8-b898-30918ced4583"
      }, {
        "reference": "Observation/7de6caed-b9bc-45f8-a3d3-144bc6336fd1"
      } ]
    }
  } ]
}