{
  "resourceType": "Bundle",
  "id": "tests-23191b54-f639-47a2-88ad-dc7fabaec98a-bundle",
  "type": "transaction",
  "entry": [ {
    "fullUrl": "https://madie.cms.gov/Encounter/52ba93fa-261d-407c-9232-55bc96e1a5a2",
    "resource": {
      "resourceType": "Encounter",
      "id": "52ba93fa-261d-407c-9232-55bc96e1a5a2",
      "meta": {
        "profile": [ "http://hl7.org/fhir/us/qicore/StructureDefinition/qicore-encounter" ]
      },
      "status": "finished",
      "class": {
        "system": "http://terminology.hl7.org/CodeSystem/v3-ActCode",
        "code": "IMP",
        "display": "inpatient encounter"
      },
      "type": [ {
        "coding": [ {
          "system": "http://snomed.info/sct",
          "code": "112689000",
          "display": "Hospital admission, elective, with complete pre-admission work-up"
        } ],
        "text": "Hospital admission, elective, with complete pre-admission work-up"
      } ],
      "priority": {
        "coding": [ {
          "system": "http://snomed.info/sct",
          "code": "103390000"
        } ]
      },
      "subject": {
        "reference": "Patient/23191b54-f639-47a2-88ad-dc7fabaec98a"
      },
      "period": {
        "start": "2026-05-14T11:00:00.000+00:00",
        "end": "2026-05-20T08:15:00.000+00:00"
      }
    },
    "request": {
      "method": "PUT",
      "url": "Encounter/52ba93fa-261d-407c-9232-55bc96e1a5a2"
    }
  }, {
    "fullUrl": "https://madie.cms.gov/Procedure/db02caa1-3720-4c2e-81e2-9b4eb072bd94",
    "resource": {
      "resourceType": "Procedure",
      "id": "db02caa1-3720-4c2e-81e2-9b4eb072bd94",
      "meta": {
        "profile": [ "http://hl7.org/fhir/us/qicore/StructureDefinition/qicore-procedure" ]
      },
      "extension": [ {
        "url": "http://hl7.org/fhir/us/qicore/StructureDefinition/qicore-recorded",
        "valueDateTime": "2026-05-06T08:15:30.000+00:00"
      } ],
      "status": "completed",
      "code": {
        "coding": [ {
          "system": "http://snomed.info/sct",
          "version": "2023-09",
          "code": "304577004",
          "display": "Humidified oxygen therapy (procedure)"
        } ],
        "text": "Humidified oxygen therapy (procedure)"
      },
      "subject": {
        "reference": "Patient/23191b54-f639-47a2-88ad-dc7fabaec98a"
      },
      "performedDateTime": "2026-05-06T08:10:00.000+00:00"
    },
    "request": {
      "method": "PUT",
      "url": "Procedure/db02caa1-3720-4c2e-81e2-9b4eb072bd94"
    }
  }, {
    "fullUrl": "https://madie.cms.gov/Procedure/37b3a5c1-4032-4591-8ee0-9d23699d73fa",
    "resource": {
      "resourceType": "Procedure",
      "id": "37b3a5c1-4032-4591-8ee0-9d23699d73fa",
      "meta": {
        "profile": [ "http://hl7.org/fhir/us/qicore/StructureDefinition/qicore-procedure" ]
      },
      "extension": [ {
        "url": "http://hl7.org/fhir/us/qicore/StructureDefinition/qicore-recorded",
        "valueDateTime": "2026-05-15T12:20:00.000+00:00"
      } ],
      "status": "completed",
      "category": {
        "coding": [ {
          "system": "http://snomed.info/sct",
          "code": "18286008",
          "display": "General or neuraxial anesthesia"
        } ]
      },
      "code": {
        "coding": [ {
          "system": "http://snomed.info/sct",
          "code": "112943005",
          "display": "Epidural injection of anesthetic substance, diagnostic, caudal, continuous"
        } ]
      },
      "subject": {
        "reference": "Patient/23191b54-f639-47a2-88ad-dc7fabaec98a"
      },
      "performedPeriod": {
        "start": "2026-05-15T11:00:00.000+00:00",
        "end": "2026-05-15T12:15:00.000+00:00"
      }
    },
    "request": {
      "method": "PUT",
      "url": "Procedure/37b3a5c1-4032-4591-8ee0-9d23699d73fa"
    }
  }, {
    "fullUrl": "https://madie.cms.gov/Procedure/c4449fd9-fa05-45fe-aa7f-3b1333ee78d1",
    "resource": {
      "resourceType": "Procedure",
      "id": "c4449fd9-fa05-45fe-aa7f-3b1333ee78d1",
      "meta": {
        "profile": [ "http://hl7.org/fhir/us/qicore/StructureDefinition/qicore-procedure" ]
      },
      "extension": [ {
        "url": "http://hl7.org/fhir/us/qicore/StructureDefinition/qicore-recorded",
        "valueDateTime": "2026-05-15T10:20:00.000+00:00"
      } ],
      "status": "completed",
      "category": {
        "coding": [ {
          "system": "http://snomed.info/sct",
          "code": "18286008",
          "display": "General or neuraxial anesthesia"
        } ]
      },
      "code": {
        "coding": [ {
          "system": "http://snomed.info/sct",
          "code": "112943005",
          "display": "Epidural injection of anesthetic substance, diagnostic, caudal, continuous"
        } ]
      },
      "subject": {
        "reference": "Patient/23191b54-f639-47a2-88ad-dc7fabaec98a"
      },
      "performedPeriod": {
        "start": "2026-05-05T09:00:00.000+00:00",
        "end": "2026-05-05T10:15:00.000+00:00"
      }
    },
    "request": {
      "method": "PUT",
      "url": "Procedure/c4449fd9-fa05-45fe-aa7f-3b1333ee78d1"
    }
  }, {
    "fullUrl": "https://madie.cms.gov/Encounter/71d988c8-9d00-49e4-bb52-e1e55929a9a7",
    "resource": {
      "resourceType": "Encounter",
      "id": "71d988c8-9d00-49e4-bb52-e1e55929a9a7",
      "meta": {
        "profile": [ "http://hl7.org/fhir/us/qicore/StructureDefinition/qicore-encounter" ]
      },
      "status": "finished",
      "class": {
        "system": "http://terminology.hl7.org/CodeSystem/v3-ActCode",
        "code": "IMP",
        "display": "inpatient encounter"
      },
      "type": [ {
        "coding": [ {
          "system": "http://snomed.info/sct",
          "code": "112689000",
          "display": "Hospital admission, elective, with complete pre-admission work-up"
        } ],
        "text": "Hospital admission, elective, with complete pre-admission work-up"
      } ],
      "priority": {
        "coding": [ {
          "system": "http://snomed.info/sct",
          "code": "103390000"
        } ]
      },
      "subject": {
        "reference": "Patient/23191b54-f639-47a2-88ad-dc7fabaec98a"
      },
      "period": {
        "start": "2026-05-04T11:00:00.000+00:00",
        "end": "2026-05-13T08:15:00.000+00:00"
      }
    },
    "request": {
      "method": "PUT",
      "url": "Encounter/71d988c8-9d00-49e4-bb52-e1e55929a9a7"
    }
  }, {
    "fullUrl": "https://madie.cms.gov/Procedure/9420dcc9-a0c7-444d-9326-ae180d770f95",
    "resource": {
      "resourceType": "Procedure",
      "id": "9420dcc9-a0c7-444d-9326-ae180d770f95",
      "meta": {
        "profile": [ "http://hl7.org/fhir/us/qicore/StructureDefinition/qicore-procedure" ]
      },
      "extension": [ {
        "url": "http://hl7.org/fhir/us/qicore/StructureDefinition/qicore-recorded",
        "valueDateTime": "2026-05-15T13:20:30.000+00:00"
      } ],
      "status": "completed",
      "code": {
        "coding": [ {
          "system": "http://snomed.info/sct",
          "code": "1258985005",
          "display": "Invasive Mechanical Ventilation"
        } ],
        "text": "Invasive Mechanical Ventilation"
      },
      "subject": {
        "reference": "Patient/23191b54-f639-47a2-88ad-dc7fabaec98a"
      },
      "performedPeriod": {
        "start": "2026-05-15T13:04:00.000+00:00",
        "end": "2026-05-15T13:19:00.000+00:00"
      }
    },
    "request": {
      "method": "PUT",
      "url": "Procedure/9420dcc9-a0c7-444d-9326-ae180d770f95"
    }
  }, {
    "fullUrl": "https://madie.cms.gov/Patient/23191b54-f639-47a2-88ad-dc7fabaec98a",
    "resource": {
      "resourceType": "Patient",
      "id": "23191b54-f639-47a2-88ad-dc7fabaec98a",
      "meta": {
        "profile": [ "http://hl7.org/fhir/us/qicore/StructureDefinition/qicore-patient" ]
      },
      "extension": [ {
        "url": "http://hl7.org/fhir/us/core/StructureDefinition/us-core-race",
        "extension": [ {
          "url": "ombCategory",
          "valueCoding": {
            "system": "urn:oid:2.16.840.1.113883.6.238",
            "code": "2054-5",
            "display": "Black or African American",
            "userSelected": true
          }
        }, {
          "url": "text",
          "valueString": "Black or African American"
        } ]
      }, {
        "url": "http://hl7.org/fhir/us/core/StructureDefinition/us-core-ethnicity",
        "extension": [ {
          "url": "ombCategory",
          "valueCoding": {
            "system": "urn:oid:2.16.840.1.113883.6.238",
            "code": "2186-5",
            "display": "Not Hispanic or Latino",
            "userSelected": true
          }
        }, {
          "url": "text",
          "valueString": "Not Hispanic or Latino"
        } ]
      } ],
      "identifier": [ {
        "type": {
          "coding": [ {
            "system": "http://terminology.hl7.org/CodeSystem/v2-0203",
            "code": "MR"
          } ]
        },
        "system": "https://bonnie-fhir.healthit.gov/",
        "value": "61152a3b98086b7a79cbd7c1"
      } ],
      "active": true,
      "name": [ {
        "use": "usual",
        "family": "NUMERPass",
        "given": [ "Num2TwoEncO2DurEnc1andMVDDurEnc2" ]
      } ],
      "gender": "female",
      "birthDate": "1966-07-12"
    },
    "request": {
      "method": "PUT",
      "url": "Patient/23191b54-f639-47a2-88ad-dc7fabaec98a"
    }
  }, {
    "fullUrl": "https://madie.cms.gov/MeasureReport/caceadba-d0ae-43a5-9bbf-9d68346a2341",
    "resource": {
      "resourceType": "MeasureReport",
      "id": "caceadba-d0ae-43a5-9bbf-9d68346a2341",
      "meta": {
        "profile": [ "http://hl7.org/fhir/us/cqfmeasures/StructureDefinition/test-case-cqfm" ]
      },
      "contained": [ {
        "resourceType": "Parameters",
        "id": "616ea8fd-bdda-4cc3-8ff5-0d5ab11b27ee-parameters",
        "parameter": [ {
          "name": "subject",
          "valueString": "23191b54-f639-47a2-88ad-dc7fabaec98a"
        } ]
      } ],
      "extension": [ {
        "url": "http://hl7.org/fhir/StructureDefinition/cqf-inputParameters",
        "valueReference": {
          "reference": "#616ea8fd-bdda-4cc3-8ff5-0d5ab11b27ee-parameters"
        }
      }, {
        "url": "http://hl7.org/fhir/us/cqfmeasures/StructureDefinition/cqfm-testCaseDescription",
        "valueMarkdown": "2 encounters. Enc1: O2 after procedure Enc2: MV after end of procedure  Fails numerator because enc1 has no MV, and enc2 has no O2"
      } ],
      "modifierExtension": [ {
        "url": "http://hl7.org/fhir/us/cqfmeasures/StructureDefinition/cqfm-isTestCase",
        "valueBoolean": true
      } ],
      "status": "complete",
      "type": "individual",
      "measure": "https://madie.cms.gov/Measure/CMS1218FHIRHHRF",
      "period": {
        "start": "2026-01-01",
        "end": "2026-12-31"
      },
      "group": [ {
        "id": "Group_1",
        "population": [ {
          "id": "InitialPopulation_1",
          "code": {
            "coding": [ {
              "system": "http://terminology.hl7.org/CodeSystem/measure-population",
              "code": "initial-population",
              "display": "Initial Population"
            } ]
          },
          "count": 2
        }, {
          "id": "Denominator_1",
          "code": {
            "coding": [ {
              "system": "http://terminology.hl7.org/CodeSystem/measure-population",
              "code": "denominator",
              "display": "Denominator"
            } ]
          },
          "count": 2
        }, {
          "id": "DenominatorExclusion_1",
          "code": {
            "coding": [ {
              "system": "http://terminology.hl7.org/CodeSystem/measure-population",
              "code": "denominator-exclusion",
              "display": "Denominator Exclusion"
            } ]
          },
          "count": 0
        }, {
          "id": "Numerator_1",
          "code": {
            "coding": [ {
              "system": "http://terminology.hl7.org/CodeSystem/measure-population",
              "code": "numerator",
              "display": "Numerator"
            } ]
          },
          "count": 0
        } ],
        "measureScore": {
          "value": 0.0
        }
      } ],
      "evaluatedResource": [ {
        "reference": "Encounter/52ba93fa-261d-407c-9232-55bc96e1a5a2"
      }, {
        "reference": "Procedure/db02caa1-3720-4c2e-81e2-9b4eb072bd94"
      }, {
        "reference": "Procedure/37b3a5c1-4032-4591-8ee0-9d23699d73fa"
      }, {
        "reference": "Procedure/c4449fd9-fa05-45fe-aa7f-3b1333ee78d1"
      }, {
        "reference": "Encounter/71d988c8-9d00-49e4-bb52-e1e55929a9a7"
      }, {
        "reference": "Procedure/9420dcc9-a0c7-444d-9326-ae180d770f95"
      }, {
        "reference": "Patient/23191b54-f639-47a2-88ad-dc7fabaec98a"
      } ]
    },
    "request": {
      "method": "PUT",
      "url": "MeasureReport/caceadba-d0ae-43a5-9bbf-9d68346a2341"
    }
  } ]
}