{
  "resourceType": "Bundle",
  "id": "612e6ee202c62a011f2eff14",
  "type": "transaction",
  "entry": [ {
    "fullUrl": "https://madie.cms.gov/Patient/a76285c9-54cb-4389-8596-874dbdb998db",
    "resource": {
      "resourceType": "Patient",
      "id": "a76285c9-54cb-4389-8596-874dbdb998db",
      "meta": {
        "profile": [ "http://hl7.org/fhir/us/qicore/StructureDefinition/qicore-patient" ]
      },
      "text": {
        "status": "generated",
        "div": "<div xmlns=\"http://www.w3.org/1999/xhtml\"><div class=\"hapiHeaderText\">MedReasonMALDUDAIPC2DayAfterAnes <b>NUMERFAIL </b></div><table class=\"hapiPropertyTable\"><tbody><tr><td>Identifier</td><td>39c81b9bc72445874f3c2841a7094a3f</td></tr><tr><td>Date of birth</td><td><span>03 March 1974</span></td></tr></tbody></table></div>"
      },
      "extension": [ {
        "url": "http://hl7.org/fhir/us/core/StructureDefinition/us-core-race",
        "extension": [ {
          "url": "ombCategory",
          "valueCoding": {
            "system": "urn:oid:2.16.840.1.113883.6.238",
            "code": "1002-5",
            "display": "American Indian or Alaska Native",
            "userSelected": true
          }
        }, {
          "url": "text",
          "valueString": "American Indian or Alaska Native"
        } ]
      }, {
        "url": "http://hl7.org/fhir/us/core/StructureDefinition/us-core-ethnicity",
        "extension": [ {
          "url": "ombCategory",
          "valueCoding": {
            "system": "urn:oid:2.16.840.1.113883.6.238",
            "code": "2135-2",
            "display": "Hispanic or Latino",
            "userSelected": true
          }
        }, {
          "url": "text",
          "valueString": "Hispanic or Latino"
        } ]
      } ],
      "identifier": [ {
        "type": {
          "coding": [ {
            "system": "http://terminology.hl7.org/CodeSystem/v2-0203",
            "code": "MR"
          } ]
        },
        "system": "https://bonnie-fhir.healthit.gov/",
        "value": "612e6ee202c62a011f2eff14"
      } ],
      "active": true,
      "name": [ {
        "use": "usual",
        "family": "NUMERFail",
        "given": [ "MedReasonMALDUDAIPC2DayAfterAnes" ]
      } ],
      "gender": "female",
      "birthDate": "1975-03-03"
    },
    "request": {
      "method": "PUT",
      "url": "Patient/a76285c9-54cb-4389-8596-874dbdb998db"
    }
  }, {
    "fullUrl": "https://madie.cms.gov/Encounter/06f3497c-4d24-4d47-9bf3-6c181ca05752",
    "resource": {
      "resourceType": "Encounter",
      "id": "06f3497c-4d24-4d47-9bf3-6c181ca05752",
      "meta": {
        "profile": [ "http://hl7.org/fhir/us/qicore/StructureDefinition/qicore-encounter" ]
      },
      "status": "finished",
      "class": {
        "system": "http://terminology.hl7.org/CodeSystem/v3-ActCode",
        "code": "IMP",
        "display": "inpatient encounter"
      },
      "type": [ {
        "coding": [ {
          "system": "http://snomed.info/sct",
          "code": "8715000"
        } ]
      } ],
      "subject": {
        "reference": "Patient/a76285c9-54cb-4389-8596-874dbdb998db"
      },
      "period": {
        "start": "2026-12-04T08:00:00.000+00:00",
        "end": "2026-12-30T08:15:00.000+00:00"
      },
      "length": {
        "value": 26,
        "unit": "days"
      },
      "location": [ {
        "location": {
          "reference": "Location/c051c801-c3f0-4e38-89a3-b721717fcdfc"
        },
        "period": {
          "start": "2026-12-06T08:00:00.000+00:00",
          "end": "2026-12-12T08:15:00.000+00:00"
        }
      } ]
    },
    "request": {
      "method": "PUT",
      "url": "Encounter/06f3497c-4d24-4d47-9bf3-6c181ca05752"
    }
  }, {
    "fullUrl": "https://madie.cms.gov/Coverage/87aaa192-31c8-4774-8460-1b9b4833ef27",
    "resource": {
      "resourceType": "Coverage",
      "id": "87aaa192-31c8-4774-8460-1b9b4833ef27",
      "status": "active",
      "beneficiary": {
        "reference": "Patient/a76285c9-54cb-4389-8596-874dbdb998db"
      },
      "period": {
        "start": "1975-03-03T08:00:00.000+00:00"
      },
      "payor": [ {
        "reference": "Organization/5c3085a3-3516-4d76-a00b-addc5a98512b"
      } ]
    },
    "request": {
      "method": "PUT",
      "url": "Coverage/87aaa192-31c8-4774-8460-1b9b4833ef27"
    }
  }, {
    "fullUrl": "https://madie.cms.gov/Procedure/de8a91b3-557c-4ccb-a493-73c917a59b00",
    "resource": {
      "resourceType": "Procedure",
      "id": "de8a91b3-557c-4ccb-a493-73c917a59b00",
      "meta": {
        "profile": [ "http://hl7.org/fhir/us/qicore/StructureDefinition/qicore-procedurenotdone" ]
      },
      "extension": [ {
        "url": "http://hl7.org/fhir/us/qicore/StructureDefinition/qicore-recorded",
        "valueDateTime": "2026-11-01T07:00:00.000+00:00"
      } ],
      "status": "not-done",
      "statusReason": {
        "coding": [ {
          "system": "http://snomed.info/sct",
          "code": "183932001",
          "display": "Procedure contraindicated (situation)",
          "userSelected": true
        } ]
      },
      "code": {
        "coding": [ {
          "system": "http://snomed.info/sct",
          "code": "443448006",
          "display": "Application of intermittent pneumatic compression device (procedure)",
          "userSelected": true
        } ]
      },
      "subject": {
        "reference": "Patient/a76285c9-54cb-4389-8596-874dbdb998db"
      },
      "_performedDateTime": {
        "extension": [ {
          "url": "http://hl7.org/fhir/StructureDefinition/data-absent-reason",
          "valueCode": "not-performed"
        } ]
      }
    },
    "request": {
      "method": "PUT",
      "url": "Procedure/de8a91b3-557c-4ccb-a493-73c917a59b00"
    }
  }, {
    "fullUrl": "https://madie.cms.gov/MedicationAdministration/99295075-bec8-4d0c-a829-5f3d5202c964",
    "resource": {
      "resourceType": "MedicationAdministration",
      "id": "99295075-bec8-4d0c-a829-5f3d5202c964",
      "meta": {
        "profile": [ "http://hl7.org/fhir/us/qicore/StructureDefinition/qicore-medicationadministrationnotdone" ]
      },
      "extension": [ {
        "url": "http://hl7.org/fhir/us/qicore/StructureDefinition/qicore-recorded",
        "valueDateTime": "2026-12-08T07:00:00.000+00:00"
      } ],
      "status": "not-done",
      "statusReason": [ {
        "coding": [ {
          "system": "http://snomed.info/sct",
          "code": "183932001"
        } ]
      } ],
      "medicationCodeableConcept": {
        "coding": [ {
          "system": "http://www.nlm.nih.gov/research/umls/rxnorm",
          "code": "1658634"
        } ]
      },
      "subject": {
        "reference": "Patient/a76285c9-54cb-4389-8596-874dbdb998db"
      },
      "effectivePeriod": {
        "start": "2026-12-08T11:30:00.000+00:00"
      }
    },
    "request": {
      "method": "PUT",
      "url": "MedicationAdministration/99295075-bec8-4d0c-a829-5f3d5202c964"
    }
  }, {
    "fullUrl": "https://madie.cms.gov/Procedure/013fb485-d29e-4bc0-bc00-3fb61852636e",
    "resource": {
      "resourceType": "Procedure",
      "id": "013fb485-d29e-4bc0-bc00-3fb61852636e",
      "status": "completed",
      "code": {
        "coding": [ {
          "system": "http://www.icd10data.com/icd10pcs",
          "code": "3E030FZ"
        }, {
          "system": "http://snomed.info/sct",
          "code": "18946005"
        } ]
      },
      "subject": {
        "reference": "Patient/a76285c9-54cb-4389-8596-874dbdb998db"
      },
      "performedPeriod": {
        "start": "2026-12-04T11:00:00.000+00:00",
        "end": "2026-12-06T11:15:00.000+00:00"
      }
    },
    "request": {
      "method": "PUT",
      "url": "Procedure/013fb485-d29e-4bc0-bc00-3fb61852636e"
    }
  }, {
    "fullUrl": "https://madie.cms.gov/Location/c051c801-c3f0-4e38-89a3-b721717fcdfc",
    "resource": {
      "resourceType": "Location",
      "id": "c051c801-c3f0-4e38-89a3-b721717fcdfc",
      "meta": {
        "profile": [ "http://hl7.org/fhir/us/qicore/StructureDefinition/qicore-location" ]
      },
      "identifier": [ {
        "use": "usual",
        "system": "http://exampleoflocation.com",
        "value": "B1-S.F2"
      } ],
      "name": "Medical Surgical East, first floor",
      "type": [ {
        "coding": [ {
          "system": "https://www.cdc.gov/nhsn/cdaportal/terminology/codesystem/hsloc.html",
          "code": "1025-6",
          "display": "Trauma Critical Care",
          "userSelected": true
        } ]
      } ]
    },
    "request": {
      "method": "PUT",
      "url": "Location/c051c801-c3f0-4e38-89a3-b721717fcdfc"
    }
  }, {
    "fullUrl": "https://madie.cms.gov/Organization/5c3085a3-3516-4d76-a00b-addc5a98512b",
    "resource": {
      "resourceType": "Organization",
      "id": "5c3085a3-3516-4d76-a00b-addc5a98512b",
      "meta": {
        "profile": [ "http://hl7.org/fhir/us/qicore/StructureDefinition/qicore-organization" ]
      },
      "identifier": [ {
        "use": "temp",
        "system": "urn:oid:2.16.840.1.113883.4.4",
        "value": "21-3259825"
      } ],
      "active": true,
      "type": [ {
        "coding": [ {
          "system": "http://terminology.hl7.org/CodeSystem/organization-type",
          "code": "pay",
          "display": "Payer"
        } ]
      } ],
      "name": "Blue Cross Blue Shield of Texas",
      "telecom": [ {
        "system": "phone",
        "value": "(+1) 972-766-6900"
      } ],
      "address": [ {
        "use": "billing",
        "type": "postal",
        "line": [ "P.O. Box 660044" ],
        "city": "Dallas",
        "state": "TX",
        "postalCode": "75266-0044",
        "country": "USA"
      } ]
    },
    "request": {
      "method": "PUT",
      "url": "Organization/5c3085a3-3516-4d76-a00b-addc5a98512b"
    }
  }, {
    "fullUrl": "https://madie.cms.gov/Practitioner/bd646bee-5ce2-4da8-8dce-2a531a59dd73",
    "resource": {
      "resourceType": "Practitioner",
      "id": "bd646bee-5ce2-4da8-8dce-2a531a59dd73",
      "identifier": [ {
        "system": "http://hl7.org/fhir/sid/us-npi",
        "value": "123456"
      } ],
      "name": [ {
        "family": "Evil",
        "prefix": [ "Dr" ]
      } ]
    },
    "request": {
      "method": "PUT",
      "url": "Practitioner/bd646bee-5ce2-4da8-8dce-2a531a59dd73"
    }
  }, {
    "fullUrl": "https://madie.cms.gov/MeasureReport/bcb42679-591c-42f9-b8bc-8224d1bdeefa",
    "resource": {
      "resourceType": "MeasureReport",
      "id": "bcb42679-591c-42f9-b8bc-8224d1bdeefa",
      "meta": {
        "profile": [ "http://hl7.org/fhir/us/cqfmeasures/StructureDefinition/test-case-cqfm" ]
      },
      "contained": [ {
        "resourceType": "Parameters",
        "id": "f081087e-b4f7-482a-91d9-c5aa9195473b-parameters",
        "parameter": [ {
          "name": "subject",
          "valueString": "a76285c9-54cb-4389-8596-874dbdb998db"
        } ]
      } ],
      "extension": [ {
        "url": "http://hl7.org/fhir/StructureDefinition/cqf-inputParameters",
        "valueReference": {
          "reference": "#f081087e-b4f7-482a-91d9-c5aa9195473b-parameters"
        }
      }, {
        "url": "http://hl7.org/fhir/us/cqfmeasures/StructureDefinition/cqfm-testCaseDescription",
        "valueMarkdown": "IPC not applied and unfractionated heparin not administered due to medical reason after neuraxial anesthesia. But Medication is 16 days  after Procedure\n"
      } ],
      "modifierExtension": [ {
        "url": "http://hl7.org/fhir/us/cqfmeasures/StructureDefinition/cqfm-isTestCase",
        "valueBoolean": true
      } ],
      "status": "complete",
      "type": "individual",
      "measure": "https://madie.cms.gov/Measure/CMS190FHIRVTEProphylaxisICU",
      "period": {
        "start": "2026-01-01",
        "end": "2026-12-31"
      },
      "group": [ {
        "id": "Group_1",
        "population": [ {
          "id": "InitialPopulation_1",
          "code": {
            "coding": [ {
              "system": "http://terminology.hl7.org/CodeSystem/measure-population",
              "code": "initial-population",
              "display": "Initial Population"
            } ]
          },
          "count": 1
        }, {
          "id": "Denominator_1",
          "code": {
            "coding": [ {
              "system": "http://terminology.hl7.org/CodeSystem/measure-population",
              "code": "denominator",
              "display": "Denominator"
            } ]
          },
          "count": 1
        }, {
          "id": "DenominatorExclusion_1",
          "code": {
            "coding": [ {
              "system": "http://terminology.hl7.org/CodeSystem/measure-population",
              "code": "denominator-exclusion",
              "display": "Denominator Exclusion"
            } ]
          },
          "count": 0
        }, {
          "id": "Numerator_1",
          "code": {
            "coding": [ {
              "system": "http://terminology.hl7.org/CodeSystem/measure-population",
              "code": "numerator",
              "display": "Numerator"
            } ]
          },
          "count": 0
        }, {
          "id": "DenominatorException_1",
          "code": {
            "coding": [ {
              "system": "http://terminology.hl7.org/CodeSystem/measure-population",
              "code": "denominator-exception",
              "display": "Denominator Exception"
            } ]
          },
          "count": 0
        } ],
        "measureScore": {
          "value": 0.0
        }
      } ],
      "evaluatedResource": [ {
        "reference": "Patient/a76285c9-54cb-4389-8596-874dbdb998db"
      }, {
        "reference": "Encounter/06f3497c-4d24-4d47-9bf3-6c181ca05752"
      }, {
        "reference": "Coverage/87aaa192-31c8-4774-8460-1b9b4833ef27"
      }, {
        "reference": "Procedure/de8a91b3-557c-4ccb-a493-73c917a59b00"
      }, {
        "reference": "MedicationAdministration/99295075-bec8-4d0c-a829-5f3d5202c964"
      }, {
        "reference": "Procedure/013fb485-d29e-4bc0-bc00-3fb61852636e"
      }, {
        "reference": "Location/c051c801-c3f0-4e38-89a3-b721717fcdfc"
      }, {
        "reference": "Organization/5c3085a3-3516-4d76-a00b-addc5a98512b"
      }, {
        "reference": "Practitioner/bd646bee-5ce2-4da8-8dce-2a531a59dd73"
      } ]
    },
    "request": {
      "method": "PUT",
      "url": "MeasureReport/bcb42679-591c-42f9-b8bc-8224d1bdeefa"
    }
  } ]
}