{
  "resourceType": "Bundle",
  "id": "63487c2e0968f80122540189",
  "type": "transaction",
  "entry": [ {
    "fullUrl": "https://madie.cms.gov/Patient/3842ef3b-ebeb-42d6-9035-aa5280bcdcfd",
    "resource": {
      "resourceType": "Patient",
      "id": "3842ef3b-ebeb-42d6-9035-aa5280bcdcfd",
      "meta": {
        "profile": [ "http://hl7.org/fhir/us/qicore/StructureDefinition/qicore-patient" ]
      },
      "text": {
        "status": "generated",
        "div": "<div xmlns=\"http://www.w3.org/1999/xhtml\"><div class=\"hapiHeaderText\">AssessPerfAbnPresRelDtTime1MinB4EncStart<b>DENEXFAIL</b></div><table class=\"hapiPropertyTable\"><tbody><tr><td>Identifier</td><td>2c1eda4938b84801bc7bcf3f0fe1fce9fac094751543d9dbfa2319ccac3ef724</td></tr><tr><td>Date of birth</td><td><span>14 February 1985</span></td></tr></tbody></table></div>"
      },
      "extension": [ {
        "url": "http://hl7.org/fhir/us/core/StructureDefinition/us-core-race",
        "extension": [ {
          "url": "ombCategory",
          "valueCoding": {
            "system": "urn:oid:2.16.840.1.113883.6.238",
            "code": "1002-5",
            "display": "American Indian or Alaska Native",
            "userSelected": true
          }
        }, {
          "url": "text",
          "valueString": "American Indian or Alaska Native"
        } ]
      }, {
        "url": "http://hl7.org/fhir/us/core/StructureDefinition/us-core-ethnicity",
        "extension": [ {
          "url": "ombCategory",
          "valueCoding": {
            "system": "urn:oid:2.16.840.1.113883.6.238",
            "code": "2135-2",
            "display": "Hispanic or Latino",
            "userSelected": true
          }
        }, {
          "url": "text",
          "valueString": "Hispanic or Latino"
        } ]
      } ],
      "identifier": [ {
        "type": {
          "coding": [ {
            "system": "http://terminology.hl7.org/CodeSystem/v2-0203",
            "code": "MR"
          } ]
        },
        "system": "https://bonnie-fhir.healthit.gov/",
        "value": "63487c2e0968f80122540189"
      } ],
      "active": true,
      "name": [ {
        "use": "usual",
        "family": "DENEXFail",
        "given": [ "AssessPerfAbnPresRelDtTime1MinB4EncStart" ]
      } ],
      "gender": "female",
      "birthDate": "1998-02-14"
    },
    "request": {
      "method": "PUT",
      "url": "Patient/3842ef3b-ebeb-42d6-9035-aa5280bcdcfd"
    }
  }, {
    "fullUrl": "https://madie.cms.gov/Observation/d230ce8e-702e-4a6d-ab69-c04152f40d5d",
    "resource": {
      "resourceType": "Observation",
      "id": "d230ce8e-702e-4a6d-ab69-c04152f40d5d",
      "meta": {
        "profile": [ "http://hl7.org/fhir/us/qicore/StructureDefinition/qicore-simple-observation" ]
      },
      "status": "final",
      "category": [ {
        "coding": [ {
          "system": "http://terminology.hl7.org/CodeSystem/observation-category",
          "code": "exam",
          "display": "exam",
          "userSelected": true
        } ]
      } ],
      "code": {
        "coding": [ {
          "system": "http://loinc.org",
          "code": "11996-6"
        } ]
      },
      "subject": {
        "reference": "Patient/3842ef3b-ebeb-42d6-9035-aa5280bcdcfd"
      },
      "effectiveDateTime": "2026-06-08T08:00:00.000+00:00",
      "valueInteger": 1
    },
    "request": {
      "method": "PUT",
      "url": "Observation/d230ce8e-702e-4a6d-ab69-c04152f40d5d"
    }
  }, {
    "fullUrl": "https://madie.cms.gov/Observation/89270d35-4d2b-4c37-a857-f88e6fe81228",
    "resource": {
      "resourceType": "Observation",
      "id": "89270d35-4d2b-4c37-a857-f88e6fe81228",
      "meta": {
        "profile": [ "http://hl7.org/fhir/us/qicore/StructureDefinition/qicore-simple-observation" ]
      },
      "status": "final",
      "category": [ {
        "coding": [ {
          "system": "http://terminology.hl7.org/CodeSystem/observation-category",
          "code": "exam",
          "display": "exam",
          "userSelected": true
        } ]
      } ],
      "code": {
        "coding": [ {
          "system": "http://loinc.org",
          "code": "11884-4"
        } ]
      },
      "subject": {
        "reference": "Patient/3842ef3b-ebeb-42d6-9035-aa5280bcdcfd"
      },
      "effectiveDateTime": "2026-06-08T08:00:00.000+00:00",
      "performer": [ {
        "reference": "Organization/example1",
        "display": "Hendricks Country Hospital"
      } ],
      "valueQuantity": {
        "value": 43,
        "system": "http://unitsofmeasure.org",
        "code": "wk"
      }
    },
    "request": {
      "method": "PUT",
      "url": "Observation/89270d35-4d2b-4c37-a857-f88e6fe81228"
    }
  }, {
    "fullUrl": "https://madie.cms.gov/Observation/f7585930-f859-47c4-bdcd-4ebce0c08bc3",
    "resource": {
      "resourceType": "Observation",
      "id": "f7585930-f859-47c4-bdcd-4ebce0c08bc3",
      "meta": {
        "profile": [ "http://hl7.org/fhir/us/qicore/StructureDefinition/qicore-simple-observation" ]
      },
      "status": "final",
      "category": [ {
        "coding": [ {
          "system": "http://terminology.hl7.org/CodeSystem/observation-category",
          "code": "exam",
          "display": "exam",
          "userSelected": true
        } ]
      } ],
      "code": {
        "coding": [ {
          "system": "http://loinc.org",
          "code": "93857-1"
        } ]
      },
      "subject": {
        "reference": "Patient/3842ef3b-ebeb-42d6-9035-aa5280bcdcfd"
      },
      "effectiveDateTime": "2026-06-08T20:00:00.000+00:00",
      "performer": [ {
        "reference": "Organization/example1",
        "display": "Hendricks Country Hospital"
      } ],
      "valueDateTime": "2026-06-08T20:00:00.000+00:00"
    },
    "request": {
      "method": "PUT",
      "url": "Observation/f7585930-f859-47c4-bdcd-4ebce0c08bc3"
    }
  }, {
    "fullUrl": "https://madie.cms.gov/Observation/4ce975fd-0a92-4978-8a0d-798414291633",
    "resource": {
      "resourceType": "Observation",
      "id": "4ce975fd-0a92-4978-8a0d-798414291633",
      "meta": {
        "profile": [ "http://hl7.org/fhir/us/qicore/StructureDefinition/qicore-simple-observation" ]
      },
      "status": "final",
      "category": [ {
        "coding": [ {
          "system": "http://terminology.hl7.org/CodeSystem/observation-category",
          "code": "exam",
          "display": "exam",
          "userSelected": true
        } ]
      } ],
      "code": {
        "coding": [ {
          "system": "http://snomed.info/sct",
          "code": "163514003"
        } ]
      },
      "subject": {
        "reference": "Patient/3842ef3b-ebeb-42d6-9035-aa5280bcdcfd"
      },
      "effectiveDateTime": "2026-06-08T07:59:00.000+00:00",
      "performer": [ {
        "reference": "Organization/example1",
        "display": "Hendricks Country Hospital"
      } ]
    },
    "request": {
      "method": "PUT",
      "url": "Observation/4ce975fd-0a92-4978-8a0d-798414291633"
    }
  }, {
    "fullUrl": "https://madie.cms.gov/Encounter/b2dd341c-bcc3-405f-8338-0b8318c9d32a",
    "resource": {
      "resourceType": "Encounter",
      "id": "b2dd341c-bcc3-405f-8338-0b8318c9d32a",
      "meta": {
        "profile": [ "http://hl7.org/fhir/us/qicore/StructureDefinition/qicore-encounter" ]
      },
      "status": "finished",
      "class": {
        "system": "http://terminology.hl7.org/CodeSystem/v3-ActCode",
        "code": "IMP",
        "display": "inpatient encounter"
      },
      "type": [ {
        "coding": [ {
          "system": "http://snomed.info/sct",
          "code": "183452005"
        } ]
      } ],
      "subject": {
        "reference": "Patient/3842ef3b-ebeb-42d6-9035-aa5280bcdcfd"
      },
      "period": {
        "start": "2026-06-08T08:00:00.000+00:00",
        "end": "2026-06-10T08:15:00.000+00:00"
      },
      "reasonCode": [ {
        "coding": [ {
          "system": "http://snomed.info/sct",
          "code": "169826009",
          "display": "Single live birth from singleton pregnancy (finding)"
        } ]
      } ]
    },
    "request": {
      "method": "PUT",
      "url": "Encounter/b2dd341c-bcc3-405f-8338-0b8318c9d32a"
    }
  }, {
    "fullUrl": "https://madie.cms.gov/Procedure/a9e87a9b-c904-492c-81e5-4dc8553c0888",
    "resource": {
      "resourceType": "Procedure",
      "id": "a9e87a9b-c904-492c-81e5-4dc8553c0888",
      "meta": {
        "profile": [ "http://hl7.org/fhir/us/qicore/StructureDefinition/qicore-procedure" ]
      },
      "extension": [ {
        "url": "http://hl7.org/fhir/us/qicore/StructureDefinition/qicore-recorded",
        "valueDateTime": "2014-04-05T13:35:00.000+00:00"
      } ],
      "status": "completed",
      "code": {
        "coding": [ {
          "system": "http://snomed.info/sct",
          "code": "84195007"
        } ]
      },
      "subject": {
        "reference": "Patient/3842ef3b-ebeb-42d6-9035-aa5280bcdcfd"
      },
      "performedPeriod": {
        "start": "2026-06-08T20:00:00.000+00:00",
        "end": "2026-06-18T20:00:00.000+00:00"
      }
    },
    "request": {
      "method": "PUT",
      "url": "Procedure/a9e87a9b-c904-492c-81e5-4dc8553c0888"
    }
  }, {
    "fullUrl": "https://madie.cms.gov/Condition/d5bfa1ea-2b55-485a-b685-d5a96d24c194",
    "resource": {
      "resourceType": "Condition",
      "id": "d5bfa1ea-2b55-485a-b685-d5a96d24c194",
      "meta": {
        "profile": [ "http://hl7.org/fhir/us/qicore/StructureDefinition/qicore-condition-encounter-diagnosis" ]
      },
      "category": [ {
        "coding": [ {
          "system": "http://terminology.hl7.org/CodeSystem/condition-category",
          "code": "encounter-diagnosis",
          "display": "Encounter Diagnosis"
        } ]
      } ],
      "code": {
        "coding": [ {
          "system": "http://snomed.info/sct",
          "version": "2022-09",
          "code": "169826009",
          "display": "Single live birth (finding)",
          "userSelected": true
        } ]
      },
      "subject": {
        "reference": "Patient/3842ef3b-ebeb-42d6-9035-aa5280bcdcfd"
      },
      "encounter": {
        "reference": "Encounter/b2dd341c-bcc3-405f-8338-0b8318c9d32a"
      },
      "recordedDate": "2026-10-17T08:00:00.000+00:00"
    },
    "request": {
      "method": "PUT",
      "url": "Condition/d5bfa1ea-2b55-485a-b685-d5a96d24c194"
    }
  }, {
    "fullUrl": "https://madie.cms.gov/Coverage/3249fb46-20e3-4d6f-ae9f-cdd27d1cdf4d",
    "resource": {
      "resourceType": "Coverage",
      "id": "3249fb46-20e3-4d6f-ae9f-cdd27d1cdf4d",
      "meta": {
        "profile": [ "http://hl7.org/fhir/us/qicore/StructureDefinition/qicore-coverage" ]
      },
      "status": "active",
      "subscriberId": "523435",
      "beneficiary": {
        "reference": "Patient/3842ef3b-ebeb-42d6-9035-aa5280bcdcfd"
      },
      "relationship": {
        "coding": [ {
          "system": "http://terminology.hl7.org/CodeSystem/subscriber-relationship",
          "code": "self"
        } ]
      },
      "payor": [ {
        "reference": "Organization/30c204be-c78c-4868-a295-34f28e6b194e"
      } ]
    },
    "request": {
      "method": "PUT",
      "url": "Coverage/3249fb46-20e3-4d6f-ae9f-cdd27d1cdf4d"
    }
  }, {
    "fullUrl": "https://madie.cms.gov/Organization/30c204be-c78c-4868-a295-34f28e6b194e",
    "resource": {
      "resourceType": "Organization",
      "id": "30c204be-c78c-4868-a295-34f28e6b194e",
      "meta": {
        "profile": [ "http://hl7.org/fhir/us/qicore/StructureDefinition/qicore-organization" ]
      },
      "identifier": [ {
        "use": "temp",
        "system": "urn:oid:2.16.840.1.113883.4.4",
        "value": "21-3259825"
      } ],
      "active": true,
      "type": [ {
        "coding": [ {
          "system": "http://terminology.hl7.org/CodeSystem/organization-type",
          "code": "pay",
          "display": "Payer"
        } ]
      } ],
      "name": "Blue Cross Blue Shield of Texas",
      "telecom": [ {
        "system": "phone",
        "value": "(+1) 972-766-6900"
      } ],
      "address": [ {
        "use": "billing",
        "type": "postal",
        "line": [ "P.O. Box 660044" ],
        "city": "Dallas",
        "state": "TX",
        "postalCode": "75266-0044",
        "country": "USA"
      } ]
    },
    "request": {
      "method": "PUT",
      "url": "Organization/30c204be-c78c-4868-a295-34f28e6b194e"
    }
  }, {
    "fullUrl": "https://madie.cms.gov/Practitioner/d2baa4f6-0eca-4e7d-891d-82f7e7e809c9",
    "resource": {
      "resourceType": "Practitioner",
      "id": "d2baa4f6-0eca-4e7d-891d-82f7e7e809c9",
      "meta": {
        "profile": [ "http://hl7.org/fhir/us/qicore/StructureDefinition/qicore-practitioner" ]
      },
      "identifier": [ {
        "system": "http://hl7.org/fhir/sid/us-npi",
        "value": "1234567890"
      } ],
      "name": [ {
        "family": "Evil",
        "prefix": [ "Dr" ]
      } ]
    },
    "request": {
      "method": "PUT",
      "url": "Practitioner/d2baa4f6-0eca-4e7d-891d-82f7e7e809c9"
    }
  }, {
    "fullUrl": "https://madie.cms.gov/MeasureReport/786db262-2f39-47be-8f80-544c2f5d2ecf",
    "resource": {
      "resourceType": "MeasureReport",
      "id": "786db262-2f39-47be-8f80-544c2f5d2ecf",
      "meta": {
        "profile": [ "http://hl7.org/fhir/us/cqfmeasures/StructureDefinition/test-case-cqfm" ]
      },
      "contained": [ {
        "resourceType": "Parameters",
        "id": "4f7857ce-cf6d-49b9-a8aa-d2520ea2ea8a-parameters",
        "parameter": [ {
          "name": "subject",
          "valueString": "3842ef3b-ebeb-42d6-9035-aa5280bcdcfd"
        } ]
      } ],
      "extension": [ {
        "url": "http://hl7.org/fhir/StructureDefinition/cqf-inputParameters",
        "valueReference": {
          "reference": "#4f7857ce-cf6d-49b9-a8aa-d2520ea2ea8a-parameters"
        }
      }, {
        "url": "http://hl7.org/fhir/us/cqfmeasures/StructureDefinition/cqfm-testCaseDescription",
        "valueMarkdown": "EGA 43 weeks; Assessment performed Abnormal presentation Relevant Dt/time 1 min before encounter start , gravida 1, \n"
      } ],
      "modifierExtension": [ {
        "url": "http://hl7.org/fhir/us/cqfmeasures/StructureDefinition/cqfm-isTestCase",
        "valueBoolean": true
      } ],
      "status": "complete",
      "type": "individual",
      "measure": "https://madie.cms.gov/Measure/CMS0334FHIRPCCesareanBirth",
      "period": {
        "start": "2026-01-01",
        "end": "2026-12-31"
      },
      "group": [ {
        "id": "Group_1",
        "population": [ {
          "id": "InitialPopulation_1",
          "code": {
            "coding": [ {
              "system": "http://terminology.hl7.org/CodeSystem/measure-population",
              "code": "initial-population",
              "display": "Initial Population"
            } ]
          },
          "count": 1
        }, {
          "id": "Denominator_1",
          "code": {
            "coding": [ {
              "system": "http://terminology.hl7.org/CodeSystem/measure-population",
              "code": "denominator",
              "display": "Denominator"
            } ]
          },
          "count": 1
        }, {
          "id": "DenominatorExclusion_1",
          "code": {
            "coding": [ {
              "system": "http://terminology.hl7.org/CodeSystem/measure-population",
              "code": "denominator-exclusion",
              "display": "Denominator Exclusion"
            } ]
          },
          "count": 0
        }, {
          "id": "Numerator_1",
          "code": {
            "coding": [ {
              "system": "http://terminology.hl7.org/CodeSystem/measure-population",
              "code": "numerator",
              "display": "Numerator"
            } ]
          },
          "count": 0
        } ],
        "measureScore": {
          "value": 0.0
        }
      } ],
      "evaluatedResource": [ {
        "reference": "Patient/3842ef3b-ebeb-42d6-9035-aa5280bcdcfd"
      }, {
        "reference": "Observation/d230ce8e-702e-4a6d-ab69-c04152f40d5d"
      }, {
        "reference": "Observation/89270d35-4d2b-4c37-a857-f88e6fe81228"
      }, {
        "reference": "Observation/f7585930-f859-47c4-bdcd-4ebce0c08bc3"
      }, {
        "reference": "Observation/4ce975fd-0a92-4978-8a0d-798414291633"
      }, {
        "reference": "Encounter/b2dd341c-bcc3-405f-8338-0b8318c9d32a"
      }, {
        "reference": "Procedure/a9e87a9b-c904-492c-81e5-4dc8553c0888"
      }, {
        "reference": "Condition/d5bfa1ea-2b55-485a-b685-d5a96d24c194"
      }, {
        "reference": "Coverage/3249fb46-20e3-4d6f-ae9f-cdd27d1cdf4d"
      }, {
        "reference": "Organization/30c204be-c78c-4868-a295-34f28e6b194e"
      }, {
        "reference": "Practitioner/d2baa4f6-0eca-4e7d-891d-82f7e7e809c9"
      } ]
    },
    "request": {
      "method": "PUT",
      "url": "MeasureReport/786db262-2f39-47be-8f80-544c2f5d2ecf"
    }
  } ]
}