{
  "resourceType": "Bundle",
  "id": "tests-RVwithSysBP",
  "type": "transaction",
  "entry": [ {
    "fullUrl": "https://madie.cms.gov/Patient/8f0e795e-1f12-4389-91b8-e50036da96d0",
    "resource": {
      "resourceType": "Patient",
      "id": "8f0e795e-1f12-4389-91b8-e50036da96d0",
      "meta": {
        "profile": [ "http://hl7.org/fhir/us/qicore/StructureDefinition/qicore-patient" ]
      },
      "extension": [ {
        "url": "http://hl7.org/fhir/us/core/StructureDefinition/us-core-race",
        "extension": [ {
          "url": "ombCategory",
          "valueCoding": {
            "system": "urn:oid:2.16.840.1.113883.6.238",
            "code": "1002-5",
            "display": "American Indian or Alaska Native",
            "userSelected": true
          }
        }, {
          "url": "text",
          "valueString": "American Indian or Alaska Native"
        }, {
          "url": "detailed",
          "valueCoding": {
            "system": "urn:oid:2.16.840.1.113883.6.238",
            "code": "1653-5",
            "display": "Tohono O'Odham"
          }
        } ]
      }, {
        "url": "http://hl7.org/fhir/us/core/StructureDefinition/us-core-ethnicity",
        "extension": [ {
          "url": "ombCategory",
          "valueCoding": {
            "system": "urn:oid:2.16.840.1.113883.6.238",
            "code": "2135-2",
            "display": "Hispanic or Latino",
            "userSelected": true
          }
        }, {
          "url": "text",
          "valueString": "Not Hispanic or Latino"
        }, {
          "url": "detailed",
          "valueCoding": {
            "system": "urn:oid:2.16.840.1.113883.6.238",
            "code": "2153-5",
            "display": "Mexican American Indian"
          }
        } ]
      }, {
        "url": "http://hl7.org/fhir/us/core/StructureDefinition/us-core-sex",
        "valueCode": "248153007"
      } ],
      "identifier": [ {
        "system": "http://hospital.smarthealthit.org",
        "value": "999999999"
      } ],
      "name": [ {
        "family": "Example",
        "given": [ "Patient" ]
      } ],
      "gender": "male",
      "birthDate": "1975-01-01"
    },
    "request": {
      "method": "PUT",
      "url": "Patient/8f0e795e-1f12-4389-91b8-e50036da96d0"
    }
  }, {
    "fullUrl": "https://madie.cms.gov/Encounter/7a635f00-0d2e-422f-a328-96600a3f3f12",
    "resource": {
      "resourceType": "Encounter",
      "id": "7a635f00-0d2e-422f-a328-96600a3f3f12",
      "meta": {
        "profile": [ "http://hl7.org/fhir/us/qicore/StructureDefinition/qicore-encounter" ]
      },
      "status": "finished",
      "class": {
        "system": "http://terminology.hl7.org/CodeSystem/v3-ActCode",
        "code": "EMER",
        "display": "emergency"
      },
      "type": [ {
        "coding": [ {
          "system": "http://snomed.info/sct",
          "code": "4525004",
          "display": "Emergency department patient visit (procedure)"
        } ]
      } ],
      "subject": {
        "reference": "Patient/8f0e795e-1f12-4389-91b8-e50036da96d0"
      },
      "period": {
        "start": "2026-09-29T08:00:00.000+00:00",
        "end": "2026-09-29T20:00:00.000+00:00"
      }
    },
    "request": {
      "method": "PUT",
      "url": "Encounter/7a635f00-0d2e-422f-a328-96600a3f3f12"
    }
  }, {
    "fullUrl": "https://madie.cms.gov/Encounter/6b29e546-8cae-4ce5-addd-f7f0459e8502",
    "resource": {
      "resourceType": "Encounter",
      "id": "6b29e546-8cae-4ce5-addd-f7f0459e8502",
      "meta": {
        "profile": [ "http://hl7.org/fhir/us/qicore/StructureDefinition/qicore-encounter" ]
      },
      "status": "finished",
      "class": {
        "system": "http://terminology.hl7.org/CodeSystem/v3-ActCode",
        "code": "IMP",
        "display": "inpatient encounter"
      },
      "type": [ {
        "coding": [ {
          "system": "http://snomed.info/sct",
          "code": "183452005",
          "display": "Emergency hospital admission (procedure)"
        } ]
      } ],
      "subject": {
        "reference": "Patient/8f0e795e-1f12-4389-91b8-e50036da96d0"
      },
      "period": {
        "start": "2026-09-29T20:01:00.000+00:00",
        "end": "2026-10-03T20:00:00.000+00:00"
      },
      "reasonReference": [ {
        "reference": "Condition/86f36aae-86da-4609-80ef-569162670e0e"
      } ]
    },
    "request": {
      "method": "PUT",
      "url": "Encounter/6b29e546-8cae-4ce5-addd-f7f0459e8502"
    }
  }, {
    "fullUrl": "https://madie.cms.gov/Observation/47e0f885-a8de-4e3c-a405-e64b69ba6b73",
    "resource": {
      "resourceType": "Observation",
      "id": "47e0f885-a8de-4e3c-a405-e64b69ba6b73",
      "meta": {
        "profile": [ "http://hl7.org/fhir/us/qicore/StructureDefinition/qicore-observation-lab" ]
      },
      "status": "final",
      "category": [ {
        "coding": [ {
          "system": "http://terminology.hl7.org/CodeSystem/observation-category",
          "code": "laboratory",
          "display": "Laboratory"
        } ]
      } ],
      "code": {
        "coding": [ {
          "system": "http://loinc.org",
          "code": "21232-4",
          "display": "Creatinine [Mass/volume] in Serum or Plasma"
        } ]
      },
      "subject": {
        "reference": "Patient/8f0e795e-1f12-4389-91b8-e50036da96d0"
      },
      "effectiveDateTime": "2026-10-01T08:01:00.000+00:00",
      "valueQuantity": {
        "value": 0.9,
        "unit": "mg/dL",
        "system": "http://unitsofmeasure.org",
        "code": "mg/dL"
      }
    },
    "request": {
      "method": "PUT",
      "url": "Observation/47e0f885-a8de-4e3c-a405-e64b69ba6b73"
    }
  }, {
    "fullUrl": "https://madie.cms.gov/Observation/87f6f196-d49b-4e28-a19e-cb3a4fe07a4b",
    "resource": {
      "resourceType": "Observation",
      "id": "87f6f196-d49b-4e28-a19e-cb3a4fe07a4b",
      "meta": {
        "profile": [ "http://hl7.org/fhir/us/qicore/StructureDefinition/qicore-observation-lab" ]
      },
      "status": "final",
      "category": [ {
        "coding": [ {
          "system": "http://terminology.hl7.org/CodeSystem/observation-category",
          "code": "laboratory",
          "display": "Laboratory"
        } ]
      } ],
      "code": {
        "coding": [ {
          "system": "http://loinc.org",
          "code": "21232-4",
          "display": "Creatinine [Mass/volume] in Serum or Plasma"
        } ]
      },
      "subject": {
        "reference": "Patient/8f0e795e-1f12-4389-91b8-e50036da96d0"
      },
      "effectiveDateTime": "2026-10-01T07:00:00.000+00:00",
      "valueQuantity": {
        "value": 0.91,
        "unit": "mg/dL",
        "system": "http://unitsofmeasure.org",
        "code": "mg/dL"
      }
    },
    "request": {
      "method": "PUT",
      "url": "Observation/87f6f196-d49b-4e28-a19e-cb3a4fe07a4b"
    }
  }, {
    "fullUrl": "https://madie.cms.gov/Condition/86f36aae-86da-4609-80ef-569162670e0e",
    "resource": {
      "resourceType": "Condition",
      "id": "86f36aae-86da-4609-80ef-569162670e0e",
      "meta": {
        "profile": [ "http://hl7.org/fhir/us/qicore/StructureDefinition/qicore-condition-encounter-diagnosis" ]
      },
      "clinicalStatus": {
        "coding": [ {
          "system": "http://terminology.hl7.org/CodeSystem/condition-clinical",
          "code": "active",
          "display": "Active"
        } ]
      },
      "verificationStatus": {
        "coding": [ {
          "system": "http://terminology.hl7.org/CodeSystem/condition-ver-status",
          "code": "confirmed",
          "display": "Confirmed"
        } ]
      },
      "code": {
        "coding": [ {
          "system": "http://hl7.org/fhir/sid/icd-10-cm",
          "code": "S37.061A",
          "display": "Major laceration of right kidney, initial encounter"
        } ],
        "text": "Major laceration of right kidney, initial encounter"
      },
      "subject": {
        "reference": "Patient/8f0e795e-1f12-4389-91b8-e50036da96d0"
      },
      "encounter": {
        "reference": "Encounter/6b29e546-8cae-4ce5-addd-f7f0459e8502"
      }
    },
    "request": {
      "method": "PUT",
      "url": "Condition/86f36aae-86da-4609-80ef-569162670e0e"
    }
  }, {
    "fullUrl": "https://madie.cms.gov/Observation/4226b87c-c17f-46cf-a326-a78794218ac3",
    "resource": {
      "resourceType": "Observation",
      "id": "4226b87c-c17f-46cf-a326-a78794218ac3",
      "meta": {
        "profile": [ "http://hl7.org/fhir/us/qicore/StructureDefinition/qicore-observation-lab" ]
      },
      "status": "final",
      "category": [ {
        "coding": [ {
          "system": "http://terminology.hl7.org/CodeSystem/observation-category",
          "code": "laboratory",
          "display": "Laboratory"
        } ]
      } ],
      "code": {
        "coding": [ {
          "system": "http://loinc.org",
          "code": "21232-4",
          "display": "Creatinine [Mass/volume] in Serum or Plasma"
        } ]
      },
      "subject": {
        "reference": "Patient/8f0e795e-1f12-4389-91b8-e50036da96d0"
      },
      "effectiveDateTime": "2026-10-01T07:35:00.000+00:00",
      "valueQuantity": {
        "value": 0.91,
        "unit": "mg/dL",
        "system": "http://unitsofmeasure.org",
        "code": "mg/dL"
      }
    },
    "request": {
      "method": "PUT",
      "url": "Observation/4226b87c-c17f-46cf-a326-a78794218ac3"
    }
  }, {
    "fullUrl": "https://madie.cms.gov/Observation/a4cf9b55-b63d-4eb7-919e-c85a2bbfb098",
    "resource": {
      "resourceType": "Observation",
      "id": "a4cf9b55-b63d-4eb7-919e-c85a2bbfb098",
      "meta": {
        "profile": [ "http://hl7.org/fhir/us/core/StructureDefinition/us-core-blood-pressure" ]
      },
      "status": "final",
      "category": [ {
        "coding": [ {
          "system": "http://terminology.hl7.org/CodeSystem/observation-category",
          "code": "vital-signs",
          "display": "Vital Signs"
        } ]
      } ],
      "code": {
        "coding": [ {
          "system": "http://loinc.org",
          "code": "85354-9",
          "display": "Blood pressure panel with all children optional"
        } ],
        "text": "Blood pressure systolic and diastolic"
      },
      "subject": {
        "reference": "Patient/8f0e795e-1f12-4389-91b8-e50036da96d0"
      },
      "encounter": {
        "reference": "Encounter/6b29e546-8cae-4ce5-addd-f7f0459e8502"
      },
      "effectiveDateTime": "2026-10-01T08:35:00.000+00:00",
      "component": [ {
        "code": {
          "coding": [ {
            "system": "http://loinc.org",
            "code": "8480-6",
            "display": "Systolic blood pressure"
          } ],
          "text": "Systolic Blood Pressure"
        },
        "valueQuantity": {
          "value": 120,
          "unit": "mmHg",
          "system": "http://unitsofmeasure.org",
          "code": "mm[Hg]"
        }
      }, {
        "code": {
          "coding": [ {
            "system": "http://loinc.org",
            "code": "8462-4",
            "display": "Diastolic blood pressure"
          } ],
          "text": "Diastolic Blood Pressure"
        },
        "valueQuantity": {
          "value": 80,
          "unit": "mmHg",
          "system": "http://unitsofmeasure.org",
          "code": "mm[Hg]"
        }
      } ]
    },
    "request": {
      "method": "PUT",
      "url": "Observation/a4cf9b55-b63d-4eb7-919e-c85a2bbfb098"
    }
  }, {
    "fullUrl": "https://madie.cms.gov/MeasureReport/02b401a3-0564-42d2-b94d-cda51b08e719",
    "resource": {
      "resourceType": "MeasureReport",
      "id": "02b401a3-0564-42d2-b94d-cda51b08e719",
      "meta": {
        "profile": [ "http://hl7.org/fhir/us/cqfmeasures/StructureDefinition/test-case-cqfm" ]
      },
      "contained": [ {
        "resourceType": "Parameters",
        "id": "a5b3243d-dc4a-4889-87ab-d18f4ae9f0f1-parameters",
        "parameter": [ {
          "name": "subject",
          "valueString": "8f0e795e-1f12-4389-91b8-e50036da96d0"
        } ]
      } ],
      "extension": [ {
        "url": "http://hl7.org/fhir/StructureDefinition/cqf-inputParameters",
        "valueReference": {
          "reference": "#a5b3243d-dc4a-4889-87ab-d18f4ae9f0f1-parameters"
        }
      }, {
        "url": "http://hl7.org/fhir/us/cqfmeasures/StructureDefinition/cqfm-testCaseDescription",
        "valueMarkdown": "RV Encounters that return the first Systolic Blood Pressure"
      } ],
      "modifierExtension": [ {
        "url": "http://hl7.org/fhir/us/cqfmeasures/StructureDefinition/cqfm-isTestCase",
        "valueBoolean": true
      } ],
      "status": "complete",
      "type": "individual",
      "measure": "https://madie.cms.gov/Measure/CMS832FHIRHHAKI",
      "period": {
        "start": "2026-01-01",
        "end": "2026-12-31"
      },
      "group": [ {
        "id": "Group_1",
        "population": [ {
          "id": "InitialPopulation_1",
          "code": {
            "coding": [ {
              "system": "http://terminology.hl7.org/CodeSystem/measure-population",
              "code": "initial-population",
              "display": "Initial Population"
            } ]
          },
          "count": 1
        }, {
          "id": "Denominator_1",
          "code": {
            "coding": [ {
              "system": "http://terminology.hl7.org/CodeSystem/measure-population",
              "code": "denominator",
              "display": "Denominator"
            } ]
          },
          "count": 1
        }, {
          "id": "DenominatorExclusion_1",
          "code": {
            "coding": [ {
              "system": "http://terminology.hl7.org/CodeSystem/measure-population",
              "code": "denominator-exclusion",
              "display": "Denominator Exclusion"
            } ]
          },
          "count": 1
        }, {
          "id": "Numerator_1",
          "code": {
            "coding": [ {
              "system": "http://terminology.hl7.org/CodeSystem/measure-population",
              "code": "numerator",
              "display": "Numerator"
            } ]
          },
          "count": 0
        } ],
        "measureScore": {
          "value": 0.0
        }
      } ],
      "evaluatedResource": [ {
        "reference": "Patient/8f0e795e-1f12-4389-91b8-e50036da96d0"
      }, {
        "reference": "Encounter/7a635f00-0d2e-422f-a328-96600a3f3f12"
      }, {
        "reference": "Encounter/6b29e546-8cae-4ce5-addd-f7f0459e8502"
      }, {
        "reference": "Observation/47e0f885-a8de-4e3c-a405-e64b69ba6b73"
      }, {
        "reference": "Observation/87f6f196-d49b-4e28-a19e-cb3a4fe07a4b"
      }, {
        "reference": "Condition/86f36aae-86da-4609-80ef-569162670e0e"
      }, {
        "reference": "Observation/4226b87c-c17f-46cf-a326-a78794218ac3"
      }, {
        "reference": "Observation/a4cf9b55-b63d-4eb7-919e-c85a2bbfb098"
      } ]
    },
    "request": {
      "method": "PUT",
      "url": "MeasureReport/02b401a3-0564-42d2-b94d-cda51b08e719"
    }
  } ]
}