{
  "resourceType": "Bundle",
  "id": "5546p0a15a34f70123c891u6",
  "type": "transaction",
  "entry": [ {
    "fullUrl": "https://madie.cms.gov/Patient/7fd1088c-cf1b-4432-ac11-ed0cd4c87d2f",
    "resource": {
      "resourceType": "Patient",
      "id": "7fd1088c-cf1b-4432-ac11-ed0cd4c87d2f",
      "meta": {
        "profile": [ "http://hl7.org/fhir/us/qicore/StructureDefinition/qicore-patient" ]
      },
      "extension": [ {
        "url": "http://hl7.org/fhir/us/core/StructureDefinition/us-core-race",
        "extension": [ {
          "url": "ombCategory",
          "valueCoding": {
            "system": "urn:oid:2.16.840.1.113883.6.238",
            "code": "2028-9",
            "display": "Asian",
            "userSelected": true
          }
        }, {
          "url": "text",
          "valueString": "Asian"
        } ]
      }, {
        "url": "http://hl7.org/fhir/us/core/StructureDefinition/us-core-ethnicity",
        "extension": [ {
          "url": "ombCategory",
          "valueCoding": {
            "system": "urn:oid:2.16.840.1.113883.6.238",
            "code": "2186-5",
            "display": "Not Hispanic or Latino",
            "userSelected": true
          }
        }, {
          "url": "text",
          "valueString": "Not Hispanic or Latino"
        } ]
      } ],
      "identifier": [ {
        "system": "http://hospital.smarthealthit.org",
        "value": "999999999"
      } ],
      "name": [ {
        "family": "DENOMPass",
        "given": [ "NewOpioidBenzhydrocodoneDuringEncounter" ]
      } ],
      "gender": "female",
      "birthDate": "1974-12-12"
    },
    "request": {
      "method": "PUT",
      "url": "Patient/7fd1088c-cf1b-4432-ac11-ed0cd4c87d2f"
    }
  }, {
    "fullUrl": "https://madie.cms.gov/Encounter/f69ce1c3-2f51-448f-a931-59e0c3fdf3ab",
    "resource": {
      "resourceType": "Encounter",
      "id": "f69ce1c3-2f51-448f-a931-59e0c3fdf3ab",
      "meta": {
        "profile": [ "http://hl7.org/fhir/us/qicore/StructureDefinition/qicore-encounter" ]
      },
      "status": "finished",
      "class": {
        "system": "http://terminology.hl7.org/CodeSystem/v3-ActCode",
        "code": "IMP",
        "display": "inpatient encounter"
      },
      "type": [ {
        "coding": [ {
          "system": "http://snomed.info/sct",
          "code": "183452005"
        } ]
      } ],
      "subject": {
        "reference": "Patient/7fd1088c-cf1b-4432-ac11-ed0cd4c87d2f"
      },
      "period": {
        "start": "2026-04-07T08:00:00.000+00:00",
        "end": "2026-04-09T08:15:00.000+00:00"
      }
    },
    "request": {
      "method": "PUT",
      "url": "Encounter/f69ce1c3-2f51-448f-a931-59e0c3fdf3ab"
    }
  }, {
    "fullUrl": "https://madie.cms.gov/MedicationAdministration/317d4e08-f229-450f-9120-369e2fdbe650",
    "resource": {
      "resourceType": "MedicationAdministration",
      "id": "317d4e08-f229-450f-9120-369e2fdbe650",
      "meta": {
        "profile": [ "http://hl7.org/fhir/us/qicore/StructureDefinition/qicore-medicationadministration" ]
      },
      "status": "completed",
      "medicationCodeableConcept": {
        "coding": [ {
          "system": "http://www.nlm.nih.gov/research/umls/rxnorm",
          "code": "2118732",
          "display": "Opioids, All"
        } ]
      },
      "subject": {
        "reference": "Patient/7fd1088c-cf1b-4432-ac11-ed0cd4c87d2f"
      },
      "effectivePeriod": {
        "start": "2026-04-07T08:00:00.000+00:00",
        "end": "2026-04-07T08:15:00.000+00:00"
      }
    },
    "request": {
      "method": "PUT",
      "url": "MedicationAdministration/317d4e08-f229-450f-9120-369e2fdbe650"
    }
  }, {
    "fullUrl": "https://madie.cms.gov/Coverage/1e544f8b-a42e-4192-9a60-351faabb4bc4",
    "resource": {
      "resourceType": "Coverage",
      "id": "1e544f8b-a42e-4192-9a60-351faabb4bc4",
      "meta": {
        "profile": [ "http://hl7.org/fhir/us/qicore/StructureDefinition/qicore-coverage" ]
      },
      "status": "active",
      "subscriberId": "523435",
      "beneficiary": {
        "reference": "Patient/7fd1088c-cf1b-4432-ac11-ed0cd4c87d2f"
      },
      "relationship": {
        "coding": [ {
          "system": "http://terminology.hl7.org/CodeSystem/subscriber-relationship",
          "code": "self"
        } ]
      },
      "payor": [ {
        "reference": "Organization/91c28c73-c5f2-4068-a6f6-d57d7b7d86ff"
      } ]
    },
    "request": {
      "method": "PUT",
      "url": "Coverage/1e544f8b-a42e-4192-9a60-351faabb4bc4"
    }
  }, {
    "fullUrl": "https://madie.cms.gov/Organization/91c28c73-c5f2-4068-a6f6-d57d7b7d86ff",
    "resource": {
      "resourceType": "Organization",
      "id": "91c28c73-c5f2-4068-a6f6-d57d7b7d86ff",
      "meta": {
        "profile": [ "http://hl7.org/fhir/us/qicore/StructureDefinition/qicore-organization" ]
      },
      "identifier": [ {
        "use": "temp",
        "system": "urn:oid:2.16.840.1.113883.4.4",
        "value": "21-3259825"
      } ],
      "active": true,
      "type": [ {
        "coding": [ {
          "system": "http://terminology.hl7.org/CodeSystem/organization-type",
          "code": "pay",
          "display": "Payer"
        } ]
      } ],
      "name": "Blue Cross Blue Shield of Texas",
      "telecom": [ {
        "system": "phone",
        "value": "(+1) 972-766-6900"
      } ],
      "address": [ {
        "use": "billing",
        "type": "postal",
        "line": [ "P.O. Box 660044" ],
        "city": "Dallas",
        "state": "TX",
        "postalCode": "75266-0044",
        "country": "USA"
      } ]
    },
    "request": {
      "method": "PUT",
      "url": "Organization/91c28c73-c5f2-4068-a6f6-d57d7b7d86ff"
    }
  }, {
    "fullUrl": "https://madie.cms.gov/MeasureReport/9fee5cd7-f349-4719-8ca5-d9819551b706",
    "resource": {
      "resourceType": "MeasureReport",
      "id": "9fee5cd7-f349-4719-8ca5-d9819551b706",
      "meta": {
        "profile": [ "http://hl7.org/fhir/us/cqfmeasures/StructureDefinition/test-case-cqfm" ]
      },
      "contained": [ {
        "resourceType": "Parameters",
        "id": "b21782b6-21bc-4de2-bea4-f0a895683740-parameters",
        "parameter": [ {
          "name": "subject",
          "valueString": "7fd1088c-cf1b-4432-ac11-ed0cd4c87d2f"
        } ]
      } ],
      "extension": [ {
        "url": "http://hl7.org/fhir/StructureDefinition/cqf-inputParameters",
        "valueReference": {
          "reference": "#b21782b6-21bc-4de2-bea4-f0a895683740-parameters"
        }
      }, {
        "url": "http://hl7.org/fhir/us/cqfmeasures/StructureDefinition/cqfm-testCaseDescription",
        "valueMarkdown": "Encounter-1 4/7 0800 - 4/9 0815 of MP, MedAdmin-1 4/7 Opioid 0800-0815"
      } ],
      "modifierExtension": [ {
        "url": "http://hl7.org/fhir/us/cqfmeasures/StructureDefinition/cqfm-isTestCase",
        "valueBoolean": true
      } ],
      "status": "complete",
      "type": "individual",
      "measure": "https://madie.cms.gov/Measure/CMS819FHIRHHORAE",
      "period": {
        "start": "2026-01-01",
        "end": "2026-12-31"
      },
      "group": [ {
        "id": "Group_1",
        "population": [ {
          "id": "InitialPopulation_1",
          "code": {
            "coding": [ {
              "system": "http://terminology.hl7.org/CodeSystem/measure-population",
              "code": "initial-population",
              "display": "Initial Population"
            } ]
          },
          "count": 1
        }, {
          "id": "Denominator_1",
          "code": {
            "coding": [ {
              "system": "http://terminology.hl7.org/CodeSystem/measure-population",
              "code": "denominator",
              "display": "Denominator"
            } ]
          },
          "count": 1
        }, {
          "id": "Numerator_1",
          "code": {
            "coding": [ {
              "system": "http://terminology.hl7.org/CodeSystem/measure-population",
              "code": "numerator",
              "display": "Numerator"
            } ]
          },
          "count": 0
        } ],
        "measureScore": {
          "value": 0.0
        }
      } ],
      "evaluatedResource": [ {
        "reference": "Patient/7fd1088c-cf1b-4432-ac11-ed0cd4c87d2f"
      }, {
        "reference": "Encounter/f69ce1c3-2f51-448f-a931-59e0c3fdf3ab"
      }, {
        "reference": "MedicationAdministration/317d4e08-f229-450f-9120-369e2fdbe650"
      }, {
        "reference": "Coverage/1e544f8b-a42e-4192-9a60-351faabb4bc4"
      }, {
        "reference": "Organization/91c28c73-c5f2-4068-a6f6-d57d7b7d86ff"
      } ]
    },
    "request": {
      "method": "PUT",
      "url": "MeasureReport/9fee5cd7-f349-4719-8ca5-d9819551b706"
    }
  } ]
}