{
  "resourceType": "Bundle",
  "id": "DENEXFail-PregnancyAfterMP",
  "type": "transaction",
  "entry": [ {
    "fullUrl": "https://madie.cms.gov/Patient/32edbb16-2029-425a-85e0-6ea9182d1d91",
    "resource": {
      "resourceType": "Patient",
      "id": "32edbb16-2029-425a-85e0-6ea9182d1d91",
      "meta": {
        "profile": [ "http://hl7.org/fhir/us/qicore/StructureDefinition/qicore-patient" ]
      },
      "extension": [ {
        "url": "http://hl7.org/fhir/us/core/StructureDefinition/us-core-race",
        "extension": [ {
          "url": "ombCategory",
          "valueCoding": {
            "system": "urn:oid:2.16.840.1.113883.6.238",
            "code": "2028-9",
            "display": "Asian"
          }
        }, {
          "url": "text",
          "valueString": "Asian"
        } ]
      }, {
        "url": "http://hl7.org/fhir/us/core/StructureDefinition/us-core-ethnicity",
        "extension": [ {
          "url": "ombCategory",
          "valueCoding": {
            "system": "urn:oid:2.16.840.1.113883.6.238",
            "code": "2135-2",
            "display": "Hispanic or Latino"
          }
        }, {
          "url": "text",
          "valueString": "Hispanic or Latino"
        } ]
      } ],
      "identifier": [ {
        "system": "http://hospital.smarthealthit.org",
        "value": "999999995"
      } ],
      "name": [ {
        "family": "DENEXFail",
        "given": [ "PregnancyAfterMP" ]
      } ],
      "gender": "female",
      "birthDate": "2007-12-31"
    },
    "request": {
      "method": "PUT",
      "url": "Patient/32edbb16-2029-425a-85e0-6ea9182d1d91"
    }
  }, {
    "fullUrl": "https://madie.cms.gov/Encounter/0cbe1bc6-5107-4466-8f54-992b4f8b42a8",
    "resource": {
      "resourceType": "Encounter",
      "id": "0cbe1bc6-5107-4466-8f54-992b4f8b42a8",
      "meta": {
        "profile": [ "http://hl7.org/fhir/us/qicore/StructureDefinition/qicore-encounter" ]
      },
      "status": "finished",
      "class": {
        "system": "http://terminology.hl7.org/CodeSystem/v3-ActCode",
        "code": "AMB",
        "display": "ambulatory"
      },
      "type": [ {
        "coding": [ {
          "system": "http://snomed.info/sct",
          "code": "3391000175108",
          "display": "Office visit for pediatric care and assessment (procedure)"
        } ]
      } ],
      "subject": {
        "reference": "Patient/32edbb16-2029-425a-85e0-6ea9182d1d91"
      },
      "period": {
        "start": "2026-01-01T00:00:00.000+00:00",
        "end": "2026-01-01T01:00:00.000+00:00"
      }
    },
    "request": {
      "method": "PUT",
      "url": "Encounter/0cbe1bc6-5107-4466-8f54-992b4f8b42a8"
    }
  }, {
    "fullUrl": "https://madie.cms.gov/Condition/82f4eb3c-8019-46e9-9cf3-c30649197c9f",
    "resource": {
      "resourceType": "Condition",
      "id": "82f4eb3c-8019-46e9-9cf3-c30649197c9f",
      "meta": {
        "profile": [ "http://hl7.org/fhir/us/qicore/StructureDefinition/qicore-condition-problems-health-concerns" ]
      },
      "clinicalStatus": {
        "coding": [ {
          "system": "http://terminology.hl7.org/CodeSystem/condition-clinical",
          "code": "active"
        } ]
      },
      "category": [ {
        "coding": [ {
          "system": "http://terminology.hl7.org/CodeSystem/condition-category",
          "code": "problem-list-item",
          "display": "Problem List Item"
        } ]
      } ],
      "code": {
        "coding": [ {
          "system": "http://snomed.info/sct",
          "code": "371125006",
          "display": "Labile essential hypertension (disorder)"
        } ]
      },
      "subject": {
        "reference": "Patient/32edbb16-2029-425a-85e0-6ea9182d1d91"
      },
      "onsetDateTime": "2026-06-29T23:59:59.000+00:00"
    },
    "request": {
      "method": "PUT",
      "url": "Condition/82f4eb3c-8019-46e9-9cf3-c30649197c9f"
    }
  }, {
    "fullUrl": "https://madie.cms.gov/Condition/f249a870-b0ba-4dec-bb3f-9804d06aa6d4",
    "resource": {
      "resourceType": "Condition",
      "id": "f249a870-b0ba-4dec-bb3f-9804d06aa6d4",
      "meta": {
        "profile": [ "http://hl7.org/fhir/us/qicore/StructureDefinition/qicore-condition-encounter-diagnosis" ]
      },
      "clinicalStatus": {
        "coding": [ {
          "system": "http://terminology.hl7.org/CodeSystem/condition-clinical",
          "code": "active"
        } ]
      },
      "category": [ {
        "coding": [ {
          "system": "http://terminology.hl7.org/CodeSystem/condition-category",
          "code": "encounter-diagnosis",
          "display": "Encounter Diagnosis"
        } ]
      } ],
      "code": {
        "coding": [ {
          "system": "http://snomed.info/sct",
          "code": "10231000132102",
          "display": "In-vitro fertilization pregnancy (finding)"
        } ]
      },
      "subject": {
        "reference": "Patient/32edbb16-2029-425a-85e0-6ea9182d1d91"
      },
      "onsetDateTime": "2027-01-01T00:00:00.000+00:00"
    },
    "request": {
      "method": "PUT",
      "url": "Condition/f249a870-b0ba-4dec-bb3f-9804d06aa6d4"
    }
  }, {
    "fullUrl": "https://madie.cms.gov/MeasureReport/ab84003e-9b93-4eeb-aa31-e13c43b5c32d",
    "resource": {
      "resourceType": "MeasureReport",
      "id": "ab84003e-9b93-4eeb-aa31-e13c43b5c32d",
      "meta": {
        "profile": [ "http://hl7.org/fhir/us/cqfmeasures/StructureDefinition/test-case-cqfm" ]
      },
      "contained": [ {
        "resourceType": "Parameters",
        "id": "de4eb9b4-c35a-4313-9966-399ff1e5a4d6-parameters",
        "parameter": [ {
          "name": "subject",
          "valueString": "32edbb16-2029-425a-85e0-6ea9182d1d91"
        } ]
      } ],
      "extension": [ {
        "url": "http://hl7.org/fhir/StructureDefinition/cqf-inputParameters",
        "valueReference": {
          "reference": "#de4eb9b4-c35a-4313-9966-399ff1e5a4d6-parameters"
        }
      }, {
        "url": "http://hl7.org/fhir/us/cqfmeasures/StructureDefinition/cqfm-testCaseDescription",
        "valueMarkdown": "Pregnancy starts 1/1 of next MP - ConditionEncounterDiagnosis"
      } ],
      "modifierExtension": [ {
        "url": "http://hl7.org/fhir/us/cqfmeasures/StructureDefinition/cqfm-isTestCase",
        "valueBoolean": true
      } ],
      "status": "complete",
      "type": "individual",
      "measure": "https://madie.cms.gov/Measure/CMS165FHIRControllingHighBP",
      "period": {
        "start": "2026-01-01",
        "end": "2026-12-31"
      },
      "group": [ {
        "id": "Group_1",
        "population": [ {
          "id": "InitialPopulation_1",
          "code": {
            "coding": [ {
              "system": "http://terminology.hl7.org/CodeSystem/measure-population",
              "code": "initial-population",
              "display": "Initial Population"
            } ]
          },
          "count": 1
        }, {
          "id": "Denominator_1",
          "code": {
            "coding": [ {
              "system": "http://terminology.hl7.org/CodeSystem/measure-population",
              "code": "denominator",
              "display": "Denominator"
            } ]
          },
          "count": 1
        }, {
          "id": "DenominatorExclusion_1",
          "code": {
            "coding": [ {
              "system": "http://terminology.hl7.org/CodeSystem/measure-population",
              "code": "denominator-exclusion",
              "display": "Denominator Exclusion"
            } ]
          },
          "count": 0
        }, {
          "id": "Numerator_1",
          "code": {
            "coding": [ {
              "system": "http://terminology.hl7.org/CodeSystem/measure-population",
              "code": "numerator",
              "display": "Numerator"
            } ]
          },
          "count": 0
        } ],
        "measureScore": {
          "value": 1.0
        }
      } ],
      "evaluatedResource": [ {
        "reference": "Patient/32edbb16-2029-425a-85e0-6ea9182d1d91"
      }, {
        "reference": "Encounter/0cbe1bc6-5107-4466-8f54-992b4f8b42a8"
      }, {
        "reference": "Condition/82f4eb3c-8019-46e9-9cf3-c30649197c9f"
      }, {
        "reference": "Condition/f249a870-b0ba-4dec-bb3f-9804d06aa6d4"
      } ]
    },
    "request": {
      "method": "PUT",
      "url": "MeasureReport/ab84003e-9b93-4eeb-aa31-e13c43b5c32d"
    }
  } ]
}