{
  "resourceType": "Bundle",
  "id": "657cbdc9b4f1f0343662347a",
  "type": "transaction",
  "entry": [ {
    "fullUrl": "https://madie.cms.gov/Patient/3f89276c-e75b-4619-9f93-f0f9c58ea699",
    "resource": {
      "resourceType": "Patient",
      "id": "3f89276c-e75b-4619-9f93-f0f9c58ea699",
      "meta": {
        "profile": [ "http://hl7.org/fhir/us/qicore/StructureDefinition/qicore-patient" ]
      },
      "extension": [ {
        "url": "http://hl7.org/fhir/us/core/StructureDefinition/us-core-race",
        "extension": [ {
          "url": "ombCategory",
          "valueCoding": {
            "system": "urn:oid:2.16.840.1.113883.6.238",
            "code": "2106-3",
            "display": "White",
            "userSelected": true
          }
        }, {
          "url": "text",
          "valueString": "White"
        } ]
      }, {
        "url": "http://hl7.org/fhir/us/core/StructureDefinition/us-core-ethnicity",
        "extension": [ {
          "url": "ombCategory",
          "valueCoding": {
            "system": "urn:oid:2.16.840.1.113883.6.238",
            "code": "2186-5",
            "display": "Not Hispanic or Latino",
            "userSelected": true
          }
        }, {
          "url": "text",
          "valueString": "Not Hispanic or Latino"
        } ]
      } ],
      "identifier": [ {
        "type": {
          "coding": [ {
            "system": "http://terminology.hl7.org/CodeSystem/v2-0203",
            "code": "MR"
          } ]
        },
        "system": "https://bonnie-fhir.healthit.gov/",
        "value": "657cbdc9b4f1f0343662347a"
      } ],
      "name": [ {
        "family": "ChiefComplaintFail",
        "given": [ "NoChiefComplaintDuringEncounter" ]
      } ],
      "gender": "female",
      "birthDate": "2008-01-01"
    },
    "request": {
      "method": "PUT",
      "url": "Patient/3f89276c-e75b-4619-9f93-f0f9c58ea699"
    }
  }, {
    "fullUrl": "https://madie.cms.gov/Encounter/2d08419c-1786-4571-b530-36cb676a1abb",
    "resource": {
      "resourceType": "Encounter",
      "id": "2d08419c-1786-4571-b530-36cb676a1abb",
      "meta": {
        "profile": [ "http://hl7.org/fhir/us/qicore/StructureDefinition/qicore-encounter" ]
      },
      "status": "finished",
      "class": {
        "system": "http://terminology.hl7.org/CodeSystem/v3-ActCode",
        "code": "ACUTE",
        "display": "inpatient acute"
      },
      "type": [ {
        "coding": [ {
          "system": "http://snomed.info/sct",
          "version": "2024",
          "code": "32485007",
          "display": "Hospital admission (procedure)",
          "userSelected": true
        } ]
      } ],
      "subject": {
        "reference": "Patient/3f89276c-e75b-4619-9f93-f0f9c58ea699"
      },
      "period": {
        "start": "2026-01-01T08:00:00.000+00:00",
        "end": "2026-01-02T09:15:00.000+00:00"
      }
    },
    "request": {
      "method": "PUT",
      "url": "Encounter/2d08419c-1786-4571-b530-36cb676a1abb"
    }
  }, {
    "fullUrl": "https://madie.cms.gov/Location/7f7a41da-d2bc-4e64-b12b-7433fcb378f3",
    "resource": {
      "resourceType": "Location",
      "id": "7f7a41da-d2bc-4e64-b12b-7433fcb378f3",
      "meta": {
        "profile": [ "http://hl7.org/fhir/us/qicore/StructureDefinition/qicore-location" ]
      },
      "identifier": [ {
        "use": "usual",
        "system": "http://exampleoflocation.com",
        "value": "B1-S.F2"
      } ],
      "name": "Medical Surgical East, first floor",
      "type": [ {
        "coding": [ {
          "system": "https://www.cdc.gov/nhsn/cdaportal/terminology/codesystem/hsloc.html",
          "code": "1028-0",
          "display": "Medical Cardiac Critical Care",
          "userSelected": true
        } ]
      } ]
    },
    "request": {
      "method": "PUT",
      "url": "Location/7f7a41da-d2bc-4e64-b12b-7433fcb378f3"
    }
  }, {
    "fullUrl": "https://madie.cms.gov/MedicationRequest/158ffe56-f582-4c10-876f-bacd8c7a6517",
    "resource": {
      "resourceType": "MedicationRequest",
      "id": "158ffe56-f582-4c10-876f-bacd8c7a6517",
      "meta": {
        "profile": [ "http://hl7.org/fhir/us/qicore/StructureDefinition/qicore-medicationrequest" ]
      },
      "status": "completed",
      "intent": "order",
      "medicationCodeableConcept": {
        "coding": [ {
          "system": "http://www.nlm.nih.gov/research/umls/rxnorm",
          "version": "06052023",
          "code": "1007184"
        } ]
      },
      "subject": {
        "reference": "Patient/3f89276c-e75b-4619-9f93-f0f9c58ea699"
      },
      "authoredOn": "2026-01-01T08:15:00.000+00:00",
      "requester": {
        "reference": "Practitioner/33d87640-6b2a-40b0-ab11-542478a88d5a"
      },
      "dosageInstruction": [ {
        "timing": {
          "repeat": {
            "boundsPeriod": {
              "start": "2025-01-01T08:15:00.000+00:00"
            }
          }
        }
      } ]
    },
    "request": {
      "method": "PUT",
      "url": "MedicationRequest/158ffe56-f582-4c10-876f-bacd8c7a6517"
    }
  }, {
    "fullUrl": "https://madie.cms.gov/Condition/8a88b37b-e4d2-457a-a502-a317e994cc4e",
    "resource": {
      "resourceType": "Condition",
      "id": "8a88b37b-e4d2-457a-a502-a317e994cc4e",
      "meta": {
        "profile": [ "http://hl7.org/fhir/us/qicore/StructureDefinition/qicore-condition-problems-health-concerns" ]
      },
      "clinicalStatus": {
        "coding": [ {
          "system": "http://terminology.hl7.org/CodeSystem/condition-clinical",
          "code": "resolved",
          "display": "resolved",
          "userSelected": true
        } ]
      },
      "verificationStatus": {
        "coding": [ {
          "system": "http://terminology.hl7.org/CodeSystem/condition-ver-status",
          "code": "confirmed",
          "display": "confirmed",
          "userSelected": true
        } ]
      },
      "category": [ {
        "coding": [ {
          "system": "http://terminology.hl7.org/CodeSystem/condition-category",
          "code": "problem-list-item",
          "display": "Problem List Item"
        } ]
      } ],
      "code": {
        "coding": [ {
          "system": "http://snomed.info/sct",
          "code": "1001000119102",
          "display": "Pulmonary embolism with pulmonary infarction (disorder)"
        } ]
      },
      "subject": {
        "reference": "Patient/3f89276c-e75b-4619-9f93-f0f9c58ea699"
      },
      "onsetPeriod": {
        "start": "2026-01-01T08:00:00.000+00:00",
        "end": "2026-01-03T08:15:00.000+00:00"
      }
    },
    "request": {
      "method": "PUT",
      "url": "Condition/8a88b37b-e4d2-457a-a502-a317e994cc4e"
    }
  }, {
    "fullUrl": "https://madie.cms.gov/Coverage/151c4bb9-228d-4d8a-b927-de3329e1636e",
    "resource": {
      "resourceType": "Coverage",
      "id": "151c4bb9-228d-4d8a-b927-de3329e1636e",
      "meta": {
        "profile": [ "http://hl7.org/fhir/us/qicore/StructureDefinition/qicore-coverage" ]
      },
      "identifier": [ {
        "system": "http://benefitsinc.com/certificate",
        "value": "12345"
      } ],
      "status": "active",
      "type": {
        "coding": [ {
          "system": "https://nahdo.org/sopt",
          "version": "1.0.1",
          "code": "1",
          "display": "MEDICARE",
          "userSelected": true
        } ]
      },
      "subscriberId": "AB9876",
      "beneficiary": {
        "reference": "Patient/3f89276c-e75b-4619-9f93-f0f9c58ea699"
      },
      "relationship": {
        "coding": [ {
          "system": "http://terminology.hl7.org/CodeSystem/subscriber-relationship",
          "code": "self"
        } ]
      },
      "payor": [ {
        "reference": "Organization/e3ce089c-c351-464c-b49c-e8a819ad0a53"
      } ]
    },
    "request": {
      "method": "PUT",
      "url": "Coverage/151c4bb9-228d-4d8a-b927-de3329e1636e"
    }
  }, {
    "fullUrl": "https://madie.cms.gov/Organization/e3ce089c-c351-464c-b49c-e8a819ad0a53",
    "resource": {
      "resourceType": "Organization",
      "id": "e3ce089c-c351-464c-b49c-e8a819ad0a53",
      "meta": {
        "profile": [ "http://hl7.org/fhir/us/qicore/StructureDefinition/qicore-organization" ]
      },
      "identifier": [ {
        "use": "temp",
        "system": "urn:oid:2.16.840.1.113883.4.4",
        "value": "21-3259825"
      } ],
      "active": true,
      "type": [ {
        "coding": [ {
          "system": "http://terminology.hl7.org/CodeSystem/organization-type",
          "code": "pay",
          "display": "Payer"
        } ]
      } ],
      "name": "Blue Cross Blue Shield of Texas",
      "telecom": [ {
        "system": "phone",
        "value": "(+1) 972-766-6900"
      } ],
      "address": [ {
        "use": "billing",
        "type": "postal",
        "line": [ "P.O. Box 660044" ],
        "city": "Dallas",
        "state": "TX",
        "postalCode": "75266-0044",
        "country": "USA"
      } ]
    },
    "request": {
      "method": "PUT",
      "url": "Organization/e3ce089c-c351-464c-b49c-e8a819ad0a53"
    }
  }, {
    "fullUrl": "https://madie.cms.gov/Practitioner/b1016745-9770-4ae7-b312-982572aed6ac",
    "resource": {
      "resourceType": "Practitioner",
      "id": "b1016745-9770-4ae7-b312-982572aed6ac",
      "meta": {
        "profile": [ "http://hl7.org/fhir/us/qicore/StructureDefinition/qicore-practitioner" ]
      },
      "identifier": [ {
        "system": "http://hl7.org/fhir/sid/us-npi",
        "value": "0723660813"
      } ],
      "name": [ {
        "family": "Evil",
        "prefix": [ "Dr" ]
      } ]
    },
    "request": {
      "method": "PUT",
      "url": "Practitioner/b1016745-9770-4ae7-b312-982572aed6ac"
    }
  }, {
    "fullUrl": "https://madie.cms.gov/MeasureReport/7716d1ed-3240-49a3-833b-daffbc9c84c1",
    "resource": {
      "resourceType": "MeasureReport",
      "id": "7716d1ed-3240-49a3-833b-daffbc9c84c1",
      "meta": {
        "profile": [ "http://hl7.org/fhir/us/cqfmeasures/StructureDefinition/test-case-cqfm" ]
      },
      "contained": [ {
        "resourceType": "Parameters",
        "id": "d3d2dfb6-4e0a-4d6c-8848-9ee720a1ec22-parameters",
        "parameter": [ {
          "name": "subject",
          "valueString": "3f89276c-e75b-4619-9f93-f0f9c58ea699"
        } ]
      } ],
      "extension": [ {
        "url": "http://hl7.org/fhir/StructureDefinition/cqf-inputParameters",
        "valueReference": {
          "reference": "#d3d2dfb6-4e0a-4d6c-8848-9ee720a1ec22-parameters"
        }
      }, {
        "url": "http://hl7.org/fhir/us/cqfmeasures/StructureDefinition/cqfm-testCaseDescription",
        "valueMarkdown": "Inpatient encounter with diabetic medication during MP missing chief complaint"
      } ],
      "modifierExtension": [ {
        "url": "http://hl7.org/fhir/us/cqfmeasures/StructureDefinition/cqfm-isTestCase",
        "valueBoolean": true
      } ],
      "status": "complete",
      "type": "individual",
      "measure": "https://madie.cms.gov/Measure/NHSNGlycemicControlHypoglycemiaInitialPopulation",
      "period": {
        "start": "2026-01-01",
        "end": "2026-12-31"
      },
      "group": [ {
        "id": "Group_1",
        "population": [ {
          "id": "InitialPopulation_1",
          "code": {
            "coding": [ {
              "system": "http://terminology.hl7.org/CodeSystem/measure-population",
              "code": "initial-population",
              "display": "Initial Population"
            } ]
          },
          "count": 1
        } ],
        "measureScore": {
          "value": 0.0
        }
      } ],
      "evaluatedResource": [ {
        "reference": "Patient/3f89276c-e75b-4619-9f93-f0f9c58ea699"
      }, {
        "reference": "Encounter/2d08419c-1786-4571-b530-36cb676a1abb"
      }, {
        "reference": "Location/7f7a41da-d2bc-4e64-b12b-7433fcb378f3"
      }, {
        "reference": "MedicationRequest/158ffe56-f582-4c10-876f-bacd8c7a6517"
      }, {
        "reference": "Condition/8a88b37b-e4d2-457a-a502-a317e994cc4e"
      }, {
        "reference": "Coverage/151c4bb9-228d-4d8a-b927-de3329e1636e"
      }, {
        "reference": "Organization/e3ce089c-c351-464c-b49c-e8a819ad0a53"
      }, {
        "reference": "Practitioner/b1016745-9770-4ae7-b312-982572aed6ac"
      } ]
    },
    "request": {
      "method": "PUT",
      "url": "MeasureReport/7716d1ed-3240-49a3-833b-daffbc9c84c1"
    }
  } ]
}