{
  "resourceType": "Bundle",
  "id": "64a30614a6e663d06065269f",
  "type": "collection",
  "entry": [ {
    "fullUrl": "https://madie.cms.gov/Patient/74ac3135-a328-4695-93aa-17368142976f",
    "resource": {
      "resourceType": "Patient",
      "id": "74ac3135-a328-4695-93aa-17368142976f",
      "meta": {
        "profile": [ "http://hl7.org/fhir/us/qicore/StructureDefinition/qicore-patient" ]
      },
      "extension": [ {
        "url": "http://hl7.org/fhir/us/core/StructureDefinition/us-core-race",
        "extension": [ {
          "url": "ombCategory",
          "valueCoding": {
            "system": "urn:oid:2.16.840.1.113883.6.238",
            "code": "2028-9",
            "display": "Asian",
            "userSelected": true
          }
        }, {
          "url": "text",
          "valueString": "Asian"
        } ]
      }, {
        "url": "http://hl7.org/fhir/us/core/StructureDefinition/us-core-ethnicity",
        "extension": [ {
          "url": "ombCategory",
          "valueCoding": {
            "system": "urn:oid:2.16.840.1.113883.6.238",
            "code": "2135-2",
            "display": "Hispanic or Latino",
            "userSelected": true
          }
        }, {
          "url": "text",
          "valueString": "Hispanic or Latino"
        } ]
      } ],
      "identifier": [ {
        "type": {
          "coding": [ {
            "system": "http://terminology.hl7.org/CodeSystem/v2-0203",
            "code": "MR"
          } ]
        },
        "system": "https://bonnie-fhir.healthit.gov/",
        "value": "64a30614a6e663d06065269f"
      } ],
      "name": [ {
        "family": "NumPass",
        "given": [ "MultipleOfAllLabTestsDuringMP" ]
      } ],
      "gender": "male",
      "birthDate": "2001-02-04"
    }
  }, {
    "fullUrl": "https://madie.cms.gov/Condition/86940458-6852-4f25-bfb3-786586d5fec5",
    "resource": {
      "resourceType": "Condition",
      "id": "86940458-6852-4f25-bfb3-786586d5fec5",
      "meta": {
        "profile": [ "http://hl7.org/fhir/us/qicore/StructureDefinition/qicore-condition-problems-health-concerns" ]
      },
      "clinicalStatus": {
        "coding": [ {
          "system": "http://terminology.hl7.org/CodeSystem/condition-clinical",
          "code": "active",
          "display": "active",
          "userSelected": true
        } ]
      },
      "category": [ {
        "coding": [ {
          "system": "http://terminology.hl7.org/CodeSystem/condition-category",
          "code": "problem-list-item",
          "display": "Problem List Item"
        } ]
      } ],
      "code": {
        "coding": [ {
          "system": "http://hl7.org/fhir/sid/icd-9-cm",
          "version": "2013",
          "code": "042",
          "display": "Human immunodeficiency virus [HIV] disease",
          "userSelected": true
        }, {
          "system": "http://snomed.info/sct",
          "version": "http://snomed.info/sct/731000124108/version/20250301",
          "code": "165816005",
          "userSelected": true
        } ]
      },
      "subject": {
        "reference": "Patient/74ac3135-a328-4695-93aa-17368142976f"
      },
      "onsetDateTime": "2018-09-28T08:00:00.000+00:00",
      "recordedDate": "2018-09-28T08:00:00.000+00:00"
    }
  }, {
    "fullUrl": "https://madie.cms.gov/Encounter/5a287190-3e8e-45a7-b225-c76e51f8b17c",
    "resource": {
      "resourceType": "Encounter",
      "id": "5a287190-3e8e-45a7-b225-c76e51f8b17c",
      "meta": {
        "profile": [ "http://hl7.org/fhir/us/qicore/StructureDefinition/qicore-encounter" ]
      },
      "status": "finished",
      "class": {
        "system": "http://terminology.hl7.org/CodeSystem/v3-ActCode",
        "code": "AMB",
        "display": "ambulatory"
      },
      "type": [ {
        "coding": [ {
          "system": "http://www.ama-assn.org/go/cpt",
          "version": "2023",
          "code": "99391",
          "display": "Periodic comprehensive preventive medicine reevaluation and management of an individual including an age and gender appropriate history, examination, counseling/anticipatory guidance/risk factor reduction interventions, and the ordering of laboratory/diagnostic procedures, established patient; infant (age younger than 1 year)",
          "userSelected": true
        } ]
      } ],
      "subject": {
        "reference": "Patient/74ac3135-a328-4695-93aa-17368142976f"
      },
      "period": {
        "start": "2026-09-29T08:00:00.000+00:00",
        "end": "2026-09-29T08:30:00.000+00:00"
      }
    }
  }, {
    "fullUrl": "https://madie.cms.gov/Observation/7e9e83d5-f675-4f75-88e4-28f938334e67",
    "resource": {
      "resourceType": "Observation",
      "id": "7e9e83d5-f675-4f75-88e4-28f938334e67",
      "meta": {
        "profile": [ "http://hl7.org/fhir/us/qicore/StructureDefinition/qicore-observation-lab" ]
      },
      "status": "final",
      "category": [ {
        "coding": [ {
          "system": "http://terminology.hl7.org/CodeSystem/observation-category",
          "code": "laboratory",
          "display": "Laboratory"
        } ]
      }, {
        "coding": [ {
          "system": "http://terminology.hl7.org/CodeSystem/observation-category",
          "code": "survey"
        } ]
      } ],
      "code": {
        "coding": [ {
          "system": "http://loinc.org",
          "version": "2.73",
          "code": "11084-1",
          "display": "Reagin Ab [Titer] in Serum",
          "userSelected": true
        } ]
      },
      "subject": {
        "reference": "Patient/74ac3135-a328-4695-93aa-17368142976f"
      },
      "effectivePeriod": {
        "start": "2026-08-30T08:00:00.000+00:00",
        "end": "2026-08-30T08:15:00.000+00:00"
      },
      "issued": "2026-08-30T08:00:00.000+00:00",
      "valueQuantity": {
        "value": 12.3
      }
    }
  }, {
    "fullUrl": "https://madie.cms.gov/Observation/63901e5c-1280-435a-8a1d-73fc4d777076",
    "resource": {
      "resourceType": "Observation",
      "id": "63901e5c-1280-435a-8a1d-73fc4d777076",
      "meta": {
        "profile": [ "http://hl7.org/fhir/us/qicore/StructureDefinition/qicore-observation-lab" ]
      },
      "status": "final",
      "category": [ {
        "coding": [ {
          "system": "http://terminology.hl7.org/CodeSystem/observation-category",
          "code": "laboratory",
          "display": "Laboratory"
        } ]
      }, {
        "coding": [ {
          "system": "http://terminology.hl7.org/CodeSystem/observation-category",
          "code": "survey"
        } ]
      } ],
      "code": {
        "coding": [ {
          "system": "http://loinc.org",
          "version": "2.73",
          "code": "21414-8",
          "display": "Neisseria gonorrhoeae DNA [Presence] in Cervical mucus by NAA with probe detection",
          "userSelected": true
        } ]
      },
      "subject": {
        "reference": "Patient/74ac3135-a328-4695-93aa-17368142976f"
      },
      "effectivePeriod": {
        "start": "2026-08-30T08:00:00.000+00:00",
        "end": "2026-08-30T08:15:00.000+00:00"
      },
      "issued": "2026-08-30T08:00:00.000+00:00",
      "valueQuantity": {
        "value": 15
      }
    }
  }, {
    "fullUrl": "https://madie.cms.gov/Observation/f3b857ab-c342-427a-b43b-f6755fabb7db",
    "resource": {
      "resourceType": "Observation",
      "id": "f3b857ab-c342-427a-b43b-f6755fabb7db",
      "meta": {
        "profile": [ "http://hl7.org/fhir/us/qicore/StructureDefinition/qicore-observation-lab" ]
      },
      "status": "final",
      "category": [ {
        "coding": [ {
          "system": "http://terminology.hl7.org/CodeSystem/observation-category",
          "code": "laboratory",
          "display": "Laboratory"
        } ]
      }, {
        "coding": [ {
          "system": "http://terminology.hl7.org/CodeSystem/observation-category",
          "code": "survey"
        } ]
      } ],
      "code": {
        "coding": [ {
          "system": "http://loinc.org",
          "version": "2.73",
          "code": "14463-4",
          "display": "Chlamydia trachomatis [Presence] in Cervix by Organism specific culture",
          "userSelected": true
        } ]
      },
      "subject": {
        "reference": "Patient/74ac3135-a328-4695-93aa-17368142976f"
      },
      "effectivePeriod": {
        "start": "2026-08-30T08:00:00.000+00:00",
        "end": "2026-08-30T08:15:00.000+00:00"
      },
      "issued": "2026-08-30T08:00:00.000+00:00",
      "valueQuantity": {
        "value": 16
      }
    }
  }, {
    "fullUrl": "https://madie.cms.gov/Observation/f25f5a8a-ad0e-4166-80e1-7344c5f9eede",
    "resource": {
      "resourceType": "Observation",
      "id": "f25f5a8a-ad0e-4166-80e1-7344c5f9eede",
      "meta": {
        "profile": [ "http://hl7.org/fhir/us/qicore/StructureDefinition/qicore-observation-lab" ]
      },
      "status": "final",
      "category": [ {
        "coding": [ {
          "system": "http://terminology.hl7.org/CodeSystem/observation-category",
          "code": "laboratory",
          "display": "Laboratory"
        } ]
      }, {
        "coding": [ {
          "system": "http://terminology.hl7.org/CodeSystem/observation-category",
          "code": "survey"
        } ]
      } ],
      "code": {
        "coding": [ {
          "system": "http://loinc.org",
          "code": "22590-4",
          "userSelected": true
        } ]
      },
      "subject": {
        "reference": "Patient/74ac3135-a328-4695-93aa-17368142976f"
      },
      "effectiveDateTime": "2026-03-06T08:45:00.000+00:00",
      "issued": "2026-03-06T08:45:00.000+00:00",
      "valueQuantity": {
        "value": 19
      }
    }
  }, {
    "fullUrl": "https://madie.cms.gov/Observation/e2344866-c061-4feb-95b5-93276419eb2f",
    "resource": {
      "resourceType": "Observation",
      "id": "e2344866-c061-4feb-95b5-93276419eb2f",
      "meta": {
        "profile": [ "http://hl7.org/fhir/us/qicore/StructureDefinition/qicore-observation-lab" ]
      },
      "status": "final",
      "category": [ {
        "coding": [ {
          "system": "http://terminology.hl7.org/CodeSystem/observation-category",
          "code": "laboratory",
          "display": "Laboratory"
        } ]
      }, {
        "coding": [ {
          "system": "http://terminology.hl7.org/CodeSystem/observation-category",
          "code": "survey"
        } ]
      } ],
      "code": {
        "coding": [ {
          "system": "http://loinc.org",
          "version": "2.73",
          "code": "21415-5",
          "display": "Neisseria gonorrhoeae DNA [Presence] in Urethra by NAA with probe detection",
          "userSelected": true
        } ]
      },
      "subject": {
        "reference": "Patient/74ac3135-a328-4695-93aa-17368142976f"
      },
      "effectiveDateTime": "2026-03-06T08:47:00.000+00:00",
      "issued": "2026-03-06T08:47:00.000+00:00",
      "valueQuantity": {
        "value": 19
      }
    }
  }, {
    "fullUrl": "https://madie.cms.gov/Observation/b166e4c6-7445-4f24-b24a-7306c3b3fd37",
    "resource": {
      "resourceType": "Observation",
      "id": "b166e4c6-7445-4f24-b24a-7306c3b3fd37",
      "meta": {
        "profile": [ "http://hl7.org/fhir/us/qicore/StructureDefinition/qicore-observation-lab" ]
      },
      "status": "final",
      "category": [ {
        "coding": [ {
          "system": "http://terminology.hl7.org/CodeSystem/observation-category",
          "code": "laboratory",
          "display": "Laboratory"
        } ]
      }, {
        "coding": [ {
          "system": "http://terminology.hl7.org/CodeSystem/observation-category",
          "code": "survey"
        } ]
      } ],
      "code": {
        "coding": [ {
          "system": "http://loinc.org",
          "code": "34710-4",
          "userSelected": true
        } ]
      },
      "subject": {
        "reference": "Patient/74ac3135-a328-4695-93aa-17368142976f"
      },
      "effectiveDateTime": "2026-03-06T08:48:00.000+00:00",
      "issued": "2026-03-06T08:48:00.000+00:00",
      "valueQuantity": {
        "value": 19
      }
    }
  }, {
    "fullUrl": "https://madie.cms.gov/Coverage/0ed73e22-a19c-45ae-82ff-76cfd79e3dd8",
    "resource": {
      "resourceType": "Coverage",
      "id": "0ed73e22-a19c-45ae-82ff-76cfd79e3dd8",
      "meta": {
        "profile": [ "http://hl7.org/fhir/us/qicore/StructureDefinition/qicore-coverage" ]
      },
      "status": "active",
      "subscriberId": "123456",
      "beneficiary": {
        "reference": "Patient/74ac3135-a328-4695-93aa-17368142976f"
      },
      "relationship": {
        "coding": [ {
          "system": "http://terminology.hl7.org/CodeSystem/subscriber-relationship",
          "code": "self",
          "display": "Self"
        } ]
      },
      "payor": [ {
        "reference": "Organization/a2994bfa-606a-4a0a-99b1-71ad1c4a1686"
      } ]
    }
  }, {
    "fullUrl": "https://madie.cms.gov/Organization/a2994bfa-606a-4a0a-99b1-71ad1c4a1686",
    "resource": {
      "resourceType": "Organization",
      "id": "a2994bfa-606a-4a0a-99b1-71ad1c4a1686",
      "meta": {
        "profile": [ "http://hl7.org/fhir/us/qicore/StructureDefinition/qicore-organization" ]
      },
      "identifier": [ {
        "use": "temp",
        "system": "urn:oid:2.16.840.1.113883.4.4",
        "value": "21-3259825"
      } ],
      "active": true,
      "type": [ {
        "coding": [ {
          "system": "http://terminology.hl7.org/CodeSystem/organization-type",
          "code": "pay",
          "display": "Payer"
        } ]
      } ],
      "name": "Blue Cross Blue Shield of Texas",
      "telecom": [ {
        "system": "phone",
        "value": "(+1) 972-766-6900"
      } ],
      "address": [ {
        "use": "billing",
        "type": "postal",
        "line": [ "P.O. Box 660044" ],
        "city": "Dallas",
        "state": "TX",
        "postalCode": "75266-0044",
        "country": "USA"
      } ]
    }
  }, {
    "fullUrl": "https://madie.cms.gov/Practitioner/35d61614-9273-4738-910f-1cb1c4801cb6",
    "resource": {
      "resourceType": "Practitioner",
      "id": "35d61614-9273-4738-910f-1cb1c4801cb6",
      "meta": {
        "profile": [ "http://hl7.org/fhir/us/qicore/StructureDefinition/qicore-practitioner" ]
      },
      "identifier": [ {
        "system": "http://hl7.org/fhir/sid/us-npi",
        "value": "1689411712"
      } ],
      "name": [ {
        "family": "Evil",
        "prefix": [ "Dr" ]
      } ]
    }
  }, {
    "fullUrl": "https://madie.cms.gov/MeasureReport/33d2f6d2-ca1b-4823-9e6a-3e78809bd8d9",
    "resource": {
      "resourceType": "MeasureReport",
      "id": "33d2f6d2-ca1b-4823-9e6a-3e78809bd8d9",
      "meta": {
        "profile": [ "http://hl7.org/fhir/us/cqfmeasures/StructureDefinition/test-case-cqfm" ]
      },
      "contained": [ {
        "resourceType": "Parameters",
        "id": "021ddb72-2960-422a-bb63-01481a12eeba-parameters",
        "parameter": [ {
          "name": "subject",
          "valueString": "74ac3135-a328-4695-93aa-17368142976f"
        } ]
      } ],
      "extension": [ {
        "url": "http://hl7.org/fhir/StructureDefinition/cqf-inputParameters",
        "valueReference": {
          "reference": "#021ddb72-2960-422a-bb63-01481a12eeba-parameters"
        }
      }, {
        "url": "http://hl7.org/fhir/us/cqfmeasures/StructureDefinition/cqfm-testCaseDescription",
        "valueMarkdown": "Patient is over 13 years old and has an encounter during the MP and has all three lab tests performed multiple times during the MP "
      } ],
      "modifierExtension": [ {
        "url": "http://hl7.org/fhir/us/cqfmeasures/StructureDefinition/cqfm-isTestCase",
        "valueBoolean": true
      } ],
      "status": "complete",
      "type": "individual",
      "measure": "https://madie.cms.gov/Measure/CMS1188FHIRHIVSTITesting",
      "period": {
        "start": "2026-01-01",
        "end": "2026-12-31"
      },
      "group": [ {
        "id": "Group_1",
        "population": [ {
          "id": "InitialPopulation_1",
          "code": {
            "coding": [ {
              "system": "http://terminology.hl7.org/CodeSystem/measure-population",
              "code": "initial-population",
              "display": "Initial Population"
            } ]
          },
          "count": 1
        }, {
          "id": "Denominator_1",
          "code": {
            "coding": [ {
              "system": "http://terminology.hl7.org/CodeSystem/measure-population",
              "code": "denominator",
              "display": "Denominator"
            } ]
          },
          "count": 1
        }, {
          "id": "Numerator_1",
          "code": {
            "coding": [ {
              "system": "http://terminology.hl7.org/CodeSystem/measure-population",
              "code": "numerator",
              "display": "Numerator"
            } ]
          },
          "count": 1
        } ],
        "measureScore": {
          "value": 1.0
        }
      } ],
      "evaluatedResource": [ {
        "reference": "Patient/74ac3135-a328-4695-93aa-17368142976f"
      }, {
        "reference": "Condition/86940458-6852-4f25-bfb3-786586d5fec5"
      }, {
        "reference": "Encounter/5a287190-3e8e-45a7-b225-c76e51f8b17c"
      }, {
        "reference": "Observation/7e9e83d5-f675-4f75-88e4-28f938334e67"
      }, {
        "reference": "Observation/63901e5c-1280-435a-8a1d-73fc4d777076"
      }, {
        "reference": "Observation/f3b857ab-c342-427a-b43b-f6755fabb7db"
      }, {
        "reference": "Observation/f25f5a8a-ad0e-4166-80e1-7344c5f9eede"
      }, {
        "reference": "Observation/e2344866-c061-4feb-95b5-93276419eb2f"
      }, {
        "reference": "Observation/b166e4c6-7445-4f24-b24a-7306c3b3fd37"
      }, {
        "reference": "Coverage/0ed73e22-a19c-45ae-82ff-76cfd79e3dd8"
      }, {
        "reference": "Organization/a2994bfa-606a-4a0a-99b1-71ad1c4a1686"
      }, {
        "reference": "Practitioner/35d61614-9273-4738-910f-1cb1c4801cb6"
      } ]
    }
  } ]
}