{
  "resourceType": "Bundle",
  "id": "62c880ed0111a60120dc221e",
  "type": "transaction",
  "entry": [ {
    "fullUrl": "https://madie.cms.gov/Patient/1b733c44-815e-4cff-b4e9-6b39623feff8",
    "resource": {
      "resourceType": "Patient",
      "id": "1b733c44-815e-4cff-b4e9-6b39623feff8",
      "meta": {
        "profile": [ "http://hl7.org/fhir/us/qicore/StructureDefinition/qicore-patient" ]
      },
      "extension": [ {
        "url": "http://hl7.org/fhir/us/core/StructureDefinition/us-core-race",
        "extension": [ {
          "url": "ombCategory",
          "valueCoding": {
            "system": "urn:oid:2.16.840.1.113883.6.238",
            "code": "1002-5",
            "display": "American Indian or Alaska Native",
            "userSelected": true
          }
        }, {
          "url": "text",
          "valueString": "American Indian or Alaska Native"
        } ]
      }, {
        "url": "http://hl7.org/fhir/us/core/StructureDefinition/us-core-ethnicity",
        "extension": [ {
          "url": "ombCategory",
          "valueCoding": {
            "system": "urn:oid:2.16.840.1.113883.6.238",
            "code": "2135-2",
            "display": "Hispanic or Latino",
            "userSelected": true
          }
        }, {
          "url": "text",
          "valueString": "Hispanic or Latino"
        } ]
      } ],
      "identifier": [ {
        "type": {
          "coding": [ {
            "system": "http://terminology.hl7.org/CodeSystem/v2-0203",
            "code": "MR"
          } ]
        },
        "system": "https://bonnie-fhir.healthit.gov/",
        "value": "62c880ed0111a60120dc221e"
      } ],
      "active": true,
      "name": [ {
        "use": "usual",
        "family": "NUMERFailPop2",
        "given": [ "MultEncPainAssessNoResult" ]
      } ],
      "gender": "female",
      "birthDate": "1933-05-13"
    },
    "request": {
      "method": "PUT",
      "url": "Patient/1b733c44-815e-4cff-b4e9-6b39623feff8"
    }
  }, {
    "fullUrl": "https://madie.cms.gov/Observation/5531cc89-6ed4-48ee-8626-a97b90ee6b62",
    "resource": {
      "resourceType": "Observation",
      "id": "5531cc89-6ed4-48ee-8626-a97b90ee6b62",
      "meta": {
        "profile": [ "http://hl7.org/fhir/us/qicore/StructureDefinition/qicore-observation-screening-assessment" ]
      },
      "status": "final",
      "category": [ {
        "coding": [ {
          "system": "http://terminology.hl7.org/CodeSystem/observation-category",
          "code": "survey",
          "display": "Survey"
        } ],
        "text": "Survey"
      } ],
      "code": {
        "coding": [ {
          "system": "http://loinc.org",
          "code": "38208-5",
          "display": "Pain severity - Reported"
        } ],
        "text": "Pain severity - Reported"
      },
      "subject": {
        "reference": "Patient/1b733c44-815e-4cff-b4e9-6b39623feff8"
      },
      "effectiveDateTime": "2026-03-05T09:00:00.000+00:00"
    },
    "request": {
      "method": "PUT",
      "url": "Observation/5531cc89-6ed4-48ee-8626-a97b90ee6b62"
    }
  }, {
    "fullUrl": "https://madie.cms.gov/Observation/296a997c-329a-4c01-b83a-ae95825019b5",
    "resource": {
      "resourceType": "Observation",
      "id": "296a997c-329a-4c01-b83a-ae95825019b5",
      "meta": {
        "profile": [ "http://hl7.org/fhir/us/qicore/StructureDefinition/qicore-observation-screening-assessment" ]
      },
      "status": "final",
      "category": [ {
        "coding": [ {
          "system": "http://terminology.hl7.org/CodeSystem/observation-category",
          "code": "survey",
          "display": "Survey"
        } ],
        "text": "Survey"
      } ],
      "code": {
        "coding": [ {
          "system": "http://loinc.org",
          "code": "38208-5",
          "display": "Pain severity - Reported"
        } ],
        "text": "Pain severity - Reported"
      },
      "subject": {
        "reference": "Patient/1b733c44-815e-4cff-b4e9-6b39623feff8"
      },
      "issued": "2026-08-30T15:00:00.000+00:00"
    },
    "request": {
      "method": "PUT",
      "url": "Observation/296a997c-329a-4c01-b83a-ae95825019b5"
    }
  }, {
    "fullUrl": "https://madie.cms.gov/Condition/f716a6da-b11e-4128-b62c-9fc29aa18d54",
    "resource": {
      "resourceType": "Condition",
      "id": "f716a6da-b11e-4128-b62c-9fc29aa18d54",
      "meta": {
        "profile": [ "http://hl7.org/fhir/us/qicore/StructureDefinition/qicore-condition-problems-health-concerns" ]
      },
      "clinicalStatus": {
        "coding": [ {
          "system": "http://terminology.hl7.org/CodeSystem/condition-clinical",
          "code": "active",
          "display": "active",
          "userSelected": true
        } ]
      },
      "category": [ {
        "coding": [ {
          "system": "http://terminology.hl7.org/CodeSystem/condition-category",
          "code": "problem-list-item",
          "display": "Problem List Item"
        } ]
      } ],
      "code": {
        "coding": [ {
          "system": "http://snomed.info/sct",
          "code": "107691000119101"
        } ]
      },
      "subject": {
        "reference": "Patient/1b733c44-815e-4cff-b4e9-6b39623feff8"
      },
      "onsetDateTime": "2024-11-01T13:30:00.000+00:00"
    },
    "request": {
      "method": "PUT",
      "url": "Condition/f716a6da-b11e-4128-b62c-9fc29aa18d54"
    }
  }, {
    "fullUrl": "https://madie.cms.gov/Coverage/62df7d12-e119-4e75-b63f-6db41e9cf721",
    "resource": {
      "resourceType": "Coverage",
      "id": "62df7d12-e119-4e75-b63f-6db41e9cf721",
      "meta": {
        "profile": [ "http://hl7.org/fhir/us/qicore/StructureDefinition/qicore-coverage" ]
      },
      "status": "active",
      "beneficiary": {
        "reference": "Patient/1b733c44-815e-4cff-b4e9-6b39623feff8"
      },
      "period": {
        "start": "1933-05-13T08:00:00.000+00:00"
      },
      "payor": [ {
        "reference": "Organization/997c0342-8d7d-476b-a556-48a23310aef9"
      } ]
    },
    "request": {
      "method": "PUT",
      "url": "Coverage/62df7d12-e119-4e75-b63f-6db41e9cf721"
    }
  }, {
    "fullUrl": "https://madie.cms.gov/Encounter/e67256e5-baee-4d08-84ba-192ecbcf1f97",
    "resource": {
      "resourceType": "Encounter",
      "id": "e67256e5-baee-4d08-84ba-192ecbcf1f97",
      "meta": {
        "profile": [ "http://hl7.org/fhir/us/qicore/StructureDefinition/qicore-encounter" ]
      },
      "status": "finished",
      "class": {
        "system": "http://terminology.hl7.org/CodeSystem/v3-ActCode",
        "code": "AMB",
        "display": "ambulatory",
        "userSelected": true
      },
      "type": [ {
        "coding": [ {
          "system": "http://www.ama-assn.org/go/cpt",
          "version": "2023",
          "code": "77427",
          "display": "Radiation treatment management, 5 treatments",
          "userSelected": true
        } ]
      } ],
      "subject": {
        "reference": "Patient/1b733c44-815e-4cff-b4e9-6b39623feff8"
      },
      "period": {
        "start": "2026-03-05T08:00:00.000+00:00",
        "end": "2026-03-05T10:00:00.000+00:00"
      }
    },
    "request": {
      "method": "PUT",
      "url": "Encounter/e67256e5-baee-4d08-84ba-192ecbcf1f97"
    }
  }, {
    "fullUrl": "https://madie.cms.gov/Encounter/c380b4b9-865b-452b-a264-16576184627e",
    "resource": {
      "resourceType": "Encounter",
      "id": "c380b4b9-865b-452b-a264-16576184627e",
      "meta": {
        "profile": [ "http://hl7.org/fhir/us/qicore/StructureDefinition/qicore-encounter" ]
      },
      "status": "finished",
      "class": {
        "system": "http://terminology.hl7.org/CodeSystem/v3-ActCode",
        "code": "AMB",
        "display": "ambulatory",
        "userSelected": true
      },
      "type": [ {
        "coding": [ {
          "system": "http://snomed.info/sct",
          "code": "84755001",
          "userSelected": true
        } ]
      } ],
      "subject": {
        "reference": "Patient/1b733c44-815e-4cff-b4e9-6b39623feff8"
      },
      "period": {
        "start": "2026-08-30T14:00:00.000+00:00",
        "end": "2026-08-30T16:00:00.000+00:00"
      }
    },
    "request": {
      "method": "PUT",
      "url": "Encounter/c380b4b9-865b-452b-a264-16576184627e"
    }
  }, {
    "fullUrl": "https://madie.cms.gov/Organization/997c0342-8d7d-476b-a556-48a23310aef9",
    "resource": {
      "resourceType": "Organization",
      "id": "997c0342-8d7d-476b-a556-48a23310aef9",
      "meta": {
        "profile": [ "http://hl7.org/fhir/us/qicore/StructureDefinition/qicore-organization" ]
      },
      "identifier": [ {
        "use": "temp",
        "system": "urn:oid:2.16.840.1.113883.4.4",
        "value": "21-3259825"
      } ],
      "active": true,
      "type": [ {
        "coding": [ {
          "system": "http://terminology.hl7.org/CodeSystem/organization-type",
          "code": "pay",
          "display": "Payer"
        } ]
      } ],
      "name": "Blue Cross Blue Shield of Texas",
      "telecom": [ {
        "system": "phone",
        "value": "(+1) 972-766-6900"
      } ],
      "address": [ {
        "use": "billing",
        "type": "postal",
        "line": [ "P.O. Box 660044" ],
        "city": "Dallas",
        "state": "TX",
        "postalCode": "75266-0044",
        "country": "USA"
      } ]
    },
    "request": {
      "method": "PUT",
      "url": "Organization/997c0342-8d7d-476b-a556-48a23310aef9"
    }
  }, {
    "fullUrl": "https://madie.cms.gov/Practitioner/f724f511-fe23-4617-8e36-0a25a6846419",
    "resource": {
      "resourceType": "Practitioner",
      "id": "f724f511-fe23-4617-8e36-0a25a6846419",
      "meta": {
        "profile": [ "http://hl7.org/fhir/us/qicore/StructureDefinition/qicore-practitioner" ]
      },
      "identifier": [ {
        "system": "http://hl7.org/fhir/sid/us-npi",
        "value": "1234567890"
      } ],
      "name": [ {
        "family": "Evil",
        "prefix": [ "Dr" ]
      } ]
    },
    "request": {
      "method": "PUT",
      "url": "Practitioner/f724f511-fe23-4617-8e36-0a25a6846419"
    }
  }, {
    "fullUrl": "https://madie.cms.gov/MeasureReport/0d4a631c-72a6-4ca8-af8f-800e9f469bf4",
    "resource": {
      "resourceType": "MeasureReport",
      "id": "0d4a631c-72a6-4ca8-af8f-800e9f469bf4",
      "meta": {
        "profile": [ "http://hl7.org/fhir/us/cqfmeasures/StructureDefinition/test-case-cqfm" ]
      },
      "contained": [ {
        "resourceType": "Parameters",
        "id": "381dea16-049c-4d3e-a347-581ec6c779c9-parameters",
        "parameter": [ {
          "name": "subject",
          "valueString": "1b733c44-815e-4cff-b4e9-6b39623feff8"
        } ]
      } ],
      "extension": [ {
        "url": "http://hl7.org/fhir/StructureDefinition/cqf-inputParameters",
        "valueReference": {
          "reference": "#381dea16-049c-4d3e-a347-581ec6c779c9-parameters"
        }
      }, {
        "url": "http://hl7.org/fhir/us/cqfmeasures/StructureDefinition/cqfm-testCaseDescription",
        "valueMarkdown": "Patient with cancer diagnosis that overlaps radiation treatment mgt. during MP. Pain intensity assessment was performed during radiation treatment mgt. 2 episodes of care. Both assessments have no result. \n"
      } ],
      "modifierExtension": [ {
        "url": "http://hl7.org/fhir/us/cqfmeasures/StructureDefinition/cqfm-isTestCase",
        "valueBoolean": true
      } ],
      "status": "complete",
      "type": "individual",
      "measure": "https://madie.cms.gov/Measure/CMS157FHIRPainIntensityQuantified",
      "period": {
        "start": "2026-01-01",
        "end": "2026-12-31"
      },
      "group": [ {
        "id": "Group_1",
        "population": [ {
          "id": "InitialPopulation_1",
          "code": {
            "coding": [ {
              "system": "http://terminology.hl7.org/CodeSystem/measure-population",
              "code": "initial-population",
              "display": "Initial Population"
            } ]
          },
          "count": 0
        }, {
          "id": "Denominator_1",
          "code": {
            "coding": [ {
              "system": "http://terminology.hl7.org/CodeSystem/measure-population",
              "code": "denominator",
              "display": "Denominator"
            } ]
          },
          "count": 0
        }, {
          "id": "Numerator_1",
          "code": {
            "coding": [ {
              "system": "http://terminology.hl7.org/CodeSystem/measure-population",
              "code": "numerator",
              "display": "Numerator"
            } ]
          },
          "count": 0
        } ],
        "measureScore": {
          "value": 0.0
        }
      }, {
        "id": "Group_2",
        "population": [ {
          "id": "InitialPopulation_2",
          "code": {
            "coding": [ {
              "system": "http://terminology.hl7.org/CodeSystem/measure-population",
              "code": "initial-population",
              "display": "Initial Population"
            } ]
          },
          "count": 2
        }, {
          "id": "Denominator_2",
          "code": {
            "coding": [ {
              "system": "http://terminology.hl7.org/CodeSystem/measure-population",
              "code": "denominator",
              "display": "Denominator"
            } ]
          },
          "count": 2
        }, {
          "id": "Numerator_2",
          "code": {
            "coding": [ {
              "system": "http://terminology.hl7.org/CodeSystem/measure-population",
              "code": "numerator",
              "display": "Numerator"
            } ]
          },
          "count": 0
        } ],
        "measureScore": {
          "value": 0.0
        }
      } ],
      "evaluatedResource": [ {
        "reference": "Patient/1b733c44-815e-4cff-b4e9-6b39623feff8"
      }, {
        "reference": "Observation/5531cc89-6ed4-48ee-8626-a97b90ee6b62"
      }, {
        "reference": "Observation/296a997c-329a-4c01-b83a-ae95825019b5"
      }, {
        "reference": "Condition/f716a6da-b11e-4128-b62c-9fc29aa18d54"
      }, {
        "reference": "Coverage/62df7d12-e119-4e75-b63f-6db41e9cf721"
      }, {
        "reference": "Encounter/e67256e5-baee-4d08-84ba-192ecbcf1f97"
      }, {
        "reference": "Encounter/c380b4b9-865b-452b-a264-16576184627e"
      }, {
        "reference": "Organization/997c0342-8d7d-476b-a556-48a23310aef9"
      }, {
        "reference": "Practitioner/f724f511-fe23-4617-8e36-0a25a6846419"
      } ]
    },
    "request": {
      "method": "PUT",
      "url": "MeasureReport/0d4a631c-72a6-4ca8-af8f-800e9f469bf4"
    }
  } ]
}