{
  "resourceType": "Bundle",
  "id": "62c880ed0111a60120dc221d",
  "type": "transaction",
  "entry": [ {
    "fullUrl": "https://madie.cms.gov/Patient/66c60f6c-2a7b-4868-b9bd-5ede60b61463",
    "resource": {
      "resourceType": "Patient",
      "id": "66c60f6c-2a7b-4868-b9bd-5ede60b61463",
      "meta": {
        "profile": [ "http://hl7.org/fhir/us/qicore/StructureDefinition/qicore-patient" ]
      },
      "extension": [ {
        "url": "http://hl7.org/fhir/us/core/StructureDefinition/us-core-race",
        "extension": [ {
          "url": "ombCategory",
          "valueCoding": {
            "system": "urn:oid:2.16.840.1.113883.6.238",
            "code": "1002-5",
            "display": "American Indian or Alaska Native",
            "userSelected": true
          }
        }, {
          "url": "text",
          "valueString": "American Indian or Alaska Native"
        } ]
      }, {
        "url": "http://hl7.org/fhir/us/core/StructureDefinition/us-core-ethnicity",
        "extension": [ {
          "url": "ombCategory",
          "valueCoding": {
            "system": "urn:oid:2.16.840.1.113883.6.238",
            "code": "2135-2",
            "display": "Hispanic or Latino",
            "userSelected": true
          }
        }, {
          "url": "text",
          "valueString": "Hispanic or Latino"
        } ]
      } ],
      "identifier": [ {
        "type": {
          "coding": [ {
            "system": "http://terminology.hl7.org/CodeSystem/v2-0203",
            "code": "MR"
          } ]
        },
        "system": "https://bonnie-fhir.healthit.gov/",
        "value": "62c880ed0111a60120dc221d"
      } ],
      "active": true,
      "name": [ {
        "use": "usual",
        "family": "NUMERFailPop2",
        "given": [ "PainAssessAfterRadTx" ]
      } ],
      "gender": "male",
      "birthDate": "1942-04-12"
    },
    "request": {
      "method": "PUT",
      "url": "Patient/66c60f6c-2a7b-4868-b9bd-5ede60b61463"
    }
  }, {
    "fullUrl": "https://madie.cms.gov/Observation/01138ce5-dc7f-49d5-918f-562c2ffce7f4",
    "resource": {
      "resourceType": "Observation",
      "id": "01138ce5-dc7f-49d5-918f-562c2ffce7f4",
      "meta": {
        "profile": [ "http://hl7.org/fhir/us/qicore/StructureDefinition/qicore-observation-screening-assessment" ]
      },
      "status": "final",
      "category": [ {
        "coding": [ {
          "system": "http://terminology.hl7.org/CodeSystem/observation-category",
          "code": "survey",
          "display": "Survey"
        } ],
        "text": "Survey"
      } ],
      "code": {
        "coding": [ {
          "system": "http://loinc.org",
          "code": "38208-5",
          "display": "Pain severity - Reported"
        } ],
        "text": "Pain severity - Reported"
      },
      "subject": {
        "reference": "Patient/66c60f6c-2a7b-4868-b9bd-5ede60b61463"
      },
      "effectiveDateTime": "2026-03-10T08:00:00.000+00:00",
      "valueInteger": 7
    },
    "request": {
      "method": "PUT",
      "url": "Observation/01138ce5-dc7f-49d5-918f-562c2ffce7f4"
    }
  }, {
    "fullUrl": "https://madie.cms.gov/Condition/dc2a5948-3008-41f3-a695-704ca79a5cc2",
    "resource": {
      "resourceType": "Condition",
      "id": "dc2a5948-3008-41f3-a695-704ca79a5cc2",
      "meta": {
        "profile": [ "http://hl7.org/fhir/us/qicore/StructureDefinition/qicore-condition-encounter-diagnosis" ]
      },
      "clinicalStatus": {
        "coding": [ {
          "system": "http://terminology.hl7.org/CodeSystem/condition-clinical",
          "code": "active",
          "display": "Active",
          "userSelected": true
        } ]
      },
      "verificationStatus": {
        "coding": [ {
          "system": "http://terminology.hl7.org/CodeSystem/condition-ver-status",
          "code": "confirmed",
          "display": "Confirmed"
        } ]
      },
      "category": [ {
        "coding": [ {
          "system": "http://terminology.hl7.org/CodeSystem/condition-category",
          "code": "encounter-diagnosis",
          "display": "Encounter Diagnosis"
        } ]
      } ],
      "code": {
        "coding": [ {
          "system": "http://hl7.org/fhir/sid/icd-10-cm",
          "code": "C00.0"
        } ]
      },
      "subject": {
        "reference": "Patient/66c60f6c-2a7b-4868-b9bd-5ede60b61463"
      },
      "onsetDateTime": "2023-06-01T14:00:00.000+00:00"
    },
    "request": {
      "method": "PUT",
      "url": "Condition/dc2a5948-3008-41f3-a695-704ca79a5cc2"
    }
  }, {
    "fullUrl": "https://madie.cms.gov/Coverage/8a492457-5f4a-4df2-9190-c86955692eff",
    "resource": {
      "resourceType": "Coverage",
      "id": "8a492457-5f4a-4df2-9190-c86955692eff",
      "meta": {
        "profile": [ "http://hl7.org/fhir/us/qicore/StructureDefinition/qicore-coverage" ]
      },
      "status": "active",
      "beneficiary": {
        "reference": "Patient/66c60f6c-2a7b-4868-b9bd-5ede60b61463"
      },
      "period": {
        "start": "1942-04-12T08:00:00.000+00:00"
      },
      "payor": [ {
        "reference": "Organization/00d25c51-655f-41de-b73a-5bf6aefeba01"
      } ]
    },
    "request": {
      "method": "PUT",
      "url": "Coverage/8a492457-5f4a-4df2-9190-c86955692eff"
    }
  }, {
    "fullUrl": "https://madie.cms.gov/Encounter/52307d4d-92d2-4492-9c7b-e60121937dce",
    "resource": {
      "resourceType": "Encounter",
      "id": "52307d4d-92d2-4492-9c7b-e60121937dce",
      "meta": {
        "profile": [ "http://hl7.org/fhir/us/qicore/StructureDefinition/qicore-encounter" ]
      },
      "status": "finished",
      "class": {
        "system": "http://terminology.hl7.org/CodeSystem/v3-ActCode",
        "code": "AMB",
        "display": "ambulatory",
        "userSelected": true
      },
      "type": [ {
        "coding": [ {
          "system": "http://snomed.info/sct",
          "code": "84755001",
          "userSelected": true
        } ]
      } ],
      "subject": {
        "reference": "Patient/66c60f6c-2a7b-4868-b9bd-5ede60b61463"
      },
      "period": {
        "start": "2026-02-01T14:00:00.000+00:00",
        "end": "2026-02-01T14:15:00.000+00:00"
      }
    },
    "request": {
      "method": "PUT",
      "url": "Encounter/52307d4d-92d2-4492-9c7b-e60121937dce"
    }
  }, {
    "fullUrl": "https://madie.cms.gov/Organization/00d25c51-655f-41de-b73a-5bf6aefeba01",
    "resource": {
      "resourceType": "Organization",
      "id": "00d25c51-655f-41de-b73a-5bf6aefeba01",
      "meta": {
        "profile": [ "http://hl7.org/fhir/us/qicore/StructureDefinition/qicore-organization" ]
      },
      "identifier": [ {
        "use": "temp",
        "system": "urn:oid:2.16.840.1.113883.4.4",
        "value": "21-3259825"
      } ],
      "active": true,
      "type": [ {
        "coding": [ {
          "system": "http://terminology.hl7.org/CodeSystem/organization-type",
          "code": "pay",
          "display": "Payer"
        } ]
      } ],
      "name": "Blue Cross Blue Shield of Texas",
      "telecom": [ {
        "system": "phone",
        "value": "(+1) 972-766-6900"
      } ],
      "address": [ {
        "use": "billing",
        "type": "postal",
        "line": [ "P.O. Box 660044" ],
        "city": "Dallas",
        "state": "TX",
        "postalCode": "75266-0044",
        "country": "USA"
      } ]
    },
    "request": {
      "method": "PUT",
      "url": "Organization/00d25c51-655f-41de-b73a-5bf6aefeba01"
    }
  }, {
    "fullUrl": "https://madie.cms.gov/Practitioner/a9d4a728-27f6-42c4-baf6-49021807b4bd",
    "resource": {
      "resourceType": "Practitioner",
      "id": "a9d4a728-27f6-42c4-baf6-49021807b4bd",
      "meta": {
        "profile": [ "http://hl7.org/fhir/us/qicore/StructureDefinition/qicore-practitioner" ]
      },
      "identifier": [ {
        "system": "http://hl7.org/fhir/sid/us-npi",
        "value": "1234567890"
      } ],
      "name": [ {
        "family": "Evil",
        "prefix": [ "Dr" ]
      } ]
    },
    "request": {
      "method": "PUT",
      "url": "Practitioner/a9d4a728-27f6-42c4-baf6-49021807b4bd"
    }
  }, {
    "fullUrl": "https://madie.cms.gov/MeasureReport/e916d4be-b50b-4fec-92aa-9b8307a9d3ed",
    "resource": {
      "resourceType": "MeasureReport",
      "id": "e916d4be-b50b-4fec-92aa-9b8307a9d3ed",
      "meta": {
        "profile": [ "http://hl7.org/fhir/us/cqfmeasures/StructureDefinition/test-case-cqfm" ]
      },
      "contained": [ {
        "resourceType": "Parameters",
        "id": "2fb1dc16-c404-4ace-84ee-917f1cf63d78-parameters",
        "parameter": [ {
          "name": "subject",
          "valueString": "66c60f6c-2a7b-4868-b9bd-5ede60b61463"
        } ]
      } ],
      "extension": [ {
        "url": "http://hl7.org/fhir/StructureDefinition/cqf-inputParameters",
        "valueReference": {
          "reference": "#2fb1dc16-c404-4ace-84ee-917f1cf63d78-parameters"
        }
      }, {
        "url": "http://hl7.org/fhir/us/cqfmeasures/StructureDefinition/cqfm-testCaseDescription",
        "valueMarkdown": "Patient with cancer diagnosis that overlaps radiation treatment management during measurement period. Pain intensity assessment was performed after radiation treatment management encounter."
      } ],
      "modifierExtension": [ {
        "url": "http://hl7.org/fhir/us/cqfmeasures/StructureDefinition/cqfm-isTestCase",
        "valueBoolean": true
      } ],
      "status": "complete",
      "type": "individual",
      "measure": "https://madie.cms.gov/Measure/CMS157FHIRPainIntensityQuantified",
      "period": {
        "start": "2026-01-01",
        "end": "2026-12-31"
      },
      "group": [ {
        "id": "Group_1",
        "population": [ {
          "id": "InitialPopulation_1",
          "code": {
            "coding": [ {
              "system": "http://terminology.hl7.org/CodeSystem/measure-population",
              "code": "initial-population",
              "display": "Initial Population"
            } ]
          },
          "count": 0
        }, {
          "id": "Denominator_1",
          "code": {
            "coding": [ {
              "system": "http://terminology.hl7.org/CodeSystem/measure-population",
              "code": "denominator",
              "display": "Denominator"
            } ]
          },
          "count": 0
        }, {
          "id": "Numerator_1",
          "code": {
            "coding": [ {
              "system": "http://terminology.hl7.org/CodeSystem/measure-population",
              "code": "numerator",
              "display": "Numerator"
            } ]
          },
          "count": 0
        } ],
        "measureScore": {
          "value": 0.0
        }
      }, {
        "id": "Group_2",
        "population": [ {
          "id": "InitialPopulation_2",
          "code": {
            "coding": [ {
              "system": "http://terminology.hl7.org/CodeSystem/measure-population",
              "code": "initial-population",
              "display": "Initial Population"
            } ]
          },
          "count": 1
        }, {
          "id": "Denominator_2",
          "code": {
            "coding": [ {
              "system": "http://terminology.hl7.org/CodeSystem/measure-population",
              "code": "denominator",
              "display": "Denominator"
            } ]
          },
          "count": 1
        }, {
          "id": "Numerator_2",
          "code": {
            "coding": [ {
              "system": "http://terminology.hl7.org/CodeSystem/measure-population",
              "code": "numerator",
              "display": "Numerator"
            } ]
          },
          "count": 0
        } ],
        "measureScore": {
          "value": 0.0
        }
      } ],
      "evaluatedResource": [ {
        "reference": "Patient/66c60f6c-2a7b-4868-b9bd-5ede60b61463"
      }, {
        "reference": "Observation/01138ce5-dc7f-49d5-918f-562c2ffce7f4"
      }, {
        "reference": "Condition/dc2a5948-3008-41f3-a695-704ca79a5cc2"
      }, {
        "reference": "Coverage/8a492457-5f4a-4df2-9190-c86955692eff"
      }, {
        "reference": "Encounter/52307d4d-92d2-4492-9c7b-e60121937dce"
      }, {
        "reference": "Organization/00d25c51-655f-41de-b73a-5bf6aefeba01"
      }, {
        "reference": "Practitioner/a9d4a728-27f6-42c4-baf6-49021807b4bd"
      } ]
    },
    "request": {
      "method": "PUT",
      "url": "MeasureReport/e916d4be-b50b-4fec-92aa-9b8307a9d3ed"
    }
  } ]
}