{
  "resourceType": "Bundle",
  "id": "612e6f5002c62a011f2f15ec",
  "type": "transaction",
  "entry": [ {
    "fullUrl": "https://madie.cms.gov/Patient/4d76c150-b6a5-4a1a-8801-81c24ce398b7",
    "resource": {
      "resourceType": "Patient",
      "id": "4d76c150-b6a5-4a1a-8801-81c24ce398b7",
      "meta": {
        "profile": [ "http://hl7.org/fhir/us/qicore/StructureDefinition/qicore-patient" ]
      },
      "text": {
        "status": "generated",
        "div": "<div xmlns=\"http://www.w3.org/1999/xhtml\"><div class=\"hapiHeaderText\">GlycoOnAnesEndDayAfterICU <b>NUMERPASS </b></div><table class=\"hapiPropertyTable\"><tbody><tr><td>Identifier</td><td>749173f2040124b092bc1729ffb06eac</td></tr><tr><td>Date of birth</td><td><span>03 March 1974</span></td></tr></tbody></table></div>"
      },
      "extension": [ {
        "url": "http://hl7.org/fhir/us/core/StructureDefinition/us-core-race",
        "extension": [ {
          "url": "ombCategory",
          "valueCoding": {
            "system": "urn:oid:2.16.840.1.113883.6.238",
            "code": "1002-5",
            "display": "American Indian or Alaska Native",
            "userSelected": true
          }
        }, {
          "url": "text",
          "valueString": "American Indian or Alaska Native"
        } ]
      }, {
        "url": "http://hl7.org/fhir/us/core/StructureDefinition/us-core-ethnicity",
        "extension": [ {
          "url": "ombCategory",
          "valueCoding": {
            "system": "urn:oid:2.16.840.1.113883.6.238",
            "code": "2135-2",
            "display": "Hispanic or Latino",
            "userSelected": true
          }
        }, {
          "url": "text",
          "valueString": "Hispanic or Latino"
        } ]
      } ],
      "identifier": [ {
        "type": {
          "coding": [ {
            "system": "http://terminology.hl7.org/CodeSystem/v2-0203",
            "code": "MR"
          } ]
        },
        "system": "https://bonnie-fhir.healthit.gov/",
        "value": "612e6f5002c62a011f2f15ec"
      } ],
      "active": true,
      "name": [ {
        "use": "usual",
        "family": "NUMERPass",
        "given": [ "GlycoOnAnesEndDayAfterICU" ]
      } ],
      "gender": "female",
      "birthDate": "1975-03-03"
    },
    "request": {
      "method": "PUT",
      "url": "Patient/4d76c150-b6a5-4a1a-8801-81c24ce398b7"
    }
  }, {
    "fullUrl": "https://madie.cms.gov/Encounter/dddbf0b2-24f2-4dbc-93eb-793f5a84b28e",
    "resource": {
      "resourceType": "Encounter",
      "id": "dddbf0b2-24f2-4dbc-93eb-793f5a84b28e",
      "meta": {
        "profile": [ "http://hl7.org/fhir/us/qicore/StructureDefinition/qicore-encounter" ]
      },
      "status": "finished",
      "class": {
        "system": "http://terminology.hl7.org/CodeSystem/v3-ActCode",
        "code": "IMP",
        "display": "inpatient encounter"
      },
      "type": [ {
        "coding": [ {
          "system": "http://snomed.info/sct",
          "code": "8715000"
        } ]
      } ],
      "subject": {
        "reference": "Patient/4d76c150-b6a5-4a1a-8801-81c24ce398b7"
      },
      "period": {
        "start": "2026-12-04T08:00:00.000+00:00",
        "end": "2026-12-30T08:15:00.000+00:00"
      },
      "length": {
        "value": 26.0,
        "unit": "days"
      },
      "location": [ {
        "location": {
          "reference": "Location/e90885a3-7175-495c-add7-337c6ecfc60f"
        },
        "period": {
          "start": "2026-12-06T08:00:00.000+00:00",
          "end": "2026-12-12T08:15:00.000+00:00"
        }
      } ]
    },
    "request": {
      "method": "PUT",
      "url": "Encounter/dddbf0b2-24f2-4dbc-93eb-793f5a84b28e"
    }
  }, {
    "fullUrl": "https://madie.cms.gov/Coverage/32126a82-0de2-4048-8ff6-2064d61c894a",
    "resource": {
      "resourceType": "Coverage",
      "id": "32126a82-0de2-4048-8ff6-2064d61c894a",
      "status": "active",
      "beneficiary": {
        "reference": "Patient/4d76c150-b6a5-4a1a-8801-81c24ce398b7"
      },
      "period": {
        "start": "1975-03-03T08:00:00.000+00:00"
      },
      "payor": [ {
        "reference": "Organization/19012503-4714-4716-8a08-75c39ca06986"
      } ]
    },
    "request": {
      "method": "PUT",
      "url": "Coverage/32126a82-0de2-4048-8ff6-2064d61c894a"
    }
  }, {
    "fullUrl": "https://madie.cms.gov/MedicationAdministration/8d87650b-0bfe-4456-a6e1-56e9b3c8aacb",
    "resource": {
      "resourceType": "MedicationAdministration",
      "id": "8d87650b-0bfe-4456-a6e1-56e9b3c8aacb",
      "meta": {
        "profile": [ "http://hl7.org/fhir/us/qicore/StructureDefinition/qicore-medicationadministration" ]
      },
      "status": "completed",
      "medicationCodeableConcept": {
        "coding": [ {
          "system": "http://www.nlm.nih.gov/research/umls/rxnorm",
          "code": "200349"
        } ]
      },
      "subject": {
        "reference": "Patient/4d76c150-b6a5-4a1a-8801-81c24ce398b7"
      },
      "effectivePeriod": {
        "start": "2026-12-07T11:15:00.000+00:00"
      }
    },
    "request": {
      "method": "PUT",
      "url": "MedicationAdministration/8d87650b-0bfe-4456-a6e1-56e9b3c8aacb"
    }
  }, {
    "fullUrl": "https://madie.cms.gov/Procedure/28004588-4bd3-46e7-a11e-d441a4b8ce6a",
    "resource": {
      "resourceType": "Procedure",
      "id": "28004588-4bd3-46e7-a11e-d441a4b8ce6a",
      "meta": {
        "profile": [ "http://hl7.org/fhir/us/qicore/StructureDefinition/qicore-procedure" ]
      },
      "extension": [ {
        "url": "http://hl7.org/fhir/us/qicore/StructureDefinition/qicore-recorded",
        "valueDateTime": "2013-12-07T13:35:00.000+00:00"
      } ],
      "status": "completed",
      "code": {
        "coding": [ {
          "system": "http://snomed.info/sct",
          "code": "18946005"
        } ]
      },
      "subject": {
        "reference": "Patient/4d76c150-b6a5-4a1a-8801-81c24ce398b7"
      },
      "performedPeriod": {
        "start": "2026-12-07T10:00:00.000+00:00",
        "end": "2026-12-07T11:15:00.000+00:00"
      }
    },
    "request": {
      "method": "PUT",
      "url": "Procedure/28004588-4bd3-46e7-a11e-d441a4b8ce6a"
    }
  }, {
    "fullUrl": "https://madie.cms.gov/Location/e90885a3-7175-495c-add7-337c6ecfc60f",
    "resource": {
      "resourceType": "Location",
      "id": "e90885a3-7175-495c-add7-337c6ecfc60f",
      "meta": {
        "profile": [ "http://hl7.org/fhir/us/qicore/StructureDefinition/qicore-location" ]
      },
      "identifier": [ {
        "use": "usual",
        "system": "http://exampleoflocation.com",
        "value": "B1-S.F2"
      } ],
      "name": "Medical Surgical East, first floor",
      "type": [ {
        "coding": [ {
          "system": "https://www.cdc.gov/nhsn/cdaportal/terminology/codesystem/hsloc.html",
          "code": "1025-6",
          "display": "Trauma Critical Care",
          "userSelected": true
        } ]
      } ]
    },
    "request": {
      "method": "PUT",
      "url": "Location/e90885a3-7175-495c-add7-337c6ecfc60f"
    }
  }, {
    "fullUrl": "https://madie.cms.gov/Organization/19012503-4714-4716-8a08-75c39ca06986",
    "resource": {
      "resourceType": "Organization",
      "id": "19012503-4714-4716-8a08-75c39ca06986",
      "meta": {
        "profile": [ "http://hl7.org/fhir/us/qicore/StructureDefinition/qicore-organization" ]
      },
      "identifier": [ {
        "use": "temp",
        "system": "urn:oid:2.16.840.1.113883.4.4",
        "value": "21-3259825"
      } ],
      "active": true,
      "type": [ {
        "coding": [ {
          "system": "http://terminology.hl7.org/CodeSystem/organization-type",
          "code": "pay",
          "display": "Payer"
        } ]
      } ],
      "name": "Blue Cross Blue Shield of Texas",
      "telecom": [ {
        "system": "phone",
        "value": "(+1) 972-766-6900"
      } ],
      "address": [ {
        "use": "billing",
        "type": "postal",
        "line": [ "P.O. Box 660044" ],
        "city": "Dallas",
        "state": "TX",
        "postalCode": "75266-0044",
        "country": "USA"
      } ]
    },
    "request": {
      "method": "PUT",
      "url": "Organization/19012503-4714-4716-8a08-75c39ca06986"
    }
  }, {
    "fullUrl": "https://madie.cms.gov/Practitioner/e81aaaf9-57af-43de-995f-74ae6292861e",
    "resource": {
      "resourceType": "Practitioner",
      "id": "e81aaaf9-57af-43de-995f-74ae6292861e",
      "identifier": [ {
        "system": "http://hl7.org/fhir/sid/us-npi",
        "value": "123456"
      } ],
      "name": [ {
        "family": "Evil",
        "prefix": [ "Dr" ]
      } ]
    },
    "request": {
      "method": "PUT",
      "url": "Practitioner/e81aaaf9-57af-43de-995f-74ae6292861e"
    }
  }, {
    "fullUrl": "https://madie.cms.gov/MeasureReport/cb911eee-00a7-47dc-94a1-dcd7db97c125",
    "resource": {
      "resourceType": "MeasureReport",
      "id": "cb911eee-00a7-47dc-94a1-dcd7db97c125",
      "meta": {
        "profile": [ "http://hl7.org/fhir/us/cqfmeasures/StructureDefinition/test-case-cqfm" ]
      },
      "contained": [ {
        "resourceType": "Parameters",
        "id": "0c4572a3-aa2b-44c1-97e7-bfd54f4e44c9-parameters",
        "parameter": [ {
          "name": "subject",
          "valueString": "4d76c150-b6a5-4a1a-8801-81c24ce398b7"
        } ]
      } ],
      "extension": [ {
        "url": "http://hl7.org/fhir/StructureDefinition/cqf-inputParameters",
        "valueReference": {
          "reference": "#0c4572a3-aa2b-44c1-97e7-bfd54f4e44c9-parameters"
        }
      }, {
        "url": "http://hl7.org/fhir/us/cqfmeasures/StructureDefinition/cqfm-testCaseDescription",
        "valueMarkdown": "Glycoprotein IIb/IIIa Inhibitors administered concurrentwith end of neuraxial anesthesia\n"
      } ],
      "modifierExtension": [ {
        "url": "http://hl7.org/fhir/us/cqfmeasures/StructureDefinition/cqfm-isTestCase",
        "valueBoolean": true
      } ],
      "status": "complete",
      "type": "individual",
      "measure": "https://madie.cms.gov/Measure/CMS190FHIRVTEProphylaxisICU",
      "period": {
        "start": "2026-01-01",
        "end": "2026-12-31"
      },
      "group": [ {
        "id": "Group_1",
        "population": [ {
          "id": "InitialPopulation_1",
          "code": {
            "coding": [ {
              "system": "http://terminology.hl7.org/CodeSystem/measure-population",
              "code": "initial-population",
              "display": "Initial Population"
            } ]
          },
          "count": 1
        }, {
          "id": "Denominator_1",
          "code": {
            "coding": [ {
              "system": "http://terminology.hl7.org/CodeSystem/measure-population",
              "code": "denominator",
              "display": "Denominator"
            } ]
          },
          "count": 1
        }, {
          "id": "DenominatorExclusion_1",
          "code": {
            "coding": [ {
              "system": "http://terminology.hl7.org/CodeSystem/measure-population",
              "code": "denominator-exclusion",
              "display": "Denominator Exclusion"
            } ]
          },
          "count": 0
        }, {
          "id": "Numerator_1",
          "code": {
            "coding": [ {
              "system": "http://terminology.hl7.org/CodeSystem/measure-population",
              "code": "numerator",
              "display": "Numerator"
            } ]
          },
          "count": 1
        }, {
          "id": "DenominatorException_1",
          "code": {
            "coding": [ {
              "system": "http://terminology.hl7.org/CodeSystem/measure-population",
              "code": "denominator-exception",
              "display": "Denominator Exception"
            } ]
          },
          "count": 0
        } ],
        "measureScore": {
          "value": 0.0
        }
      } ],
      "evaluatedResource": [ {
        "reference": "Patient/4d76c150-b6a5-4a1a-8801-81c24ce398b7"
      }, {
        "reference": "Encounter/dddbf0b2-24f2-4dbc-93eb-793f5a84b28e"
      }, {
        "reference": "Coverage/32126a82-0de2-4048-8ff6-2064d61c894a"
      }, {
        "reference": "MedicationAdministration/8d87650b-0bfe-4456-a6e1-56e9b3c8aacb"
      }, {
        "reference": "Procedure/28004588-4bd3-46e7-a11e-d441a4b8ce6a"
      }, {
        "reference": "Location/e90885a3-7175-495c-add7-337c6ecfc60f"
      }, {
        "reference": "Organization/19012503-4714-4716-8a08-75c39ca06986"
      }, {
        "reference": "Practitioner/e81aaaf9-57af-43de-995f-74ae6292861e"
      } ]
    },
    "request": {
      "method": "PUT",
      "url": "MeasureReport/cb911eee-00a7-47dc-94a1-dcd7db97c125"
    }
  } ]
}