{
  "resourceType": "Bundle",
  "id": "64da783e2ac64e40260ff323",
  "type": "transaction",
  "entry": [ {
    "fullUrl": "https://madie.cms.gov/Patient/6bf6194c-6151-4cbe-8860-52d5566863f3",
    "resource": {
      "resourceType": "Patient",
      "id": "6bf6194c-6151-4cbe-8860-52d5566863f3",
      "meta": {
        "profile": [ "http://hl7.org/fhir/us/qicore/StructureDefinition/qicore-patient" ]
      },
      "extension": [ {
        "url": "http://hl7.org/fhir/us/core/StructureDefinition/us-core-race",
        "extension": [ {
          "url": "ombCategory",
          "valueCoding": {
            "system": "urn:oid:2.16.840.1.113883.6.238",
            "code": "1002-5",
            "display": "American Indian or Alaska Native",
            "userSelected": true
          }
        }, {
          "url": "text",
          "valueString": "American Indian or Alaska Native"
        } ]
      }, {
        "url": "http://hl7.org/fhir/us/core/StructureDefinition/us-core-ethnicity",
        "extension": [ {
          "url": "ombCategory",
          "valueCoding": {
            "system": "urn:oid:2.16.840.1.113883.6.238",
            "code": "2135-2",
            "display": "Hispanic or Latino",
            "userSelected": true
          }
        }, {
          "url": "text",
          "valueString": "Hispanic or Latino"
        } ]
      } ],
      "identifier": [ {
        "system": "http://hospital.smarthealthit.org",
        "value": "999999999"
      } ],
      "name": [ {
        "family": "DENEXPass",
        "given": [ "EDInptPalliativeCare" ]
      } ],
      "gender": "male",
      "birthDate": "2005-02-01"
    },
    "request": {
      "method": "PUT",
      "url": "Patient/6bf6194c-6151-4cbe-8860-52d5566863f3"
    }
  }, {
    "fullUrl": "https://madie.cms.gov/Encounter/f9134a58-fdb0-4236-a61e-70eb5e3b8063",
    "resource": {
      "resourceType": "Encounter",
      "id": "f9134a58-fdb0-4236-a61e-70eb5e3b8063",
      "meta": {
        "profile": [ "http://hl7.org/fhir/us/qicore/StructureDefinition/qicore-encounter" ]
      },
      "status": "finished",
      "class": {
        "system": "http://terminology.hl7.org/CodeSystem/v3-ActCode",
        "code": "IMP",
        "display": "inpatient encounter"
      },
      "type": [ {
        "coding": [ {
          "system": "http://snomed.info/sct",
          "code": "183452005",
          "display": "Emergency hospital admission (procedure)",
          "userSelected": true
        } ]
      } ],
      "subject": {
        "reference": "Patient/6bf6194c-6151-4cbe-8860-52d5566863f3"
      },
      "period": {
        "start": "2026-12-28T08:00:00.000+00:00",
        "end": "2026-12-31T23:59:00.000+00:00"
      }
    },
    "request": {
      "method": "PUT",
      "url": "Encounter/f9134a58-fdb0-4236-a61e-70eb5e3b8063"
    }
  }, {
    "fullUrl": "https://madie.cms.gov/MedicationRequest/a41dcdba-b045-433b-82a3-491d73d3c9b0",
    "resource": {
      "resourceType": "MedicationRequest",
      "id": "a41dcdba-b045-433b-82a3-491d73d3c9b0",
      "meta": {
        "profile": [ "http://hl7.org/fhir/us/qicore/StructureDefinition/qicore-medicationrequest" ]
      },
      "status": "completed",
      "intent": "order",
      "category": [ {
        "coding": [ {
          "system": "http://terminology.hl7.org/CodeSystem/medicationrequest-category",
          "code": "discharge",
          "display": "Discharge",
          "userSelected": true
        } ]
      } ],
      "medicationCodeableConcept": {
        "coding": [ {
          "system": "http://www.nlm.nih.gov/research/umls/rxnorm",
          "code": "1298088",
          "display": "flurazepam hydrochloride 15 MG Oral Capsule",
          "userSelected": true
        } ]
      },
      "subject": {
        "reference": "Patient/6bf6194c-6151-4cbe-8860-52d5566863f3"
      },
      "authoredOn": "2026-12-31T12:58:00.000+00:00",
      "requester": {
        "reference": "Practitioner/40be9c7b-3d24-4a77-8bcf-ed27688f05b0"
      }
    },
    "request": {
      "method": "PUT",
      "url": "MedicationRequest/a41dcdba-b045-433b-82a3-491d73d3c9b0"
    }
  }, {
    "fullUrl": "https://madie.cms.gov/Procedure/b8961a4b-7295-46d8-adf8-ff98eb215901",
    "resource": {
      "resourceType": "Procedure",
      "id": "b8961a4b-7295-46d8-adf8-ff98eb215901",
      "meta": {
        "profile": [ "http://hl7.org/fhir/us/qicore/StructureDefinition/qicore-procedure" ]
      },
      "extension": [ {
        "url": "http://hl7.org/fhir/us/qicore/StructureDefinition/qicore-recorded",
        "valueDateTime": "2026-12-28T07:00:00.000+00:00"
      } ],
      "status": "completed",
      "code": {
        "coding": [ {
          "system": "http://snomed.info/sct",
          "code": "103735009",
          "display": "Palliative care (regime/therapy)",
          "userSelected": true
        } ]
      },
      "subject": {
        "reference": "Patient/6bf6194c-6151-4cbe-8860-52d5566863f3"
      },
      "performedDateTime": "2026-12-28T07:00:00.000+00:00"
    },
    "request": {
      "method": "PUT",
      "url": "Procedure/b8961a4b-7295-46d8-adf8-ff98eb215901"
    }
  }, {
    "fullUrl": "https://madie.cms.gov/ServiceRequest/ef07ea93-2de9-4898-a73b-bb53786ec55f",
    "resource": {
      "resourceType": "ServiceRequest",
      "id": "ef07ea93-2de9-4898-a73b-bb53786ec55f",
      "meta": {
        "profile": [ "http://hl7.org/fhir/us/qicore/StructureDefinition/qicore-servicerequest" ]
      },
      "status": "active",
      "intent": "order",
      "code": {
        "coding": [ {
          "system": "http://snomed.info/sct",
          "code": "306237005",
          "display": "Referral to palliative care service (procedure)",
          "userSelected": true
        } ]
      },
      "subject": {
        "reference": "Patient/6bf6194c-6151-4cbe-8860-52d5566863f3"
      },
      "authoredOn": "2026-12-28T05:00:00.000+00:00"
    },
    "request": {
      "method": "PUT",
      "url": "ServiceRequest/ef07ea93-2de9-4898-a73b-bb53786ec55f"
    }
  }, {
    "fullUrl": "https://madie.cms.gov/Encounter/2253eab7-f2c0-4dc3-8d72-f17f8af3c4a9",
    "resource": {
      "resourceType": "Encounter",
      "id": "2253eab7-f2c0-4dc3-8d72-f17f8af3c4a9",
      "meta": {
        "profile": [ "http://hl7.org/fhir/us/qicore/StructureDefinition/qicore-encounter" ]
      },
      "status": "finished",
      "class": {
        "system": "http://terminology.hl7.org/CodeSystem/v3-ActCode",
        "code": "EMER",
        "display": "emergency"
      },
      "type": [ {
        "coding": [ {
          "system": "http://snomed.info/sct",
          "code": "4525004",
          "display": "Emergency department patient visit (procedure)",
          "userSelected": true
        } ]
      } ],
      "subject": {
        "reference": "Patient/6bf6194c-6151-4cbe-8860-52d5566863f3"
      },
      "period": {
        "start": "2026-12-28T04:00:00.000+00:00",
        "end": "2026-12-28T08:00:00.000+00:00"
      }
    },
    "request": {
      "method": "PUT",
      "url": "Encounter/2253eab7-f2c0-4dc3-8d72-f17f8af3c4a9"
    }
  }, {
    "fullUrl": "https://madie.cms.gov/Coverage/3b272e53-9eed-404b-a24d-b3c52a3b2c69",
    "resource": {
      "resourceType": "Coverage",
      "id": "3b272e53-9eed-404b-a24d-b3c52a3b2c69",
      "meta": {
        "profile": [ "http://hl7.org/fhir/us/qicore/StructureDefinition/qicore-coverage" ]
      },
      "status": "active",
      "subscriberId": "523435",
      "beneficiary": {
        "reference": "Patient/6bf6194c-6151-4cbe-8860-52d5566863f3"
      },
      "relationship": {
        "coding": [ {
          "system": "http://terminology.hl7.org/CodeSystem/subscriber-relationship",
          "code": "self"
        } ]
      },
      "payor": [ {
        "reference": "Organization/b721af7f-0b99-44ff-b205-9897d01ffd54"
      } ]
    },
    "request": {
      "method": "PUT",
      "url": "Coverage/3b272e53-9eed-404b-a24d-b3c52a3b2c69"
    }
  }, {
    "fullUrl": "https://madie.cms.gov/Organization/b721af7f-0b99-44ff-b205-9897d01ffd54",
    "resource": {
      "resourceType": "Organization",
      "id": "b721af7f-0b99-44ff-b205-9897d01ffd54",
      "meta": {
        "profile": [ "http://hl7.org/fhir/us/qicore/StructureDefinition/qicore-organization" ]
      },
      "identifier": [ {
        "use": "temp",
        "system": "urn:oid:2.16.840.1.113883.4.4",
        "value": "21-3259825"
      } ],
      "active": true,
      "type": [ {
        "coding": [ {
          "system": "http://terminology.hl7.org/CodeSystem/organization-type",
          "code": "pay",
          "display": "Payer"
        } ]
      } ],
      "name": "Blue Cross Blue Shield of Texas",
      "telecom": [ {
        "system": "phone",
        "value": "(+1) 972-766-6900"
      } ],
      "address": [ {
        "use": "billing",
        "type": "postal",
        "line": [ "P.O. Box 660044" ],
        "city": "Dallas",
        "state": "TX",
        "postalCode": "75266-0044",
        "country": "USA"
      } ]
    },
    "request": {
      "method": "PUT",
      "url": "Organization/b721af7f-0b99-44ff-b205-9897d01ffd54"
    }
  }, {
    "fullUrl": "https://madie.cms.gov/Practitioner/40be9c7b-3d24-4a77-8bcf-ed27688f05b0",
    "resource": {
      "resourceType": "Practitioner",
      "id": "40be9c7b-3d24-4a77-8bcf-ed27688f05b0",
      "meta": {
        "profile": [ "http://hl7.org/fhir/us/qicore/StructureDefinition/qicore-practitioner" ]
      },
      "identifier": [ {
        "system": "http://hl7.org/fhir/sid/us-npi",
        "value": "9999999896"
      } ],
      "name": [ {
        "family": "Evil",
        "prefix": [ "Dr" ]
      } ]
    },
    "request": {
      "method": "PUT",
      "url": "Practitioner/40be9c7b-3d24-4a77-8bcf-ed27688f05b0"
    }
  }, {
    "fullUrl": "https://madie.cms.gov/MeasureReport/c6ebaef3-69fb-44ce-ae10-47131d069b72",
    "resource": {
      "resourceType": "MeasureReport",
      "id": "c6ebaef3-69fb-44ce-ae10-47131d069b72",
      "meta": {
        "profile": [ "http://hl7.org/fhir/us/cqfmeasures/StructureDefinition/test-case-cqfm" ]
      },
      "contained": [ {
        "resourceType": "Parameters",
        "id": "5fde8e3d-25d5-42dd-a9ff-cc3b84f7a5c4-parameters",
        "parameter": [ {
          "name": "subject",
          "valueString": "6bf6194c-6151-4cbe-8860-52d5566863f3"
        } ]
      } ],
      "extension": [ {
        "url": "http://hl7.org/fhir/StructureDefinition/cqf-inputParameters",
        "valueReference": {
          "reference": "#5fde8e3d-25d5-42dd-a9ff-cc3b84f7a5c4-parameters"
        }
      }, {
        "url": "http://hl7.org/fhir/us/cqfmeasures/StructureDefinition/cqfm-testCaseDescription",
        "valueMarkdown": "ED enc 12/28 0400-0800 (Encounter-2); inpt enc 12/28 0800- 12/31  2359 (Encounter-1); benzo order at discharge (MedicationRequest-1), palliative care order 12/28 0500 (ServiceRequest-1) and palliative care performed 12/28 0700 (Procedure-1)"
      } ],
      "modifierExtension": [ {
        "url": "http://hl7.org/fhir/us/cqfmeasures/StructureDefinition/cqfm-isTestCase",
        "valueBoolean": true
      } ],
      "status": "complete",
      "type": "individual",
      "measure": "https://madie.cms.gov/Measure/CMS506FHIRSafeUseofOpioids",
      "period": {
        "start": "2026-01-01",
        "end": "2026-12-31"
      },
      "group": [ {
        "id": "Group_1",
        "population": [ {
          "id": "InitialPopulation_1",
          "code": {
            "coding": [ {
              "system": "http://terminology.hl7.org/CodeSystem/measure-population",
              "code": "initial-population",
              "display": "Initial Population"
            } ]
          },
          "count": 1
        }, {
          "id": "Denominator_1",
          "code": {
            "coding": [ {
              "system": "http://terminology.hl7.org/CodeSystem/measure-population",
              "code": "denominator",
              "display": "Denominator"
            } ]
          },
          "count": 1
        }, {
          "id": "DenominatorExclusion_1",
          "code": {
            "coding": [ {
              "system": "http://terminology.hl7.org/CodeSystem/measure-population",
              "code": "denominator-exclusion",
              "display": "Denominator Exclusion"
            } ]
          },
          "count": 1
        }, {
          "id": "Numerator_1",
          "code": {
            "coding": [ {
              "system": "http://terminology.hl7.org/CodeSystem/measure-population",
              "code": "numerator",
              "display": "Numerator"
            } ]
          },
          "count": 0
        } ],
        "measureScore": {
          "value": 0.0
        }
      } ],
      "evaluatedResource": [ {
        "reference": "Patient/6bf6194c-6151-4cbe-8860-52d5566863f3"
      }, {
        "reference": "Encounter/f9134a58-fdb0-4236-a61e-70eb5e3b8063"
      }, {
        "reference": "MedicationRequest/a41dcdba-b045-433b-82a3-491d73d3c9b0"
      }, {
        "reference": "Procedure/b8961a4b-7295-46d8-adf8-ff98eb215901"
      }, {
        "reference": "ServiceRequest/ef07ea93-2de9-4898-a73b-bb53786ec55f"
      }, {
        "reference": "Encounter/2253eab7-f2c0-4dc3-8d72-f17f8af3c4a9"
      }, {
        "reference": "Coverage/3b272e53-9eed-404b-a24d-b3c52a3b2c69"
      }, {
        "reference": "Organization/b721af7f-0b99-44ff-b205-9897d01ffd54"
      }, {
        "reference": "Practitioner/40be9c7b-3d24-4a77-8bcf-ed27688f05b0"
      } ]
    },
    "request": {
      "method": "PUT",
      "url": "MeasureReport/c6ebaef3-69fb-44ce-ae10-47131d069b72"
    }
  } ]
}