{
  "resourceType": "Bundle",
  "id": "6356dca654e383debade75aa",
  "type": "transaction",
  "entry": [ {
    "fullUrl": "https://madie.cms.gov/Patient/6c96fedc-959a-415c-9cff-9c3ceb302c4d",
    "resource": {
      "resourceType": "Patient",
      "id": "6c96fedc-959a-415c-9cff-9c3ceb302c4d",
      "meta": {
        "profile": [ "http://hl7.org/fhir/us/qicore/StructureDefinition/qicore-patient" ]
      },
      "text": {
        "status": "generated",
        "div": "<div xmlns=\"http://www.w3.org/1999/xhtml\"><div class=\"hapiHeaderText\">EncDxEQSNOMEDShockPOAisNull<b>NUMFail</b></div><table class=\"hapiPropertyTable\"><tbody><tr><td>Date of birth</td><td><span>01 February 2004</span></td></tr></tbody></table></div>"
      },
      "extension": [ {
        "url": "http://hl7.org/fhir/us/core/StructureDefinition/us-core-race",
        "extension": [ {
          "url": "ombCategory",
          "valueCoding": {
            "system": "urn:oid:2.16.840.1.113883.6.238",
            "code": "1002-5",
            "display": "American Indian or Alaska Native",
            "userSelected": true
          }
        }, {
          "url": "text",
          "valueString": "American Indian or Alaska Native"
        } ]
      }, {
        "url": "http://hl7.org/fhir/us/core/StructureDefinition/us-core-ethnicity",
        "extension": [ {
          "url": "ombCategory",
          "valueCoding": {
            "system": "urn:oid:2.16.840.1.113883.6.238",
            "code": "2135-2",
            "display": "Hispanic or Latino",
            "userSelected": true
          }
        }, {
          "url": "text",
          "valueString": "Hispanic or Latino"
        } ]
      } ],
      "identifier": [ {
        "type": {
          "coding": [ {
            "system": "http://terminology.hl7.org/CodeSystem/v2-0203",
            "code": "MR"
          } ]
        },
        "system": "https://bonnie-fhir.healthit.gov/",
        "value": "6356dca654e383debade75aa"
      } ],
      "active": true,
      "name": [ {
        "use": "usual",
        "family": "NUMFail",
        "given": [ "EncDxEQSNOMEDShockPOAisNull" ]
      } ],
      "gender": "female",
      "birthDate": "2005-02-01"
    },
    "request": {
      "method": "PUT",
      "url": "Patient/6c96fedc-959a-415c-9cff-9c3ceb302c4d"
    }
  }, {
    "fullUrl": "https://madie.cms.gov/Observation/9caca207-2b46-4e9b-9a00-79922bc5b530",
    "resource": {
      "resourceType": "Observation",
      "id": "9caca207-2b46-4e9b-9a00-79922bc5b530",
      "meta": {
        "profile": [ "http://hl7.org/fhir/us/qicore/StructureDefinition/qicore-simple-observation" ]
      },
      "status": "final",
      "category": [ {
        "coding": [ {
          "system": "http://terminology.hl7.org/CodeSystem/observation-category",
          "code": "exam",
          "display": "exam",
          "userSelected": true
        } ]
      } ],
      "code": {
        "coding": [ {
          "system": "http://loinc.org",
          "code": "93857-1"
        } ]
      },
      "subject": {
        "reference": "Patient/6c96fedc-959a-415c-9cff-9c3ceb302c4d"
      },
      "effectiveDateTime": "2026-02-01T08:00:00.000+00:00",
      "performer": [ {
        "reference": "Organization/example1",
        "display": "Hendricks Country Hospital"
      } ],
      "valueDateTime": "2026-02-01T08:00:00.000+00:00"
    },
    "request": {
      "method": "PUT",
      "url": "Observation/9caca207-2b46-4e9b-9a00-79922bc5b530"
    }
  }, {
    "fullUrl": "https://madie.cms.gov/Observation/6e271bc5-ea27-4df6-bc5f-63407a8ffd95",
    "resource": {
      "resourceType": "Observation",
      "id": "6e271bc5-ea27-4df6-bc5f-63407a8ffd95",
      "meta": {
        "profile": [ "http://hl7.org/fhir/us/qicore/StructureDefinition/qicore-simple-observation" ]
      },
      "status": "final",
      "category": [ {
        "coding": [ {
          "system": "http://terminology.hl7.org/CodeSystem/observation-category",
          "code": "exam",
          "display": "exam",
          "userSelected": true
        } ]
      } ],
      "code": {
        "coding": [ {
          "system": "http://loinc.org",
          "code": "11884-4"
        } ]
      },
      "subject": {
        "reference": "Patient/6c96fedc-959a-415c-9cff-9c3ceb302c4d"
      },
      "effectiveDateTime": "2026-02-01T08:00:00.000+00:00",
      "performer": [ {
        "reference": "Organization/example1",
        "display": "Hendricks Country Hospital"
      } ],
      "valueQuantity": {
        "value": 21,
        "system": "http://unitsofmeasure.org",
        "code": "wk"
      }
    },
    "request": {
      "method": "PUT",
      "url": "Observation/6e271bc5-ea27-4df6-bc5f-63407a8ffd95"
    }
  }, {
    "fullUrl": "https://madie.cms.gov/Encounter/cc9f842a-ec85-42f0-a10c-c2e22af33689",
    "resource": {
      "resourceType": "Encounter",
      "id": "cc9f842a-ec85-42f0-a10c-c2e22af33689",
      "meta": {
        "profile": [ "http://hl7.org/fhir/us/qicore/StructureDefinition/qicore-encounter" ]
      },
      "status": "finished",
      "class": {
        "system": "http://terminology.hl7.org/CodeSystem/v3-ActCode",
        "code": "IMP",
        "display": "inpatient encounter"
      },
      "type": [ {
        "coding": [ {
          "system": "http://snomed.info/sct",
          "code": "183452005"
        } ]
      } ],
      "subject": {
        "reference": "Patient/6c96fedc-959a-415c-9cff-9c3ceb302c4d"
      },
      "period": {
        "start": "2026-02-01T08:00:00.000+00:00",
        "end": "2026-02-05T08:15:00.000+00:00"
      },
      "diagnosis": [ {
        "condition": {
          "reference": "Condition/a846ea02-c265-4d8a-a2df-d29c768316f5"
        }
      } ]
    },
    "request": {
      "method": "PUT",
      "url": "Encounter/cc9f842a-ec85-42f0-a10c-c2e22af33689"
    }
  }, {
    "fullUrl": "https://madie.cms.gov/Procedure/1bda8e8b-1ada-4288-a189-5dc97ec3257e",
    "resource": {
      "resourceType": "Procedure",
      "id": "1bda8e8b-1ada-4288-a189-5dc97ec3257e",
      "meta": {
        "profile": [ "http://hl7.org/fhir/us/qicore/StructureDefinition/qicore-procedure" ]
      },
      "extension": [ {
        "url": "http://hl7.org/fhir/us/qicore/StructureDefinition/qicore-recorded",
        "valueDateTime": "2014-04-05T13:35:00.000+00:00"
      } ],
      "status": "completed",
      "code": {
        "coding": [ {
          "system": "http://snomed.info/sct",
          "code": "10745001"
        } ]
      },
      "subject": {
        "reference": "Patient/6c96fedc-959a-415c-9cff-9c3ceb302c4d"
      },
      "performedPeriod": {
        "start": "2026-02-01T08:00:00.000+00:00",
        "end": "2026-02-05T08:15:00.000+00:00"
      }
    },
    "request": {
      "method": "PUT",
      "url": "Procedure/1bda8e8b-1ada-4288-a189-5dc97ec3257e"
    }
  }, {
    "fullUrl": "https://madie.cms.gov/Condition/a846ea02-c265-4d8a-a2df-d29c768316f5",
    "resource": {
      "resourceType": "Condition",
      "id": "a846ea02-c265-4d8a-a2df-d29c768316f5",
      "meta": {
        "profile": [ "http://hl7.org/fhir/us/qicore/StructureDefinition/qicore-condition" ]
      },
      "category": [ {
        "coding": [ {
          "system": "http://terminology.hl7.org/CodeSystem/condition-category",
          "code": "encounter-diagnosis",
          "display": "Encounter Diagnosis"
        } ]
      } ],
      "code": {
        "coding": [ {
          "system": "http://snomed.info/sct",
          "version": "2023",
          "code": "1092471000119105",
          "display": "Shock",
          "userSelected": true
        } ]
      },
      "subject": {
        "reference": "Patient/6c96fedc-959a-415c-9cff-9c3ceb302c4d"
      },
      "recordedDate": "2026-10-26T08:00:00.000+00:00"
    },
    "request": {
      "method": "PUT",
      "url": "Condition/a846ea02-c265-4d8a-a2df-d29c768316f5"
    }
  }, {
    "fullUrl": "https://madie.cms.gov/Coverage/f32948a3-8b48-4214-846c-4b3b4b6790ae",
    "resource": {
      "resourceType": "Coverage",
      "id": "f32948a3-8b48-4214-846c-4b3b4b6790ae",
      "meta": {
        "profile": [ "http://hl7.org/fhir/us/qicore/StructureDefinition/qicore-coverage" ]
      },
      "status": "active",
      "beneficiary": {
        "reference": "Patient/6c96fedc-959a-415c-9cff-9c3ceb302c4d"
      },
      "payor": [ {
        "reference": "Organization/1e42f638-b0ab-4f13-9d9e-fbcd31d09613"
      } ]
    },
    "request": {
      "method": "PUT",
      "url": "Coverage/f32948a3-8b48-4214-846c-4b3b4b6790ae"
    }
  }, {
    "fullUrl": "https://madie.cms.gov/Organization/1e42f638-b0ab-4f13-9d9e-fbcd31d09613",
    "resource": {
      "resourceType": "Organization",
      "id": "1e42f638-b0ab-4f13-9d9e-fbcd31d09613",
      "meta": {
        "profile": [ "http://hl7.org/fhir/us/qicore/StructureDefinition/qicore-organization" ]
      },
      "identifier": [ {
        "use": "temp",
        "system": "urn:oid:2.16.840.1.113883.4.4",
        "value": "21-3259825"
      } ],
      "active": true,
      "type": [ {
        "coding": [ {
          "system": "http://terminology.hl7.org/CodeSystem/organization-type",
          "code": "pay",
          "display": "Payer"
        } ]
      } ],
      "name": "Blue Cross Blue Shield of Texas",
      "telecom": [ {
        "system": "phone",
        "value": "(+1) 972-766-6900"
      } ],
      "address": [ {
        "use": "billing",
        "type": "postal",
        "line": [ "P.O. Box 660044" ],
        "city": "Dallas",
        "state": "TX",
        "postalCode": "75266-0044",
        "country": "USA"
      } ]
    },
    "request": {
      "method": "PUT",
      "url": "Organization/1e42f638-b0ab-4f13-9d9e-fbcd31d09613"
    }
  }, {
    "fullUrl": "https://madie.cms.gov/Practitioner/b6605815-a073-4898-9c9c-794e8a241d93",
    "resource": {
      "resourceType": "Practitioner",
      "id": "b6605815-a073-4898-9c9c-794e8a241d93",
      "identifier": [ {
        "system": "http://hl7.org/fhir/sid/us-npi",
        "value": "123456"
      } ],
      "name": [ {
        "family": "Evil",
        "prefix": [ "Dr" ]
      } ]
    },
    "request": {
      "method": "PUT",
      "url": "Practitioner/b6605815-a073-4898-9c9c-794e8a241d93"
    }
  }, {
    "fullUrl": "https://madie.cms.gov/MeasureReport/2a3c6c72-1946-4127-aaf8-13f0c29e6620",
    "resource": {
      "resourceType": "MeasureReport",
      "id": "2a3c6c72-1946-4127-aaf8-13f0c29e6620",
      "meta": {
        "profile": [ "http://hl7.org/fhir/us/cqfmeasures/StructureDefinition/test-case-cqfm" ]
      },
      "contained": [ {
        "resourceType": "Parameters",
        "id": "a650f1d1-f7e6-4fdd-96e1-376cefcd8068-parameters",
        "parameter": [ {
          "name": "subject",
          "valueString": "6c96fedc-959a-415c-9cff-9c3ceb302c4d"
        } ]
      } ],
      "extension": [ {
        "url": "http://hl7.org/fhir/StructureDefinition/cqf-inputParameters",
        "valueReference": {
          "reference": "#a650f1d1-f7e6-4fdd-96e1-376cefcd8068-parameters"
        }
      }, {
        "url": "http://hl7.org/fhir/us/cqfmeasures/StructureDefinition/cqfm-testCaseDescription",
        "valueMarkdown": "EncDx= shock.  A SNOMED code is entered and therefore case will fail as SNOMED codes are not in the value set for SMM Diagnoses.\n"
      } ],
      "modifierExtension": [ {
        "url": "http://hl7.org/fhir/us/cqfmeasures/StructureDefinition/cqfm-isTestCase",
        "valueBoolean": true
      } ],
      "status": "complete",
      "type": "individual",
      "measure": "https://madie.cms.gov/Measure/CMS1028FHIRPCSevereOBComps",
      "period": {
        "start": "2026-01-01",
        "end": "2026-12-31"
      },
      "group": [ {
        "id": "Group_1",
        "population": [ {
          "id": "InitialPopulation_1",
          "code": {
            "coding": [ {
              "system": "http://terminology.hl7.org/CodeSystem/measure-population",
              "code": "initial-population",
              "display": "Initial Population"
            } ]
          },
          "count": 1
        }, {
          "id": "Denominator_1",
          "code": {
            "coding": [ {
              "system": "http://terminology.hl7.org/CodeSystem/measure-population",
              "code": "denominator",
              "display": "Denominator"
            } ]
          },
          "count": 1
        }, {
          "id": "Numerator_1",
          "code": {
            "coding": [ {
              "system": "http://terminology.hl7.org/CodeSystem/measure-population",
              "code": "numerator",
              "display": "Numerator"
            } ]
          },
          "count": 0
        }, {
          "id": "NumeratorExclusion_1",
          "code": {
            "coding": [ {
              "system": "http://terminology.hl7.org/CodeSystem/measure-population",
              "code": "numerator-exclusion",
              "display": "Numerator Exclusion"
            } ]
          },
          "count": 0
        } ],
        "measureScore": {
          "value": 0.0
        }
      }, {
        "id": "Group_2",
        "population": [ {
          "id": "InitialPopulation_2",
          "code": {
            "coding": [ {
              "system": "http://terminology.hl7.org/CodeSystem/measure-population",
              "code": "initial-population",
              "display": "Initial Population"
            } ]
          },
          "count": 1
        }, {
          "id": "Denominator_2",
          "code": {
            "coding": [ {
              "system": "http://terminology.hl7.org/CodeSystem/measure-population",
              "code": "denominator",
              "display": "Denominator"
            } ]
          },
          "count": 1
        }, {
          "id": "Numerator_2",
          "code": {
            "coding": [ {
              "system": "http://terminology.hl7.org/CodeSystem/measure-population",
              "code": "numerator",
              "display": "Numerator"
            } ]
          },
          "count": 0
        }, {
          "id": "NumeratorExclusion_2",
          "code": {
            "coding": [ {
              "system": "http://terminology.hl7.org/CodeSystem/measure-population",
              "code": "numerator-exclusion",
              "display": "Numerator Exclusion"
            } ]
          },
          "count": 0
        } ],
        "measureScore": {
          "value": 0.0
        }
      } ],
      "evaluatedResource": [ {
        "reference": "Patient/6c96fedc-959a-415c-9cff-9c3ceb302c4d"
      }, {
        "reference": "Observation/9caca207-2b46-4e9b-9a00-79922bc5b530"
      }, {
        "reference": "Observation/6e271bc5-ea27-4df6-bc5f-63407a8ffd95"
      }, {
        "reference": "Encounter/cc9f842a-ec85-42f0-a10c-c2e22af33689"
      }, {
        "reference": "Procedure/1bda8e8b-1ada-4288-a189-5dc97ec3257e"
      }, {
        "reference": "Condition/a846ea02-c265-4d8a-a2df-d29c768316f5"
      }, {
        "reference": "Coverage/f32948a3-8b48-4214-846c-4b3b4b6790ae"
      }, {
        "reference": "Organization/1e42f638-b0ab-4f13-9d9e-fbcd31d09613"
      }, {
        "reference": "Practitioner/b6605815-a073-4898-9c9c-794e8a241d93"
      } ]
    },
    "request": {
      "method": "PUT",
      "url": "MeasureReport/2a3c6c72-1946-4127-aaf8-13f0c29e6620"
    }
  } ]
}