{
  "resourceType": "Bundle",
  "id": "tests-NumerPass-RVwithDiureticsPlanAtAdmission-bundle",
  "type": "transaction",
  "entry": [ {
    "fullUrl": "https://madie.cms.gov/Encounter/fff84df5-8dc8-47ab-9f0a-65c4ea54b8cb",
    "resource": {
      "resourceType": "Encounter",
      "id": "fff84df5-8dc8-47ab-9f0a-65c4ea54b8cb",
      "meta": {
        "profile": [ "http://hl7.org/fhir/us/qicore/StructureDefinition/qicore-encounter" ]
      },
      "status": "finished",
      "class": {
        "system": "http://terminology.hl7.org/CodeSystem/v3-ActCode",
        "code": "IMP",
        "display": "inpatient encounter"
      },
      "type": [ {
        "coding": [ {
          "system": "http://snomed.info/sct",
          "code": "183452005"
        } ]
      } ],
      "subject": {
        "reference": "Patient/55931284-058b-4776-882c-720caddd3366"
      },
      "period": {
        "start": "2026-10-19T08:30:00.000+00:00",
        "end": "2026-10-21T08:15:00.000+00:00"
      },
      "reasonCode": [ {
        "coding": [ {
          "system": "http://snomed.info/sct",
          "code": "14047009"
        } ]
      }, {
        "coding": [ {
          "system": "http://snomed.info/sct",
          "code": "64859006"
        } ]
      } ]
    },
    "request": {
      "method": "PUT",
      "url": "Encounter/fff84df5-8dc8-47ab-9f0a-65c4ea54b8cb"
    }
  }, {
    "fullUrl": "https://madie.cms.gov/Encounter/e2747884-1524-487c-b94b-472551a672c2",
    "resource": {
      "resourceType": "Encounter",
      "id": "e2747884-1524-487c-b94b-472551a672c2",
      "meta": {
        "profile": [ "http://hl7.org/fhir/us/qicore/StructureDefinition/qicore-encounter" ]
      },
      "status": "finished",
      "class": {
        "system": "http://terminology.hl7.org/CodeSystem/v3-ActCode",
        "code": "EMER",
        "display": "emergency encounter"
      },
      "type": [ {
        "coding": [ {
          "system": "http://snomed.info/sct",
          "code": "4525004"
        } ]
      } ],
      "subject": {
        "reference": "Patient/55931284-058b-4776-882c-720caddd3366"
      },
      "period": {
        "start": "2026-10-18T09:15:00.000+00:00",
        "end": "2026-10-19T08:15:00.000+00:00"
      }
    },
    "request": {
      "method": "PUT",
      "url": "Encounter/e2747884-1524-487c-b94b-472551a672c2"
    }
  }, {
    "fullUrl": "https://madie.cms.gov/Patient/55931284-058b-4776-882c-720caddd3366",
    "resource": {
      "resourceType": "Patient",
      "id": "55931284-058b-4776-882c-720caddd3366",
      "meta": {
        "profile": [ "http://hl7.org/fhir/us/qicore/StructureDefinition/qicore-patient" ]
      },
      "extension": [ {
        "url": "http://hl7.org/fhir/us/core/StructureDefinition/us-core-race",
        "extension": [ {
          "url": "ombCategory",
          "valueCoding": {
            "system": "urn:oid:2.16.840.1.113883.6.238",
            "code": "2106-3",
            "display": "White"
          }
        }, {
          "url": "text",
          "valueString": "White"
        } ]
      }, {
        "url": "http://hl7.org/fhir/us/core/StructureDefinition/us-core-ethnicity",
        "extension": [ {
          "url": "ombCategory",
          "valueCoding": {
            "system": "urn:oid:2.16.840.1.113883.6.238",
            "code": "2135-2",
            "display": "Hispanic or Latino"
          }
        }, {
          "url": "text",
          "valueString": "Hispanic or Latino"
        } ]
      }, {
        "url": "http://hl7.org/fhir/us/core/StructureDefinition/us-core-sex",
        "valueCode": "248153007"
      } ],
      "identifier": [ {
        "system": "http://hospital.smarthealthit.org",
        "value": "999999999"
      } ],
      "name": [ {
        "family": "Example",
        "given": [ "Patient" ]
      } ],
      "gender": "female",
      "birthDate": "1956-01-01"
    },
    "request": {
      "method": "PUT",
      "url": "Patient/55931284-058b-4776-882c-720caddd3366"
    }
  }, {
    "fullUrl": "https://madie.cms.gov/Claim/f32ea947-5ec2-418f-b304-f416e22a1f4a",
    "resource": {
      "resourceType": "Claim",
      "id": "f32ea947-5ec2-418f-b304-f416e22a1f4a",
      "meta": {
        "profile": [ "http://hl7.org/fhir/us/qicore/StructureDefinition/qicore-claim" ]
      },
      "status": "active",
      "type": {
        "coding": [ {
          "system": "http://terminology.hl7.org/CodeSystem/claim-type",
          "code": "institutional",
          "display": "Institutional"
        } ]
      },
      "use": "claim",
      "patient": {
        "reference": "Patient/55931284-058b-4776-882c-720caddd3366"
      },
      "created": "2026-10-22",
      "provider": {
        "reference": "Practitioner/practitioner-1"
      },
      "priority": {
        "coding": [ {
          "system": "http://terminology.hl7.org/CodeSystem/processpriority",
          "code": "normal"
        } ]
      },
      "diagnosis": [ {
        "sequence": 1,
        "diagnosisCodeableConcept": {
          "coding": [ {
            "system": "http://snomed.info/sct",
            "code": "14047009"
          } ]
        }
      } ],
      "insurance": [ {
        "sequence": 1,
        "focal": true,
        "coverage": {
          "reference": "Coverage/coverage-1"
        }
      } ],
      "item": [ {
        "sequence": 1,
        "diagnosisSequence": [ 1, 2 ],
        "productOrService": {
          "coding": [ {
            "system": "http://terminology.hl7.org/CodeSystem/ex-USCLS",
            "code": "1101"
          } ]
        },
        "encounter": [ {
          "reference": "Encounter/fff84df5-8dc8-47ab-9f0a-65c4ea54b8cb"
        } ]
      } ]
    },
    "request": {
      "method": "PUT",
      "url": "Claim/f32ea947-5ec2-418f-b304-f416e22a1f4a"
    }
  }, {
    "fullUrl": "https://madie.cms.gov/Claim/99ce9885-7bb8-4390-b295-8b2f7dae1c24",
    "resource": {
      "resourceType": "Claim",
      "id": "99ce9885-7bb8-4390-b295-8b2f7dae1c24",
      "meta": {
        "profile": [ "http://hl7.org/fhir/us/qicore/StructureDefinition/qicore-claim" ]
      },
      "status": "active",
      "type": {
        "coding": [ {
          "system": "http://terminology.hl7.org/CodeSystem/claim-type",
          "code": "institutional",
          "display": "Institutional"
        } ]
      },
      "use": "claim",
      "patient": {
        "reference": "Patient/55931284-058b-4776-882c-720caddd3366"
      },
      "created": "2026-11-01",
      "provider": {
        "reference": "Practitioner/practitioner-1"
      },
      "priority": {
        "coding": [ {
          "system": "http://terminology.hl7.org/CodeSystem/processpriority",
          "code": "normal"
        } ]
      },
      "diagnosis": [ {
        "sequence": 1,
        "diagnosisCodeableConcept": {
          "coding": [ {
            "system": "http://hl7.org/fhir/sid/icd-10-cm",
            "code": "M80.00XA",
            "display": "Age-related osteoporosis with current pathological fracture, unspecified site, initial encounter for fracture"
          } ]
        }
      } ],
      "insurance": [ {
        "sequence": 1,
        "focal": true,
        "coverage": {
          "reference": "Coverage/coverage-1"
        }
      } ],
      "item": [ {
        "sequence": 1,
        "diagnosisSequence": [ 1, 2 ],
        "productOrService": {
          "coding": [ {
            "system": "http://terminology.hl7.org/CodeSystem/ex-USCLS",
            "code": "1101"
          } ]
        },
        "encounter": [ {
          "reference": "Encounter/fff84df5-8dc8-47ab-9f0a-65c4ea54b8cb"
        } ]
      } ]
    },
    "request": {
      "method": "PUT",
      "url": "Claim/99ce9885-7bb8-4390-b295-8b2f7dae1c24"
    }
  }, {
    "fullUrl": "https://madie.cms.gov/MedicationRequest/01e712a5-eb57-4161-bb4c-38245c14a59f",
    "resource": {
      "resourceType": "MedicationRequest",
      "id": "01e712a5-eb57-4161-bb4c-38245c14a59f",
      "meta": {
        "profile": [ "http://hl7.org/fhir/us/qicore/StructureDefinition/qicore-medicationrequest" ]
      },
      "status": "active",
      "intent": "plan",
      "category": [ {
        "coding": [ {
          "system": "http://terminology.hl7.org/CodeSystem/medicationrequest-category",
          "code": "community",
          "display": "Community"
        } ]
      } ],
      "reportedReference": {
        "reference": "Patient/55931284-058b-4776-882c-720caddd3366"
      },
      "medicationCodeableConcept": {
        "coding": [ {
          "system": "http://www.nlm.nih.gov/research/umls/rxnorm",
          "code": "1251903"
        } ]
      },
      "subject": {
        "reference": "Patient/55931284-058b-4776-882c-720caddd3366"
      },
      "authoredOn": "2026-10-15",
      "requester": {
        "reference": "Practitioner/53c0f3fe-960f-4443-85ce-b11b6aa13a5d"
      },
      "dispenseRequest": {
        "quantity": {
          "value": 14,
          "unit": "tablet",
          "system": "http://unitsofmeasure.org",
          "code": "{tablet}"
        },
        "expectedSupplyDuration": {
          "value": 14,
          "unit": "days",
          "system": "http://unitsofmeasure.org",
          "code": "d"
        }
      }
    },
    "request": {
      "method": "PUT",
      "url": "MedicationRequest/01e712a5-eb57-4161-bb4c-38245c14a59f"
    }
  }, {
    "fullUrl": "https://madie.cms.gov/Practitioner/53c0f3fe-960f-4443-85ce-b11b6aa13a5d",
    "resource": {
      "resourceType": "Practitioner",
      "id": "53c0f3fe-960f-4443-85ce-b11b6aa13a5d",
      "identifier": [ {
        "system": "http://www.cms.gov/identifiers/pracitioners",
        "value": "P12345"
      } ],
      "name": [ {
        "use": "official",
        "family": "Smith",
        "given": [ "John" ]
      } ],
      "qualification": [ {
        "identifier": [ {
          "system": "http://hl7.org/fhir/sid/us-npi",
          "value": "1234567890"
        } ],
        "code": {
          "coding": [ {
            "system": "http://terminology.hl7.org/CodeSystem/v2-0203",
            "code": "MD",
            "display": "Medical License number"
          } ]
        }
      } ]
    },
    "request": {
      "method": "PUT",
      "url": "Practitioner/53c0f3fe-960f-4443-85ce-b11b6aa13a5d"
    }
  }, {
    "fullUrl": "https://madie.cms.gov/Coverage/2b9e498f-7f61-406e-8989-c4d9b2651ae9",
    "resource": {
      "resourceType": "Coverage",
      "id": "2b9e498f-7f61-406e-8989-c4d9b2651ae9",
      "status": "active",
      "beneficiary": {
        "reference": "Patient/55931284-058b-4776-882c-720caddd3366"
      },
      "payor": [ {
        "reference": "Organization/7048a89c-c11d-4b25-b2e0-4331a23a80a5"
      } ]
    },
    "request": {
      "method": "PUT",
      "url": "Coverage/2b9e498f-7f61-406e-8989-c4d9b2651ae9"
    }
  }, {
    "fullUrl": "https://madie.cms.gov/Organization/7048a89c-c11d-4b25-b2e0-4331a23a80a5",
    "resource": {
      "resourceType": "Organization",
      "id": "7048a89c-c11d-4b25-b2e0-4331a23a80a5",
      "identifier": [ {
        "system": "http://cms.gov/insurance-ids",
        "value": "AET12345"
      } ],
      "type": [ {
        "coding": [ {
          "system": "http://terminology.hl7.org/CodeSystem/organization-type",
          "code": "prov",
          "display": "Healthcare Provider"
        } ]
      } ],
      "name": "Aetna Insurance",
      "telecom": [ {
        "system": "phone",
        "value": "+1-800-123-4567"
      } ],
      "address": [ {
        "line": [ "123 Main Street" ],
        "city": "Cityville",
        "state": "CA",
        "postalCode": "12345",
        "country": "USA"
      } ]
    },
    "request": {
      "method": "PUT",
      "url": "Organization/7048a89c-c11d-4b25-b2e0-4331a23a80a5"
    }
  }, {
    "fullUrl": "https://madie.cms.gov/MeasureReport/7a7c74f8-7efb-407b-a39b-012bec4e1038",
    "resource": {
      "resourceType": "MeasureReport",
      "id": "7a7c74f8-7efb-407b-a39b-012bec4e1038",
      "meta": {
        "profile": [ "http://hl7.org/fhir/us/cqfmeasures/StructureDefinition/test-case-cqfm" ]
      },
      "contained": [ {
        "resourceType": "Parameters",
        "id": "509f29f8-9f10-47c5-b901-fcbd7c34a0bf-parameters",
        "parameter": [ {
          "name": "subject",
          "valueString": "55931284-058b-4776-882c-720caddd3366"
        } ]
      } ],
      "extension": [ {
        "url": "http://hl7.org/fhir/StructureDefinition/cqf-inputParameters",
        "valueReference": {
          "reference": "#509f29f8-9f10-47c5-b901-fcbd7c34a0bf-parameters"
        }
      }, {
        "url": "http://hl7.org/fhir/us/cqfmeasures/StructureDefinition/cqfm-testCaseDescription",
        "valueMarkdown": "RVariable Encounter With Diuretics Plan At Admission"
      } ],
      "modifierExtension": [ {
        "url": "http://hl7.org/fhir/us/cqfmeasures/StructureDefinition/cqfm-isTestCase",
        "valueBoolean": true
      } ],
      "status": "complete",
      "type": "individual",
      "measure": "https://madie.cms.gov/Measure/CMS1017FHIRHHFI",
      "period": {
        "start": "2026-01-01",
        "end": "2026-12-31"
      },
      "group": [ {
        "id": "Group_1",
        "population": [ {
          "id": "InitialPopulation_1",
          "code": {
            "coding": [ {
              "system": "http://terminology.hl7.org/CodeSystem/measure-population",
              "code": "initial-population",
              "display": "Initial Population"
            } ]
          },
          "count": 1
        }, {
          "id": "Denominator_1",
          "code": {
            "coding": [ {
              "system": "http://terminology.hl7.org/CodeSystem/measure-population",
              "code": "denominator",
              "display": "Denominator"
            } ]
          },
          "count": 1
        }, {
          "id": "DenominatorExclusion_1",
          "code": {
            "coding": [ {
              "system": "http://terminology.hl7.org/CodeSystem/measure-population",
              "code": "denominator-exclusion",
              "display": "Denominator Exclusion"
            } ]
          },
          "count": 0
        }, {
          "id": "Numerator_1",
          "code": {
            "coding": [ {
              "system": "http://terminology.hl7.org/CodeSystem/measure-population",
              "code": "numerator",
              "display": "Numerator"
            } ]
          },
          "count": 1
        }, {
          "id": "NumeratorExclusion_1",
          "code": {
            "coding": [ {
              "system": "http://terminology.hl7.org/CodeSystem/measure-population",
              "code": "numerator-exclusion",
              "display": "Numerator Exclusion"
            } ]
          },
          "count": 0
        }, {
          "id": "MeasureObservation_1_1_1",
          "code": {
            "coding": [ {
              "system": "http://terminology.hl7.org/CodeSystem/measure-population",
              "code": "measure-observation",
              "display": "Measure Observation"
            } ]
          },
          "count": 2
        }, {
          "id": "MeasureObservation_1_2_1",
          "code": {
            "coding": [ {
              "system": "http://terminology.hl7.org/CodeSystem/measure-population",
              "code": "measure-observation",
              "display": "Measure Observation"
            } ]
          },
          "count": 1
        } ],
        "measureScore": {
          "value": 0.0
        }
      } ],
      "evaluatedResource": [ {
        "reference": "Encounter/fff84df5-8dc8-47ab-9f0a-65c4ea54b8cb"
      }, {
        "reference": "Encounter/e2747884-1524-487c-b94b-472551a672c2"
      }, {
        "reference": "Patient/55931284-058b-4776-882c-720caddd3366"
      }, {
        "reference": "Claim/f32ea947-5ec2-418f-b304-f416e22a1f4a"
      }, {
        "reference": "Claim/99ce9885-7bb8-4390-b295-8b2f7dae1c24"
      }, {
        "reference": "MedicationRequest/01e712a5-eb57-4161-bb4c-38245c14a59f"
      }, {
        "reference": "Practitioner/53c0f3fe-960f-4443-85ce-b11b6aa13a5d"
      }, {
        "reference": "Coverage/2b9e498f-7f61-406e-8989-c4d9b2651ae9"
      }, {
        "reference": "Organization/7048a89c-c11d-4b25-b2e0-4331a23a80a5"
      } ]
    },
    "request": {
      "method": "PUT",
      "url": "MeasureReport/7a7c74f8-7efb-407b-a39b-012bec4e1038"
    }
  } ]
}