{
  "resourceType": "Bundle",
  "id": "62c880eb0111a60120dc21eb",
  "type": "transaction",
  "entry": [ {
    "fullUrl": "https://madie.cms.gov/Patient/4a6da772-e652-47bf-b596-d1bf4c87f8f7",
    "resource": {
      "resourceType": "Patient",
      "id": "4a6da772-e652-47bf-b596-d1bf4c87f8f7",
      "meta": {
        "profile": [ "http://hl7.org/fhir/us/qicore/StructureDefinition/qicore-patient" ]
      },
      "extension": [ {
        "url": "http://hl7.org/fhir/us/core/StructureDefinition/us-core-race",
        "extension": [ {
          "url": "ombCategory",
          "valueCoding": {
            "system": "urn:oid:2.16.840.1.113883.6.238",
            "code": "1002-5",
            "display": "American Indian or Alaska Native",
            "userSelected": true
          }
        }, {
          "url": "text",
          "valueString": "American Indian or Alaska Native"
        } ]
      }, {
        "url": "http://hl7.org/fhir/us/core/StructureDefinition/us-core-ethnicity",
        "extension": [ {
          "url": "ombCategory",
          "valueCoding": {
            "system": "urn:oid:2.16.840.1.113883.6.238",
            "code": "2135-2",
            "display": "Hispanic or Latino",
            "userSelected": true
          }
        }, {
          "url": "text",
          "valueString": "Hispanic or Latino"
        } ]
      } ],
      "identifier": [ {
        "type": {
          "coding": [ {
            "system": "http://terminology.hl7.org/CodeSystem/v2-0203",
            "code": "MR"
          } ]
        },
        "system": "https://bonnie-fhir.healthit.gov/",
        "value": "62c880eb0111a60120dc21eb"
      } ],
      "active": true,
      "name": [ {
        "use": "usual",
        "family": "DENOMPassPop1",
        "given": [ "MultEncChemo30DaysPriorAndWithinMP" ]
      } ],
      "gender": "female",
      "birthDate": "1971-02-18"
    },
    "request": {
      "method": "PUT",
      "url": "Patient/4a6da772-e652-47bf-b596-d1bf4c87f8f7"
    }
  }, {
    "fullUrl": "https://madie.cms.gov/Condition/356109a9-8776-4211-816e-97b0526b88b2",
    "resource": {
      "resourceType": "Condition",
      "id": "356109a9-8776-4211-816e-97b0526b88b2",
      "meta": {
        "profile": [ "http://hl7.org/fhir/us/qicore/StructureDefinition/qicore-condition-problems-health-concerns" ]
      },
      "clinicalStatus": {
        "coding": [ {
          "system": "http://terminology.hl7.org/CodeSystem/condition-clinical",
          "code": "active",
          "display": "active",
          "userSelected": true
        } ]
      },
      "verificationStatus": {
        "coding": [ {
          "system": "http://terminology.hl7.org/CodeSystem/condition-ver-status",
          "code": "confirmed",
          "display": "Confirmed"
        } ]
      },
      "category": [ {
        "coding": [ {
          "system": "http://terminology.hl7.org/CodeSystem/condition-category",
          "code": "encounter-diagnosis",
          "display": "Encounter Diagnosis"
        }, {
          "system": "http://terminology.hl7.org/CodeSystem/condition-category",
          "code": "problem-list-item",
          "display": "Problem List Item"
        } ]
      } ],
      "code": {
        "coding": [ {
          "system": "http://snomed.info/sct",
          "code": "107691000119101"
        }, {
          "system": "http://hl7.org/fhir/sid/icd-10-cm",
          "code": "C48.0"
        } ]
      },
      "subject": {
        "reference": "Patient/4a6da772-e652-47bf-b596-d1bf4c87f8f7"
      },
      "onsetDateTime": "2024-11-01T08:00:00.000+00:00"
    },
    "request": {
      "method": "PUT",
      "url": "Condition/356109a9-8776-4211-816e-97b0526b88b2"
    }
  }, {
    "fullUrl": "https://madie.cms.gov/Encounter/9fd045c0-fc4d-4e9f-adc2-342084f887be",
    "resource": {
      "resourceType": "Encounter",
      "id": "9fd045c0-fc4d-4e9f-adc2-342084f887be",
      "meta": {
        "profile": [ "http://hl7.org/fhir/us/qicore/StructureDefinition/qicore-encounter" ]
      },
      "status": "finished",
      "class": {
        "system": "http://terminology.hl7.org/CodeSystem/v3-ActCode",
        "code": "AMB",
        "display": "ambulatory",
        "userSelected": true
      },
      "type": [ {
        "coding": [ {
          "system": "http://snomed.info/sct",
          "code": "185463005"
        } ]
      } ],
      "subject": {
        "reference": "Patient/4a6da772-e652-47bf-b596-d1bf4c87f8f7"
      },
      "period": {
        "start": "2025-12-02T08:00:00.000+00:00",
        "end": "2025-12-02T08:15:00.000+00:00"
      }
    },
    "request": {
      "method": "PUT",
      "url": "Encounter/9fd045c0-fc4d-4e9f-adc2-342084f887be"
    }
  }, {
    "fullUrl": "https://madie.cms.gov/Encounter/588bc2d1-e4c7-4eda-9ab6-b32a8d287e5e",
    "resource": {
      "resourceType": "Encounter",
      "id": "588bc2d1-e4c7-4eda-9ab6-b32a8d287e5e",
      "meta": {
        "profile": [ "http://hl7.org/fhir/us/qicore/StructureDefinition/qicore-encounter" ]
      },
      "status": "finished",
      "class": {
        "system": "http://terminology.hl7.org/CodeSystem/v3-ActCode",
        "code": "AMB",
        "display": "ambulatory",
        "userSelected": true
      },
      "type": [ {
        "coding": [ {
          "system": "http://snomed.info/sct",
          "code": "185463005"
        } ]
      } ],
      "subject": {
        "reference": "Patient/4a6da772-e652-47bf-b596-d1bf4c87f8f7"
      },
      "period": {
        "start": "2026-01-06T08:00:00.000+00:00",
        "end": "2026-01-06T08:15:00.000+00:00"
      }
    },
    "request": {
      "method": "PUT",
      "url": "Encounter/588bc2d1-e4c7-4eda-9ab6-b32a8d287e5e"
    }
  }, {
    "fullUrl": "https://madie.cms.gov/Coverage/e3f93d76-e47a-4123-8030-4c71d9d2e219",
    "resource": {
      "resourceType": "Coverage",
      "id": "e3f93d76-e47a-4123-8030-4c71d9d2e219",
      "meta": {
        "profile": [ "http://hl7.org/fhir/us/qicore/StructureDefinition/qicore-coverage" ]
      },
      "status": "active",
      "beneficiary": {
        "reference": "Patient/4a6da772-e652-47bf-b596-d1bf4c87f8f7"
      },
      "period": {
        "start": "1971-02-18T08:00:00.000+00:00"
      },
      "payor": [ {
        "reference": "Organization/40e991c5-ce40-48e5-b1de-5d03f6f6298c"
      } ]
    },
    "request": {
      "method": "PUT",
      "url": "Coverage/e3f93d76-e47a-4123-8030-4c71d9d2e219"
    }
  }, {
    "fullUrl": "https://madie.cms.gov/Procedure/24ba84d3-f3b2-48b8-b605-6505d04dd198",
    "resource": {
      "resourceType": "Procedure",
      "id": "24ba84d3-f3b2-48b8-b605-6505d04dd198",
      "meta": {
        "profile": [ "http://hl7.org/fhir/us/qicore/StructureDefinition/qicore-procedure" ]
      },
      "extension": [ {
        "url": "http://hl7.org/fhir/us/qicore/StructureDefinition/qicore-recorded",
        "valueDateTime": "2025-12-02T12:35:00.000+00:00"
      } ],
      "status": "completed",
      "code": {
        "coding": [ {
          "system": "http://snomed.info/sct",
          "code": "169396008"
        } ]
      },
      "subject": {
        "reference": "Patient/4a6da772-e652-47bf-b596-d1bf4c87f8f7"
      },
      "performedPeriod": {
        "start": "2025-12-02T08:00:00.000+00:00",
        "end": "2025-12-02T08:15:00.000+00:00"
      }
    },
    "request": {
      "method": "PUT",
      "url": "Procedure/24ba84d3-f3b2-48b8-b605-6505d04dd198"
    }
  }, {
    "fullUrl": "https://madie.cms.gov/Procedure/e4a8f18a-a966-4a29-91d8-e7f5ed010d15",
    "resource": {
      "resourceType": "Procedure",
      "id": "e4a8f18a-a966-4a29-91d8-e7f5ed010d15",
      "meta": {
        "profile": [ "http://hl7.org/fhir/us/qicore/StructureDefinition/qicore-procedure" ]
      },
      "extension": [ {
        "url": "http://hl7.org/fhir/us/qicore/StructureDefinition/qicore-recorded",
        "valueDateTime": "2025-12-31T12:35:00.000+00:00"
      } ],
      "status": "completed",
      "code": {
        "coding": [ {
          "system": "http://snomed.info/sct",
          "code": "169396008"
        } ]
      },
      "subject": {
        "reference": "Patient/4a6da772-e652-47bf-b596-d1bf4c87f8f7"
      },
      "performedPeriod": {
        "start": "2025-12-31T08:00:00.000+00:00",
        "end": "2025-12-31T08:15:00.000+00:00"
      }
    },
    "request": {
      "method": "PUT",
      "url": "Procedure/e4a8f18a-a966-4a29-91d8-e7f5ed010d15"
    }
  }, {
    "fullUrl": "https://madie.cms.gov/Procedure/bc24040c-9de4-4a3c-bccb-cee26c905e19",
    "resource": {
      "resourceType": "Procedure",
      "id": "bc24040c-9de4-4a3c-bccb-cee26c905e19",
      "meta": {
        "profile": [ "http://hl7.org/fhir/us/qicore/StructureDefinition/qicore-procedure" ]
      },
      "extension": [ {
        "url": "http://hl7.org/fhir/us/qicore/StructureDefinition/qicore-recorded",
        "valueDateTime": "2025-12-09T12:35:00.000+00:00"
      } ],
      "status": "completed",
      "code": {
        "coding": [ {
          "system": "http://snomed.info/sct",
          "code": "169396008"
        } ]
      },
      "subject": {
        "reference": "Patient/4a6da772-e652-47bf-b596-d1bf4c87f8f7"
      },
      "performedPeriod": {
        "start": "2025-12-09T08:00:00.000+00:00",
        "end": "2025-12-09T08:15:00.000+00:00"
      }
    },
    "request": {
      "method": "PUT",
      "url": "Procedure/bc24040c-9de4-4a3c-bccb-cee26c905e19"
    }
  }, {
    "fullUrl": "https://madie.cms.gov/Procedure/79f6d102-6036-4dd8-bca4-ef287293b924",
    "resource": {
      "resourceType": "Procedure",
      "id": "79f6d102-6036-4dd8-bca4-ef287293b924",
      "meta": {
        "profile": [ "http://hl7.org/fhir/us/qicore/StructureDefinition/qicore-procedure" ]
      },
      "extension": [ {
        "url": "http://hl7.org/fhir/us/qicore/StructureDefinition/qicore-recorded",
        "valueDateTime": "2025-12-16T12:35:00.000+00:00"
      } ],
      "status": "completed",
      "code": {
        "coding": [ {
          "system": "http://snomed.info/sct",
          "code": "169396008"
        } ]
      },
      "subject": {
        "reference": "Patient/4a6da772-e652-47bf-b596-d1bf4c87f8f7"
      },
      "performedPeriod": {
        "start": "2025-12-16T08:00:00.000+00:00",
        "end": "2025-12-16T08:15:00.000+00:00"
      }
    },
    "request": {
      "method": "PUT",
      "url": "Procedure/79f6d102-6036-4dd8-bca4-ef287293b924"
    }
  }, {
    "fullUrl": "https://madie.cms.gov/Procedure/8dcd0b12-4bb6-4060-977c-b57a40c58462",
    "resource": {
      "resourceType": "Procedure",
      "id": "8dcd0b12-4bb6-4060-977c-b57a40c58462",
      "meta": {
        "profile": [ "http://hl7.org/fhir/us/qicore/StructureDefinition/qicore-procedure" ]
      },
      "extension": [ {
        "url": "http://hl7.org/fhir/us/qicore/StructureDefinition/qicore-recorded",
        "valueDateTime": "2025-12-23T12:35:00.000+00:00"
      } ],
      "status": "completed",
      "code": {
        "coding": [ {
          "system": "http://snomed.info/sct",
          "code": "169396008"
        } ]
      },
      "subject": {
        "reference": "Patient/4a6da772-e652-47bf-b596-d1bf4c87f8f7"
      },
      "performedPeriod": {
        "start": "2025-12-23T08:00:00.000+00:00",
        "end": "2025-12-23T08:15:00.000+00:00"
      }
    },
    "request": {
      "method": "PUT",
      "url": "Procedure/8dcd0b12-4bb6-4060-977c-b57a40c58462"
    }
  }, {
    "fullUrl": "https://madie.cms.gov/Procedure/26f73100-fcca-45d0-9d61-f4798efcd15c",
    "resource": {
      "resourceType": "Procedure",
      "id": "26f73100-fcca-45d0-9d61-f4798efcd15c",
      "meta": {
        "profile": [ "http://hl7.org/fhir/us/qicore/StructureDefinition/qicore-procedure" ]
      },
      "extension": [ {
        "url": "http://hl7.org/fhir/us/qicore/StructureDefinition/qicore-recorded",
        "valueDateTime": "2026-01-06T12:35:00.000+00:00"
      } ],
      "status": "completed",
      "code": {
        "coding": [ {
          "system": "http://snomed.info/sct",
          "code": "169396008"
        } ]
      },
      "subject": {
        "reference": "Patient/4a6da772-e652-47bf-b596-d1bf4c87f8f7"
      },
      "performedPeriod": {
        "start": "2026-01-06T08:00:00.000+00:00",
        "end": "2026-01-06T08:15:00.000+00:00"
      }
    },
    "request": {
      "method": "PUT",
      "url": "Procedure/26f73100-fcca-45d0-9d61-f4798efcd15c"
    }
  }, {
    "fullUrl": "https://madie.cms.gov/Organization/40e991c5-ce40-48e5-b1de-5d03f6f6298c",
    "resource": {
      "resourceType": "Organization",
      "id": "40e991c5-ce40-48e5-b1de-5d03f6f6298c",
      "meta": {
        "profile": [ "http://hl7.org/fhir/us/qicore/StructureDefinition/qicore-organization" ]
      },
      "identifier": [ {
        "use": "temp",
        "system": "urn:oid:2.16.840.1.113883.4.4",
        "value": "21-3259825"
      } ],
      "active": true,
      "type": [ {
        "coding": [ {
          "system": "http://terminology.hl7.org/CodeSystem/organization-type",
          "code": "pay",
          "display": "Payer"
        } ]
      } ],
      "name": "Blue Cross Blue Shield of Texas",
      "telecom": [ {
        "system": "phone",
        "value": "(+1) 972-766-6900"
      } ],
      "address": [ {
        "use": "billing",
        "type": "postal",
        "line": [ "P.O. Box 660044" ],
        "city": "Dallas",
        "state": "TX",
        "postalCode": "75266-0044",
        "country": "USA"
      } ]
    },
    "request": {
      "method": "PUT",
      "url": "Organization/40e991c5-ce40-48e5-b1de-5d03f6f6298c"
    }
  }, {
    "fullUrl": "https://madie.cms.gov/MeasureReport/b35e8c16-e9b6-44fe-ae38-5f576aba398d",
    "resource": {
      "resourceType": "MeasureReport",
      "id": "b35e8c16-e9b6-44fe-ae38-5f576aba398d",
      "meta": {
        "profile": [ "http://hl7.org/fhir/us/cqfmeasures/StructureDefinition/test-case-cqfm" ]
      },
      "contained": [ {
        "resourceType": "Parameters",
        "id": "499b946c-f85d-4f72-9754-809520e8f3cf-parameters",
        "parameter": [ {
          "name": "subject",
          "valueString": "4a6da772-e652-47bf-b596-d1bf4c87f8f7"
        } ]
      } ],
      "extension": [ {
        "url": "http://hl7.org/fhir/StructureDefinition/cqf-inputParameters",
        "valueReference": {
          "reference": "#499b946c-f85d-4f72-9754-809520e8f3cf-parameters"
        }
      }, {
        "url": "http://hl7.org/fhir/us/cqfmeasures/StructureDefinition/cqfm-testCaseDescription",
        "valueMarkdown": "Patient with cancer diagnosis that overlaps the office visits. Has office visit and chemo within 30 days prior to the measurement period, and another office visit and chemo within measurement period. "
      } ],
      "modifierExtension": [ {
        "url": "http://hl7.org/fhir/us/cqfmeasures/StructureDefinition/cqfm-isTestCase",
        "valueBoolean": true
      } ],
      "status": "complete",
      "type": "individual",
      "measure": "https://madie.cms.gov/Measure/CMS157FHIRPainIntensityQuantified",
      "period": {
        "start": "2026-01-01",
        "end": "2026-12-31"
      },
      "group": [ {
        "id": "Group_1",
        "population": [ {
          "id": "InitialPopulation_1",
          "code": {
            "coding": [ {
              "system": "http://terminology.hl7.org/CodeSystem/measure-population",
              "code": "initial-population",
              "display": "Initial Population"
            } ]
          },
          "count": 1
        }, {
          "id": "Denominator_1",
          "code": {
            "coding": [ {
              "system": "http://terminology.hl7.org/CodeSystem/measure-population",
              "code": "denominator",
              "display": "Denominator"
            } ]
          },
          "count": 1
        }, {
          "id": "Numerator_1",
          "code": {
            "coding": [ {
              "system": "http://terminology.hl7.org/CodeSystem/measure-population",
              "code": "numerator",
              "display": "Numerator"
            } ]
          },
          "count": 0
        } ],
        "measureScore": {
          "value": 0.0
        }
      }, {
        "id": "Group_2",
        "population": [ {
          "id": "InitialPopulation_2",
          "code": {
            "coding": [ {
              "system": "http://terminology.hl7.org/CodeSystem/measure-population",
              "code": "initial-population",
              "display": "Initial Population"
            } ]
          },
          "count": 0
        }, {
          "id": "Denominator_2",
          "code": {
            "coding": [ {
              "system": "http://terminology.hl7.org/CodeSystem/measure-population",
              "code": "denominator",
              "display": "Denominator"
            } ]
          },
          "count": 0
        }, {
          "id": "Numerator_2",
          "code": {
            "coding": [ {
              "system": "http://terminology.hl7.org/CodeSystem/measure-population",
              "code": "numerator",
              "display": "Numerator"
            } ]
          },
          "count": 0
        } ],
        "measureScore": {
          "value": 0.0
        }
      } ],
      "evaluatedResource": [ {
        "reference": "Patient/4a6da772-e652-47bf-b596-d1bf4c87f8f7"
      }, {
        "reference": "Condition/356109a9-8776-4211-816e-97b0526b88b2"
      }, {
        "reference": "Encounter/9fd045c0-fc4d-4e9f-adc2-342084f887be"
      }, {
        "reference": "Encounter/588bc2d1-e4c7-4eda-9ab6-b32a8d287e5e"
      }, {
        "reference": "Coverage/e3f93d76-e47a-4123-8030-4c71d9d2e219"
      }, {
        "reference": "Procedure/24ba84d3-f3b2-48b8-b605-6505d04dd198"
      }, {
        "reference": "Procedure/e4a8f18a-a966-4a29-91d8-e7f5ed010d15"
      }, {
        "reference": "Procedure/bc24040c-9de4-4a3c-bccb-cee26c905e19"
      }, {
        "reference": "Procedure/79f6d102-6036-4dd8-bca4-ef287293b924"
      }, {
        "reference": "Procedure/8dcd0b12-4bb6-4060-977c-b57a40c58462"
      }, {
        "reference": "Procedure/26f73100-fcca-45d0-9d61-f4798efcd15c"
      }, {
        "reference": "Organization/40e991c5-ce40-48e5-b1de-5d03f6f6298c"
      } ]
    },
    "request": {
      "method": "PUT",
      "url": "MeasureReport/b35e8c16-e9b6-44fe-ae38-5f576aba398d"
    }
  } ]
}