{
  "resourceType": "Bundle",
  "id": "633b3f9e0968f80122503cd5",
  "type": "transaction",
  "entry": [ {
    "fullUrl": "https://madie.cms.gov/Patient/251abdd8-fbd3-47ab-a7f8-35180c67491d",
    "resource": {
      "resourceType": "Patient",
      "id": "251abdd8-fbd3-47ab-a7f8-35180c67491d",
      "meta": {
        "profile": [ "http://hl7.org/fhir/us/qicore/StructureDefinition/qicore-patient" ]
      },
      "text": {
        "status": "generated",
        "div": "<div xmlns=\"http://www.w3.org/1999/xhtml\"><div class=\"hapiHeaderText\">EDDRelvTm1MinAftDelRsltDtTm<b>DENOMFAIL</b></div><table class=\"hapiPropertyTable\"><tbody><tr><td>Date of birth</td><td><span>01 February 2004</span></td></tr></tbody></table></div>"
      },
      "extension": [ {
        "url": "http://hl7.org/fhir/us/core/StructureDefinition/us-core-race",
        "extension": [ {
          "url": "ombCategory",
          "valueCoding": {
            "system": "urn:oid:2.16.840.1.113883.6.238",
            "code": "1002-5",
            "display": "American Indian or Alaska Native",
            "userSelected": true
          }
        }, {
          "url": "text",
          "valueString": "American Indian or Alaska Native"
        } ]
      }, {
        "url": "http://hl7.org/fhir/us/core/StructureDefinition/us-core-ethnicity",
        "extension": [ {
          "url": "ombCategory",
          "valueCoding": {
            "system": "urn:oid:2.16.840.1.113883.6.238",
            "code": "2135-2",
            "display": "Hispanic or Latino",
            "userSelected": true
          }
        }, {
          "url": "text",
          "valueString": "Hispanic or Latino"
        } ]
      } ],
      "identifier": [ {
        "type": {
          "coding": [ {
            "system": "http://terminology.hl7.org/CodeSystem/v2-0203",
            "code": "MR"
          } ]
        },
        "system": "https://bonnie-fhir.healthit.gov/",
        "value": "633b3f9e0968f80122503cd5"
      } ],
      "active": true,
      "name": [ {
        "use": "usual",
        "family": "DENOMFail",
        "given": [ "EDDRelvTm1MinAftDelRsltDtTm" ]
      } ],
      "gender": "female",
      "birthDate": "2005-02-01"
    },
    "request": {
      "method": "PUT",
      "url": "Patient/251abdd8-fbd3-47ab-a7f8-35180c67491d"
    }
  }, {
    "fullUrl": "https://madie.cms.gov/Observation/cd3208b6-ce91-48d0-a9a8-92923bb5fa28",
    "resource": {
      "resourceType": "Observation",
      "id": "cd3208b6-ce91-48d0-a9a8-92923bb5fa28",
      "meta": {
        "profile": [ "http://hl7.org/fhir/us/qicore/StructureDefinition/qicore-simple-observation" ]
      },
      "status": "final",
      "category": [ {
        "coding": [ {
          "system": "http://terminology.hl7.org/CodeSystem/observation-category",
          "code": "exam",
          "display": "exam",
          "userSelected": true
        } ]
      } ],
      "code": {
        "coding": [ {
          "system": "http://loinc.org",
          "code": "93857-1"
        } ]
      },
      "subject": {
        "reference": "Patient/251abdd8-fbd3-47ab-a7f8-35180c67491d"
      },
      "effectiveDateTime": "2026-02-01T08:00:00.000+00:00",
      "performer": [ {
        "reference": "Organization/example1",
        "display": "Hendricks Country Hospital"
      } ],
      "valueDateTime": "2026-02-01T08:00:00.000+00:00"
    },
    "request": {
      "method": "PUT",
      "url": "Observation/cd3208b6-ce91-48d0-a9a8-92923bb5fa28"
    }
  }, {
    "fullUrl": "https://madie.cms.gov/Observation/1dbd2aef-6e19-47f3-847a-3a7d0ff49dcc",
    "resource": {
      "resourceType": "Observation",
      "id": "1dbd2aef-6e19-47f3-847a-3a7d0ff49dcc",
      "meta": {
        "profile": [ "http://hl7.org/fhir/us/qicore/StructureDefinition/qicore-simple-observation" ]
      },
      "status": "final",
      "category": [ {
        "coding": [ {
          "system": "http://terminology.hl7.org/CodeSystem/observation-category",
          "code": "exam",
          "display": "exam",
          "userSelected": true
        } ]
      } ],
      "code": {
        "coding": [ {
          "system": "http://loinc.org",
          "code": "11778-8"
        } ]
      },
      "subject": {
        "reference": "Patient/251abdd8-fbd3-47ab-a7f8-35180c67491d"
      },
      "effectiveDateTime": "2026-02-01T08:01:00.000+00:00",
      "performer": [ {
        "reference": "Organization/example1",
        "display": "Hendricks Country Hospital"
      } ],
      "valueDateTime": "2026-02-01T08:00:00.000+00:00"
    },
    "request": {
      "method": "PUT",
      "url": "Observation/1dbd2aef-6e19-47f3-847a-3a7d0ff49dcc"
    }
  }, {
    "fullUrl": "https://madie.cms.gov/Encounter/222f8a0b-0f42-4acc-9c60-3d065274ccde",
    "resource": {
      "resourceType": "Encounter",
      "id": "222f8a0b-0f42-4acc-9c60-3d065274ccde",
      "meta": {
        "profile": [ "http://hl7.org/fhir/us/qicore/StructureDefinition/qicore-encounter" ]
      },
      "status": "finished",
      "class": {
        "system": "http://terminology.hl7.org/CodeSystem/v3-ActCode",
        "code": "IMP",
        "display": "inpatient encounter"
      },
      "type": [ {
        "coding": [ {
          "system": "http://snomed.info/sct",
          "code": "183452005"
        } ]
      } ],
      "subject": {
        "reference": "Patient/251abdd8-fbd3-47ab-a7f8-35180c67491d"
      },
      "period": {
        "start": "2026-02-01T08:00:00.000+00:00",
        "end": "2026-02-05T08:15:00.000+00:00"
      },
      "reasonCode": [ {
        "coding": [ {
          "system": "http://snomed.info/sct",
          "code": "169826009",
          "display": "Single live birth from singleton pregnancy (finding)"
        } ]
      } ]
    },
    "request": {
      "method": "PUT",
      "url": "Encounter/222f8a0b-0f42-4acc-9c60-3d065274ccde"
    }
  }, {
    "fullUrl": "https://madie.cms.gov/Coverage/27c8d887-a269-410e-ad79-46144453adad",
    "resource": {
      "resourceType": "Coverage",
      "id": "27c8d887-a269-410e-ad79-46144453adad",
      "status": "active",
      "subscriberId": "523435",
      "beneficiary": {
        "reference": "Patient/251abdd8-fbd3-47ab-a7f8-35180c67491d"
      },
      "relationship": {
        "coding": [ {
          "system": "http://terminology.hl7.org/CodeSystem/subscriber-relationship",
          "code": "self"
        } ]
      },
      "period": {
        "start": "2005-02-01T08:00:00.000+00:00"
      },
      "payor": [ {
        "reference": "Organization/64460913-1c27-4e01-99aa-0bd5f8a722f8"
      } ]
    },
    "request": {
      "method": "PUT",
      "url": "Coverage/27c8d887-a269-410e-ad79-46144453adad"
    }
  }, {
    "fullUrl": "https://madie.cms.gov/Procedure/bd8e25e0-235c-47c7-9f64-14e2c6a32f78",
    "resource": {
      "resourceType": "Procedure",
      "id": "bd8e25e0-235c-47c7-9f64-14e2c6a32f78",
      "meta": {
        "profile": [ "http://hl7.org/fhir/us/qicore/StructureDefinition/qicore-procedure" ]
      },
      "extension": [ {
        "url": "http://hl7.org/fhir/us/qicore/StructureDefinition/qicore-recorded",
        "valueDateTime": "2014-04-05T13:35:00.000+00:00"
      } ],
      "status": "completed",
      "code": {
        "coding": [ {
          "system": "http://snomed.info/sct",
          "code": "10745001"
        } ]
      },
      "subject": {
        "reference": "Patient/251abdd8-fbd3-47ab-a7f8-35180c67491d"
      },
      "performedPeriod": {
        "start": "2026-02-01T08:00:00.000+00:00",
        "end": "2026-02-05T08:15:00.000+00:00"
      }
    },
    "request": {
      "method": "PUT",
      "url": "Procedure/bd8e25e0-235c-47c7-9f64-14e2c6a32f78"
    }
  }, {
    "fullUrl": "https://madie.cms.gov/Organization/64460913-1c27-4e01-99aa-0bd5f8a722f8",
    "resource": {
      "resourceType": "Organization",
      "id": "64460913-1c27-4e01-99aa-0bd5f8a722f8",
      "meta": {
        "profile": [ "http://hl7.org/fhir/us/qicore/StructureDefinition/qicore-organization" ]
      },
      "identifier": [ {
        "use": "temp",
        "system": "urn:oid:2.16.840.1.113883.4.4",
        "value": "21-3259825"
      } ],
      "active": true,
      "type": [ {
        "coding": [ {
          "system": "http://terminology.hl7.org/CodeSystem/organization-type",
          "code": "pay",
          "display": "Payer"
        } ]
      } ],
      "name": "Blue Cross Blue Shield of Texas",
      "telecom": [ {
        "system": "phone",
        "value": "(+1) 972-766-6900"
      } ],
      "address": [ {
        "use": "billing",
        "type": "postal",
        "line": [ "P.O. Box 660044" ],
        "city": "Dallas",
        "state": "TX",
        "postalCode": "75266-0044",
        "country": "USA"
      } ]
    },
    "request": {
      "method": "PUT",
      "url": "Organization/64460913-1c27-4e01-99aa-0bd5f8a722f8"
    }
  }, {
    "fullUrl": "https://madie.cms.gov/Practitioner/b034cb7e-c214-4932-95e7-82191bc20719",
    "resource": {
      "resourceType": "Practitioner",
      "id": "b034cb7e-c214-4932-95e7-82191bc20719",
      "meta": {
        "profile": [ "http://hl7.org/fhir/us/qicore/StructureDefinition/qicore-practitioner" ]
      },
      "identifier": [ {
        "system": "http://hl7.org/fhir/sid/us-npi",
        "value": "1234567890"
      } ],
      "name": [ {
        "family": "Evil",
        "prefix": [ "Dr" ]
      } ]
    },
    "request": {
      "method": "PUT",
      "url": "Practitioner/b034cb7e-c214-4932-95e7-82191bc20719"
    }
  }, {
    "fullUrl": "https://madie.cms.gov/MeasureReport/77834f4e-7000-4e53-b51e-ce7d3636f6f7",
    "resource": {
      "resourceType": "MeasureReport",
      "id": "77834f4e-7000-4e53-b51e-ce7d3636f6f7",
      "meta": {
        "profile": [ "http://hl7.org/fhir/us/cqfmeasures/StructureDefinition/test-case-cqfm" ]
      },
      "contained": [ {
        "resourceType": "Parameters",
        "id": "4fcdb58d-3bed-4c3f-9b50-aade3d229ba1-parameters",
        "parameter": [ {
          "name": "subject",
          "valueString": "251abdd8-fbd3-47ab-a7f8-35180c67491d"
        } ]
      } ],
      "extension": [ {
        "url": "http://hl7.org/fhir/StructureDefinition/cqf-inputParameters",
        "valueReference": {
          "reference": "#4fcdb58d-3bed-4c3f-9b50-aade3d229ba1-parameters"
        }
      }, {
        "url": "http://hl7.org/fhir/us/cqfmeasures/StructureDefinition/cqfm-testCaseDescription",
        "valueMarkdown": "Estimated Delivery Date, Relevant time, 1 min after Delivery Result Date/Time\n"
      } ],
      "modifierExtension": [ {
        "url": "http://hl7.org/fhir/us/cqfmeasures/StructureDefinition/cqfm-isTestCase",
        "valueBoolean": true
      } ],
      "status": "complete",
      "type": "individual",
      "measure": "https://madie.cms.gov/Measure/CMS1028FHIRPCSevereOBComps",
      "period": {
        "start": "2026-01-01",
        "end": "2026-12-31"
      },
      "group": [ {
        "id": "Group_1",
        "population": [ {
          "id": "InitialPopulation_1",
          "code": {
            "coding": [ {
              "system": "http://terminology.hl7.org/CodeSystem/measure-population",
              "code": "initial-population",
              "display": "Initial Population"
            } ]
          },
          "count": 1
        }, {
          "id": "Denominator_1",
          "code": {
            "coding": [ {
              "system": "http://terminology.hl7.org/CodeSystem/measure-population",
              "code": "denominator",
              "display": "Denominator"
            } ]
          },
          "count": 0
        }, {
          "id": "Numerator_1",
          "code": {
            "coding": [ {
              "system": "http://terminology.hl7.org/CodeSystem/measure-population",
              "code": "numerator",
              "display": "Numerator"
            } ]
          },
          "count": 0
        }, {
          "id": "NumeratorExclusion_1",
          "code": {
            "coding": [ {
              "system": "http://terminology.hl7.org/CodeSystem/measure-population",
              "code": "numerator-exclusion",
              "display": "Numerator Exclusion"
            } ]
          },
          "count": 0
        } ],
        "measureScore": {
          "value": 0.0
        }
      }, {
        "id": "Group_2",
        "population": [ {
          "id": "InitialPopulation_2",
          "code": {
            "coding": [ {
              "system": "http://terminology.hl7.org/CodeSystem/measure-population",
              "code": "initial-population",
              "display": "Initial Population"
            } ]
          },
          "count": 1
        }, {
          "id": "Denominator_2",
          "code": {
            "coding": [ {
              "system": "http://terminology.hl7.org/CodeSystem/measure-population",
              "code": "denominator",
              "display": "Denominator"
            } ]
          },
          "count": 0
        }, {
          "id": "Numerator_2",
          "code": {
            "coding": [ {
              "system": "http://terminology.hl7.org/CodeSystem/measure-population",
              "code": "numerator",
              "display": "Numerator"
            } ]
          },
          "count": 0
        }, {
          "id": "NumeratorExclusion_2",
          "code": {
            "coding": [ {
              "system": "http://terminology.hl7.org/CodeSystem/measure-population",
              "code": "numerator-exclusion",
              "display": "Numerator Exclusion"
            } ]
          },
          "count": 0
        } ],
        "measureScore": {
          "value": 0.0
        }
      } ],
      "evaluatedResource": [ {
        "reference": "Patient/251abdd8-fbd3-47ab-a7f8-35180c67491d"
      }, {
        "reference": "Observation/cd3208b6-ce91-48d0-a9a8-92923bb5fa28"
      }, {
        "reference": "Observation/1dbd2aef-6e19-47f3-847a-3a7d0ff49dcc"
      }, {
        "reference": "Encounter/222f8a0b-0f42-4acc-9c60-3d065274ccde"
      }, {
        "reference": "Coverage/27c8d887-a269-410e-ad79-46144453adad"
      }, {
        "reference": "Procedure/bd8e25e0-235c-47c7-9f64-14e2c6a32f78"
      }, {
        "reference": "Organization/64460913-1c27-4e01-99aa-0bd5f8a722f8"
      }, {
        "reference": "Practitioner/b034cb7e-c214-4932-95e7-82191bc20719"
      } ]
    },
    "request": {
      "method": "PUT",
      "url": "MeasureReport/77834f4e-7000-4e53-b51e-ce7d3636f6f7"
    }
  } ]
}