{
  "resourceType": "Bundle",
  "id": "tests-RiskVarPassFirstFirstCreatinine-bundle",
  "type": "transaction",
  "entry": [ {
    "fullUrl": "https://madie.cms.gov/Encounter/f2137df5-c0a0-4d8c-b83d-6c5539c41a51",
    "resource": {
      "resourceType": "Encounter",
      "id": "f2137df5-c0a0-4d8c-b83d-6c5539c41a51",
      "meta": {
        "profile": [ "http://hl7.org/fhir/us/qicore/StructureDefinition/qicore-encounter" ]
      },
      "status": "finished",
      "class": {
        "system": "http://terminology.hl7.org/CodeSystem/v3-ActCode",
        "code": "IMP",
        "display": "inpatient encounter"
      },
      "type": [ {
        "coding": [ {
          "system": "http://snomed.info/sct",
          "code": "112689000",
          "display": "Hospital admission, elective, with complete pre-admission work-up"
        } ],
        "text": "Hospital admission, elective, with complete pre-admission work-up"
      } ],
      "priority": {
        "coding": [ {
          "system": "http://snomed.info/sct",
          "code": "103390000"
        } ]
      },
      "subject": {
        "reference": "Patient/683be14a-90bc-41bd-a96b-6a1297f5f42e"
      },
      "period": {
        "start": "2026-04-10T08:00:00.000+00:00",
        "end": "2026-04-14T08:15:00.000+00:00"
      }
    },
    "request": {
      "method": "PUT",
      "url": "Encounter/f2137df5-c0a0-4d8c-b83d-6c5539c41a51"
    }
  }, {
    "fullUrl": "https://madie.cms.gov/Patient/683be14a-90bc-41bd-a96b-6a1297f5f42e",
    "resource": {
      "resourceType": "Patient",
      "id": "683be14a-90bc-41bd-a96b-6a1297f5f42e",
      "meta": {
        "profile": [ "http://hl7.org/fhir/us/qicore/StructureDefinition/qicore-patient" ]
      },
      "extension": [ {
        "url": "http://hl7.org/fhir/us/core/StructureDefinition/us-core-race",
        "extension": [ {
          "url": "ombCategory",
          "valueCoding": {
            "system": "urn:oid:2.16.840.1.113883.6.238",
            "code": "2054-5",
            "display": "Black or African American",
            "userSelected": true
          }
        }, {
          "url": "text",
          "valueString": "Black or African American"
        } ]
      }, {
        "url": "http://hl7.org/fhir/us/core/StructureDefinition/us-core-ethnicity",
        "extension": [ {
          "url": "ombCategory",
          "valueCoding": {
            "system": "urn:oid:2.16.840.1.113883.6.238",
            "code": "2186-5",
            "display": "Not Hispanic or Latino",
            "userSelected": true
          }
        }, {
          "url": "text",
          "valueString": "Not Hispanic or Latino"
        } ]
      } ],
      "identifier": [ {
        "type": {
          "coding": [ {
            "system": "http://terminology.hl7.org/CodeSystem/v2-0203",
            "code": "MR"
          } ]
        },
        "system": "https://bonnie-fhir.healthit.gov/",
        "value": "61152a3b98086b7a79cbd7c1"
      } ],
      "active": true,
      "name": [ {
        "use": "usual",
        "family": "DENOMPass",
        "given": [ "RiskVariableASAClass" ]
      } ],
      "gender": "female",
      "birthDate": "1966-07-12"
    },
    "request": {
      "method": "PUT",
      "url": "Patient/683be14a-90bc-41bd-a96b-6a1297f5f42e"
    }
  }, {
    "fullUrl": "https://madie.cms.gov/Observation/075e8291-fd2e-4e6b-8cb1-f8feedc2e4e1",
    "resource": {
      "resourceType": "Observation",
      "id": "075e8291-fd2e-4e6b-8cb1-f8feedc2e4e1",
      "meta": {
        "profile": [ "http://hl7.org/fhir/us/qicore/StructureDefinition/qicore-observation-lab" ]
      },
      "status": "final",
      "category": [ {
        "coding": [ {
          "system": "http://terminology.hl7.org/CodeSystem/observation-category",
          "code": "laboratory",
          "display": "Laboratory"
        } ],
        "text": "Laboratory"
      } ],
      "code": {
        "coding": [ {
          "system": "http://loinc.org",
          "version": "2.76",
          "code": "21232-4",
          "display": "Creatinine [Mass/volume] in Arterial blood"
        } ],
        "text": "Creatinine [Mass/volume] in Arterial blood"
      },
      "subject": {
        "reference": "Patient/683be14a-90bc-41bd-a96b-6a1297f5f42e"
      },
      "encounter": {
        "reference": "Encounter/f2137df5-c0a0-4d8c-b83d-6c5539c41a51"
      },
      "effectiveDateTime": "2026-04-11T09:00:00.000+00:00",
      "valueQuantity": {
        "value": 0.8,
        "unit": "mg/dl",
        "system": "http://unitsofmeasure.org",
        "code": "mg/dl"
      }
    },
    "request": {
      "method": "PUT",
      "url": "Observation/075e8291-fd2e-4e6b-8cb1-f8feedc2e4e1"
    }
  }, {
    "fullUrl": "https://madie.cms.gov/Observation/def059ee-196a-45ca-8e2b-fdd828be3566",
    "resource": {
      "resourceType": "Observation",
      "id": "def059ee-196a-45ca-8e2b-fdd828be3566",
      "meta": {
        "profile": [ "http://hl7.org/fhir/us/qicore/StructureDefinition/qicore-observation-lab" ]
      },
      "status": "final",
      "category": [ {
        "coding": [ {
          "system": "http://terminology.hl7.org/CodeSystem/observation-category",
          "code": "laboratory",
          "display": "Laboratory"
        } ],
        "text": "Laboratory"
      } ],
      "code": {
        "coding": [ {
          "system": "http://loinc.org",
          "version": "2.76",
          "code": "21232-4",
          "display": "Creatinine [Mass/volume] in Arterial blood"
        } ],
        "text": "Creatinine [Mass/volume] in Arterial blood"
      },
      "subject": {
        "reference": "Patient/683be14a-90bc-41bd-a96b-6a1297f5f42e"
      },
      "encounter": {
        "reference": "Encounter/f2137df5-c0a0-4d8c-b83d-6c5539c41a51"
      },
      "effectiveDateTime": "2026-04-11T08:00:00.000+00:00",
      "valueQuantity": {
        "value": 1,
        "unit": "mg/dlL",
        "system": "http://unitsofmeasure.org",
        "code": "mg/dl"
      }
    },
    "request": {
      "method": "PUT",
      "url": "Observation/def059ee-196a-45ca-8e2b-fdd828be3566"
    }
  }, {
    "fullUrl": "https://madie.cms.gov/Procedure/bbcf093e-502e-4869-95bc-5ec3f61e6718",
    "resource": {
      "resourceType": "Procedure",
      "id": "bbcf093e-502e-4869-95bc-5ec3f61e6718",
      "meta": {
        "profile": [ "http://hl7.org/fhir/us/qicore/StructureDefinition/qicore-procedure" ]
      },
      "extension": [ {
        "url": "http://hl7.org/fhir/us/qicore/StructureDefinition/qicore-recorded",
        "valueDateTime": "2026-04-11T10:30:00.000+00:00"
      } ],
      "status": "completed",
      "category": {
        "coding": [ {
          "system": "http://snomed.info/sct",
          "code": "18286008",
          "display": "General or neuraxial anesthesia"
        } ]
      },
      "code": {
        "coding": [ {
          "system": "http://snomed.info/sct",
          "code": "112943005",
          "display": "Epidural injection of anesthetic substance, diagnostic, caudal, continuous"
        } ]
      },
      "subject": {
        "reference": "Patient/683be14a-90bc-41bd-a96b-6a1297f5f42e"
      },
      "performedPeriod": {
        "start": "2026-04-11T08:00:00.000+00:00",
        "end": "2026-04-11T10:15:00.000+00:00"
      }
    },
    "request": {
      "method": "PUT",
      "url": "Procedure/bbcf093e-502e-4869-95bc-5ec3f61e6718"
    }
  }, {
    "fullUrl": "https://madie.cms.gov/MeasureReport/e9e59594-6c9d-49c5-8e52-8129afc75979",
    "resource": {
      "resourceType": "MeasureReport",
      "id": "e9e59594-6c9d-49c5-8e52-8129afc75979",
      "meta": {
        "profile": [ "http://hl7.org/fhir/us/cqfmeasures/StructureDefinition/test-case-cqfm" ]
      },
      "contained": [ {
        "resourceType": "Parameters",
        "id": "023b91c6-5dd0-4b12-835a-b6cfdc83ff4e-parameters",
        "parameter": [ {
          "name": "subject",
          "valueString": "683be14a-90bc-41bd-a96b-6a1297f5f42e"
        } ]
      } ],
      "extension": [ {
        "url": "http://hl7.org/fhir/StructureDefinition/cqf-inputParameters",
        "valueReference": {
          "reference": "#023b91c6-5dd0-4b12-835a-b6cfdc83ff4e-parameters"
        }
      }, {
        "url": "http://hl7.org/fhir/us/cqfmeasures/StructureDefinition/cqfm-testCaseDescription",
        "valueMarkdown": "DENOMPass Satisfies First Creatinine risk variable"
      } ],
      "modifierExtension": [ {
        "url": "http://hl7.org/fhir/us/cqfmeasures/StructureDefinition/cqfm-isTestCase",
        "valueBoolean": true
      } ],
      "status": "complete",
      "type": "individual",
      "measure": "https://madie.cms.gov/Measure/CMS1218FHIRHHRF",
      "period": {
        "start": "2026-01-01",
        "end": "2026-12-31"
      },
      "group": [ {
        "id": "Group_1",
        "population": [ {
          "id": "InitialPopulation_1",
          "code": {
            "coding": [ {
              "system": "http://terminology.hl7.org/CodeSystem/measure-population",
              "code": "initial-population",
              "display": "Initial Population"
            } ]
          },
          "count": 1
        }, {
          "id": "Denominator_1",
          "code": {
            "coding": [ {
              "system": "http://terminology.hl7.org/CodeSystem/measure-population",
              "code": "denominator",
              "display": "Denominator"
            } ]
          },
          "count": 1
        }, {
          "id": "DenominatorExclusion_1",
          "code": {
            "coding": [ {
              "system": "http://terminology.hl7.org/CodeSystem/measure-population",
              "code": "denominator-exclusion",
              "display": "Denominator Exclusion"
            } ]
          },
          "count": 0
        }, {
          "id": "Numerator_1",
          "code": {
            "coding": [ {
              "system": "http://terminology.hl7.org/CodeSystem/measure-population",
              "code": "numerator",
              "display": "Numerator"
            } ]
          },
          "count": 0
        } ],
        "measureScore": {
          "value": 0.0
        }
      } ],
      "evaluatedResource": [ {
        "reference": "Encounter/f2137df5-c0a0-4d8c-b83d-6c5539c41a51"
      }, {
        "reference": "Patient/683be14a-90bc-41bd-a96b-6a1297f5f42e"
      }, {
        "reference": "Observation/075e8291-fd2e-4e6b-8cb1-f8feedc2e4e1"
      }, {
        "reference": "Observation/def059ee-196a-45ca-8e2b-fdd828be3566"
      }, {
        "reference": "Procedure/bbcf093e-502e-4869-95bc-5ec3f61e6718"
      } ]
    },
    "request": {
      "method": "PUT",
      "url": "MeasureReport/e9e59594-6c9d-49c5-8e52-8129afc75979"
    }
  } ]
}