{
  "resourceType": "Bundle",
  "id": "62cdd64162b2323a168e975e",
  "type": "collection",
  "entry": [ {
    "fullUrl": "https://madie.cms.gov/Patient/4fa862e7-beac-4a7d-b053-f54afb689dc9",
    "resource": {
      "resourceType": "Patient",
      "id": "4fa862e7-beac-4a7d-b053-f54afb689dc9",
      "meta": {
        "profile": [ "http://hl7.org/fhir/us/qicore/StructureDefinition/qicore-patient" ]
      },
      "extension": [ {
        "url": "http://hl7.org/fhir/us/core/StructureDefinition/us-core-race",
        "extension": [ {
          "url": "ombCategory",
          "valueCoding": {
            "system": "urn:oid:2.16.840.1.113883.6.238",
            "code": "1002-5",
            "display": "American Indian or Alaska Native",
            "userSelected": true
          }
        }, {
          "url": "text",
          "valueString": "American Indian or Alaska Native"
        } ]
      }, {
        "url": "http://hl7.org/fhir/us/core/StructureDefinition/us-core-ethnicity",
        "extension": [ {
          "url": "ombCategory",
          "valueCoding": {
            "system": "urn:oid:2.16.840.1.113883.6.238",
            "code": "2135-2",
            "display": "Hispanic or Latino",
            "userSelected": true
          }
        }, {
          "url": "text",
          "valueString": "Hispanic or Latino"
        } ]
      } ],
      "identifier": [ {
        "type": {
          "coding": [ {
            "system": "http://terminology.hl7.org/CodeSystem/v2-0203",
            "code": "MR"
          } ]
        },
        "system": "https://bonnie-fhir.healthit.gov/",
        "value": "62cdd64162b2323a168e975e"
      } ],
      "name": [ {
        "family": "NUMERFail",
        "given": [ "SystolicNoDiastolic" ]
      } ],
      "gender": "male",
      "birthDate": "1976-12-31"
    }
  }, {
    "fullUrl": "https://madie.cms.gov/Encounter/2e11d086-fa85-42eb-8c93-8c53443178f4",
    "resource": {
      "resourceType": "Encounter",
      "id": "2e11d086-fa85-42eb-8c93-8c53443178f4",
      "meta": {
        "profile": [ "http://hl7.org/fhir/us/qicore/StructureDefinition/qicore-encounter" ]
      },
      "status": "finished",
      "class": {
        "system": "http://terminology.hl7.org/CodeSystem/v3-ActCode",
        "code": "AMB",
        "display": "ambulatory"
      },
      "type": [ {
        "coding": [ {
          "system": "http://snomed.info/sct",
          "version": "2022-03",
          "code": "103705002",
          "display": "Patient status observation (procedure)",
          "userSelected": true
        } ]
      } ],
      "subject": {
        "reference": "Patient/4fa862e7-beac-4a7d-b053-f54afb689dc9"
      },
      "period": {
        "start": "2026-12-31T08:00:00.000Z",
        "end": "2026-12-31T08:45:00.000Z"
      }
    }
  }, {
    "fullUrl": "https://madie.cms.gov/Observation/a7f5b654-b51e-457a-8fef-fcf3ca188188",
    "resource": {
      "resourceType": "Observation",
      "id": "a7f5b654-b51e-457a-8fef-fcf3ca188188",
      "meta": {
        "profile": [ "http://hl7.org/fhir/us/qicore/StructureDefinition/qicore-simple-observation" ]
      },
      "status": "final",
      "category": [ {
        "coding": [ {
          "system": "http://terminology.hl7.org/CodeSystem/observation-category",
          "code": "vital-signs",
          "display": "Vital Signs"
        } ]
      } ],
      "code": {
        "coding": [ {
          "system": "http://loinc.org",
          "code": "8480-6",
          "display": "Systolic blood pressure",
          "userSelected": true
        }, {
          "system": "http://loinc.org",
          "code": "85354-9",
          "display": "Blood pressure panel with all children optional"
        } ]
      },
      "subject": {
        "reference": "Patient/4fa862e7-beac-4a7d-b053-f54afb689dc9"
      },
      "effectiveDateTime": "2026-12-31T08:05:00.000Z",
      "component": [ {
        "code": {
          "coding": [ {
            "system": "http://loinc.org",
            "code": "8480-6",
            "display": "Systolic blood pressure"
          } ]
        },
        "valueQuantity": {
          "value": 160,
          "unit": "mm[Hg]",
          "system": "http://unitsofmeasure.org",
          "code": "mm[Hg]"
        }
      }, {
        "code": {
          "coding": [ {
            "system": "http://loinc.org",
            "code": "8462-4",
            "display": "Diastolic blood pressure"
          } ]
        },
        "dataAbsentReason": {
          "coding": [ {
            "system": "http://terminology.hl7.org/CodeSystem/data-absent-reason",
            "code": "not-performed",
            "display": "Not Performed"
          } ]
        }
      } ]
    }
  }, {
    "fullUrl": "https://madie.cms.gov/ServiceRequest/6e596f1a-e837-484e-a918-6350f9a17367",
    "resource": {
      "resourceType": "ServiceRequest",
      "id": "6e596f1a-e837-484e-a918-6350f9a17367",
      "meta": {
        "profile": [ "http://hl7.org/fhir/us/qicore/StructureDefinition/qicore-servicerequest" ]
      },
      "status": "active",
      "intent": "order",
      "code": {
        "coding": [ {
          "system": "http://snomed.info/sct",
          "version": "2022-03",
          "code": "183617005",
          "display": "Follow-up 1 day (finding)",
          "userSelected": true
        } ]
      },
      "subject": {
        "reference": "Patient/4fa862e7-beac-4a7d-b053-f54afb689dc9"
      },
      "authoredOn": "2026-12-31T08:30:00.000Z"
    }
  }, {
    "fullUrl": "https://madie.cms.gov/ServiceRequest/542ba7f2-f0ff-43eb-9ae4-4b9febcd1c67",
    "resource": {
      "resourceType": "ServiceRequest",
      "id": "542ba7f2-f0ff-43eb-9ae4-4b9febcd1c67",
      "meta": {
        "profile": [ "http://hl7.org/fhir/us/qicore/StructureDefinition/qicore-servicerequest" ]
      },
      "status": "active",
      "intent": "order",
      "code": {
        "coding": [ {
          "system": "http://snomed.info/sct",
          "version": "2022-03",
          "code": "103699006",
          "display": "Patient referral to dietitian (procedure)",
          "userSelected": true
        } ]
      },
      "subject": {
        "reference": "Patient/4fa862e7-beac-4a7d-b053-f54afb689dc9"
      },
      "authoredOn": "2026-12-31T08:30:00.000Z"
    }
  }, {
    "fullUrl": "https://madie.cms.gov/Coverage/8fae35c8-2a5b-43d1-bc49-00bc64a043a5",
    "resource": {
      "resourceType": "Coverage",
      "id": "8fae35c8-2a5b-43d1-bc49-00bc64a043a5",
      "meta": {
        "profile": [ "http://hl7.org/fhir/us/qicore/StructureDefinition/qicore-coverage" ]
      },
      "status": "active",
      "subscriberId": "5765432",
      "beneficiary": {
        "reference": "Patient/4fa862e7-beac-4a7d-b053-f54afb689dc9"
      },
      "relationship": {
        "coding": [ {
          "system": "http://terminology.hl7.org/CodeSystem/subscriber-relationship",
          "code": "self",
          "display": "Self"
        } ]
      },
      "payor": [ {
        "reference": "Organization/47eada92-f20a-4efb-ba23-9b47984afe17"
      } ]
    }
  }, {
    "fullUrl": "https://madie.cms.gov/Organization/47eada92-f20a-4efb-ba23-9b47984afe17",
    "resource": {
      "resourceType": "Organization",
      "id": "47eada92-f20a-4efb-ba23-9b47984afe17",
      "meta": {
        "profile": [ "http://hl7.org/fhir/us/qicore/StructureDefinition/qicore-organization" ]
      },
      "identifier": [ {
        "use": "temp",
        "system": "urn:oid:2.16.840.1.113883.4.4",
        "value": "21-3259825"
      } ],
      "active": true,
      "type": [ {
        "coding": [ {
          "system": "http://terminology.hl7.org/CodeSystem/organization-type",
          "code": "pay",
          "display": "Payer"
        } ]
      } ],
      "name": "Blue Cross Blue Shield of Texas",
      "telecom": [ {
        "system": "phone",
        "value": "(+1) 972-766-6900"
      } ],
      "address": [ {
        "use": "billing",
        "type": "postal",
        "line": [ "P.O. Box 660044" ],
        "city": "Dallas",
        "state": "TX",
        "postalCode": "75266-0044",
        "country": "USA"
      } ]
    }
  }, {
    "fullUrl": "https://madie.cms.gov/Practitioner/c3e317f3-06f6-49f4-a949-48fc9ae319e5",
    "resource": {
      "resourceType": "Practitioner",
      "id": "c3e317f3-06f6-49f4-a949-48fc9ae319e5",
      "meta": {
        "profile": [ "http://hl7.org/fhir/us/qicore/StructureDefinition/qicore-practitioner" ]
      },
      "identifier": [ {
        "system": "http://hl7.org/fhir/sid/us-npi",
        "value": "1013955343"
      } ],
      "name": [ {
        "family": "Evil",
        "prefix": [ "Dr" ]
      } ]
    }
  }, {
    "fullUrl": "https://madie.cms.gov/MeasureReport/776190ec-9173-45bd-8b64-71c83bee4ef2",
    "resource": {
      "resourceType": "MeasureReport",
      "id": "776190ec-9173-45bd-8b64-71c83bee4ef2",
      "meta": {
        "profile": [ "http://hl7.org/fhir/us/cqfmeasures/StructureDefinition/test-case-cqfm" ]
      },
      "contained": [ {
        "resourceType": "Parameters",
        "id": "889cad91-a853-4393-a956-b975d4ea4ce9-parameters",
        "parameter": [ {
          "name": "subject",
          "valueString": "4fa862e7-beac-4a7d-b053-f54afb689dc9"
        } ]
      } ],
      "extension": [ {
        "url": "http://hl7.org/fhir/StructureDefinition/cqf-inputParameters",
        "valueReference": {
          "reference": "#889cad91-a853-4393-a956-b975d4ea4ce9-parameters"
        }
      }, {
        "url": "http://hl7.org/fhir/us/cqfmeasures/StructureDefinition/cqfm-testCaseDescription",
        "valueMarkdown": "Encounter last day of MP with systolic reading 160, no diastolic, follow up scheduled and dietary  recommendations made- expect to fail as both sys/dia are meant to be required. "
      } ],
      "modifierExtension": [ {
        "url": "http://hl7.org/fhir/us/cqfmeasures/StructureDefinition/cqfm-isTestCase",
        "valueBoolean": true
      } ],
      "status": "complete",
      "type": "individual",
      "measure": "https://madie.cms.gov/Measure/CMS22FHIRPCSBPScreeningFollowUp",
      "period": {
        "start": "2026-01-01",
        "end": "2026-12-31"
      },
      "group": [ {
        "id": "Group_1",
        "population": [ {
          "id": "InitialPopulation_1",
          "code": {
            "coding": [ {
              "system": "http://terminology.hl7.org/CodeSystem/measure-population",
              "code": "initial-population",
              "display": "Initial Population"
            } ]
          },
          "count": 1
        }, {
          "id": "Denominator_1",
          "code": {
            "coding": [ {
              "system": "http://terminology.hl7.org/CodeSystem/measure-population",
              "code": "denominator",
              "display": "Denominator"
            } ]
          },
          "count": 1
        }, {
          "id": "DenominatorExclusion_1",
          "code": {
            "coding": [ {
              "system": "http://terminology.hl7.org/CodeSystem/measure-population",
              "code": "denominator-exclusion",
              "display": "Denominator Exclusion"
            } ]
          },
          "count": 0
        }, {
          "id": "Numerator_1",
          "code": {
            "coding": [ {
              "system": "http://terminology.hl7.org/CodeSystem/measure-population",
              "code": "numerator",
              "display": "Numerator"
            } ]
          },
          "count": 0
        }, {
          "id": "DenominatorException_1",
          "code": {
            "coding": [ {
              "system": "http://terminology.hl7.org/CodeSystem/measure-population",
              "code": "denominator-exception",
              "display": "Denominator Exception"
            } ]
          },
          "count": 0
        } ],
        "measureScore": {
          "value": 0.0
        }
      } ],
      "evaluatedResource": [ {
        "reference": "Patient/4fa862e7-beac-4a7d-b053-f54afb689dc9"
      }, {
        "reference": "Encounter/2e11d086-fa85-42eb-8c93-8c53443178f4"
      }, {
        "reference": "Observation/a7f5b654-b51e-457a-8fef-fcf3ca188188"
      }, {
        "reference": "ServiceRequest/6e596f1a-e837-484e-a918-6350f9a17367"
      }, {
        "reference": "ServiceRequest/542ba7f2-f0ff-43eb-9ae4-4b9febcd1c67"
      }, {
        "reference": "Coverage/8fae35c8-2a5b-43d1-bc49-00bc64a043a5"
      }, {
        "reference": "Organization/47eada92-f20a-4efb-ba23-9b47984afe17"
      }, {
        "reference": "Practitioner/c3e317f3-06f6-49f4-a949-48fc9ae319e5"
      } ]
    }
  } ]
}