{
  "resourceType": "Bundle",
  "id": "633b3f9f0968f80122503cdb",
  "type": "transaction",
  "entry": [ {
    "fullUrl": "https://madie.cms.gov/Patient/81aff249-2af4-4a36-9b3b-c1255bb0a13d",
    "resource": {
      "resourceType": "Patient",
      "id": "81aff249-2af4-4a36-9b3b-c1255bb0a13d",
      "meta": {
        "profile": [ "http://hl7.org/fhir/us/qicore/StructureDefinition/qicore-patient" ]
      },
      "text": {
        "status": "generated",
        "div": "<div xmlns=\"http://www.w3.org/1999/xhtml\"><div class=\"hapiHeaderText\">AssPrfEGALastIsNullFirstIs20<b>DENOMPASS</b></div><table class=\"hapiPropertyTable\"><tbody><tr><td>Date of birth</td><td><span>01 February 2004</span></td></tr></tbody></table></div>"
      },
      "extension": [ {
        "url": "http://hl7.org/fhir/us/core/StructureDefinition/us-core-race",
        "extension": [ {
          "url": "ombCategory",
          "valueCoding": {
            "system": "urn:oid:2.16.840.1.113883.6.238",
            "code": "1002-5",
            "display": "American Indian or Alaska Native",
            "userSelected": true
          }
        }, {
          "url": "text",
          "valueString": "American Indian or Alaska Native"
        } ]
      }, {
        "url": "http://hl7.org/fhir/us/core/StructureDefinition/us-core-ethnicity",
        "extension": [ {
          "url": "ombCategory",
          "valueCoding": {
            "system": "urn:oid:2.16.840.1.113883.6.238",
            "code": "2135-2",
            "display": "Hispanic or Latino",
            "userSelected": true
          }
        }, {
          "url": "text",
          "valueString": "Hispanic or Latino"
        } ]
      } ],
      "identifier": [ {
        "type": {
          "coding": [ {
            "system": "http://terminology.hl7.org/CodeSystem/v2-0203",
            "code": "MR"
          } ]
        },
        "system": "https://bonnie-fhir.healthit.gov/",
        "value": "633b3f9f0968f80122503cdb"
      } ],
      "active": true,
      "name": [ {
        "use": "usual",
        "family": "DENOMPass",
        "given": [ "AssPrfEGALastIsNullFirstIs20" ]
      } ],
      "gender": "female",
      "birthDate": "2005-02-01"
    },
    "request": {
      "method": "PUT",
      "url": "Patient/81aff249-2af4-4a36-9b3b-c1255bb0a13d"
    }
  }, {
    "fullUrl": "https://madie.cms.gov/Observation/8c1e3329-3289-45ca-9cfe-d716a6187c0c",
    "resource": {
      "resourceType": "Observation",
      "id": "8c1e3329-3289-45ca-9cfe-d716a6187c0c",
      "meta": {
        "profile": [ "http://hl7.org/fhir/us/qicore/StructureDefinition/qicore-simple-observation" ]
      },
      "status": "final",
      "category": [ {
        "coding": [ {
          "system": "http://terminology.hl7.org/CodeSystem/observation-category",
          "code": "exam",
          "display": "exam",
          "userSelected": true
        } ]
      } ],
      "code": {
        "coding": [ {
          "system": "http://loinc.org",
          "code": "93857-1"
        } ]
      },
      "subject": {
        "reference": "Patient/81aff249-2af4-4a36-9b3b-c1255bb0a13d"
      },
      "effectiveDateTime": "2026-02-01T08:00:00.000+00:00",
      "performer": [ {
        "reference": "Organization/example1",
        "display": "Hendricks Country Hospital"
      } ],
      "valueDateTime": "2026-02-01T08:00:00.000+00:00"
    },
    "request": {
      "method": "PUT",
      "url": "Observation/8c1e3329-3289-45ca-9cfe-d716a6187c0c"
    }
  }, {
    "fullUrl": "https://madie.cms.gov/Observation/3075d8ae-d58c-4616-b4e5-809f1e717fba",
    "resource": {
      "resourceType": "Observation",
      "id": "3075d8ae-d58c-4616-b4e5-809f1e717fba",
      "meta": {
        "profile": [ "http://hl7.org/fhir/us/qicore/StructureDefinition/qicore-simple-observation" ]
      },
      "status": "final",
      "category": [ {
        "coding": [ {
          "system": "http://terminology.hl7.org/CodeSystem/observation-category",
          "code": "exam",
          "display": "exam",
          "userSelected": true
        } ]
      } ],
      "code": {
        "coding": [ {
          "system": "http://loinc.org",
          "code": "11884-4"
        } ]
      },
      "subject": {
        "reference": "Patient/81aff249-2af4-4a36-9b3b-c1255bb0a13d"
      },
      "effectiveDateTime": "2026-02-01T08:00:00.000+00:00",
      "performer": [ {
        "reference": "Organization/example1",
        "display": "Hendricks Country Hospital"
      } ],
      "valueQuantity": {
        "value": 20,
        "system": "http://unitsofmeasure.org",
        "code": "wk"
      }
    },
    "request": {
      "method": "PUT",
      "url": "Observation/3075d8ae-d58c-4616-b4e5-809f1e717fba"
    }
  }, {
    "fullUrl": "https://madie.cms.gov/Observation/4997716a-2b1c-4fda-8607-20c71a4b5832",
    "resource": {
      "resourceType": "Observation",
      "id": "4997716a-2b1c-4fda-8607-20c71a4b5832",
      "meta": {
        "profile": [ "http://hl7.org/fhir/us/qicore/StructureDefinition/qicore-simple-observation" ]
      },
      "status": "final",
      "category": [ {
        "coding": [ {
          "system": "http://terminology.hl7.org/CodeSystem/observation-category",
          "code": "exam",
          "display": "exam",
          "userSelected": true
        } ]
      } ],
      "code": {
        "coding": [ {
          "system": "http://loinc.org",
          "code": "11884-4"
        } ]
      },
      "subject": {
        "reference": "Patient/81aff249-2af4-4a36-9b3b-c1255bb0a13d"
      },
      "effectiveDateTime": "2026-02-01T08:01:00.000+00:00",
      "performer": [ {
        "reference": "Organization/example1",
        "display": "Hendricks Country Hospital"
      } ]
    },
    "request": {
      "method": "PUT",
      "url": "Observation/4997716a-2b1c-4fda-8607-20c71a4b5832"
    }
  }, {
    "fullUrl": "https://madie.cms.gov/Encounter/0482c0db-875d-424e-a83d-d788a2a8b2bd",
    "resource": {
      "resourceType": "Encounter",
      "id": "0482c0db-875d-424e-a83d-d788a2a8b2bd",
      "meta": {
        "profile": [ "http://hl7.org/fhir/us/qicore/StructureDefinition/qicore-encounter" ]
      },
      "status": "finished",
      "class": {
        "system": "http://terminology.hl7.org/CodeSystem/v3-ActCode",
        "code": "IMP",
        "display": "inpatient encounter"
      },
      "type": [ {
        "coding": [ {
          "system": "http://snomed.info/sct",
          "code": "183452005"
        } ]
      } ],
      "subject": {
        "reference": "Patient/81aff249-2af4-4a36-9b3b-c1255bb0a13d"
      },
      "period": {
        "start": "2026-02-01T08:00:00.000+00:00",
        "end": "2026-02-05T08:15:00.000+00:00"
      }
    },
    "request": {
      "method": "PUT",
      "url": "Encounter/0482c0db-875d-424e-a83d-d788a2a8b2bd"
    }
  }, {
    "fullUrl": "https://madie.cms.gov/Coverage/7493b0b1-740a-4b44-9134-37fbac1a0cd6",
    "resource": {
      "resourceType": "Coverage",
      "id": "7493b0b1-740a-4b44-9134-37fbac1a0cd6",
      "status": "active",
      "subscriberId": "523435",
      "beneficiary": {
        "reference": "Patient/81aff249-2af4-4a36-9b3b-c1255bb0a13d"
      },
      "relationship": {
        "coding": [ {
          "system": "http://terminology.hl7.org/CodeSystem/subscriber-relationship",
          "code": "self"
        } ]
      },
      "period": {
        "start": "2005-02-01T08:00:00.000+00:00"
      },
      "payor": [ {
        "reference": "Organization/eec6083f-2bf4-476e-adbf-d83348d47c64"
      } ]
    },
    "request": {
      "method": "PUT",
      "url": "Coverage/7493b0b1-740a-4b44-9134-37fbac1a0cd6"
    }
  }, {
    "fullUrl": "https://madie.cms.gov/Procedure/879d57b5-5b4e-4cd5-a7ad-ecacaa3c4213",
    "resource": {
      "resourceType": "Procedure",
      "id": "879d57b5-5b4e-4cd5-a7ad-ecacaa3c4213",
      "meta": {
        "profile": [ "http://hl7.org/fhir/us/qicore/StructureDefinition/qicore-procedure" ]
      },
      "extension": [ {
        "url": "http://hl7.org/fhir/us/qicore/StructureDefinition/qicore-recorded",
        "valueDateTime": "2014-04-05T13:35:00.000+00:00"
      } ],
      "status": "completed",
      "code": {
        "coding": [ {
          "system": "http://snomed.info/sct",
          "code": "10745001"
        } ]
      },
      "subject": {
        "reference": "Patient/81aff249-2af4-4a36-9b3b-c1255bb0a13d"
      },
      "performedPeriod": {
        "start": "2026-02-01T08:00:00.000+00:00",
        "end": "2026-02-05T08:15:00.000+00:00"
      }
    },
    "request": {
      "method": "PUT",
      "url": "Procedure/879d57b5-5b4e-4cd5-a7ad-ecacaa3c4213"
    }
  }, {
    "fullUrl": "https://madie.cms.gov/Organization/eec6083f-2bf4-476e-adbf-d83348d47c64",
    "resource": {
      "resourceType": "Organization",
      "id": "eec6083f-2bf4-476e-adbf-d83348d47c64",
      "meta": {
        "profile": [ "http://hl7.org/fhir/us/qicore/StructureDefinition/qicore-organization" ]
      },
      "identifier": [ {
        "use": "temp",
        "system": "urn:oid:2.16.840.1.113883.4.4",
        "value": "21-3259825"
      } ],
      "active": true,
      "type": [ {
        "coding": [ {
          "system": "http://terminology.hl7.org/CodeSystem/organization-type",
          "code": "pay",
          "display": "Payer"
        } ]
      } ],
      "name": "Blue Cross Blue Shield of Texas",
      "telecom": [ {
        "system": "phone",
        "value": "(+1) 972-766-6900"
      } ],
      "address": [ {
        "use": "billing",
        "type": "postal",
        "line": [ "P.O. Box 660044" ],
        "city": "Dallas",
        "state": "TX",
        "postalCode": "75266-0044",
        "country": "USA"
      } ]
    },
    "request": {
      "method": "PUT",
      "url": "Organization/eec6083f-2bf4-476e-adbf-d83348d47c64"
    }
  }, {
    "fullUrl": "https://madie.cms.gov/Practitioner/612b8182-32a6-4030-9e6e-06f02a4e6036",
    "resource": {
      "resourceType": "Practitioner",
      "id": "612b8182-32a6-4030-9e6e-06f02a4e6036",
      "meta": {
        "profile": [ "http://hl7.org/fhir/us/qicore/StructureDefinition/qicore-practitioner" ]
      },
      "identifier": [ {
        "system": "http://hl7.org/fhir/sid/us-npi",
        "value": "1234567890"
      } ],
      "name": [ {
        "family": "Evil",
        "prefix": [ "Dr" ]
      } ]
    },
    "request": {
      "method": "PUT",
      "url": "Practitioner/612b8182-32a6-4030-9e6e-06f02a4e6036"
    }
  }, {
    "fullUrl": "https://madie.cms.gov/MeasureReport/b3369fe3-d86d-499c-9d48-c27ecb5c33e9",
    "resource": {
      "resourceType": "MeasureReport",
      "id": "b3369fe3-d86d-499c-9d48-c27ecb5c33e9",
      "meta": {
        "profile": [ "http://hl7.org/fhir/us/cqfmeasures/StructureDefinition/test-case-cqfm" ]
      },
      "contained": [ {
        "resourceType": "Parameters",
        "id": "12580e2b-6609-4dc1-b616-ff0c46e53c87-parameters",
        "parameter": [ {
          "name": "subject",
          "valueString": "81aff249-2af4-4a36-9b3b-c1255bb0a13d"
        } ]
      } ],
      "extension": [ {
        "url": "http://hl7.org/fhir/StructureDefinition/cqf-inputParameters",
        "valueReference": {
          "reference": "#12580e2b-6609-4dc1-b616-ff0c46e53c87-parameters"
        }
      }, {
        "url": "http://hl7.org/fhir/us/cqfmeasures/StructureDefinition/cqfm-testCaseDescription",
        "valueMarkdown": "Estimated Gestational Age is 20 on 1st assessment, null on last.\n"
      } ],
      "modifierExtension": [ {
        "url": "http://hl7.org/fhir/us/cqfmeasures/StructureDefinition/cqfm-isTestCase",
        "valueBoolean": true
      } ],
      "status": "complete",
      "type": "individual",
      "measure": "https://madie.cms.gov/Measure/CMS1028FHIRPCSevereOBComps",
      "period": {
        "start": "2026-01-01",
        "end": "2026-12-31"
      },
      "group": [ {
        "id": "Group_1",
        "population": [ {
          "id": "InitialPopulation_1",
          "code": {
            "coding": [ {
              "system": "http://terminology.hl7.org/CodeSystem/measure-population",
              "code": "initial-population",
              "display": "Initial Population"
            } ]
          },
          "count": 1
        }, {
          "id": "Denominator_1",
          "code": {
            "coding": [ {
              "system": "http://terminology.hl7.org/CodeSystem/measure-population",
              "code": "denominator",
              "display": "Denominator"
            } ]
          },
          "count": 1
        }, {
          "id": "Numerator_1",
          "code": {
            "coding": [ {
              "system": "http://terminology.hl7.org/CodeSystem/measure-population",
              "code": "numerator",
              "display": "Numerator"
            } ]
          },
          "count": 0
        }, {
          "id": "NumeratorExclusion_1",
          "code": {
            "coding": [ {
              "system": "http://terminology.hl7.org/CodeSystem/measure-population",
              "code": "numerator-exclusion",
              "display": "Numerator Exclusion"
            } ]
          },
          "count": 0
        } ],
        "measureScore": {
          "value": 0.0
        }
      }, {
        "id": "Group_2",
        "population": [ {
          "id": "InitialPopulation_2",
          "code": {
            "coding": [ {
              "system": "http://terminology.hl7.org/CodeSystem/measure-population",
              "code": "initial-population",
              "display": "Initial Population"
            } ]
          },
          "count": 1
        }, {
          "id": "Denominator_2",
          "code": {
            "coding": [ {
              "system": "http://terminology.hl7.org/CodeSystem/measure-population",
              "code": "denominator",
              "display": "Denominator"
            } ]
          },
          "count": 1
        }, {
          "id": "Numerator_2",
          "code": {
            "coding": [ {
              "system": "http://terminology.hl7.org/CodeSystem/measure-population",
              "code": "numerator",
              "display": "Numerator"
            } ]
          },
          "count": 0
        }, {
          "id": "NumeratorExclusion_2",
          "code": {
            "coding": [ {
              "system": "http://terminology.hl7.org/CodeSystem/measure-population",
              "code": "numerator-exclusion",
              "display": "Numerator Exclusion"
            } ]
          },
          "count": 0
        } ],
        "measureScore": {
          "value": 0.0
        }
      } ],
      "evaluatedResource": [ {
        "reference": "Patient/81aff249-2af4-4a36-9b3b-c1255bb0a13d"
      }, {
        "reference": "Observation/8c1e3329-3289-45ca-9cfe-d716a6187c0c"
      }, {
        "reference": "Observation/3075d8ae-d58c-4616-b4e5-809f1e717fba"
      }, {
        "reference": "Observation/4997716a-2b1c-4fda-8607-20c71a4b5832"
      }, {
        "reference": "Encounter/0482c0db-875d-424e-a83d-d788a2a8b2bd"
      }, {
        "reference": "Coverage/7493b0b1-740a-4b44-9134-37fbac1a0cd6"
      }, {
        "reference": "Procedure/879d57b5-5b4e-4cd5-a7ad-ecacaa3c4213"
      }, {
        "reference": "Organization/eec6083f-2bf4-476e-adbf-d83348d47c64"
      }, {
        "reference": "Practitioner/612b8182-32a6-4030-9e6e-06f02a4e6036"
      } ]
    },
    "request": {
      "method": "PUT",
      "url": "MeasureReport/b3369fe3-d86d-499c-9d48-c27ecb5c33e9"
    }
  } ]
}