{
  "resourceType": "Bundle",
  "id": "612e6a9002c62a011f2ea5f9",
  "type": "transaction",
  "entry": [ {
    "fullUrl": "https://madie.cms.gov/Patient/39baa108-b124-4300-b71c-dc21cc509d64",
    "resource": {
      "resourceType": "Patient",
      "id": "39baa108-b124-4300-b71c-dc21cc509d64",
      "meta": {
        "profile": [ "http://hl7.org/fhir/us/qicore/StructureDefinition/qicore-patient" ]
      },
      "text": {
        "status": "generated",
        "div": "<div xmlns=\"http://www.w3.org/1999/xhtml\"><div class=\"hapiHeaderText\">DAGCSDayAfterAnes<b>NUMERPASS </b></div><table class=\"hapiPropertyTable\"><tbody><tr><td>Identifier</td><td>af7fb96c408ff8f32d85ce64a563f18b</td></tr><tr><td>Date of birth</td><td><span>02 January 1974</span></td></tr></tbody></table></div>"
      },
      "extension": [ {
        "url": "http://hl7.org/fhir/us/core/StructureDefinition/us-core-race",
        "extension": [ {
          "url": "ombCategory",
          "valueCoding": {
            "system": "urn:oid:2.16.840.1.113883.6.238",
            "code": "1002-5",
            "display": "American Indian or Alaska Native",
            "userSelected": true
          }
        }, {
          "url": "text",
          "valueString": "American Indian or Alaska Native"
        } ]
      }, {
        "url": "http://hl7.org/fhir/us/core/StructureDefinition/us-core-ethnicity",
        "extension": [ {
          "url": "ombCategory",
          "valueCoding": {
            "system": "urn:oid:2.16.840.1.113883.6.238",
            "code": "2135-2",
            "display": "Hispanic or Latino",
            "userSelected": true
          }
        }, {
          "url": "text",
          "valueString": "Hispanic or Latino"
        } ]
      } ],
      "identifier": [ {
        "type": {
          "coding": [ {
            "system": "http://terminology.hl7.org/CodeSystem/v2-0203",
            "code": "MR"
          } ]
        },
        "system": "https://bonnie-fhir.healthit.gov/",
        "value": "612e6a9002c62a011f2ea5f9"
      } ],
      "active": true,
      "name": [ {
        "use": "usual",
        "family": "NUMERPass",
        "given": [ "DAGCSDayAfterAnes" ]
      } ],
      "gender": "male",
      "birthDate": "1975-01-02"
    },
    "request": {
      "method": "PUT",
      "url": "Patient/39baa108-b124-4300-b71c-dc21cc509d64"
    }
  }, {
    "fullUrl": "https://madie.cms.gov/Encounter/2e392a52-c162-4006-941c-1d7c6193375b",
    "resource": {
      "resourceType": "Encounter",
      "id": "2e392a52-c162-4006-941c-1d7c6193375b",
      "meta": {
        "profile": [ "http://hl7.org/fhir/us/qicore/StructureDefinition/qicore-encounter" ]
      },
      "status": "finished",
      "class": {
        "system": "http://terminology.hl7.org/CodeSystem/v3-ActCode",
        "code": "IMP",
        "display": "inpatient encounter"
      },
      "type": [ {
        "coding": [ {
          "system": "http://snomed.info/sct",
          "code": "8715000"
        } ]
      } ],
      "subject": {
        "reference": "Patient/39baa108-b124-4300-b71c-dc21cc509d64"
      },
      "period": {
        "start": "2026-11-01T08:00:00.000+00:00",
        "end": "2026-11-26T08:15:00.000+00:00"
      },
      "length": {
        "value": 25.0,
        "unit": "days"
      },
      "location": [ {
        "location": {
          "reference": "Location/129dc1d1-0ebc-4d20-922f-ba2a460de3db"
        },
        "period": {
          "start": "2026-11-03T08:15:00.000+00:00",
          "end": "2026-11-06T08:00:00.000+00:00"
        }
      } ]
    },
    "request": {
      "method": "PUT",
      "url": "Encounter/2e392a52-c162-4006-941c-1d7c6193375b"
    }
  }, {
    "fullUrl": "https://madie.cms.gov/Coverage/e64aea7d-a6ee-4569-8c7f-5c155b0eabff",
    "resource": {
      "resourceType": "Coverage",
      "id": "e64aea7d-a6ee-4569-8c7f-5c155b0eabff",
      "status": "active",
      "beneficiary": {
        "reference": "Patient/39baa108-b124-4300-b71c-dc21cc509d64"
      },
      "period": {
        "start": "1975-01-02T08:00:00.000+00:00"
      },
      "payor": [ {
        "reference": "Organization/cddc96e8-db71-4723-8f53-2ead1f40c4a7"
      } ]
    },
    "request": {
      "method": "PUT",
      "url": "Coverage/e64aea7d-a6ee-4569-8c7f-5c155b0eabff"
    }
  }, {
    "fullUrl": "https://madie.cms.gov/Procedure/5de54c30-6eed-4208-8219-1ce359647248",
    "resource": {
      "resourceType": "Procedure",
      "id": "5de54c30-6eed-4208-8219-1ce359647248",
      "meta": {
        "profile": [ "http://hl7.org/fhir/us/qicore/StructureDefinition/qicore-procedure" ]
      },
      "extension": [ {
        "url": "http://hl7.org/fhir/us/qicore/StructureDefinition/qicore-recorded",
        "valueDateTime": "2013-11-19T13:35:00.000+00:00"
      } ],
      "status": "completed",
      "code": {
        "coding": [ {
          "system": "http://snomed.info/sct",
          "code": "18946005"
        } ]
      },
      "subject": {
        "reference": "Patient/39baa108-b124-4300-b71c-dc21cc509d64"
      },
      "performedPeriod": {
        "start": "2026-11-03T09:00:00.000+00:00",
        "end": "2026-11-03T19:15:00.000+00:00"
      }
    },
    "request": {
      "method": "PUT",
      "url": "Procedure/5de54c30-6eed-4208-8219-1ce359647248"
    }
  }, {
    "fullUrl": "https://madie.cms.gov/Procedure/02135485-3ee2-4165-aefe-96c8e7bbf658",
    "resource": {
      "resourceType": "Procedure",
      "id": "02135485-3ee2-4165-aefe-96c8e7bbf658",
      "meta": {
        "profile": [ "http://hl7.org/fhir/us/qicore/StructureDefinition/qicore-procedure" ]
      },
      "extension": [ {
        "url": "http://hl7.org/fhir/us/qicore/StructureDefinition/qicore-recorded",
        "valueDateTime": "2013-11-01T13:35:00.000+00:00"
      } ],
      "status": "completed",
      "code": {
        "coding": [ {
          "system": "http://snomed.info/sct",
          "code": "442410008",
          "display": "Application of venous foot pump (procedure)"
        } ]
      },
      "subject": {
        "reference": "Patient/39baa108-b124-4300-b71c-dc21cc509d64"
      },
      "performedDateTime": "2026-11-04T07:00:00.000+00:00",
      "usedCode": [ {
        "coding": [ {
          "system": "http://snomed.info/sct",
          "code": "229511001",
          "display": "Application of graduated compression garment (procedure)",
          "userSelected": true
        } ]
      } ]
    },
    "request": {
      "method": "PUT",
      "url": "Procedure/02135485-3ee2-4165-aefe-96c8e7bbf658"
    }
  }, {
    "fullUrl": "https://madie.cms.gov/Organization/cddc96e8-db71-4723-8f53-2ead1f40c4a7",
    "resource": {
      "resourceType": "Organization",
      "id": "cddc96e8-db71-4723-8f53-2ead1f40c4a7",
      "meta": {
        "profile": [ "http://hl7.org/fhir/us/qicore/StructureDefinition/qicore-organization" ]
      },
      "identifier": [ {
        "use": "temp",
        "system": "urn:oid:2.16.840.1.113883.4.4",
        "value": "21-3259825"
      } ],
      "active": true,
      "type": [ {
        "coding": [ {
          "system": "http://terminology.hl7.org/CodeSystem/organization-type",
          "code": "pay",
          "display": "Payer"
        } ]
      } ],
      "name": "Blue Cross Blue Shield of Texas",
      "telecom": [ {
        "system": "phone",
        "value": "(+1) 972-766-6900"
      } ],
      "address": [ {
        "use": "billing",
        "type": "postal",
        "line": [ "P.O. Box 660044" ],
        "city": "Dallas",
        "state": "TX",
        "postalCode": "75266-0044",
        "country": "USA"
      } ]
    },
    "request": {
      "method": "PUT",
      "url": "Organization/cddc96e8-db71-4723-8f53-2ead1f40c4a7"
    }
  }, {
    "fullUrl": "https://madie.cms.gov/Practitioner/8ba84da5-ff16-4440-9797-3192f4bb845d",
    "resource": {
      "resourceType": "Practitioner",
      "id": "8ba84da5-ff16-4440-9797-3192f4bb845d",
      "identifier": [ {
        "system": "http://hl7.org/fhir/sid/us-npi",
        "value": "123456"
      } ],
      "name": [ {
        "family": "Evil",
        "prefix": [ "Dr" ]
      } ]
    },
    "request": {
      "method": "PUT",
      "url": "Practitioner/8ba84da5-ff16-4440-9797-3192f4bb845d"
    }
  }, {
    "fullUrl": "https://madie.cms.gov/Location/129dc1d1-0ebc-4d20-922f-ba2a460de3db",
    "resource": {
      "resourceType": "Location",
      "id": "129dc1d1-0ebc-4d20-922f-ba2a460de3db",
      "meta": {
        "profile": [ "http://hl7.org/fhir/us/qicore/StructureDefinition/qicore-location" ]
      },
      "identifier": [ {
        "use": "usual",
        "system": "http://exampleoflocation.com",
        "value": "B1-S.F2"
      } ],
      "name": "Medical Surgical East, first floor",
      "type": [ {
        "coding": [ {
          "system": "https://www.cdc.gov/nhsn/cdaportal/terminology/codesystem/hsloc.html",
          "code": "1025-6",
          "display": "Trauma Critical Care",
          "userSelected": true
        } ]
      } ]
    },
    "request": {
      "method": "PUT",
      "url": "Location/129dc1d1-0ebc-4d20-922f-ba2a460de3db"
    }
  }, {
    "fullUrl": "https://madie.cms.gov/MeasureReport/b4a2368e-3357-4098-b4d4-bb7628f3decc",
    "resource": {
      "resourceType": "MeasureReport",
      "id": "b4a2368e-3357-4098-b4d4-bb7628f3decc",
      "meta": {
        "profile": [ "http://hl7.org/fhir/us/cqfmeasures/StructureDefinition/test-case-cqfm" ]
      },
      "contained": [ {
        "resourceType": "Parameters",
        "id": "fe5c04ed-f2ae-4969-8487-48d641a7178b-parameters",
        "parameter": [ {
          "name": "subject",
          "valueString": "39baa108-b124-4300-b71c-dc21cc509d64"
        } ]
      } ],
      "extension": [ {
        "url": "http://hl7.org/fhir/StructureDefinition/cqf-inputParameters",
        "valueReference": {
          "reference": "#fe5c04ed-f2ae-4969-8487-48d641a7178b-parameters"
        }
      }, {
        "url": "http://hl7.org/fhir/us/cqfmeasures/StructureDefinition/cqfm-testCaseDescription",
        "valueMarkdown": "Device GCS applied on 1 Day After Anesthesia sug "
      } ],
      "modifierExtension": [ {
        "url": "http://hl7.org/fhir/us/cqfmeasures/StructureDefinition/cqfm-isTestCase",
        "valueBoolean": true
      } ],
      "status": "complete",
      "type": "individual",
      "measure": "https://madie.cms.gov/Measure/CMS190FHIRVTEProphylaxisICU",
      "period": {
        "start": "2026-01-01",
        "end": "2026-12-31"
      },
      "group": [ {
        "id": "Group_1",
        "population": [ {
          "id": "InitialPopulation_1",
          "code": {
            "coding": [ {
              "system": "http://terminology.hl7.org/CodeSystem/measure-population",
              "code": "initial-population",
              "display": "Initial Population"
            } ]
          },
          "count": 1
        }, {
          "id": "Denominator_1",
          "code": {
            "coding": [ {
              "system": "http://terminology.hl7.org/CodeSystem/measure-population",
              "code": "denominator",
              "display": "Denominator"
            } ]
          },
          "count": 1
        }, {
          "id": "DenominatorExclusion_1",
          "code": {
            "coding": [ {
              "system": "http://terminology.hl7.org/CodeSystem/measure-population",
              "code": "denominator-exclusion",
              "display": "Denominator Exclusion"
            } ]
          },
          "count": 0
        }, {
          "id": "Numerator_1",
          "code": {
            "coding": [ {
              "system": "http://terminology.hl7.org/CodeSystem/measure-population",
              "code": "numerator",
              "display": "Numerator"
            } ]
          },
          "count": 1
        }, {
          "id": "DenominatorException_1",
          "code": {
            "coding": [ {
              "system": "http://terminology.hl7.org/CodeSystem/measure-population",
              "code": "denominator-exception",
              "display": "Denominator Exception"
            } ]
          },
          "count": 0
        } ],
        "measureScore": {
          "value": 0.0
        }
      } ],
      "evaluatedResource": [ {
        "reference": "Patient/39baa108-b124-4300-b71c-dc21cc509d64"
      }, {
        "reference": "Encounter/2e392a52-c162-4006-941c-1d7c6193375b"
      }, {
        "reference": "Coverage/e64aea7d-a6ee-4569-8c7f-5c155b0eabff"
      }, {
        "reference": "Procedure/5de54c30-6eed-4208-8219-1ce359647248"
      }, {
        "reference": "Procedure/02135485-3ee2-4165-aefe-96c8e7bbf658"
      }, {
        "reference": "Organization/cddc96e8-db71-4723-8f53-2ead1f40c4a7"
      }, {
        "reference": "Practitioner/8ba84da5-ff16-4440-9797-3192f4bb845d"
      }, {
        "reference": "Location/129dc1d1-0ebc-4d20-922f-ba2a460de3db"
      } ]
    },
    "request": {
      "method": "PUT",
      "url": "MeasureReport/b4a2368e-3357-4098-b4d4-bb7628f3decc"
    }
  } ]
}