{
  "resourceType": "Bundle",
  "id": "6464324343434346525657",
  "type": "collection",
  "entry": [ {
    "fullUrl": "https://madie.cms.gov/Patient/c9a8b77a-d6fb-4c6d-a5cb-6c71bcf6baeb",
    "resource": {
      "resourceType": "Patient",
      "id": "c9a8b77a-d6fb-4c6d-a5cb-6c71bcf6baeb",
      "meta": {
        "profile": [ "http://hl7.org/fhir/us/qicore/StructureDefinition/qicore-patient" ]
      },
      "extension": [ {
        "url": "http://hl7.org/fhir/us/core/StructureDefinition/us-core-race",
        "extension": [ {
          "url": "ombCategory",
          "valueCoding": {
            "system": "urn:oid:2.16.840.1.113883.6.238",
            "code": "1002-5",
            "display": "American Indian or Alaska Native"
          }
        }, {
          "url": "text",
          "valueString": "American Indian or Alaska Native"
        } ]
      }, {
        "url": "http://hl7.org/fhir/us/core/StructureDefinition/us-core-ethnicity",
        "extension": [ {
          "url": "ombCategory",
          "valueCoding": {
            "system": "urn:oid:2.16.840.1.113883.6.238",
            "code": "2186-5",
            "display": "Not Hispanic or Latino"
          }
        }, {
          "url": "text",
          "valueString": "Not Hispanic or Latino"
        } ]
      } ],
      "identifier": [ {
        "type": {
          "coding": [ {
            "system": "http://terminology.hl7.org/CodeSystem/v2-0203",
            "code": "MR"
          } ]
        },
        "system": "https://bonnie-fhir.healthit.gov/",
        "value": "576545341346746345"
      } ],
      "active": true,
      "name": [ {
        "use": "usual",
        "family": "DENEXCEPPop2Pass",
        "given": [ "ConsecHeartRatesLT50" ]
      } ],
      "gender": "male",
      "birthDate": "1958-05-30"
    }
  }, {
    "fullUrl": "https://madie.cms.gov/Encounter/c5652734-bfcf-4ef8-99eb-f320a7e7338c",
    "resource": {
      "resourceType": "Encounter",
      "id": "c5652734-bfcf-4ef8-99eb-f320a7e7338c",
      "meta": {
        "profile": [ "http://hl7.org/fhir/us/qicore/StructureDefinition/qicore-encounter" ]
      },
      "status": "finished",
      "class": {
        "system": "http://terminology.hl7.org/CodeSystem/v3-ActCode",
        "code": "AMB",
        "display": "ambulatory"
      },
      "type": [ {
        "coding": [ {
          "system": "http://snomed.info/sct",
          "version": "http://snomed.info/sct/731000124108/version/20250301",
          "code": "209099002",
          "display": "History and physical examination with management of domiciliary or rest home patient (procedure)"
        } ]
      } ],
      "subject": {
        "reference": "Patient/c9a8b77a-d6fb-4c6d-a5cb-6c71bcf6baeb"
      },
      "period": {
        "start": "2026-04-05T06:00:00.000Z",
        "end": "2026-04-05T07:00:00.000Z"
      }
    }
  }, {
    "fullUrl": "https://madie.cms.gov/Encounter/81ff6222-e3bc-4e46-be10-1a722049db1d",
    "resource": {
      "resourceType": "Encounter",
      "id": "81ff6222-e3bc-4e46-be10-1a722049db1d",
      "meta": {
        "profile": [ "http://hl7.org/fhir/us/qicore/StructureDefinition/qicore-encounter" ]
      },
      "status": "finished",
      "class": {
        "system": "http://terminology.hl7.org/CodeSystem/v3-ActCode",
        "code": "AMB",
        "display": "ambulatory"
      },
      "type": [ {
        "coding": [ {
          "system": "http://snomed.info/sct",
          "version": "http://snomed.info/sct/731000124108/version/20250301",
          "code": "209099002",
          "display": "History and physical examination with management of domiciliary or rest home patient (procedure)"
        } ]
      } ],
      "subject": {
        "reference": "Patient/c9a8b77a-d6fb-4c6d-a5cb-6c71bcf6baeb"
      },
      "period": {
        "start": "2026-07-08T09:00:00.000Z",
        "end": "2026-07-08T10:00:00.000Z"
      }
    }
  }, {
    "fullUrl": "https://madie.cms.gov/Condition/7f007dfb-fd3c-492c-a667-c73ad4b9957f",
    "resource": {
      "resourceType": "Condition",
      "id": "7f007dfb-fd3c-492c-a667-c73ad4b9957f",
      "meta": {
        "profile": [ "http://hl7.org/fhir/us/qicore/StructureDefinition/qicore-condition-problems-health-concerns" ]
      },
      "clinicalStatus": {
        "coding": [ {
          "system": "http://terminology.hl7.org/CodeSystem/condition-clinical",
          "code": "active",
          "display": "Active"
        } ]
      },
      "verificationStatus": {
        "coding": [ {
          "system": "http://terminology.hl7.org/CodeSystem/condition-ver-status",
          "code": "confirmed",
          "display": "Confirmed"
        } ]
      },
      "category": [ {
        "coding": [ {
          "system": "http://terminology.hl7.org/CodeSystem/condition-category",
          "code": "problem-list-item",
          "display": "Problem List Item"
        } ]
      } ],
      "code": {
        "coding": [ {
          "system": "http://hl7.org/fhir/sid/icd-10-cm",
          "version": "2024",
          "code": "I21.01"
        } ]
      },
      "subject": {
        "reference": "Patient/c9a8b77a-d6fb-4c6d-a5cb-6c71bcf6baeb"
      },
      "onsetPeriod": {
        "start": "2023-11-22T07:30:00.000Z",
        "end": "2023-11-22T08:30:00.000Z"
      }
    }
  }, {
    "fullUrl": "https://madie.cms.gov/Condition/ad8e8775-785a-4c6d-8a26-654d7c269b25",
    "resource": {
      "resourceType": "Condition",
      "id": "ad8e8775-785a-4c6d-8a26-654d7c269b25",
      "meta": {
        "profile": [ "http://hl7.org/fhir/us/qicore/StructureDefinition/qicore-condition-problems-health-concerns" ]
      },
      "clinicalStatus": {
        "coding": [ {
          "system": "http://terminology.hl7.org/CodeSystem/condition-clinical",
          "code": "active",
          "display": "Active"
        } ]
      },
      "verificationStatus": {
        "coding": [ {
          "system": "http://terminology.hl7.org/CodeSystem/condition-ver-status",
          "code": "confirmed"
        } ]
      },
      "category": [ {
        "coding": [ {
          "system": "http://terminology.hl7.org/CodeSystem/condition-category",
          "code": "problem-list-item",
          "display": "Problem List Item"
        } ]
      } ],
      "code": {
        "coding": [ {
          "system": "http://snomed.info/sct",
          "version": "http://snomed.info/sct/731000124108/version/20250301",
          "code": "10365005",
          "display": "Right main coronary artery thrombosis (disorder)"
        } ]
      },
      "subject": {
        "reference": "Patient/c9a8b77a-d6fb-4c6d-a5cb-6c71bcf6baeb"
      },
      "onsetPeriod": {
        "start": "2026-01-21T07:00:00.000Z"
      }
    }
  }, {
    "fullUrl": "https://madie.cms.gov/Observation/74dafc52-998a-4efe-bf7f-cef4b638510c",
    "resource": {
      "resourceType": "Observation",
      "id": "74dafc52-998a-4efe-bf7f-cef4b638510c",
      "meta": {
        "profile": [ "http://hl7.org/fhir/us/core/StructureDefinition/us-core-heart-rate" ]
      },
      "status": "final",
      "category": [ {
        "coding": [ {
          "system": "http://terminology.hl7.org/CodeSystem/observation-category",
          "code": "vital-signs",
          "display": "Vital Signs"
        } ]
      }, {
        "coding": [ {
          "system": "http://terminology.hl7.org/CodeSystem/observation-category",
          "code": "survey"
        } ]
      } ],
      "code": {
        "coding": [ {
          "system": "http://loinc.org",
          "version": "2.76",
          "code": "8867-4"
        } ]
      },
      "subject": {
        "reference": "Patient/c9a8b77a-d6fb-4c6d-a5cb-6c71bcf6baeb"
      },
      "effectiveDateTime": "2026-07-08T09:15:00.000Z"
    }
  }, {
    "fullUrl": "https://madie.cms.gov/Observation/d44d784e-1255-4f50-8e11-3ad2c779bf78",
    "resource": {
      "resourceType": "Observation",
      "id": "d44d784e-1255-4f50-8e11-3ad2c779bf78",
      "meta": {
        "profile": [ "http://hl7.org/fhir/us/core/StructureDefinition/us-core-heart-rate" ]
      },
      "status": "final",
      "category": [ {
        "coding": [ {
          "system": "http://terminology.hl7.org/CodeSystem/observation-category",
          "code": "vital-signs",
          "display": "Vital Signs"
        } ]
      }, {
        "coding": [ {
          "system": "http://terminology.hl7.org/CodeSystem/observation-category",
          "code": "survey"
        } ]
      } ],
      "code": {
        "coding": [ {
          "system": "http://loinc.org",
          "version": "2.76",
          "code": "8867-4"
        } ]
      },
      "subject": {
        "reference": "Patient/c9a8b77a-d6fb-4c6d-a5cb-6c71bcf6baeb"
      },
      "effectiveDateTime": "2026-07-08T09:30:00.000Z",
      "valueQuantity": {
        "value": 45,
        "unit": "/min",
        "system": "http://unitsofmeasure.org",
        "code": "/min"
      }
    }
  }, {
    "fullUrl": "https://madie.cms.gov/MeasureReport/8df557cf-25d4-41c8-9eaf-11443567c576",
    "resource": {
      "resourceType": "MeasureReport",
      "id": "8df557cf-25d4-41c8-9eaf-11443567c576",
      "meta": {
        "profile": [ "http://hl7.org/fhir/us/cqfmeasures/StructureDefinition/test-case-cqfm" ]
      },
      "contained": [ {
        "resourceType": "Parameters",
        "id": "6f1b914e-3290-4144-8112-c0c45cd9f4c8-parameters",
        "parameter": [ {
          "name": "subject",
          "valueString": "c9a8b77a-d6fb-4c6d-a5cb-6c71bcf6baeb"
        } ]
      } ],
      "extension": [ {
        "url": "http://hl7.org/fhir/StructureDefinition/cqf-inputParameters",
        "valueReference": {
          "reference": "#6f1b914e-3290-4144-8112-c0c45cd9f4c8-parameters"
        }
      }, {
        "url": "http://hl7.org/fhir/us/cqfmeasures/StructureDefinition/cqfm-testCaseDescription",
        "valueMarkdown": "Pt > 18, 2 visits in MP, MI onset > 2 yrs b4 MP, CAD onset during MP b4 1st visit, and 2 consecutive heart rate readings on day of last visit with only one < 50"
      } ],
      "modifierExtension": [ {
        "url": "http://hl7.org/fhir/us/cqfmeasures/StructureDefinition/cqfm-isTestCase",
        "valueBoolean": true
      } ],
      "status": "complete",
      "type": "individual",
      "measure": "https://madie.cms.gov/Measure/CMS145FHIRCADBBlockerTPMIorLVSD",
      "period": {
        "start": "2026-01-01",
        "end": "2026-12-31"
      },
      "group": [ {
        "id": "Group_1",
        "population": [ {
          "id": "InitialPopulation_1",
          "code": {
            "coding": [ {
              "system": "http://terminology.hl7.org/CodeSystem/measure-population",
              "code": "initial-population",
              "display": "Initial Population"
            } ]
          },
          "count": 1
        }, {
          "id": "Denominator_1",
          "code": {
            "coding": [ {
              "system": "http://terminology.hl7.org/CodeSystem/measure-population",
              "code": "denominator",
              "display": "Denominator"
            } ]
          },
          "count": 0
        }, {
          "id": "Numerator_1",
          "code": {
            "coding": [ {
              "system": "http://terminology.hl7.org/CodeSystem/measure-population",
              "code": "numerator",
              "display": "Numerator"
            } ]
          },
          "count": 0
        }, {
          "id": "DenominatorException_1",
          "code": {
            "coding": [ {
              "system": "http://terminology.hl7.org/CodeSystem/measure-population",
              "code": "denominator-exception",
              "display": "Denominator Exception"
            } ]
          },
          "count": 0
        } ],
        "measureScore": {
          "value": 1.0
        }
      }, {
        "id": "Group_2",
        "population": [ {
          "id": "InitialPopulation_2",
          "code": {
            "coding": [ {
              "system": "http://terminology.hl7.org/CodeSystem/measure-population",
              "code": "initial-population",
              "display": "Initial Population"
            } ]
          },
          "count": 1
        }, {
          "id": "Denominator_2",
          "code": {
            "coding": [ {
              "system": "http://terminology.hl7.org/CodeSystem/measure-population",
              "code": "denominator",
              "display": "Denominator"
            } ]
          },
          "count": 1
        }, {
          "id": "Numerator_2",
          "code": {
            "coding": [ {
              "system": "http://terminology.hl7.org/CodeSystem/measure-population",
              "code": "numerator",
              "display": "Numerator"
            } ]
          },
          "count": 0
        }, {
          "id": "DenominatorException_2",
          "code": {
            "coding": [ {
              "system": "http://terminology.hl7.org/CodeSystem/measure-population",
              "code": "denominator-exception",
              "display": "Denominator Exception"
            } ]
          },
          "count": 0
        } ],
        "measureScore": {
          "value": 1.0
        }
      } ],
      "evaluatedResource": [ {
        "reference": "Patient/c9a8b77a-d6fb-4c6d-a5cb-6c71bcf6baeb"
      }, {
        "reference": "Encounter/c5652734-bfcf-4ef8-99eb-f320a7e7338c"
      }, {
        "reference": "Encounter/81ff6222-e3bc-4e46-be10-1a722049db1d"
      }, {
        "reference": "Condition/7f007dfb-fd3c-492c-a667-c73ad4b9957f"
      }, {
        "reference": "Condition/ad8e8775-785a-4c6d-8a26-654d7c269b25"
      }, {
        "reference": "Observation/74dafc52-998a-4efe-bf7f-cef4b638510c"
      }, {
        "reference": "Observation/d44d784e-1255-4f50-8e11-3ad2c779bf78"
      } ]
    }
  } ]
}