{
  "resourceType": "Bundle",
  "id": "657cbdc9b4f1f0343662347a",
  "type": "transaction",
  "entry": [ {
    "fullUrl": "https://madie.cms.gov/Patient/fcda2c9b-c817-4181-a477-19cc9c6317e3",
    "resource": {
      "resourceType": "Patient",
      "id": "fcda2c9b-c817-4181-a477-19cc9c6317e3",
      "meta": {
        "profile": [ "http://hl7.org/fhir/us/qicore/StructureDefinition/qicore-patient" ]
      },
      "extension": [ {
        "url": "http://hl7.org/fhir/us/core/StructureDefinition/us-core-race",
        "extension": [ {
          "url": "ombCategory",
          "valueCoding": {
            "system": "urn:oid:2.16.840.1.113883.6.238",
            "code": "2106-3",
            "display": "White",
            "userSelected": true
          }
        }, {
          "url": "text",
          "valueString": "White"
        } ]
      }, {
        "url": "http://hl7.org/fhir/us/core/StructureDefinition/us-core-ethnicity",
        "extension": [ {
          "url": "ombCategory",
          "valueCoding": {
            "system": "urn:oid:2.16.840.1.113883.6.238",
            "code": "2186-5",
            "display": "Not Hispanic or Latino",
            "userSelected": true
          }
        }, {
          "url": "text",
          "valueString": "Not Hispanic or Latino"
        } ]
      } ],
      "identifier": [ {
        "type": {
          "coding": [ {
            "system": "http://terminology.hl7.org/CodeSystem/v2-0203",
            "code": "MR"
          } ]
        },
        "system": "https://bonnie-fhir.healthit.gov/",
        "value": "657cbdc9b4f1f0343662347a"
      } ],
      "name": [ {
        "family": "BloodGlucoseFail",
        "given": [ "BloodGlucoseDayBeforeEnc" ]
      } ],
      "gender": "female",
      "birthDate": "2008-01-01"
    },
    "request": {
      "method": "PUT",
      "url": "Patient/fcda2c9b-c817-4181-a477-19cc9c6317e3"
    }
  }, {
    "fullUrl": "https://madie.cms.gov/Encounter/80613c0d-39b4-4380-bad2-740924103e69",
    "resource": {
      "resourceType": "Encounter",
      "id": "80613c0d-39b4-4380-bad2-740924103e69",
      "meta": {
        "profile": [ "http://hl7.org/fhir/us/qicore/StructureDefinition/qicore-encounter" ]
      },
      "status": "finished",
      "class": {
        "system": "http://terminology.hl7.org/CodeSystem/v3-ActCode",
        "code": "ACUTE",
        "display": "inpatient acute"
      },
      "type": [ {
        "coding": [ {
          "system": "http://snomed.info/sct",
          "version": "2024",
          "code": "32485007",
          "display": "Hospital admission (procedure)",
          "userSelected": true
        } ]
      } ],
      "subject": {
        "reference": "Patient/fcda2c9b-c817-4181-a477-19cc9c6317e3"
      },
      "period": {
        "start": "2026-01-01T08:00:00.000Z",
        "end": "2026-01-02T09:15:00.000Z"
      }
    },
    "request": {
      "method": "PUT",
      "url": "Encounter/80613c0d-39b4-4380-bad2-740924103e69"
    }
  }, {
    "fullUrl": "https://madie.cms.gov/Location/aa2079eb-ed42-401c-8423-ab7e1a68ae59",
    "resource": {
      "resourceType": "Location",
      "id": "aa2079eb-ed42-401c-8423-ab7e1a68ae59",
      "meta": {
        "profile": [ "http://hl7.org/fhir/us/qicore/StructureDefinition/qicore-location" ]
      },
      "identifier": [ {
        "use": "usual",
        "system": "http://exampleoflocation.com",
        "value": "B1-S.F2"
      } ],
      "name": "Medical Surgical East, first floor",
      "type": [ {
        "coding": [ {
          "system": "https://www.cdc.gov/nhsn/cdaportal/terminology/codesystem/hsloc.html",
          "code": "1028-0",
          "display": "Medical Cardiac Critical Care",
          "userSelected": true
        } ]
      } ]
    },
    "request": {
      "method": "PUT",
      "url": "Location/aa2079eb-ed42-401c-8423-ab7e1a68ae59"
    }
  }, {
    "fullUrl": "https://madie.cms.gov/MedicationRequest/38ccd145-98b2-4222-94a0-fe8ba22cd37d",
    "resource": {
      "resourceType": "MedicationRequest",
      "id": "38ccd145-98b2-4222-94a0-fe8ba22cd37d",
      "meta": {
        "profile": [ "http://hl7.org/fhir/us/qicore/StructureDefinition/qicore-medicationrequest" ]
      },
      "status": "completed",
      "intent": "order",
      "medicationCodeableConcept": {
        "coding": [ {
          "system": "http://www.nlm.nih.gov/research/umls/rxnorm",
          "version": "06052023",
          "code": "1007184"
        } ]
      },
      "subject": {
        "reference": "Patient/fcda2c9b-c817-4181-a477-19cc9c6317e3"
      },
      "authoredOn": "2026-01-01T08:15:00.000Z",
      "requester": {
        "reference": "Practitioner/33d87640-6b2a-40b0-ab11-542478a88d5a"
      },
      "dosageInstruction": [ {
        "timing": {
          "repeat": {
            "boundsPeriod": {
              "start": "2025-01-01T08:15:00.000Z"
            }
          }
        }
      } ]
    },
    "request": {
      "method": "PUT",
      "url": "MedicationRequest/38ccd145-98b2-4222-94a0-fe8ba22cd37d"
    }
  }, {
    "fullUrl": "https://madie.cms.gov/Observation/0e1a827a-900d-4dd9-af69-4b8c99cf46e8",
    "resource": {
      "resourceType": "Observation",
      "id": "0e1a827a-900d-4dd9-af69-4b8c99cf46e8",
      "meta": {
        "profile": [ "http://hl7.org/fhir/us/qicore/StructureDefinition/qicore-observation-lab" ]
      },
      "status": "final",
      "category": [ {
        "coding": [ {
          "system": "http://terminology.hl7.org/CodeSystem/observation-category",
          "code": "laboratory",
          "display": "Laboratory"
        } ],
        "text": "Laboratory"
      } ],
      "code": {
        "coding": [ {
          "system": "http://loinc.org",
          "version": "2.72",
          "code": "2339-0",
          "display": "Glucose [Mass/volume] in Blood",
          "userSelected": true
        } ]
      },
      "subject": {
        "reference": "Patient/fcda2c9b-c817-4181-a477-19cc9c6317e3"
      },
      "effectiveDateTime": "2025-12-31T23:59:00.000Z",
      "performer": [ {
        "reference": "Organization/Organization-1"
      } ],
      "valueQuantity": {
        "value": 179,
        "unit": "mg/dL",
        "system": "http://unitsofmeasure.org",
        "code": "mg/dL"
      }
    },
    "request": {
      "method": "PUT",
      "url": "Observation/0e1a827a-900d-4dd9-af69-4b8c99cf46e8"
    }
  }, {
    "fullUrl": "https://madie.cms.gov/Coverage/a1c560a3-d6e3-48ee-bc75-1a5e87c3d11d",
    "resource": {
      "resourceType": "Coverage",
      "id": "a1c560a3-d6e3-48ee-bc75-1a5e87c3d11d",
      "meta": {
        "profile": [ "http://hl7.org/fhir/us/qicore/StructureDefinition/qicore-coverage" ]
      },
      "identifier": [ {
        "system": "http://benefitsinc.com/certificate",
        "value": "12345"
      } ],
      "status": "active",
      "type": {
        "coding": [ {
          "system": "https://nahdo.org/sopt",
          "version": "1.0.1",
          "code": "1",
          "display": "MEDICARE",
          "userSelected": true
        } ]
      },
      "subscriberId": "AB9876",
      "beneficiary": {
        "reference": "Patient/fcda2c9b-c817-4181-a477-19cc9c6317e3"
      },
      "relationship": {
        "coding": [ {
          "system": "http://terminology.hl7.org/CodeSystem/subscriber-relationship",
          "code": "self"
        } ]
      },
      "payor": [ {
        "reference": "Organization/7abc2a90-2925-4f90-a543-b74d98a0ee3d"
      } ]
    },
    "request": {
      "method": "PUT",
      "url": "Coverage/a1c560a3-d6e3-48ee-bc75-1a5e87c3d11d"
    }
  }, {
    "fullUrl": "https://madie.cms.gov/Organization/7abc2a90-2925-4f90-a543-b74d98a0ee3d",
    "resource": {
      "resourceType": "Organization",
      "id": "7abc2a90-2925-4f90-a543-b74d98a0ee3d",
      "meta": {
        "profile": [ "http://hl7.org/fhir/us/qicore/StructureDefinition/qicore-organization" ]
      },
      "identifier": [ {
        "use": "temp",
        "system": "urn:oid:2.16.840.1.113883.4.4",
        "value": "21-3259825"
      } ],
      "active": true,
      "type": [ {
        "coding": [ {
          "system": "http://terminology.hl7.org/CodeSystem/organization-type",
          "code": "pay",
          "display": "Payer"
        } ]
      } ],
      "name": "Blue Cross Blue Shield of Texas",
      "telecom": [ {
        "system": "phone",
        "value": "(+1) 972-766-6900"
      } ],
      "address": [ {
        "use": "billing",
        "type": "postal",
        "line": [ "P.O. Box 660044" ],
        "city": "Dallas",
        "state": "TX",
        "postalCode": "75266-0044",
        "country": "USA"
      } ]
    },
    "request": {
      "method": "PUT",
      "url": "Organization/7abc2a90-2925-4f90-a543-b74d98a0ee3d"
    }
  }, {
    "fullUrl": "https://madie.cms.gov/Practitioner/e2872141-4a22-4fd8-90d7-9f2e683dea06",
    "resource": {
      "resourceType": "Practitioner",
      "id": "e2872141-4a22-4fd8-90d7-9f2e683dea06",
      "meta": {
        "profile": [ "http://hl7.org/fhir/us/qicore/StructureDefinition/qicore-practitioner" ]
      },
      "identifier": [ {
        "system": "http://hl7.org/fhir/sid/us-npi",
        "value": "0723660813"
      } ],
      "name": [ {
        "family": "Evil",
        "prefix": [ "Dr" ]
      } ]
    },
    "request": {
      "method": "PUT",
      "url": "Practitioner/e2872141-4a22-4fd8-90d7-9f2e683dea06"
    }
  }, {
    "fullUrl": "https://madie.cms.gov/MeasureReport/7eadaa55-15da-4d43-9e23-26846de5790b",
    "resource": {
      "resourceType": "MeasureReport",
      "id": "7eadaa55-15da-4d43-9e23-26846de5790b",
      "meta": {
        "profile": [ "http://hl7.org/fhir/us/cqfmeasures/StructureDefinition/test-case-cqfm" ]
      },
      "contained": [ {
        "resourceType": "Parameters",
        "id": "f2412d7a-d900-4d6e-a783-12ef89ebe338-parameters",
        "parameter": [ {
          "name": "subject",
          "valueString": "fcda2c9b-c817-4181-a477-19cc9c6317e3"
        } ]
      } ],
      "extension": [ {
        "url": "http://hl7.org/fhir/StructureDefinition/cqf-inputParameters",
        "valueReference": {
          "reference": "#f2412d7a-d900-4d6e-a783-12ef89ebe338-parameters"
        }
      }, {
        "url": "http://hl7.org/fhir/us/cqfmeasures/StructureDefinition/cqfm-testCaseDescription",
        "valueMarkdown": "Inpatient encounter with diabetic medication during MP with SDE blood glucose effective datetime day before encounter. "
      } ],
      "modifierExtension": [ {
        "url": "http://hl7.org/fhir/us/cqfmeasures/StructureDefinition/cqfm-isTestCase",
        "valueBoolean": true
      } ],
      "status": "complete",
      "type": "individual",
      "measure": "https://madie.cms.gov/Measure/NHSNGlycemicControlHypoglycemiaInitialPopulation",
      "period": {
        "start": "2026-01-01",
        "end": "2026-12-31"
      },
      "group": [ {
        "id": "Group_1",
        "population": [ {
          "id": "InitialPopulation_1",
          "code": {
            "coding": [ {
              "system": "http://terminology.hl7.org/CodeSystem/measure-population",
              "code": "initial-population",
              "display": "Initial Population"
            } ]
          },
          "count": 1
        } ],
        "measureScore": {
          "value": 0.0
        }
      } ],
      "evaluatedResource": [ {
        "reference": "Patient/fcda2c9b-c817-4181-a477-19cc9c6317e3"
      }, {
        "reference": "Encounter/80613c0d-39b4-4380-bad2-740924103e69"
      }, {
        "reference": "Location/aa2079eb-ed42-401c-8423-ab7e1a68ae59"
      }, {
        "reference": "MedicationRequest/38ccd145-98b2-4222-94a0-fe8ba22cd37d"
      }, {
        "reference": "Observation/0e1a827a-900d-4dd9-af69-4b8c99cf46e8"
      }, {
        "reference": "Coverage/a1c560a3-d6e3-48ee-bc75-1a5e87c3d11d"
      }, {
        "reference": "Organization/7abc2a90-2925-4f90-a543-b74d98a0ee3d"
      }, {
        "reference": "Practitioner/e2872141-4a22-4fd8-90d7-9f2e683dea06"
      } ]
    },
    "request": {
      "method": "PUT",
      "url": "MeasureReport/7eadaa55-15da-4d43-9e23-26846de5790b"
    }
  } ]
}