{
  "resourceType": "Bundle",
  "id": "63487c2d0968f80122540146",
  "type": "transaction",
  "entry": [ {
    "fullUrl": "https://madie.cms.gov/Patient/ee486b94-1eb2-4914-9f1d-631b4057a3e4",
    "resource": {
      "resourceType": "Patient",
      "id": "ee486b94-1eb2-4914-9f1d-631b4057a3e4",
      "meta": {
        "profile": [ "http://hl7.org/fhir/us/qicore/StructureDefinition/qicore-patient" ]
      },
      "text": {
        "status": "generated",
        "div": "<div xmlns=\"http://www.w3.org/1999/xhtml\"><div class=\"hapiHeaderText\">GravidaResultNull<b>DENOMFail</b></div><table class=\"hapiPropertyTable\"><tbody><tr><td>Identifier</td><td>bd5809d63a645d5cb579233f12fec6c8e8831d73a2d817f7f0d8c7114f516c32</td></tr><tr><td>Date of birth</td><td><span>14 February 1985</span></td></tr></tbody></table></div>"
      },
      "extension": [ {
        "url": "http://hl7.org/fhir/us/core/StructureDefinition/us-core-race",
        "extension": [ {
          "url": "ombCategory",
          "valueCoding": {
            "system": "urn:oid:2.16.840.1.113883.6.238",
            "code": "1002-5",
            "display": "American Indian or Alaska Native",
            "userSelected": true
          }
        }, {
          "url": "text",
          "valueString": "American Indian or Alaska Native"
        } ]
      }, {
        "url": "http://hl7.org/fhir/us/core/StructureDefinition/us-core-ethnicity",
        "extension": [ {
          "url": "ombCategory",
          "valueCoding": {
            "system": "urn:oid:2.16.840.1.113883.6.238",
            "code": "2135-2",
            "display": "Hispanic or Latino",
            "userSelected": true
          }
        }, {
          "url": "text",
          "valueString": "Hispanic or Latino"
        } ]
      } ],
      "identifier": [ {
        "type": {
          "coding": [ {
            "system": "http://terminology.hl7.org/CodeSystem/v2-0203",
            "code": "MR"
          } ]
        },
        "system": "https://bonnie-fhir.healthit.gov/",
        "value": "63487c2d0968f80122540146"
      } ],
      "active": true,
      "name": [ {
        "use": "usual",
        "family": "DENOMFail",
        "given": [ "GravidaResultNull" ]
      } ],
      "gender": "female",
      "birthDate": "1998-02-14"
    },
    "request": {
      "method": "PUT",
      "url": "Patient/ee486b94-1eb2-4914-9f1d-631b4057a3e4"
    }
  }, {
    "fullUrl": "https://madie.cms.gov/Observation/4a19744d-6180-413d-b673-9c22ec0aeee7",
    "resource": {
      "resourceType": "Observation",
      "id": "4a19744d-6180-413d-b673-9c22ec0aeee7",
      "meta": {
        "profile": [ "http://hl7.org/fhir/us/qicore/StructureDefinition/qicore-simple-observation" ]
      },
      "status": "final",
      "category": [ {
        "coding": [ {
          "system": "http://terminology.hl7.org/CodeSystem/observation-category",
          "code": "exam",
          "display": "exam",
          "userSelected": true
        } ]
      } ],
      "code": {
        "coding": [ {
          "system": "http://loinc.org",
          "code": "11996-6"
        } ]
      },
      "subject": {
        "reference": "Patient/ee486b94-1eb2-4914-9f1d-631b4057a3e4"
      },
      "effectiveDateTime": "2026-03-08T09:00:00.000+00:00",
      "performer": [ {
        "reference": "Organization/example1",
        "display": "Hendricks Country Hospital"
      } ]
    },
    "request": {
      "method": "PUT",
      "url": "Observation/4a19744d-6180-413d-b673-9c22ec0aeee7"
    }
  }, {
    "fullUrl": "https://madie.cms.gov/Observation/3b6dd33a-63b3-4438-855c-c14895947cca",
    "resource": {
      "resourceType": "Observation",
      "id": "3b6dd33a-63b3-4438-855c-c14895947cca",
      "meta": {
        "profile": [ "http://hl7.org/fhir/us/qicore/StructureDefinition/qicore-simple-observation" ]
      },
      "status": "final",
      "category": [ {
        "coding": [ {
          "system": "http://terminology.hl7.org/CodeSystem/observation-category",
          "code": "exam",
          "display": "exam",
          "userSelected": true
        } ]
      } ],
      "code": {
        "coding": [ {
          "system": "http://loinc.org",
          "code": "11884-4"
        } ]
      },
      "subject": {
        "reference": "Patient/ee486b94-1eb2-4914-9f1d-631b4057a3e4"
      },
      "effectiveDateTime": "2026-06-08T20:00:00.000+00:00",
      "performer": [ {
        "reference": "Organization/example1",
        "display": "Hendricks Country Hospital"
      } ],
      "valueQuantity": {
        "value": 37,
        "system": "http://unitsofmeasure.org",
        "code": "wk"
      }
    },
    "request": {
      "method": "PUT",
      "url": "Observation/3b6dd33a-63b3-4438-855c-c14895947cca"
    }
  }, {
    "fullUrl": "https://madie.cms.gov/Observation/0df6ae49-640d-4cff-bb93-23936b147b6c",
    "resource": {
      "resourceType": "Observation",
      "id": "0df6ae49-640d-4cff-bb93-23936b147b6c",
      "meta": {
        "profile": [ "http://hl7.org/fhir/us/qicore/StructureDefinition/qicore-simepl-observation" ]
      },
      "status": "final",
      "category": [ {
        "coding": [ {
          "system": "http://terminology.hl7.org/CodeSystem/observation-category",
          "code": "exam",
          "display": "exam",
          "userSelected": true
        } ]
      } ],
      "code": {
        "coding": [ {
          "system": "http://loinc.org",
          "code": "93857-1"
        } ]
      },
      "subject": {
        "reference": "Patient/ee486b94-1eb2-4914-9f1d-631b4057a3e4"
      },
      "effectiveDateTime": "2026-06-08T20:00:00.000+00:00",
      "performer": [ {
        "reference": "Organization/example1",
        "display": "Hendricks Country Hospital"
      } ],
      "valueDateTime": "2026-06-08T20:00:00.000+00:00"
    },
    "request": {
      "method": "PUT",
      "url": "Observation/0df6ae49-640d-4cff-bb93-23936b147b6c"
    }
  }, {
    "fullUrl": "https://madie.cms.gov/Encounter/0019ce74-9b2d-4071-a12e-6c846f1ba854",
    "resource": {
      "resourceType": "Encounter",
      "id": "0019ce74-9b2d-4071-a12e-6c846f1ba854",
      "meta": {
        "profile": [ "http://hl7.org/fhir/us/qicore/StructureDefinition/qicore-encounter" ]
      },
      "status": "finished",
      "class": {
        "system": "http://terminology.hl7.org/CodeSystem/v3-ActCode",
        "code": "IMP",
        "display": "inpatient encounter"
      },
      "type": [ {
        "coding": [ {
          "system": "http://snomed.info/sct",
          "code": "8715000"
        } ]
      } ],
      "subject": {
        "reference": "Patient/ee486b94-1eb2-4914-9f1d-631b4057a3e4"
      },
      "period": {
        "start": "2026-06-08T08:00:00.000+00:00",
        "end": "2026-06-10T08:15:00.000+00:00"
      },
      "length": {
        "value": 2,
        "unit": "days"
      },
      "reasonCode": [ {
        "coding": [ {
          "system": "http://snomed.info/sct",
          "code": "169826009",
          "display": "Single live birth from singleton pregnancy (finding)"
        } ]
      } ]
    },
    "request": {
      "method": "PUT",
      "url": "Encounter/0019ce74-9b2d-4071-a12e-6c846f1ba854"
    }
  }, {
    "fullUrl": "https://madie.cms.gov/Procedure/9a863863-4c00-4030-bd68-0f7d86fd2dff",
    "resource": {
      "resourceType": "Procedure",
      "id": "9a863863-4c00-4030-bd68-0f7d86fd2dff",
      "meta": {
        "profile": [ "http://hl7.org/fhir/us/qicore/StructureDefinition/qicore-procedure" ]
      },
      "extension": [ {
        "url": "http://hl7.org/fhir/us/qicore/StructureDefinition/qicore-recorded",
        "valueDateTime": "2014-04-05T13:35:00.000+00:00"
      } ],
      "status": "completed",
      "code": {
        "coding": [ {
          "system": "http://www.cms.gov/Medicare/Coding/ICD10",
          "code": "10D00Z0"
        }, {
          "system": "http://snomed.info/sct",
          "code": "4504004"
        } ]
      },
      "subject": {
        "reference": "Patient/ee486b94-1eb2-4914-9f1d-631b4057a3e4"
      },
      "performedPeriod": {
        "start": "2026-06-08T20:00:00.000+00:00",
        "end": "2026-06-08T20:15:00.000+00:00"
      }
    },
    "request": {
      "method": "PUT",
      "url": "Procedure/9a863863-4c00-4030-bd68-0f7d86fd2dff"
    }
  }, {
    "fullUrl": "https://madie.cms.gov/Condition/c44e945a-55de-446c-b4b7-fe87a2e645ce",
    "resource": {
      "resourceType": "Condition",
      "id": "c44e945a-55de-446c-b4b7-fe87a2e645ce",
      "meta": {
        "profile": [ "http://hl7.org/fhir/us/qicore/StructureDefinition/qicore-condition" ]
      },
      "category": [ {
        "coding": [ {
          "system": "http://terminology.hl7.org/CodeSystem/condition-category",
          "code": "encounter-diagnosis",
          "display": "Encounter Diagnosis"
        } ]
      } ],
      "code": {
        "coding": [ {
          "system": "http://snomed.info/sct",
          "version": "2022-09",
          "code": "169826009",
          "display": "Single live birth (finding)",
          "userSelected": true
        } ]
      },
      "subject": {
        "reference": "Patient/ee486b94-1eb2-4914-9f1d-631b4057a3e4"
      },
      "recordedDate": "2026-10-21T08:00:00.000+00:00"
    },
    "request": {
      "method": "PUT",
      "url": "Condition/c44e945a-55de-446c-b4b7-fe87a2e645ce"
    }
  }, {
    "fullUrl": "https://madie.cms.gov/Coverage/05ca715f-4355-4019-ba12-034685a39985",
    "resource": {
      "resourceType": "Coverage",
      "id": "05ca715f-4355-4019-ba12-034685a39985",
      "meta": {
        "profile": [ "http://hl7.org/fhir/us/qicore/StructureDefinition/qicore-coverage" ]
      },
      "status": "active",
      "subscriberId": "523435",
      "beneficiary": {
        "reference": "Patient/ee486b94-1eb2-4914-9f1d-631b4057a3e4"
      },
      "relationship": {
        "coding": [ {
          "system": "http://terminology.hl7.org/CodeSystem/subscriber-relationship",
          "code": "self"
        } ]
      },
      "payor": [ {
        "reference": "Organization/fa72a105-bddb-4c2c-8d6f-87ab0aa99b33"
      } ]
    },
    "request": {
      "method": "PUT",
      "url": "Coverage/05ca715f-4355-4019-ba12-034685a39985"
    }
  }, {
    "fullUrl": "https://madie.cms.gov/Organization/fa72a105-bddb-4c2c-8d6f-87ab0aa99b33",
    "resource": {
      "resourceType": "Organization",
      "id": "fa72a105-bddb-4c2c-8d6f-87ab0aa99b33",
      "meta": {
        "profile": [ "http://hl7.org/fhir/us/qicore/StructureDefinition/qicore-organization" ]
      },
      "identifier": [ {
        "use": "temp",
        "system": "urn:oid:2.16.840.1.113883.4.4",
        "value": "21-3259825"
      } ],
      "active": true,
      "type": [ {
        "coding": [ {
          "system": "http://terminology.hl7.org/CodeSystem/organization-type",
          "code": "pay",
          "display": "Payer"
        } ]
      } ],
      "name": "Blue Cross Blue Shield of Texas",
      "telecom": [ {
        "system": "phone",
        "value": "(+1) 972-766-6900"
      } ],
      "address": [ {
        "use": "billing",
        "type": "postal",
        "line": [ "P.O. Box 660044" ],
        "city": "Dallas",
        "state": "TX",
        "postalCode": "75266-0044",
        "country": "USA"
      } ]
    },
    "request": {
      "method": "PUT",
      "url": "Organization/fa72a105-bddb-4c2c-8d6f-87ab0aa99b33"
    }
  }, {
    "fullUrl": "https://madie.cms.gov/Practitioner/3d6aa5ce-b86a-42d7-9e42-719f7995ccdc",
    "resource": {
      "resourceType": "Practitioner",
      "id": "3d6aa5ce-b86a-42d7-9e42-719f7995ccdc",
      "meta": {
        "profile": [ "http://hl7.org/fhir/us/qicore/StructureDefinition/qicore-practitioner" ]
      },
      "identifier": [ {
        "system": "http://hl7.org/fhir/sid/us-npi",
        "value": "1234567890"
      } ],
      "name": [ {
        "family": "Evil",
        "prefix": [ "Dr" ]
      } ]
    },
    "request": {
      "method": "PUT",
      "url": "Practitioner/3d6aa5ce-b86a-42d7-9e42-719f7995ccdc"
    }
  }, {
    "fullUrl": "https://madie.cms.gov/MeasureReport/e4838373-b78d-4cb0-9e91-094b99128333",
    "resource": {
      "resourceType": "MeasureReport",
      "id": "e4838373-b78d-4cb0-9e91-094b99128333",
      "meta": {
        "profile": [ "http://hl7.org/fhir/us/cqfmeasures/StructureDefinition/test-case-cqfm" ]
      },
      "contained": [ {
        "resourceType": "Parameters",
        "id": "a1b2574e-9a8e-43a1-a126-08d49e6b92ed-parameters",
        "parameter": [ {
          "name": "subject",
          "valueString": "ee486b94-1eb2-4914-9f1d-631b4057a3e4"
        } ]
      } ],
      "extension": [ {
        "url": "http://hl7.org/fhir/StructureDefinition/cqf-inputParameters",
        "valueReference": {
          "reference": "#a1b2574e-9a8e-43a1-a126-08d49e6b92ed-parameters"
        }
      }, {
        "url": "http://hl7.org/fhir/us/cqfmeasures/StructureDefinition/cqfm-testCaseDescription",
        "valueMarkdown": "Passes IP,  Gravida result is missing\n"
      } ],
      "modifierExtension": [ {
        "url": "http://hl7.org/fhir/us/cqfmeasures/StructureDefinition/cqfm-isTestCase",
        "valueBoolean": true
      } ],
      "status": "complete",
      "type": "individual",
      "measure": "https://madie.cms.gov/Measure/CMS0334FHIRPCCesareanBirth",
      "period": {
        "start": "2026-01-01",
        "end": "2026-12-31"
      },
      "group": [ {
        "id": "Group_1",
        "population": [ {
          "id": "InitialPopulation_1",
          "code": {
            "coding": [ {
              "system": "http://terminology.hl7.org/CodeSystem/measure-population",
              "code": "initial-population",
              "display": "Initial Population"
            } ]
          },
          "count": 1
        }, {
          "id": "Denominator_1",
          "code": {
            "coding": [ {
              "system": "http://terminology.hl7.org/CodeSystem/measure-population",
              "code": "denominator",
              "display": "Denominator"
            } ]
          },
          "count": 0
        }, {
          "id": "DenominatorExclusion_1",
          "code": {
            "coding": [ {
              "system": "http://terminology.hl7.org/CodeSystem/measure-population",
              "code": "denominator-exclusion",
              "display": "Denominator Exclusion"
            } ]
          },
          "count": 0
        }, {
          "id": "Numerator_1",
          "code": {
            "coding": [ {
              "system": "http://terminology.hl7.org/CodeSystem/measure-population",
              "code": "numerator",
              "display": "Numerator"
            } ]
          },
          "count": 0
        } ],
        "measureScore": {
          "value": 0.0
        }
      } ],
      "evaluatedResource": [ {
        "reference": "Patient/ee486b94-1eb2-4914-9f1d-631b4057a3e4"
      }, {
        "reference": "Observation/4a19744d-6180-413d-b673-9c22ec0aeee7"
      }, {
        "reference": "Observation/3b6dd33a-63b3-4438-855c-c14895947cca"
      }, {
        "reference": "Observation/0df6ae49-640d-4cff-bb93-23936b147b6c"
      }, {
        "reference": "Encounter/0019ce74-9b2d-4071-a12e-6c846f1ba854"
      }, {
        "reference": "Procedure/9a863863-4c00-4030-bd68-0f7d86fd2dff"
      }, {
        "reference": "Condition/c44e945a-55de-446c-b4b7-fe87a2e645ce"
      }, {
        "reference": "Coverage/05ca715f-4355-4019-ba12-034685a39985"
      }, {
        "reference": "Organization/fa72a105-bddb-4c2c-8d6f-87ab0aa99b33"
      }, {
        "reference": "Practitioner/3d6aa5ce-b86a-42d7-9e42-719f7995ccdc"
      } ]
    },
    "request": {
      "method": "PUT",
      "url": "MeasureReport/e4838373-b78d-4cb0-9e91-094b99128333"
    }
  } ]
}