{
  "resourceType": "Bundle",
  "id": "612e6f8b02c62a011f2f239e",
  "type": "transaction",
  "entry": [ {
    "fullUrl": "https://madie.cms.gov/Patient/f475cbfa-630a-4296-b083-9feda23892f4",
    "resource": {
      "resourceType": "Patient",
      "id": "f475cbfa-630a-4296-b083-9feda23892f4",
      "meta": {
        "profile": [ "http://hl7.org/fhir/us/qicore/StructureDefinition/qicore-patient" ]
      },
      "text": {
        "status": "generated",
        "div": "<div xmlns=\"http://www.w3.org/1999/xhtml\"><div class=\"hapiHeaderText\">CMPerfRvltDate1DayAfterICU <b>DENEXPASS </b></div><table class=\"hapiPropertyTable\"><tbody><tr><td>Identifier</td><td>2a65a26f9f7578ed1148174b365eff5a</td></tr><tr><td>Date of birth</td><td><span>03 March 1974</span></td></tr></tbody></table></div>"
      },
      "extension": [ {
        "url": "http://hl7.org/fhir/us/core/StructureDefinition/us-core-race",
        "extension": [ {
          "url": "ombCategory",
          "valueCoding": {
            "system": "urn:oid:2.16.840.1.113883.6.238",
            "code": "1002-5",
            "display": "American Indian or Alaska Native",
            "userSelected": true
          }
        }, {
          "url": "text",
          "valueString": "American Indian or Alaska Native"
        } ]
      }, {
        "url": "http://hl7.org/fhir/us/core/StructureDefinition/us-core-ethnicity",
        "extension": [ {
          "url": "ombCategory",
          "valueCoding": {
            "system": "urn:oid:2.16.840.1.113883.6.238",
            "code": "2135-2",
            "display": "Hispanic or Latino",
            "userSelected": true
          }
        }, {
          "url": "text",
          "valueString": "Hispanic or Latino"
        } ]
      } ],
      "identifier": [ {
        "type": {
          "coding": [ {
            "system": "http://terminology.hl7.org/CodeSystem/v2-0203",
            "code": "MR"
          } ]
        },
        "system": "https://bonnie-fhir.healthit.gov/",
        "value": "612e6f8b02c62a011f2f239e"
      } ],
      "active": true,
      "name": [ {
        "use": "usual",
        "family": "DENEXPass",
        "given": [ "CMPerfRvltDate1DayAfterICU" ]
      } ],
      "gender": "female",
      "birthDate": "1975-03-03"
    },
    "request": {
      "method": "PUT",
      "url": "Patient/f475cbfa-630a-4296-b083-9feda23892f4"
    }
  }, {
    "fullUrl": "https://madie.cms.gov/Encounter/36a9055d-1577-4a0f-943f-3f793824a83e",
    "resource": {
      "resourceType": "Encounter",
      "id": "36a9055d-1577-4a0f-943f-3f793824a83e",
      "meta": {
        "profile": [ "http://hl7.org/fhir/us/qicore/StructureDefinition/qicore-encounter" ]
      },
      "status": "finished",
      "class": {
        "system": "http://terminology.hl7.org/CodeSystem/v3-ActCode",
        "code": "IMP",
        "display": "inpatient encounter"
      },
      "type": [ {
        "coding": [ {
          "system": "http://snomed.info/sct",
          "code": "8715000"
        } ]
      } ],
      "subject": {
        "reference": "Patient/f475cbfa-630a-4296-b083-9feda23892f4"
      },
      "period": {
        "start": "2026-12-04T08:00:00.000+00:00",
        "end": "2026-12-30T08:15:00.000+00:00"
      },
      "length": {
        "value": 26.0,
        "unit": "days"
      },
      "location": [ {
        "location": {
          "reference": "Location/f5674ecb-6720-4b7a-8c00-c6c337bb4990"
        },
        "period": {
          "start": "2026-12-06T08:00:00.000+00:00",
          "end": "2026-12-12T08:15:00.000+00:00"
        }
      } ]
    },
    "request": {
      "method": "PUT",
      "url": "Encounter/36a9055d-1577-4a0f-943f-3f793824a83e"
    }
  }, {
    "fullUrl": "https://madie.cms.gov/Procedure/a93a237d-c44f-430c-abfa-6696db9204ff",
    "resource": {
      "resourceType": "Procedure",
      "id": "a93a237d-c44f-430c-abfa-6696db9204ff",
      "meta": {
        "profile": [ "http://hl7.org/fhir/us/qicore/StructureDefinition/qicore-procedure" ]
      },
      "extension": [ {
        "url": "http://hl7.org/fhir/us/qicore/StructureDefinition/qicore-recorded",
        "valueDateTime": "2013-12-07T13:35:00.000+00:00"
      } ],
      "status": "completed",
      "code": {
        "coding": [ {
          "system": "http://snomed.info/sct",
          "code": "133918004",
          "display": "Comfort measures (regime/therapy)"
        } ]
      },
      "subject": {
        "reference": "Patient/f475cbfa-630a-4296-b083-9feda23892f4"
      },
      "performedDateTime": "2026-12-06T09:00:00.000+00:00"
    },
    "request": {
      "method": "PUT",
      "url": "Procedure/a93a237d-c44f-430c-abfa-6696db9204ff"
    }
  }, {
    "fullUrl": "https://madie.cms.gov/Coverage/75fed232-a3ae-4675-8535-55310cd86742",
    "resource": {
      "resourceType": "Coverage",
      "id": "75fed232-a3ae-4675-8535-55310cd86742",
      "status": "active",
      "beneficiary": {
        "reference": "Patient/f475cbfa-630a-4296-b083-9feda23892f4"
      },
      "period": {
        "start": "1975-03-03T08:00:00.000+00:00"
      },
      "payor": [ {
        "reference": "Organization/114ad83b-3865-484f-971e-8f6702d887b5"
      } ]
    },
    "request": {
      "method": "PUT",
      "url": "Coverage/75fed232-a3ae-4675-8535-55310cd86742"
    }
  }, {
    "fullUrl": "https://madie.cms.gov/Location/f5674ecb-6720-4b7a-8c00-c6c337bb4990",
    "resource": {
      "resourceType": "Location",
      "id": "f5674ecb-6720-4b7a-8c00-c6c337bb4990",
      "meta": {
        "profile": [ "http://hl7.org/fhir/us/qicore/StructureDefinition/qicore-location" ]
      },
      "identifier": [ {
        "use": "usual",
        "system": "http://exampleoflocation.com",
        "value": "B1-S.F2"
      } ],
      "name": "Medical Surgical East, first floor",
      "type": [ {
        "coding": [ {
          "system": "https://www.cdc.gov/nhsn/cdaportal/terminology/codesystem/hsloc.html",
          "code": "1025-6",
          "display": "Trauma Critical Care",
          "userSelected": true
        } ]
      } ]
    },
    "request": {
      "method": "PUT",
      "url": "Location/f5674ecb-6720-4b7a-8c00-c6c337bb4990"
    }
  }, {
    "fullUrl": "https://madie.cms.gov/Organization/114ad83b-3865-484f-971e-8f6702d887b5",
    "resource": {
      "resourceType": "Organization",
      "id": "114ad83b-3865-484f-971e-8f6702d887b5",
      "meta": {
        "profile": [ "http://hl7.org/fhir/us/qicore/StructureDefinition/qicore-organization" ]
      },
      "identifier": [ {
        "use": "temp",
        "system": "urn:oid:2.16.840.1.113883.4.4",
        "value": "21-3259825"
      } ],
      "active": true,
      "type": [ {
        "coding": [ {
          "system": "http://terminology.hl7.org/CodeSystem/organization-type",
          "code": "pay",
          "display": "Payer"
        } ]
      } ],
      "name": "Blue Cross Blue Shield of Texas",
      "telecom": [ {
        "system": "phone",
        "value": "(+1) 972-766-6900"
      } ],
      "address": [ {
        "use": "billing",
        "type": "postal",
        "line": [ "P.O. Box 660044" ],
        "city": "Dallas",
        "state": "TX",
        "postalCode": "75266-0044",
        "country": "USA"
      } ]
    },
    "request": {
      "method": "PUT",
      "url": "Organization/114ad83b-3865-484f-971e-8f6702d887b5"
    }
  }, {
    "fullUrl": "https://madie.cms.gov/Practitioner/5b1c6b89-7677-4b87-a6a1-75ebb312a1e0",
    "resource": {
      "resourceType": "Practitioner",
      "id": "5b1c6b89-7677-4b87-a6a1-75ebb312a1e0",
      "identifier": [ {
        "system": "http://hl7.org/fhir/sid/us-npi",
        "value": "123456"
      } ],
      "name": [ {
        "family": "Evil",
        "prefix": [ "Dr" ]
      } ]
    },
    "request": {
      "method": "PUT",
      "url": "Practitioner/5b1c6b89-7677-4b87-a6a1-75ebb312a1e0"
    }
  }, {
    "fullUrl": "https://madie.cms.gov/MeasureReport/6b4d9c88-69a5-4aaf-bb16-4df369a4ec89",
    "resource": {
      "resourceType": "MeasureReport",
      "id": "6b4d9c88-69a5-4aaf-bb16-4df369a4ec89",
      "meta": {
        "profile": [ "http://hl7.org/fhir/us/cqfmeasures/StructureDefinition/test-case-cqfm" ]
      },
      "contained": [ {
        "resourceType": "Parameters",
        "id": "b0ec4f58-0e81-4f5a-87d0-c09fad49e141-parameters",
        "parameter": [ {
          "name": "subject",
          "valueString": "f475cbfa-630a-4296-b083-9feda23892f4"
        } ]
      } ],
      "extension": [ {
        "url": "http://hl7.org/fhir/StructureDefinition/cqf-inputParameters",
        "valueReference": {
          "reference": "#b0ec4f58-0e81-4f5a-87d0-c09fad49e141-parameters"
        }
      }, {
        "url": "http://hl7.org/fhir/us/cqfmeasures/StructureDefinition/cqfm-testCaseDescription",
        "valueMarkdown": "CMPerfRvltDate1DayAfterICU\n"
      } ],
      "modifierExtension": [ {
        "url": "http://hl7.org/fhir/us/cqfmeasures/StructureDefinition/cqfm-isTestCase",
        "valueBoolean": true
      } ],
      "status": "complete",
      "type": "individual",
      "measure": "https://madie.cms.gov/Measure/CMS190FHIRVTEProphylaxisICU",
      "period": {
        "start": "2026-01-01",
        "end": "2026-12-31"
      },
      "group": [ {
        "id": "Group_1",
        "population": [ {
          "id": "InitialPopulation_1",
          "code": {
            "coding": [ {
              "system": "http://terminology.hl7.org/CodeSystem/measure-population",
              "code": "initial-population",
              "display": "Initial Population"
            } ]
          },
          "count": 1
        }, {
          "id": "Denominator_1",
          "code": {
            "coding": [ {
              "system": "http://terminology.hl7.org/CodeSystem/measure-population",
              "code": "denominator",
              "display": "Denominator"
            } ]
          },
          "count": 1
        }, {
          "id": "DenominatorExclusion_1",
          "code": {
            "coding": [ {
              "system": "http://terminology.hl7.org/CodeSystem/measure-population",
              "code": "denominator-exclusion",
              "display": "Denominator Exclusion"
            } ]
          },
          "count": 1
        }, {
          "id": "Numerator_1",
          "code": {
            "coding": [ {
              "system": "http://terminology.hl7.org/CodeSystem/measure-population",
              "code": "numerator",
              "display": "Numerator"
            } ]
          },
          "count": 0
        }, {
          "id": "DenominatorException_1",
          "code": {
            "coding": [ {
              "system": "http://terminology.hl7.org/CodeSystem/measure-population",
              "code": "denominator-exception",
              "display": "Denominator Exception"
            } ]
          },
          "count": 0
        } ],
        "measureScore": {
          "value": 0.0
        }
      } ],
      "evaluatedResource": [ {
        "reference": "Patient/f475cbfa-630a-4296-b083-9feda23892f4"
      }, {
        "reference": "Encounter/36a9055d-1577-4a0f-943f-3f793824a83e"
      }, {
        "reference": "Procedure/a93a237d-c44f-430c-abfa-6696db9204ff"
      }, {
        "reference": "Coverage/75fed232-a3ae-4675-8535-55310cd86742"
      }, {
        "reference": "Location/f5674ecb-6720-4b7a-8c00-c6c337bb4990"
      }, {
        "reference": "Organization/114ad83b-3865-484f-971e-8f6702d887b5"
      }, {
        "reference": "Practitioner/5b1c6b89-7677-4b87-a6a1-75ebb312a1e0"
      } ]
    },
    "request": {
      "method": "PUT",
      "url": "MeasureReport/6b4d9c88-69a5-4aaf-bb16-4df369a4ec89"
    }
  } ]
}