{
  "resourceType": "Bundle",
  "id": "612e6e7d02c62a011f2ee907",
  "type": "transaction",
  "entry": [ {
    "fullUrl": "https://madie.cms.gov/Patient/63050905-516c-41e9-8e97-c792143fdd0b",
    "resource": {
      "resourceType": "Patient",
      "id": "63050905-516c-41e9-8e97-c792143fdd0b",
      "meta": {
        "profile": [ "http://hl7.org/fhir/us/qicore/StructureDefinition/qicore-patient" ]
      },
      "text": {
        "status": "generated",
        "div": "<div xmlns=\"http://www.w3.org/1999/xhtml\"><div class=\"hapiHeaderText\">CMODuringED <b>DENEXPASS </b></div><table class=\"hapiPropertyTable\"><tbody><tr><td>Identifier</td><td>45452ea1dc23640e1878befc89e45fab</td></tr><tr><td>Date of birth</td><td><span>03 March 1974</span></td></tr></tbody></table></div>"
      },
      "extension": [ {
        "url": "http://hl7.org/fhir/us/core/StructureDefinition/us-core-race",
        "extension": [ {
          "url": "ombCategory",
          "valueCoding": {
            "system": "urn:oid:2.16.840.1.113883.6.238",
            "code": "1002-5",
            "display": "American Indian or Alaska Native",
            "userSelected": true
          }
        }, {
          "url": "text",
          "valueString": "American Indian or Alaska Native"
        } ]
      }, {
        "url": "http://hl7.org/fhir/us/core/StructureDefinition/us-core-ethnicity",
        "extension": [ {
          "url": "ombCategory",
          "valueCoding": {
            "system": "urn:oid:2.16.840.1.113883.6.238",
            "code": "2135-2",
            "display": "Hispanic or Latino",
            "userSelected": true
          }
        }, {
          "url": "text",
          "valueString": "Hispanic or Latino"
        } ]
      } ],
      "identifier": [ {
        "type": {
          "coding": [ {
            "system": "http://terminology.hl7.org/CodeSystem/v2-0203",
            "code": "MR"
          } ]
        },
        "system": "https://bonnie-fhir.healthit.gov/",
        "value": "612e6e7d02c62a011f2ee907"
      } ],
      "active": true,
      "name": [ {
        "use": "usual",
        "family": "DENEXPass",
        "given": [ "CMODuringED" ]
      } ],
      "gender": "female",
      "birthDate": "1975-03-03"
    },
    "request": {
      "method": "PUT",
      "url": "Patient/63050905-516c-41e9-8e97-c792143fdd0b"
    }
  }, {
    "fullUrl": "https://madie.cms.gov/Encounter/c94e779d-480d-4acc-abd9-91905f9dc881",
    "resource": {
      "resourceType": "Encounter",
      "id": "c94e779d-480d-4acc-abd9-91905f9dc881",
      "meta": {
        "profile": [ "http://hl7.org/fhir/us/qicore/StructureDefinition/qicore-encounter" ]
      },
      "status": "finished",
      "class": {
        "system": "http://terminology.hl7.org/CodeSystem/v3-ActCode",
        "code": "EMER",
        "display": "emergency"
      },
      "type": [ {
        "coding": [ {
          "system": "http://snomed.info/sct",
          "code": "4525004"
        } ]
      } ],
      "subject": {
        "reference": "Patient/63050905-516c-41e9-8e97-c792143fdd0b"
      },
      "period": {
        "start": "2026-12-04T06:00:00.000+00:00",
        "end": "2026-12-04T07:15:00.000+00:00"
      },
      "length": {
        "value": 0.0,
        "unit": "days"
      }
    },
    "request": {
      "method": "PUT",
      "url": "Encounter/c94e779d-480d-4acc-abd9-91905f9dc881"
    }
  }, {
    "fullUrl": "https://madie.cms.gov/Encounter/95ff8c56-1b52-4909-8c8a-96262a3a08c7",
    "resource": {
      "resourceType": "Encounter",
      "id": "95ff8c56-1b52-4909-8c8a-96262a3a08c7",
      "meta": {
        "profile": [ "http://hl7.org/fhir/us/qicore/StructureDefinition/qicore-encounter" ]
      },
      "status": "finished",
      "class": {
        "system": "http://terminology.hl7.org/CodeSystem/v3-ActCode",
        "code": "IMP",
        "display": "inpatient encounter"
      },
      "type": [ {
        "coding": [ {
          "system": "http://snomed.info/sct",
          "code": "8715000"
        } ]
      } ],
      "subject": {
        "reference": "Patient/63050905-516c-41e9-8e97-c792143fdd0b"
      },
      "period": {
        "start": "2026-12-04T08:00:00.000+00:00",
        "end": "2026-12-30T08:15:00.000+00:00"
      },
      "length": {
        "value": 26.0,
        "unit": "days"
      },
      "location": [ {
        "location": {
          "reference": "Location/12d95c4d-d4c1-402b-bfcd-7f75548fb93f"
        },
        "period": {
          "start": "2026-12-26T08:00:00.000+00:00",
          "end": "2026-12-28T08:15:00.000+00:00"
        }
      } ]
    },
    "request": {
      "method": "PUT",
      "url": "Encounter/95ff8c56-1b52-4909-8c8a-96262a3a08c7"
    }
  }, {
    "fullUrl": "https://madie.cms.gov/ServiceRequest/b649f593-1fc0-4b7f-b680-d99876db8376",
    "resource": {
      "resourceType": "ServiceRequest",
      "id": "b649f593-1fc0-4b7f-b680-d99876db8376",
      "meta": {
        "profile": [ "http://hl7.org/fhir/us/qicore/StructureDefinition/qicore-servicerequest" ]
      },
      "status": "completed",
      "intent": "order",
      "code": {
        "coding": [ {
          "system": "http://snomed.info/sct",
          "code": "133918004"
        } ]
      },
      "subject": {
        "reference": "Patient/63050905-516c-41e9-8e97-c792143fdd0b"
      },
      "authoredOn": "2026-12-04T06:30:00.000+00:00"
    },
    "request": {
      "method": "PUT",
      "url": "ServiceRequest/b649f593-1fc0-4b7f-b680-d99876db8376"
    }
  }, {
    "fullUrl": "https://madie.cms.gov/Coverage/2746b2dd-bfd5-42e6-a7dd-3260437dac42",
    "resource": {
      "resourceType": "Coverage",
      "id": "2746b2dd-bfd5-42e6-a7dd-3260437dac42",
      "status": "active",
      "beneficiary": {
        "reference": "Patient/63050905-516c-41e9-8e97-c792143fdd0b"
      },
      "period": {
        "start": "1975-03-03T08:00:00.000+00:00"
      },
      "payor": [ {
        "reference": "Organization/84a4e094-a30d-4a82-83db-40313baeda3c"
      } ]
    },
    "request": {
      "method": "PUT",
      "url": "Coverage/2746b2dd-bfd5-42e6-a7dd-3260437dac42"
    }
  }, {
    "fullUrl": "https://madie.cms.gov/Location/cabb7504-eb6e-4fdd-858f-778e3e0a5bd8",
    "resource": {
      "resourceType": "Location",
      "id": "cabb7504-eb6e-4fdd-858f-778e3e0a5bd8",
      "type": [ {
        "coding": [ {
          "system": "http://cts.nlm.nih.gov/fhir/cs/hsloc",
          "version": "2020",
          "code": "1025-6",
          "display": "Trauma Critical Care",
          "userSelected": true
        } ]
      } ]
    },
    "request": {
      "method": "PUT",
      "url": "Location/cabb7504-eb6e-4fdd-858f-778e3e0a5bd8"
    }
  }, {
    "fullUrl": "https://madie.cms.gov/Location/12d95c4d-d4c1-402b-bfcd-7f75548fb93f",
    "resource": {
      "resourceType": "Location",
      "id": "12d95c4d-d4c1-402b-bfcd-7f75548fb93f",
      "meta": {
        "profile": [ "http://hl7.org/fhir/us/qicore/StructureDefinition/qicore-location" ]
      },
      "identifier": [ {
        "use": "usual",
        "system": "http://exampleoflocation.com",
        "value": "B1-S.F2"
      } ],
      "name": "Medical Surgical East, first floor",
      "type": [ {
        "coding": [ {
          "system": "https://www.cdc.gov/nhsn/cdaportal/terminology/codesystem/hsloc.html",
          "code": "1025-6",
          "display": "Trauma Critical Care",
          "userSelected": true
        } ]
      } ]
    },
    "request": {
      "method": "PUT",
      "url": "Location/12d95c4d-d4c1-402b-bfcd-7f75548fb93f"
    }
  }, {
    "fullUrl": "https://madie.cms.gov/Organization/84a4e094-a30d-4a82-83db-40313baeda3c",
    "resource": {
      "resourceType": "Organization",
      "id": "84a4e094-a30d-4a82-83db-40313baeda3c",
      "meta": {
        "profile": [ "http://hl7.org/fhir/us/qicore/StructureDefinition/qicore-organization" ]
      },
      "identifier": [ {
        "use": "temp",
        "system": "urn:oid:2.16.840.1.113883.4.4",
        "value": "21-3259825"
      } ],
      "active": true,
      "type": [ {
        "coding": [ {
          "system": "http://terminology.hl7.org/CodeSystem/organization-type",
          "code": "pay",
          "display": "Payer"
        } ]
      } ],
      "name": "Blue Cross Blue Shield of Texas",
      "telecom": [ {
        "system": "phone",
        "value": "(+1) 972-766-6900"
      } ],
      "address": [ {
        "use": "billing",
        "type": "postal",
        "line": [ "P.O. Box 660044" ],
        "city": "Dallas",
        "state": "TX",
        "postalCode": "75266-0044",
        "country": "USA"
      } ]
    },
    "request": {
      "method": "PUT",
      "url": "Organization/84a4e094-a30d-4a82-83db-40313baeda3c"
    }
  }, {
    "fullUrl": "https://madie.cms.gov/Practitioner/4d02a52f-d66d-4bda-b043-c5fc4049bb1b",
    "resource": {
      "resourceType": "Practitioner",
      "id": "4d02a52f-d66d-4bda-b043-c5fc4049bb1b",
      "identifier": [ {
        "system": "http://hl7.org/fhir/sid/us-npi",
        "value": "123456"
      } ],
      "name": [ {
        "family": "Evil",
        "prefix": [ "Dr" ]
      } ]
    },
    "request": {
      "method": "PUT",
      "url": "Practitioner/4d02a52f-d66d-4bda-b043-c5fc4049bb1b"
    }
  }, {
    "fullUrl": "https://madie.cms.gov/MeasureReport/ab20138c-76e7-44e5-93ea-3b4790703794",
    "resource": {
      "resourceType": "MeasureReport",
      "id": "ab20138c-76e7-44e5-93ea-3b4790703794",
      "meta": {
        "profile": [ "http://hl7.org/fhir/us/cqfmeasures/StructureDefinition/test-case-cqfm" ]
      },
      "contained": [ {
        "resourceType": "Parameters",
        "id": "52c13130-086d-4712-a102-5572b0b28ecc-parameters",
        "parameter": [ {
          "name": "subject",
          "valueString": "63050905-516c-41e9-8e97-c792143fdd0b"
        } ]
      } ],
      "extension": [ {
        "url": "http://hl7.org/fhir/StructureDefinition/cqf-inputParameters",
        "valueReference": {
          "reference": "#52c13130-086d-4712-a102-5572b0b28ecc-parameters"
        }
      }, {
        "url": "http://hl7.org/fhir/us/cqfmeasures/StructureDefinition/cqfm-testCaseDescription",
        "valueMarkdown": "meets IPP and Denominator, inpatient visit starts <=1 hour after the end of ED visit AND Comfort Measures are ordered during ED visit\n"
      } ],
      "modifierExtension": [ {
        "url": "http://hl7.org/fhir/us/cqfmeasures/StructureDefinition/cqfm-isTestCase",
        "valueBoolean": true
      } ],
      "status": "complete",
      "type": "individual",
      "measure": "https://madie.cms.gov/Measure/CMS190FHIRVTEProphylaxisICU",
      "period": {
        "start": "2026-01-01",
        "end": "2026-12-31"
      },
      "group": [ {
        "id": "Group_1",
        "population": [ {
          "id": "InitialPopulation_1",
          "code": {
            "coding": [ {
              "system": "http://terminology.hl7.org/CodeSystem/measure-population",
              "code": "initial-population",
              "display": "Initial Population"
            } ]
          },
          "count": 1
        }, {
          "id": "Denominator_1",
          "code": {
            "coding": [ {
              "system": "http://terminology.hl7.org/CodeSystem/measure-population",
              "code": "denominator",
              "display": "Denominator"
            } ]
          },
          "count": 1
        }, {
          "id": "DenominatorExclusion_1",
          "code": {
            "coding": [ {
              "system": "http://terminology.hl7.org/CodeSystem/measure-population",
              "code": "denominator-exclusion",
              "display": "Denominator Exclusion"
            } ]
          },
          "count": 1
        }, {
          "id": "Numerator_1",
          "code": {
            "coding": [ {
              "system": "http://terminology.hl7.org/CodeSystem/measure-population",
              "code": "numerator",
              "display": "Numerator"
            } ]
          },
          "count": 0
        }, {
          "id": "DenominatorException_1",
          "code": {
            "coding": [ {
              "system": "http://terminology.hl7.org/CodeSystem/measure-population",
              "code": "denominator-exception",
              "display": "Denominator Exception"
            } ]
          },
          "count": 0
        } ],
        "measureScore": {
          "value": 0.0
        }
      } ],
      "evaluatedResource": [ {
        "reference": "Patient/63050905-516c-41e9-8e97-c792143fdd0b"
      }, {
        "reference": "Encounter/c94e779d-480d-4acc-abd9-91905f9dc881"
      }, {
        "reference": "Encounter/95ff8c56-1b52-4909-8c8a-96262a3a08c7"
      }, {
        "reference": "ServiceRequest/b649f593-1fc0-4b7f-b680-d99876db8376"
      }, {
        "reference": "Coverage/2746b2dd-bfd5-42e6-a7dd-3260437dac42"
      }, {
        "reference": "Location/cabb7504-eb6e-4fdd-858f-778e3e0a5bd8"
      }, {
        "reference": "Location/12d95c4d-d4c1-402b-bfcd-7f75548fb93f"
      }, {
        "reference": "Organization/84a4e094-a30d-4a82-83db-40313baeda3c"
      }, {
        "reference": "Practitioner/4d02a52f-d66d-4bda-b043-c5fc4049bb1b"
      } ]
    },
    "request": {
      "method": "PUT",
      "url": "MeasureReport/ab20138c-76e7-44e5-93ea-3b4790703794"
    }
  } ]
}