{
  "resourceType": "Bundle",
  "id": "tests-NumerPass-RVwithOpioidOrderAtAdmission-bundle",
  "type": "transaction",
  "entry": [ {
    "fullUrl": "https://madie.cms.gov/Encounter/efe2ca57-477c-49a8-a368-8f53bc3929b6",
    "resource": {
      "resourceType": "Encounter",
      "id": "efe2ca57-477c-49a8-a368-8f53bc3929b6",
      "meta": {
        "profile": [ "http://hl7.org/fhir/us/qicore/StructureDefinition/qicore-encounter" ]
      },
      "status": "finished",
      "class": {
        "system": "http://terminology.hl7.org/CodeSystem/v3-ActCode",
        "code": "IMP",
        "display": "inpatient encounter"
      },
      "type": [ {
        "coding": [ {
          "system": "http://snomed.info/sct",
          "code": "183452005"
        } ]
      } ],
      "subject": {
        "reference": "Patient/ca728a1a-9a25-46b6-80bc-bfffae233f6c"
      },
      "period": {
        "start": "2026-10-19T08:30:00.000+00:00",
        "end": "2026-10-31T08:15:00.000+00:00"
      },
      "reasonCode": [ {
        "coding": [ {
          "system": "http://snomed.info/sct",
          "code": "14047009"
        } ]
      }, {
        "coding": [ {
          "system": "http://snomed.info/sct",
          "code": "64859006"
        } ]
      } ]
    },
    "request": {
      "method": "PUT",
      "url": "Encounter/efe2ca57-477c-49a8-a368-8f53bc3929b6"
    }
  }, {
    "fullUrl": "https://madie.cms.gov/Encounter/b31e09c8-d7dd-4542-a011-669dd2119964",
    "resource": {
      "resourceType": "Encounter",
      "id": "b31e09c8-d7dd-4542-a011-669dd2119964",
      "meta": {
        "profile": [ "http://hl7.org/fhir/us/qicore/StructureDefinition/qicore-encounter" ]
      },
      "status": "finished",
      "class": {
        "system": "http://terminology.hl7.org/CodeSystem/v3-ActCode",
        "code": "EMER",
        "display": "emergency encounter"
      },
      "type": [ {
        "coding": [ {
          "system": "http://snomed.info/sct",
          "code": "4525004"
        } ]
      } ],
      "subject": {
        "reference": "Patient/ca728a1a-9a25-46b6-80bc-bfffae233f6c"
      },
      "period": {
        "start": "2026-10-18T09:15:00.000+00:00",
        "end": "2026-10-19T08:15:00.000+00:00"
      }
    },
    "request": {
      "method": "PUT",
      "url": "Encounter/b31e09c8-d7dd-4542-a011-669dd2119964"
    }
  }, {
    "fullUrl": "https://madie.cms.gov/Patient/ca728a1a-9a25-46b6-80bc-bfffae233f6c",
    "resource": {
      "resourceType": "Patient",
      "id": "ca728a1a-9a25-46b6-80bc-bfffae233f6c",
      "meta": {
        "profile": [ "http://hl7.org/fhir/us/qicore/StructureDefinition/qicore-patient" ]
      },
      "extension": [ {
        "url": "http://hl7.org/fhir/us/core/StructureDefinition/us-core-race",
        "extension": [ {
          "url": "ombCategory",
          "valueCoding": {
            "system": "urn:oid:2.16.840.1.113883.6.238",
            "code": "2106-3",
            "display": "White"
          }
        }, {
          "url": "text",
          "valueString": "White"
        } ]
      }, {
        "url": "http://hl7.org/fhir/us/core/StructureDefinition/us-core-ethnicity",
        "extension": [ {
          "url": "ombCategory",
          "valueCoding": {
            "system": "urn:oid:2.16.840.1.113883.6.238",
            "code": "2135-2",
            "display": "Hispanic or Latino"
          }
        }, {
          "url": "text",
          "valueString": "Hispanic or Latino"
        } ]
      }, {
        "url": "http://hl7.org/fhir/us/core/StructureDefinition/us-core-sex",
        "valueCode": "248153007"
      } ],
      "identifier": [ {
        "system": "http://hospital.smarthealthit.org",
        "value": "999999999"
      } ],
      "name": [ {
        "family": "Example",
        "given": [ "Patient" ]
      } ],
      "gender": "female",
      "birthDate": "1956-01-01"
    },
    "request": {
      "method": "PUT",
      "url": "Patient/ca728a1a-9a25-46b6-80bc-bfffae233f6c"
    }
  }, {
    "fullUrl": "https://madie.cms.gov/Claim/d340fda3-8274-4346-8c14-3b00c1d52963",
    "resource": {
      "resourceType": "Claim",
      "id": "d340fda3-8274-4346-8c14-3b00c1d52963",
      "meta": {
        "profile": [ "http://hl7.org/fhir/us/qicore/StructureDefinition/qicore-claim" ]
      },
      "status": "active",
      "type": {
        "coding": [ {
          "system": "http://terminology.hl7.org/CodeSystem/claim-type",
          "code": "institutional",
          "display": "Institutional"
        } ]
      },
      "use": "claim",
      "patient": {
        "reference": "Patient/ca728a1a-9a25-46b6-80bc-bfffae233f6c"
      },
      "created": "2026-10-22",
      "provider": {
        "reference": "Practitioner/practitioner-1"
      },
      "priority": {
        "coding": [ {
          "system": "http://terminology.hl7.org/CodeSystem/processpriority",
          "code": "normal"
        } ]
      },
      "diagnosis": [ {
        "sequence": 1,
        "diagnosisCodeableConcept": {
          "coding": [ {
            "system": "http://snomed.info/sct",
            "code": "14047009"
          } ]
        }
      } ],
      "insurance": [ {
        "sequence": 1,
        "focal": true,
        "coverage": {
          "reference": "Coverage/coverage-1"
        }
      } ],
      "item": [ {
        "sequence": 1,
        "diagnosisSequence": [ 1, 2 ],
        "productOrService": {
          "coding": [ {
            "system": "http://terminology.hl7.org/CodeSystem/ex-USCLS",
            "code": "1101"
          } ]
        },
        "encounter": [ {
          "reference": "Encounter/efe2ca57-477c-49a8-a368-8f53bc3929b6"
        } ]
      } ]
    },
    "request": {
      "method": "PUT",
      "url": "Claim/d340fda3-8274-4346-8c14-3b00c1d52963"
    }
  }, {
    "fullUrl": "https://madie.cms.gov/Claim/ded25818-0d93-43c2-82ad-1184e9261140",
    "resource": {
      "resourceType": "Claim",
      "id": "ded25818-0d93-43c2-82ad-1184e9261140",
      "meta": {
        "profile": [ "http://hl7.org/fhir/us/qicore/StructureDefinition/qicore-claim" ]
      },
      "status": "active",
      "type": {
        "coding": [ {
          "system": "http://terminology.hl7.org/CodeSystem/claim-type",
          "code": "institutional",
          "display": "Institutional"
        } ]
      },
      "use": "claim",
      "patient": {
        "reference": "Patient/ca728a1a-9a25-46b6-80bc-bfffae233f6c"
      },
      "created": "2026-11-01",
      "provider": {
        "reference": "Practitioner/practitioner-1"
      },
      "priority": {
        "coding": [ {
          "system": "http://terminology.hl7.org/CodeSystem/processpriority",
          "code": "normal"
        } ]
      },
      "diagnosis": [ {
        "sequence": 1,
        "diagnosisCodeableConcept": {
          "coding": [ {
            "system": "http://hl7.org/fhir/sid/icd-10-cm",
            "code": "M80.00XA",
            "display": "Age-related osteoporosis with current pathological fracture, unspecified site, initial encounter for fracture"
          } ]
        }
      } ],
      "insurance": [ {
        "sequence": 1,
        "focal": true,
        "coverage": {
          "reference": "Coverage/coverage-1"
        }
      } ],
      "item": [ {
        "sequence": 1,
        "diagnosisSequence": [ 1, 2 ],
        "productOrService": {
          "coding": [ {
            "system": "http://terminology.hl7.org/CodeSystem/ex-USCLS",
            "code": "1101"
          } ]
        },
        "encounter": [ {
          "reference": "Encounter/efe2ca57-477c-49a8-a368-8f53bc3929b6"
        } ]
      } ]
    },
    "request": {
      "method": "PUT",
      "url": "Claim/ded25818-0d93-43c2-82ad-1184e9261140"
    }
  }, {
    "fullUrl": "https://madie.cms.gov/MedicationRequest/279a6fe5-3fb8-40f2-b9f8-a77aaf903ebd",
    "resource": {
      "resourceType": "MedicationRequest",
      "id": "279a6fe5-3fb8-40f2-b9f8-a77aaf903ebd",
      "meta": {
        "profile": [ "http://hl7.org/fhir/us/qicore/StructureDefinition/qicore-medicationrequest" ]
      },
      "status": "active",
      "intent": "order",
      "category": [ {
        "coding": [ {
          "system": "http://terminology.hl7.org/CodeSystem/medicationrequest-category",
          "code": "community",
          "display": "Community"
        } ]
      } ],
      "medicationCodeableConcept": {
        "coding": [ {
          "system": "http://www.nlm.nih.gov/research/umls/rxnorm",
          "code": "1010600"
        } ]
      },
      "subject": {
        "reference": "Patient/ca728a1a-9a25-46b6-80bc-bfffae233f6c"
      },
      "authoredOn": "2026-10-15",
      "requester": {
        "reference": "Practitioner/practitioner-1"
      },
      "dispenseRequest": {
        "quantity": {
          "value": 14,
          "unit": "tablet",
          "system": "http://unitsofmeasure.org",
          "code": "{tablet}"
        },
        "expectedSupplyDuration": {
          "value": 14,
          "unit": "days",
          "system": "http://unitsofmeasure.org",
          "code": "d"
        }
      }
    },
    "request": {
      "method": "PUT",
      "url": "MedicationRequest/279a6fe5-3fb8-40f2-b9f8-a77aaf903ebd"
    }
  }, {
    "fullUrl": "https://madie.cms.gov/Observation/3a2a3254-5c92-4017-80cf-61ee8bc4023c",
    "resource": {
      "resourceType": "Observation",
      "id": "3a2a3254-5c92-4017-80cf-61ee8bc4023c",
      "meta": {
        "profile": [ "http://hl7.org/fhir/us/core/StructureDefinition/us-core-bmi" ]
      },
      "status": "final",
      "category": [ {
        "coding": [ {
          "system": "http://terminology.hl7.org/CodeSystem/observation-category",
          "code": "vital-signs",
          "display": "Vital Signs"
        } ]
      } ],
      "code": {
        "coding": [ {
          "system": "http://loinc.org",
          "code": "39156-5",
          "display": "Body mass index (BMI) [Ratio]"
        } ],
        "text": "BMI"
      },
      "subject": {
        "reference": "Patient/ca728a1a-9a25-46b6-80bc-bfffae233f6c"
      },
      "effectiveDateTime": "2026-10-20T08:00:00.000+00:00",
      "valueQuantity": {
        "value": 28.3,
        "unit": "kg/m2",
        "system": "http://unitsofmeasure.org",
        "code": "kg/m2"
      }
    },
    "request": {
      "method": "PUT",
      "url": "Observation/3a2a3254-5c92-4017-80cf-61ee8bc4023c"
    }
  }, {
    "fullUrl": "https://madie.cms.gov/Practitioner/a9ec17af-4a04-41b2-86ec-2b8ddd809a64",
    "resource": {
      "resourceType": "Practitioner",
      "id": "a9ec17af-4a04-41b2-86ec-2b8ddd809a64",
      "identifier": [ {
        "system": "http://www.cms.gov/identifiers/pracitioners",
        "value": "P12345"
      } ],
      "name": [ {
        "use": "official",
        "family": "Smith",
        "given": [ "John" ]
      } ],
      "qualification": [ {
        "identifier": [ {
          "system": "http://hl7.org/fhir/sid/us-npi",
          "value": "1234567890"
        } ],
        "code": {
          "coding": [ {
            "system": "http://terminology.hl7.org/CodeSystem/v2-0203",
            "code": "MD",
            "display": "Medical License number"
          } ]
        }
      } ]
    },
    "request": {
      "method": "PUT",
      "url": "Practitioner/a9ec17af-4a04-41b2-86ec-2b8ddd809a64"
    }
  }, {
    "fullUrl": "https://madie.cms.gov/Coverage/6a7f68c9-bd08-4623-ae41-af2c07b29353",
    "resource": {
      "resourceType": "Coverage",
      "id": "6a7f68c9-bd08-4623-ae41-af2c07b29353",
      "status": "active",
      "beneficiary": {
        "reference": "Patient/ca728a1a-9a25-46b6-80bc-bfffae233f6c"
      },
      "payor": [ {
        "reference": "Organization/3c6fbf1f-7140-4130-9b46-5638cf0a9741"
      } ]
    },
    "request": {
      "method": "PUT",
      "url": "Coverage/6a7f68c9-bd08-4623-ae41-af2c07b29353"
    }
  }, {
    "fullUrl": "https://madie.cms.gov/Organization/3c6fbf1f-7140-4130-9b46-5638cf0a9741",
    "resource": {
      "resourceType": "Organization",
      "id": "3c6fbf1f-7140-4130-9b46-5638cf0a9741",
      "identifier": [ {
        "system": "http://cms.gov/insurance-ids",
        "value": "AET12345"
      } ],
      "type": [ {
        "coding": [ {
          "system": "http://terminology.hl7.org/CodeSystem/organization-type",
          "code": "prov",
          "display": "Healthcare Provider"
        } ]
      } ],
      "name": "Aetna Insurance",
      "telecom": [ {
        "system": "phone",
        "value": "+1-800-123-4567"
      } ],
      "address": [ {
        "line": [ "123 Main Street" ],
        "city": "Cityville",
        "state": "CA",
        "postalCode": "12345",
        "country": "USA"
      } ]
    },
    "request": {
      "method": "PUT",
      "url": "Organization/3c6fbf1f-7140-4130-9b46-5638cf0a9741"
    }
  }, {
    "fullUrl": "https://madie.cms.gov/MeasureReport/fa3bd160-6278-475a-9c38-e81af83ebb9d",
    "resource": {
      "resourceType": "MeasureReport",
      "id": "fa3bd160-6278-475a-9c38-e81af83ebb9d",
      "meta": {
        "profile": [ "http://hl7.org/fhir/us/cqfmeasures/StructureDefinition/test-case-cqfm" ]
      },
      "contained": [ {
        "resourceType": "Parameters",
        "id": "b583b8c3-5f52-4b78-87d8-224da2a20564-parameters",
        "parameter": [ {
          "name": "subject",
          "valueString": "ca728a1a-9a25-46b6-80bc-bfffae233f6c"
        } ]
      } ],
      "extension": [ {
        "url": "http://hl7.org/fhir/StructureDefinition/cqf-inputParameters",
        "valueReference": {
          "reference": "#b583b8c3-5f52-4b78-87d8-224da2a20564-parameters"
        }
      }, {
        "url": "http://hl7.org/fhir/us/cqfmeasures/StructureDefinition/cqfm-testCaseDescription",
        "valueMarkdown": "RVariable Encounter With Opioid Order At Admission"
      } ],
      "modifierExtension": [ {
        "url": "http://hl7.org/fhir/us/cqfmeasures/StructureDefinition/cqfm-isTestCase",
        "valueBoolean": true
      } ],
      "status": "complete",
      "type": "individual",
      "measure": "https://madie.cms.gov/Measure/CMS1017FHIRHHFI",
      "period": {
        "start": "2026-01-01",
        "end": "2026-12-31"
      },
      "group": [ {
        "id": "Group_1",
        "population": [ {
          "id": "InitialPopulation_1",
          "code": {
            "coding": [ {
              "system": "http://terminology.hl7.org/CodeSystem/measure-population",
              "code": "initial-population",
              "display": "Initial Population"
            } ]
          },
          "count": 1
        }, {
          "id": "Denominator_1",
          "code": {
            "coding": [ {
              "system": "http://terminology.hl7.org/CodeSystem/measure-population",
              "code": "denominator",
              "display": "Denominator"
            } ]
          },
          "count": 1
        }, {
          "id": "DenominatorExclusion_1",
          "code": {
            "coding": [ {
              "system": "http://terminology.hl7.org/CodeSystem/measure-population",
              "code": "denominator-exclusion",
              "display": "Denominator Exclusion"
            } ]
          },
          "count": 0
        }, {
          "id": "Numerator_1",
          "code": {
            "coding": [ {
              "system": "http://terminology.hl7.org/CodeSystem/measure-population",
              "code": "numerator",
              "display": "Numerator"
            } ]
          },
          "count": 1
        }, {
          "id": "NumeratorExclusion_1",
          "code": {
            "coding": [ {
              "system": "http://terminology.hl7.org/CodeSystem/measure-population",
              "code": "numerator-exclusion",
              "display": "Numerator Exclusion"
            } ]
          },
          "count": 0
        }, {
          "id": "MeasureObservation_1_1_1",
          "code": {
            "coding": [ {
              "system": "http://terminology.hl7.org/CodeSystem/measure-population",
              "code": "measure-observation",
              "display": "Measure Observation"
            } ]
          },
          "count": 12
        }, {
          "id": "MeasureObservation_1_2_1",
          "code": {
            "coding": [ {
              "system": "http://terminology.hl7.org/CodeSystem/measure-population",
              "code": "measure-observation",
              "display": "Measure Observation"
            } ]
          },
          "count": 1
        } ],
        "measureScore": {
          "value": 0.0
        }
      } ],
      "evaluatedResource": [ {
        "reference": "Encounter/efe2ca57-477c-49a8-a368-8f53bc3929b6"
      }, {
        "reference": "Encounter/b31e09c8-d7dd-4542-a011-669dd2119964"
      }, {
        "reference": "Patient/ca728a1a-9a25-46b6-80bc-bfffae233f6c"
      }, {
        "reference": "Claim/d340fda3-8274-4346-8c14-3b00c1d52963"
      }, {
        "reference": "Claim/ded25818-0d93-43c2-82ad-1184e9261140"
      }, {
        "reference": "MedicationRequest/279a6fe5-3fb8-40f2-b9f8-a77aaf903ebd"
      }, {
        "reference": "Observation/3a2a3254-5c92-4017-80cf-61ee8bc4023c"
      }, {
        "reference": "Practitioner/a9ec17af-4a04-41b2-86ec-2b8ddd809a64"
      }, {
        "reference": "Coverage/6a7f68c9-bd08-4623-ae41-af2c07b29353"
      }, {
        "reference": "Organization/3c6fbf1f-7140-4130-9b46-5638cf0a9741"
      } ]
    },
    "request": {
      "method": "PUT",
      "url": "MeasureReport/fa3bd160-6278-475a-9c38-e81af83ebb9d"
    }
  } ]
}