{
  "resourceType": "Bundle",
  "id": "641382ea4b11b147841ab91d",
  "type": "transaction",
  "entry": [ {
    "fullUrl": "https://madie.cms.gov/Patient/95ee3081-b973-4bd2-8b86-5b46bd664905",
    "resource": {
      "resourceType": "Patient",
      "id": "95ee3081-b973-4bd2-8b86-5b46bd664905",
      "meta": {
        "profile": [ "http://hl7.org/fhir/us/qicore/StructureDefinition/qicore-patient" ]
      },
      "extension": [ {
        "url": "http://hl7.org/fhir/us/core/StructureDefinition/us-core-race",
        "extension": [ {
          "url": "ombCategory",
          "valueCoding": {
            "system": "urn:oid:2.16.840.1.113883.6.238",
            "code": "2076-8",
            "display": "Native Hawaiian or Other Pacific Islander",
            "userSelected": true
          }
        }, {
          "url": "text",
          "valueString": "Native Hawaiian or Other Pacific Islander"
        } ]
      }, {
        "url": "http://hl7.org/fhir/us/core/StructureDefinition/us-core-ethnicity",
        "extension": [ {
          "url": "ombCategory",
          "valueCoding": {
            "system": "urn:oid:2.16.840.1.113883.6.238",
            "code": "2186-5",
            "display": "Not Hispanic or Latino",
            "userSelected": true
          }
        }, {
          "url": "text",
          "valueString": "Not Hispanic or Latino"
        } ]
      } ],
      "identifier": [ {
        "type": {
          "coding": [ {
            "system": "http://terminology.hl7.org/CodeSystem/v2-0203",
            "code": "MR"
          } ]
        },
        "system": "https://bonnie-fhir.healthit.gov/",
        "value": "641382ea4b11b147841ab91d"
      } ],
      "name": [ {
        "family": "NUMERPass",
        "given": [ "OutpatientEGFRAndUACR" ]
      } ],
      "gender": "female",
      "birthDate": "1958-12-01"
    },
    "request": {
      "method": "PUT",
      "url": "Patient/95ee3081-b973-4bd2-8b86-5b46bd664905"
    }
  }, {
    "fullUrl": "https://madie.cms.gov/Condition/a327e6a6-c7e6-4b6a-9e39-0b193b7cb7e5",
    "resource": {
      "resourceType": "Condition",
      "id": "a327e6a6-c7e6-4b6a-9e39-0b193b7cb7e5",
      "meta": {
        "profile": [ "http://hl7.org/fhir/us/qicore/StructureDefinition/qicore-condition-encounter-diagnosis" ]
      },
      "clinicalStatus": {
        "coding": [ {
          "system": "http://terminology.hl7.org/CodeSystem/condition-clinical",
          "code": "active",
          "display": "active",
          "userSelected": true
        } ]
      },
      "category": [ {
        "coding": [ {
          "system": "http://terminology.hl7.org/CodeSystem/condition-category",
          "code": "encounter-diagnosis",
          "display": "Encounter Diagnosis",
          "userSelected": true
        } ]
      } ],
      "code": {
        "coding": [ {
          "system": "http://snomed.info/sct",
          "version": "2021-09",
          "code": "102781000119107",
          "display": "Sensory neuropathy due to type 1 diabetes mellitus (disorder)",
          "userSelected": true
        } ]
      },
      "subject": {
        "reference": "Patient/95ee3081-b973-4bd2-8b86-5b46bd664905"
      },
      "onsetDateTime": "2025-12-14T08:00:00.000+00:00"
    },
    "request": {
      "method": "PUT",
      "url": "Condition/a327e6a6-c7e6-4b6a-9e39-0b193b7cb7e5"
    }
  }, {
    "fullUrl": "https://madie.cms.gov/Observation/ccdcdf42-6b80-4b2f-ad12-9b75e148c62a",
    "resource": {
      "resourceType": "Observation",
      "id": "ccdcdf42-6b80-4b2f-ad12-9b75e148c62a",
      "meta": {
        "profile": [ "http://hl7.org/fhir/us/qicore/StructureDefinition/qicore-observation-lab" ]
      },
      "status": "amended",
      "category": [ {
        "coding": [ {
          "system": "http://terminology.hl7.org/CodeSystem/observation-category",
          "code": "laboratory",
          "display": "Laboratory",
          "userSelected": true
        } ]
      } ],
      "code": {
        "coding": [ {
          "system": "http://loinc.org",
          "version": "2.71",
          "code": "48642-3",
          "display": "Glomerular filtration rate [Volume Rate/Area] in Serum, Plasma or Blood by Creatinine-based formula (MDRD)/1.73 sq M among non black population",
          "userSelected": true
        } ]
      },
      "subject": {
        "reference": "Patient/95ee3081-b973-4bd2-8b86-5b46bd664905"
      },
      "effectiveDateTime": "2026-03-16T08:00:00.000+00:00",
      "valueBoolean": true
    },
    "request": {
      "method": "PUT",
      "url": "Observation/ccdcdf42-6b80-4b2f-ad12-9b75e148c62a"
    }
  }, {
    "fullUrl": "https://madie.cms.gov/Observation/c4ff9a65-e763-4b5b-a01d-e7073f88ae2a",
    "resource": {
      "resourceType": "Observation",
      "id": "c4ff9a65-e763-4b5b-a01d-e7073f88ae2a",
      "meta": {
        "profile": [ "http://hl7.org/fhir/us/qicore/StructureDefinition/qicore-observation-lab" ]
      },
      "status": "corrected",
      "category": [ {
        "coding": [ {
          "system": "http://terminology.hl7.org/CodeSystem/observation-category",
          "code": "laboratory",
          "display": "Laboratory",
          "userSelected": true
        } ]
      } ],
      "code": {
        "coding": [ {
          "system": "http://loinc.org",
          "version": "2.71",
          "code": "13705-9",
          "display": "Albumin/Creatinine [Mass Ratio] in 24 hour Urine",
          "userSelected": true
        } ]
      },
      "subject": {
        "reference": "Patient/95ee3081-b973-4bd2-8b86-5b46bd664905"
      },
      "effectiveDateTime": "2026-03-16T08:00:00.000+00:00",
      "valueQuantity": {
        "value": 30,
        "unit": "mg/g",
        "system": "http://unitsofmeasure.org",
        "code": "mg/g"
      }
    },
    "request": {
      "method": "PUT",
      "url": "Observation/c4ff9a65-e763-4b5b-a01d-e7073f88ae2a"
    }
  }, {
    "fullUrl": "https://madie.cms.gov/Encounter/af206885-8484-4d6f-a03c-bae903cf32de",
    "resource": {
      "resourceType": "Encounter",
      "id": "af206885-8484-4d6f-a03c-bae903cf32de",
      "meta": {
        "profile": [ "http://hl7.org/fhir/us/qicore/StructureDefinition/qicore-encounter" ]
      },
      "status": "finished",
      "class": {
        "system": "http://terminology.hl7.org/CodeSystem/v3-ActCode",
        "code": "AMB",
        "display": "ambulatory",
        "userSelected": true
      },
      "type": [ {
        "coding": [ {
          "system": "http://snomed.info/sct",
          "version": "2021-09",
          "code": "281036007",
          "display": "Follow-up consultation (procedure)",
          "userSelected": true
        } ]
      } ],
      "subject": {
        "reference": "Patient/95ee3081-b973-4bd2-8b86-5b46bd664905"
      },
      "period": {
        "start": "2026-03-16T08:00:00.000+00:00",
        "end": "2026-03-16T08:15:00.000+00:00"
      }
    },
    "request": {
      "method": "PUT",
      "url": "Encounter/af206885-8484-4d6f-a03c-bae903cf32de"
    }
  }, {
    "fullUrl": "https://madie.cms.gov/MeasureReport/a24076c4-8b40-4a88-a1fc-55551e5616c0",
    "resource": {
      "resourceType": "MeasureReport",
      "id": "a24076c4-8b40-4a88-a1fc-55551e5616c0",
      "meta": {
        "profile": [ "http://hl7.org/fhir/us/cqfmeasures/StructureDefinition/test-case-cqfm" ]
      },
      "contained": [ {
        "resourceType": "Parameters",
        "id": "cfab71ee-fa46-4619-9067-05c31fca007a-parameters",
        "parameter": [ {
          "name": "subject",
          "valueString": "95ee3081-b973-4bd2-8b86-5b46bd664905"
        } ]
      } ],
      "extension": [ {
        "url": "http://hl7.org/fhir/StructureDefinition/cqf-inputParameters",
        "valueReference": {
          "reference": "#cfab71ee-fa46-4619-9067-05c31fca007a-parameters"
        }
      }, {
        "url": "http://hl7.org/fhir/us/cqfmeasures/StructureDefinition/cqfm-testCaseDescription",
        "valueMarkdown": "This patient is 67 years old with a qualifying outpatient encounter and active  diabetes, with both qualifying lab tests. This case tests the numerator criteria."
      } ],
      "modifierExtension": [ {
        "url": "http://hl7.org/fhir/us/cqfmeasures/StructureDefinition/cqfm-isTestCase",
        "valueBoolean": true
      } ],
      "status": "complete",
      "type": "individual",
      "measure": "https://madie.cms.gov/Measure/CMS951FHIRKidneyHealthEval",
      "period": {
        "start": "2026-01-01",
        "end": "2026-12-31"
      },
      "group": [ {
        "id": "Group_1",
        "population": [ {
          "id": "InitialPopulation_1",
          "code": {
            "coding": [ {
              "system": "http://terminology.hl7.org/CodeSystem/measure-population",
              "code": "initial-population",
              "display": "Initial Population"
            } ]
          },
          "count": 1
        }, {
          "id": "Denominator_1",
          "code": {
            "coding": [ {
              "system": "http://terminology.hl7.org/CodeSystem/measure-population",
              "code": "denominator",
              "display": "Denominator"
            } ]
          },
          "count": 1
        }, {
          "id": "DenominatorExclusion_1",
          "code": {
            "coding": [ {
              "system": "http://terminology.hl7.org/CodeSystem/measure-population",
              "code": "denominator-exclusion",
              "display": "Denominator Exclusion"
            } ]
          },
          "count": 0
        }, {
          "id": "Numerator_1",
          "code": {
            "coding": [ {
              "system": "http://terminology.hl7.org/CodeSystem/measure-population",
              "code": "numerator",
              "display": "Numerator"
            } ]
          },
          "count": 1
        } ],
        "measureScore": {
          "value": 1.0
        }
      } ],
      "evaluatedResource": [ {
        "reference": "Patient/95ee3081-b973-4bd2-8b86-5b46bd664905"
      }, {
        "reference": "Condition/a327e6a6-c7e6-4b6a-9e39-0b193b7cb7e5"
      }, {
        "reference": "Observation/ccdcdf42-6b80-4b2f-ad12-9b75e148c62a"
      }, {
        "reference": "Observation/c4ff9a65-e763-4b5b-a01d-e7073f88ae2a"
      }, {
        "reference": "Encounter/af206885-8484-4d6f-a03c-bae903cf32de"
      } ]
    },
    "request": {
      "method": "PUT",
      "url": "MeasureReport/a24076c4-8b40-4a88-a1fc-55551e5616c0"
    }
  } ]
}