{
  "resourceType": "Bundle",
  "id": "612e6f1602c62a011f2f0b00",
  "type": "transaction",
  "entry": [ {
    "fullUrl": "https://madie.cms.gov/Patient/67779759-3d22-4b31-b504-e04af90edfc0",
    "resource": {
      "resourceType": "Patient",
      "id": "67779759-3d22-4b31-b504-e04af90edfc0",
      "meta": {
        "profile": [ "http://hl7.org/fhir/us/qicore/StructureDefinition/qicore-patient" ]
      },
      "text": {
        "status": "generated",
        "div": "<div xmlns=\"http://www.w3.org/1999/xhtml\"><div class=\"hapiHeaderText\">ICUEndOnEncEnd <b>DENOMPASS </b></div><table class=\"hapiPropertyTable\"><tbody><tr><td>Identifier</td><td>d2ffb757f543275338776a1648cb3dc0</td></tr><tr><td>Date of birth</td><td><span>31 January 1979</span></td></tr></tbody></table></div>"
      },
      "extension": [ {
        "url": "http://hl7.org/fhir/us/core/StructureDefinition/us-core-race",
        "extension": [ {
          "url": "ombCategory",
          "valueCoding": {
            "system": "urn:oid:2.16.840.1.113883.6.238",
            "code": "1002-5",
            "display": "American Indian or Alaska Native",
            "userSelected": true
          }
        }, {
          "url": "text",
          "valueString": "American Indian or Alaska Native"
        } ]
      }, {
        "url": "http://hl7.org/fhir/us/core/StructureDefinition/us-core-ethnicity",
        "extension": [ {
          "url": "ombCategory",
          "valueCoding": {
            "system": "urn:oid:2.16.840.1.113883.6.238",
            "code": "2135-2",
            "display": "Hispanic or Latino",
            "userSelected": true
          }
        }, {
          "url": "text",
          "valueString": "Hispanic or Latino"
        } ]
      } ],
      "identifier": [ {
        "type": {
          "coding": [ {
            "system": "http://terminology.hl7.org/CodeSystem/v2-0203",
            "code": "MR"
          } ]
        },
        "system": "https://bonnie-fhir.healthit.gov/",
        "value": "612e6f1602c62a011f2f0b00"
      } ],
      "active": true,
      "name": [ {
        "use": "usual",
        "family": "DENOMPass",
        "given": [ "ICUEndOnEncEnd" ]
      } ],
      "gender": "male",
      "birthDate": "1980-01-31"
    },
    "request": {
      "method": "PUT",
      "url": "Patient/67779759-3d22-4b31-b504-e04af90edfc0"
    }
  }, {
    "fullUrl": "https://madie.cms.gov/Encounter/5d1aff3d-3163-46b2-a574-231c1c43b75c",
    "resource": {
      "resourceType": "Encounter",
      "id": "5d1aff3d-3163-46b2-a574-231c1c43b75c",
      "meta": {
        "profile": [ "http://hl7.org/fhir/us/qicore/StructureDefinition/qicore-encounter" ]
      },
      "status": "finished",
      "class": {
        "system": "http://terminology.hl7.org/CodeSystem/v3-ActCode",
        "code": "IMP",
        "display": "inpatient encounter"
      },
      "type": [ {
        "coding": [ {
          "system": "http://snomed.info/sct",
          "code": "8715000"
        } ]
      } ],
      "subject": {
        "reference": "Patient/67779759-3d22-4b31-b504-e04af90edfc0"
      },
      "period": {
        "start": "2026-12-01T00:00:00.000+00:00",
        "end": "2026-12-31T23:59:00.000+00:00"
      },
      "length": {
        "value": 30.0,
        "unit": "days"
      },
      "location": [ {
        "location": {
          "reference": "Location/632098bf-58b1-47d1-a50e-8679122b02fd"
        },
        "period": {
          "start": "2026-12-29T08:00:00.000+00:00",
          "end": "2026-12-31T11:59:00.000+00:00"
        }
      } ]
    },
    "request": {
      "method": "PUT",
      "url": "Encounter/5d1aff3d-3163-46b2-a574-231c1c43b75c"
    }
  }, {
    "fullUrl": "https://madie.cms.gov/Coverage/1c553864-19e2-4259-83e6-a059019ad856",
    "resource": {
      "resourceType": "Coverage",
      "id": "1c553864-19e2-4259-83e6-a059019ad856",
      "status": "active",
      "beneficiary": {
        "reference": "Patient/67779759-3d22-4b31-b504-e04af90edfc0"
      },
      "period": {
        "start": "1975-03-03T08:00:00.000+00:00"
      },
      "payor": [ {
        "reference": "Organization/bd53ac17-43a5-4378-8481-511e20b077f4"
      } ]
    },
    "request": {
      "method": "PUT",
      "url": "Coverage/1c553864-19e2-4259-83e6-a059019ad856"
    }
  }, {
    "fullUrl": "https://madie.cms.gov/Location/632098bf-58b1-47d1-a50e-8679122b02fd",
    "resource": {
      "resourceType": "Location",
      "id": "632098bf-58b1-47d1-a50e-8679122b02fd",
      "meta": {
        "profile": [ "http://hl7.org/fhir/us/qicore/StructureDefinition/qicore-location" ]
      },
      "identifier": [ {
        "use": "usual",
        "system": "http://exampleoflocation.com",
        "value": "B1-S.F2"
      } ],
      "name": "Medical Surgical East, first floor",
      "type": [ {
        "coding": [ {
          "system": "https://www.cdc.gov/nhsn/cdaportal/terminology/codesystem/hsloc.html",
          "code": "1025-6",
          "display": "Trauma Critical Care",
          "userSelected": true
        } ]
      } ]
    },
    "request": {
      "method": "PUT",
      "url": "Location/632098bf-58b1-47d1-a50e-8679122b02fd"
    }
  }, {
    "fullUrl": "https://madie.cms.gov/Organization/bd53ac17-43a5-4378-8481-511e20b077f4",
    "resource": {
      "resourceType": "Organization",
      "id": "bd53ac17-43a5-4378-8481-511e20b077f4",
      "meta": {
        "profile": [ "http://hl7.org/fhir/us/qicore/StructureDefinition/qicore-organization" ]
      },
      "identifier": [ {
        "use": "temp",
        "system": "urn:oid:2.16.840.1.113883.4.4",
        "value": "21-3259825"
      } ],
      "active": true,
      "type": [ {
        "coding": [ {
          "system": "http://terminology.hl7.org/CodeSystem/organization-type",
          "code": "pay",
          "display": "Payer"
        } ]
      } ],
      "name": "Blue Cross Blue Shield of Texas",
      "telecom": [ {
        "system": "phone",
        "value": "(+1) 972-766-6900"
      } ],
      "address": [ {
        "use": "billing",
        "type": "postal",
        "line": [ "P.O. Box 660044" ],
        "city": "Dallas",
        "state": "TX",
        "postalCode": "75266-0044",
        "country": "USA"
      } ]
    },
    "request": {
      "method": "PUT",
      "url": "Organization/bd53ac17-43a5-4378-8481-511e20b077f4"
    }
  }, {
    "fullUrl": "https://madie.cms.gov/Practitioner/59d3aabf-1893-4fe8-9e7c-9cdbf239e493",
    "resource": {
      "resourceType": "Practitioner",
      "id": "59d3aabf-1893-4fe8-9e7c-9cdbf239e493",
      "identifier": [ {
        "system": "http://hl7.org/fhir/sid/us-npi",
        "value": "123456"
      } ],
      "name": [ {
        "family": "Evil",
        "prefix": [ "Dr" ]
      } ]
    },
    "request": {
      "method": "PUT",
      "url": "Practitioner/59d3aabf-1893-4fe8-9e7c-9cdbf239e493"
    }
  }, {
    "fullUrl": "https://madie.cms.gov/MeasureReport/74d8575a-891d-4143-be81-667337743635",
    "resource": {
      "resourceType": "MeasureReport",
      "id": "74d8575a-891d-4143-be81-667337743635",
      "meta": {
        "profile": [ "http://hl7.org/fhir/us/cqfmeasures/StructureDefinition/test-case-cqfm" ]
      },
      "contained": [ {
        "resourceType": "Parameters",
        "id": "c2e46f9f-a1a3-4356-8438-8cb85f8f5f21-parameters",
        "parameter": [ {
          "name": "subject",
          "valueString": "67779759-3d22-4b31-b504-e04af90edfc0"
        } ]
      } ],
      "extension": [ {
        "url": "http://hl7.org/fhir/StructureDefinition/cqf-inputParameters",
        "valueReference": {
          "reference": "#c2e46f9f-a1a3-4356-8438-8cb85f8f5f21-parameters"
        }
      }, {
        "url": "http://hl7.org/fhir/us/cqfmeasures/StructureDefinition/cqfm-testCaseDescription",
        "valueMarkdown": "ICU ends concurrent with discharge\n"
      } ],
      "modifierExtension": [ {
        "url": "http://hl7.org/fhir/us/cqfmeasures/StructureDefinition/cqfm-isTestCase",
        "valueBoolean": true
      } ],
      "status": "complete",
      "type": "individual",
      "measure": "https://madie.cms.gov/Measure/CMS190FHIRVTEProphylaxisICU",
      "period": {
        "start": "2026-01-01",
        "end": "2026-12-31"
      },
      "group": [ {
        "id": "Group_1",
        "population": [ {
          "id": "InitialPopulation_1",
          "code": {
            "coding": [ {
              "system": "http://terminology.hl7.org/CodeSystem/measure-population",
              "code": "initial-population",
              "display": "Initial Population"
            } ]
          },
          "count": 1
        }, {
          "id": "Denominator_1",
          "code": {
            "coding": [ {
              "system": "http://terminology.hl7.org/CodeSystem/measure-population",
              "code": "denominator",
              "display": "Denominator"
            } ]
          },
          "count": 1
        }, {
          "id": "DenominatorExclusion_1",
          "code": {
            "coding": [ {
              "system": "http://terminology.hl7.org/CodeSystem/measure-population",
              "code": "denominator-exclusion",
              "display": "Denominator Exclusion"
            } ]
          },
          "count": 0
        }, {
          "id": "Numerator_1",
          "code": {
            "coding": [ {
              "system": "http://terminology.hl7.org/CodeSystem/measure-population",
              "code": "numerator",
              "display": "Numerator"
            } ]
          },
          "count": 0
        }, {
          "id": "DenominatorException_1",
          "code": {
            "coding": [ {
              "system": "http://terminology.hl7.org/CodeSystem/measure-population",
              "code": "denominator-exception",
              "display": "Denominator Exception"
            } ]
          },
          "count": 0
        } ],
        "measureScore": {
          "value": 0.0
        }
      } ],
      "evaluatedResource": [ {
        "reference": "Patient/67779759-3d22-4b31-b504-e04af90edfc0"
      }, {
        "reference": "Encounter/5d1aff3d-3163-46b2-a574-231c1c43b75c"
      }, {
        "reference": "Coverage/1c553864-19e2-4259-83e6-a059019ad856"
      }, {
        "reference": "Location/632098bf-58b1-47d1-a50e-8679122b02fd"
      }, {
        "reference": "Organization/bd53ac17-43a5-4378-8481-511e20b077f4"
      }, {
        "reference": "Practitioner/59d3aabf-1893-4fe8-9e7c-9cdbf239e493"
      } ]
    },
    "request": {
      "method": "PUT",
      "url": "MeasureReport/74d8575a-891d-4143-be81-667337743635"
    }
  } ]
}