{
  "resourceType": "Bundle",
  "id": "IPPPass-SDECoverage",
  "type": "transaction",
  "entry": [ {
    "fullUrl": "https://madie.cms.gov/Patient/6795a52e-1f83-480b-a2a7-b0d0922c0e5b",
    "resource": {
      "resourceType": "Patient",
      "id": "6795a52e-1f83-480b-a2a7-b0d0922c0e5b",
      "meta": {
        "profile": [ "http://hl7.org/fhir/us/qicore/StructureDefinition/qicore-patient" ]
      },
      "extension": [ {
        "url": "http://hl7.org/fhir/us/core/StructureDefinition/us-core-race",
        "extension": [ {
          "url": "ombCategory",
          "valueCoding": {
            "system": "urn:oid:2.16.840.1.113883.6.238",
            "code": "2028-9",
            "display": "Asian",
            "userSelected": true
          }
        }, {
          "url": "text",
          "valueString": "Asian"
        }, {
          "url": "detailed",
          "valueCoding": {
            "system": "urn:oid:2.16.840.1.113883.6.238",
            "code": "1653-5",
            "display": "Tohono O'Odham"
          }
        } ]
      }, {
        "url": "http://hl7.org/fhir/us/core/StructureDefinition/us-core-ethnicity",
        "extension": [ {
          "url": "ombCategory",
          "valueCoding": {
            "system": "urn:oid:2.16.840.1.113883.6.238",
            "code": "2135-2",
            "display": "Hispanic or Latino",
            "userSelected": true
          }
        }, {
          "url": "text",
          "valueString": "Hispanic or Latino"
        }, {
          "url": "detailed",
          "valueCoding": {
            "system": "urn:oid:2.16.840.1.113883.6.238",
            "code": "2180-8",
            "display": "Puerto Rican"
          }
        } ]
      }, {
        "url": "http://hl7.org/fhir/us/core/StructureDefinition/us-core-sex",
        "valueCode": "248152002"
      } ],
      "identifier": [ {
        "system": "http://hospital.smarthealthit.org",
        "value": "999999995"
      } ],
      "name": [ {
        "family": "SDE",
        "given": [ "SDECoverage2" ]
      } ],
      "gender": "unknown",
      "birthDate": "1956-01-01"
    },
    "request": {
      "method": "PUT",
      "url": "Patient/6795a52e-1f83-480b-a2a7-b0d0922c0e5b"
    }
  }, {
    "fullUrl": "https://madie.cms.gov/Encounter/944f6a6d-8f2f-4207-90ac-852c1f57a88d",
    "resource": {
      "resourceType": "Encounter",
      "id": "944f6a6d-8f2f-4207-90ac-852c1f57a88d",
      "meta": {
        "profile": [ "http://hl7.org/fhir/us/qicore/StructureDefinition/qicore-encounter" ]
      },
      "status": "finished",
      "class": {
        "system": "http://terminology.hl7.org/CodeSystem/v3-ActCode",
        "code": "AMB",
        "display": "ambulatory"
      },
      "type": [ {
        "coding": [ {
          "system": "http://snomed.info/sct",
          "code": "401267002",
          "display": "Telephone triage encounter (procedure)"
        } ]
      } ],
      "subject": {
        "reference": "Patient/6795a52e-1f83-480b-a2a7-b0d0922c0e5b"
      },
      "period": {
        "start": "2026-01-01T00:00:00.000+00:00",
        "end": "2026-01-01T01:00:00.000+00:00"
      }
    },
    "request": {
      "method": "PUT",
      "url": "Encounter/944f6a6d-8f2f-4207-90ac-852c1f57a88d"
    }
  }, {
    "fullUrl": "https://madie.cms.gov/Coverage/5292f0f5-925b-489a-b8fa-91e71dfb0875",
    "resource": {
      "resourceType": "Coverage",
      "id": "5292f0f5-925b-489a-b8fa-91e71dfb0875",
      "meta": {
        "profile": [ "http://hl7.org/fhir/us/qicore/StructureDefinition/qicore-coverage" ]
      },
      "identifier": [ {
        "system": "http://benefitsinc.com/certificate",
        "value": "12345"
      } ],
      "status": "active",
      "type": {
        "coding": [ {
          "system": "https://nahdo.org/sopt",
          "code": "59",
          "display": "Other Private Insurance"
        } ]
      },
      "policyHolder": {
        "reference": "Patient/6795a52e-1f83-480b-a2a7-b0d0922c0e5b"
      },
      "subscriber": {
        "reference": "Patient/6795a52e-1f83-480b-a2a7-b0d0922c0e5b"
      },
      "subscriberId": "12191",
      "beneficiary": {
        "reference": "Patient/6795a52e-1f83-480b-a2a7-b0d0922c0e5b"
      },
      "dependent": "0",
      "relationship": {
        "coding": [ {
          "system": "http://terminology.hl7.org/CodeSystem/subscriber-relationship",
          "code": "self"
        } ]
      },
      "period": {
        "start": "2023-01-01T06:00:00.000+00:00",
        "end": "2023-01-01T11:06:01.000+00:00"
      },
      "payor": [ {
        "reference": "Patient/6795a52e-1f83-480b-a2a7-b0d0922c0e5b"
      } ],
      "order": 9
    },
    "request": {
      "method": "PUT",
      "url": "Coverage/5292f0f5-925b-489a-b8fa-91e71dfb0875"
    }
  }, {
    "fullUrl": "https://madie.cms.gov/Condition/2535e091-1b18-494a-9dc7-67c4c2594fe3",
    "resource": {
      "resourceType": "Condition",
      "id": "2535e091-1b18-494a-9dc7-67c4c2594fe3",
      "meta": {
        "profile": [ "http://hl7.org/fhir/us/qicore/StructureDefinition/qicore-condition-problems-health-concerns" ]
      },
      "clinicalStatus": {
        "coding": [ {
          "system": "http://terminology.hl7.org/CodeSystem/condition-clinical",
          "code": "active"
        } ]
      },
      "category": [ {
        "coding": [ {
          "system": "http://terminology.hl7.org/CodeSystem/condition-category",
          "code": "problem-list-item",
          "display": "Problem List Item"
        } ]
      } ],
      "code": {
        "coding": [ {
          "system": "http://snomed.info/sct",
          "code": "371125006",
          "display": "Labile essential hypertension (disorder)"
        } ]
      },
      "subject": {
        "reference": "Patient/6795a52e-1f83-480b-a2a7-b0d0922c0e5b"
      },
      "onsetDateTime": "2026-06-30T23:59:59.000+00:00"
    },
    "request": {
      "method": "PUT",
      "url": "Condition/2535e091-1b18-494a-9dc7-67c4c2594fe3"
    }
  }, {
    "fullUrl": "https://madie.cms.gov/MeasureReport/f8c5fcff-e9b8-4192-ab40-27059a5b5767",
    "resource": {
      "resourceType": "MeasureReport",
      "id": "f8c5fcff-e9b8-4192-ab40-27059a5b5767",
      "meta": {
        "profile": [ "http://hl7.org/fhir/us/cqfmeasures/StructureDefinition/test-case-cqfm" ]
      },
      "contained": [ {
        "resourceType": "Parameters",
        "id": "3dafa46e-5ae5-4de5-9f33-a3fccf0054d0-parameters",
        "parameter": [ {
          "name": "subject",
          "valueString": "6795a52e-1f83-480b-a2a7-b0d0922c0e5b"
        } ]
      } ],
      "extension": [ {
        "url": "http://hl7.org/fhir/StructureDefinition/cqf-inputParameters",
        "valueReference": {
          "reference": "#3dafa46e-5ae5-4de5-9f33-a3fccf0054d0-parameters"
        }
      }, {
        "url": "http://hl7.org/fhir/us/cqfmeasures/StructureDefinition/cqfm-testCaseDescription",
        "valueMarkdown": "For meeting SDE 100% coverage - patient sex female"
      } ],
      "modifierExtension": [ {
        "url": "http://hl7.org/fhir/us/cqfmeasures/StructureDefinition/cqfm-isTestCase",
        "valueBoolean": true
      } ],
      "status": "complete",
      "type": "individual",
      "measure": "https://madie.cms.gov/Measure/CMS165FHIRControllingHighBP",
      "period": {
        "start": "2026-01-01",
        "end": "2026-12-31"
      },
      "group": [ {
        "id": "Group_1",
        "population": [ {
          "id": "InitialPopulation_1",
          "code": {
            "coding": [ {
              "system": "http://terminology.hl7.org/CodeSystem/measure-population",
              "code": "initial-population",
              "display": "Initial Population"
            } ]
          },
          "count": 1
        }, {
          "id": "Denominator_1",
          "code": {
            "coding": [ {
              "system": "http://terminology.hl7.org/CodeSystem/measure-population",
              "code": "denominator",
              "display": "Denominator"
            } ]
          },
          "count": 1
        }, {
          "id": "DenominatorExclusion_1",
          "code": {
            "coding": [ {
              "system": "http://terminology.hl7.org/CodeSystem/measure-population",
              "code": "denominator-exclusion",
              "display": "Denominator Exclusion"
            } ]
          },
          "count": 0
        }, {
          "id": "Numerator_1",
          "code": {
            "coding": [ {
              "system": "http://terminology.hl7.org/CodeSystem/measure-population",
              "code": "numerator",
              "display": "Numerator"
            } ]
          },
          "count": 0
        } ],
        "measureScore": {
          "value": 1.0
        }
      } ],
      "evaluatedResource": [ {
        "reference": "Patient/6795a52e-1f83-480b-a2a7-b0d0922c0e5b"
      }, {
        "reference": "Encounter/944f6a6d-8f2f-4207-90ac-852c1f57a88d"
      }, {
        "reference": "Coverage/5292f0f5-925b-489a-b8fa-91e71dfb0875"
      }, {
        "reference": "Condition/2535e091-1b18-494a-9dc7-67c4c2594fe3"
      } ]
    },
    "request": {
      "method": "PUT",
      "url": "MeasureReport/f8c5fcff-e9b8-4192-ab40-27059a5b5767"
    }
  } ]
}