{
  "resourceType": "Bundle",
  "id": "63487c2e0968f8012254018b",
  "type": "transaction",
  "entry": [ {
    "fullUrl": "https://madie.cms.gov/Patient/6ebc8a74-faad-47a1-ba93-14dec2677ef2",
    "resource": {
      "resourceType": "Patient",
      "id": "6ebc8a74-faad-47a1-ba93-14dec2677ef2",
      "meta": {
        "profile": [ "http://hl7.org/fhir/us/qicore/StructureDefinition/qicore-patient" ]
      },
      "text": {
        "status": "generated",
        "div": "<div xmlns=\"http://www.w3.org/1999/xhtml\"><div class=\"hapiHeaderText\">HerpesDx<b>DENEXPASS</b></div><table class=\"hapiPropertyTable\"><tbody><tr><td>Identifier</td><td>26ae2095ae359d33c45002ef417f38a5e4f6a61da3ea75d0332f68a4cb93137e</td></tr><tr><td>Date of birth</td><td><span>14 February 1985</span></td></tr></tbody></table></div>"
      },
      "extension": [ {
        "url": "http://hl7.org/fhir/us/core/StructureDefinition/us-core-race",
        "extension": [ {
          "url": "ombCategory",
          "valueCoding": {
            "system": "urn:oid:2.16.840.1.113883.6.238",
            "code": "1002-5",
            "display": "American Indian or Alaska Native",
            "userSelected": true
          }
        }, {
          "url": "text",
          "valueString": "American Indian or Alaska Native"
        } ]
      }, {
        "url": "http://hl7.org/fhir/us/core/StructureDefinition/us-core-ethnicity",
        "extension": [ {
          "url": "ombCategory",
          "valueCoding": {
            "system": "urn:oid:2.16.840.1.113883.6.238",
            "code": "2135-2",
            "display": "Hispanic or Latino",
            "userSelected": true
          }
        }, {
          "url": "text",
          "valueString": "Hispanic or Latino"
        } ]
      } ],
      "identifier": [ {
        "type": {
          "coding": [ {
            "system": "http://terminology.hl7.org/CodeSystem/v2-0203",
            "code": "MR"
          } ]
        },
        "system": "https://bonnie-fhir.healthit.gov/",
        "value": "63487c2e0968f8012254018b"
      } ],
      "active": true,
      "name": [ {
        "use": "usual",
        "family": "DENEXPass",
        "given": [ "HerpesDx" ]
      } ],
      "gender": "female",
      "birthDate": "1998-02-14"
    },
    "request": {
      "method": "PUT",
      "url": "Patient/6ebc8a74-faad-47a1-ba93-14dec2677ef2"
    }
  }, {
    "fullUrl": "https://madie.cms.gov/Observation/52846565-8624-497c-94b8-9df20497e55d",
    "resource": {
      "resourceType": "Observation",
      "id": "52846565-8624-497c-94b8-9df20497e55d",
      "meta": {
        "profile": [ "http://hl7.org/fhir/us/qicore/StructureDefinition/qicore-simple-observation" ]
      },
      "status": "final",
      "category": [ {
        "coding": [ {
          "system": "http://terminology.hl7.org/CodeSystem/observation-category",
          "code": "exam",
          "display": "exam",
          "userSelected": true
        } ]
      } ],
      "code": {
        "coding": [ {
          "system": "http://loinc.org",
          "code": "11996-6"
        } ]
      },
      "subject": {
        "reference": "Patient/6ebc8a74-faad-47a1-ba93-14dec2677ef2"
      },
      "effectiveDateTime": "2026-06-08T08:00:00.000+00:00",
      "performer": [ {
        "reference": "Organization/example1",
        "display": "Hendricks Country Hospital"
      } ],
      "valueInteger": 1
    },
    "request": {
      "method": "PUT",
      "url": "Observation/52846565-8624-497c-94b8-9df20497e55d"
    }
  }, {
    "fullUrl": "https://madie.cms.gov/Observation/98934064-ed85-41a2-8acd-4a4f7431051d",
    "resource": {
      "resourceType": "Observation",
      "id": "98934064-ed85-41a2-8acd-4a4f7431051d",
      "meta": {
        "profile": [ "http://hl7.org/fhir/us/qicore/StructureDefinition/qicore-simple-observation" ]
      },
      "status": "final",
      "category": [ {
        "coding": [ {
          "system": "http://terminology.hl7.org/CodeSystem/observation-category",
          "code": "exam",
          "display": "exam",
          "userSelected": true
        } ]
      } ],
      "code": {
        "coding": [ {
          "system": "http://loinc.org",
          "code": "11884-4"
        } ]
      },
      "subject": {
        "reference": "Patient/6ebc8a74-faad-47a1-ba93-14dec2677ef2"
      },
      "effectiveDateTime": "2026-06-08T08:00:00.000+00:00",
      "performer": [ {
        "reference": "Organization/example1",
        "display": "Hendricks Country Hospital"
      } ],
      "valueQuantity": {
        "value": 43,
        "system": "http://unitsofmeasure.org",
        "code": "wk"
      }
    },
    "request": {
      "method": "PUT",
      "url": "Observation/98934064-ed85-41a2-8acd-4a4f7431051d"
    }
  }, {
    "fullUrl": "https://madie.cms.gov/Observation/7ecd2153-071b-468e-b46b-90f674be474b",
    "resource": {
      "resourceType": "Observation",
      "id": "7ecd2153-071b-468e-b46b-90f674be474b",
      "meta": {
        "profile": [ "http://hl7.org/fhir/us/qicore/StructureDefinition/qicore-simple-observation" ]
      },
      "status": "final",
      "category": [ {
        "coding": [ {
          "system": "http://terminology.hl7.org/CodeSystem/observation-category",
          "code": "exam",
          "display": "exam",
          "userSelected": true
        } ]
      } ],
      "code": {
        "coding": [ {
          "system": "http://loinc.org",
          "code": "93857-1"
        } ]
      },
      "subject": {
        "reference": "Patient/6ebc8a74-faad-47a1-ba93-14dec2677ef2"
      },
      "effectiveDateTime": "2026-06-08T20:00:00.000+00:00",
      "performer": [ {
        "reference": "Organization/example1",
        "display": "Hendricks Country Hospital"
      } ],
      "valueDateTime": "2026-06-08T20:00:00.000+00:00"
    },
    "request": {
      "method": "PUT",
      "url": "Observation/7ecd2153-071b-468e-b46b-90f674be474b"
    }
  }, {
    "fullUrl": "https://madie.cms.gov/Encounter/2ca595db-11fc-474c-b16f-1bd9cc0e30c6",
    "resource": {
      "resourceType": "Encounter",
      "id": "2ca595db-11fc-474c-b16f-1bd9cc0e30c6",
      "meta": {
        "profile": [ "http://hl7.org/fhir/us/qicore/StructureDefinition/qicore-encounter" ]
      },
      "status": "finished",
      "class": {
        "system": "http://terminology.hl7.org/CodeSystem/v3-ActCode",
        "code": "IMP",
        "display": "inpatient encounter"
      },
      "type": [ {
        "coding": [ {
          "system": "http://snomed.info/sct",
          "code": "8715000"
        } ]
      } ],
      "subject": {
        "reference": "Patient/6ebc8a74-faad-47a1-ba93-14dec2677ef2"
      },
      "period": {
        "start": "2026-06-08T08:00:00.000+00:00",
        "end": "2026-06-10T08:15:00.000+00:00"
      },
      "reasonCode": [ {
        "coding": [ {
          "system": "http://snomed.info/sct",
          "code": "169826009",
          "display": "Single live birth from singleton pregnancy (finding)"
        } ]
      } ],
      "reasonReference": [ {
        "reference": "Condition/1514dd45-c328-4fde-b7b2-d81e897b5acc"
      } ]
    },
    "request": {
      "method": "PUT",
      "url": "Encounter/2ca595db-11fc-474c-b16f-1bd9cc0e30c6"
    }
  }, {
    "fullUrl": "https://madie.cms.gov/Procedure/83b9e607-01f0-4779-badf-ff2a43978530",
    "resource": {
      "resourceType": "Procedure",
      "id": "83b9e607-01f0-4779-badf-ff2a43978530",
      "meta": {
        "profile": [ "http://hl7.org/fhir/us/qicore/StructureDefinition/qicore-procedure" ]
      },
      "extension": [ {
        "url": "http://hl7.org/fhir/us/qicore/StructureDefinition/qicore-recorded",
        "valueDateTime": "2014-04-05T13:35:00.000+00:00"
      } ],
      "status": "completed",
      "code": {
        "coding": [ {
          "system": "http://snomed.info/sct",
          "code": "4504004"
        } ]
      },
      "subject": {
        "reference": "Patient/6ebc8a74-faad-47a1-ba93-14dec2677ef2"
      },
      "performedPeriod": {
        "start": "2026-06-08T20:00:00.000+00:00",
        "end": "2026-06-18T20:00:00.000+00:00"
      }
    },
    "request": {
      "method": "PUT",
      "url": "Procedure/83b9e607-01f0-4779-badf-ff2a43978530"
    }
  }, {
    "fullUrl": "https://madie.cms.gov/Condition/532702f3-4b58-4225-8848-77eafebf924b",
    "resource": {
      "resourceType": "Condition",
      "id": "532702f3-4b58-4225-8848-77eafebf924b",
      "meta": {
        "profile": [ "http://hl7.org/fhir/us/qicore/StructureDefinition/qicore-condition-problems-health-concerns" ]
      },
      "category": [ {
        "coding": [ {
          "system": "http://terminology.hl7.org/CodeSystem/condition-category",
          "code": "encounter-diagnosis",
          "display": "Encounter Diagnosis"
        } ]
      } ],
      "code": {
        "coding": [ {
          "system": "http://snomed.info/sct",
          "version": "2022-09",
          "code": "169826009",
          "display": "Single live birth (finding)",
          "userSelected": true
        } ]
      },
      "subject": {
        "reference": "Patient/6ebc8a74-faad-47a1-ba93-14dec2677ef2"
      },
      "encounter": {
        "reference": "Encounter/2ca595db-11fc-474c-b16f-1bd9cc0e30c6"
      },
      "recordedDate": "2026-10-17T08:00:00.000+00:00"
    },
    "request": {
      "method": "PUT",
      "url": "Condition/532702f3-4b58-4225-8848-77eafebf924b"
    }
  }, {
    "fullUrl": "https://madie.cms.gov/Condition/1514dd45-c328-4fde-b7b2-d81e897b5acc",
    "resource": {
      "resourceType": "Condition",
      "id": "1514dd45-c328-4fde-b7b2-d81e897b5acc",
      "meta": {
        "profile": [ "http://hl7.org/fhir/us/qicore/StructureDefinition/qicore-condition-problems-health-concerns" ]
      },
      "category": [ {
        "coding": [ {
          "system": "http://terminology.hl7.org/CodeSystem/condition-category",
          "code": "encounter-diagnosis",
          "display": "Encounter Diagnosis"
        } ]
      } ],
      "code": {
        "coding": [ {
          "system": "http://snomed.info/sct",
          "version": "2022-09",
          "code": "129670002",
          "display": "Herpetic cervicitis",
          "userSelected": true
        } ]
      },
      "subject": {
        "reference": "Patient/6ebc8a74-faad-47a1-ba93-14dec2677ef2"
      },
      "recordedDate": "2026-10-17T08:00:00.000+00:00"
    },
    "request": {
      "method": "PUT",
      "url": "Condition/1514dd45-c328-4fde-b7b2-d81e897b5acc"
    }
  }, {
    "fullUrl": "https://madie.cms.gov/Coverage/4580ab64-eaa6-475f-8c1d-621ef409727e",
    "resource": {
      "resourceType": "Coverage",
      "id": "4580ab64-eaa6-475f-8c1d-621ef409727e",
      "meta": {
        "profile": [ "http://hl7.org/fhir/us/qicore/StructureDefinition/qicore-coverage" ]
      },
      "status": "active",
      "subscriberId": "523435",
      "beneficiary": {
        "reference": "Patient/6ebc8a74-faad-47a1-ba93-14dec2677ef2"
      },
      "relationship": {
        "coding": [ {
          "system": "http://terminology.hl7.org/CodeSystem/subscriber-relationship",
          "code": "self"
        } ]
      },
      "payor": [ {
        "reference": "Organization/b2a42c3b-e28a-46f5-a2fd-c53f98259568"
      } ]
    },
    "request": {
      "method": "PUT",
      "url": "Coverage/4580ab64-eaa6-475f-8c1d-621ef409727e"
    }
  }, {
    "fullUrl": "https://madie.cms.gov/Organization/b2a42c3b-e28a-46f5-a2fd-c53f98259568",
    "resource": {
      "resourceType": "Organization",
      "id": "b2a42c3b-e28a-46f5-a2fd-c53f98259568",
      "meta": {
        "profile": [ "http://hl7.org/fhir/us/qicore/StructureDefinition/qicore-organization" ]
      },
      "identifier": [ {
        "use": "temp",
        "system": "urn:oid:2.16.840.1.113883.4.4",
        "value": "21-3259825"
      } ],
      "active": true,
      "type": [ {
        "coding": [ {
          "system": "http://terminology.hl7.org/CodeSystem/organization-type",
          "code": "pay",
          "display": "Payer"
        } ]
      } ],
      "name": "Blue Cross Blue Shield of Texas",
      "telecom": [ {
        "system": "phone",
        "value": "(+1) 972-766-6900"
      } ],
      "address": [ {
        "use": "billing",
        "type": "postal",
        "line": [ "P.O. Box 660044" ],
        "city": "Dallas",
        "state": "TX",
        "postalCode": "75266-0044",
        "country": "USA"
      } ]
    },
    "request": {
      "method": "PUT",
      "url": "Organization/b2a42c3b-e28a-46f5-a2fd-c53f98259568"
    }
  }, {
    "fullUrl": "https://madie.cms.gov/Practitioner/e30387e2-ea9c-46a7-9a74-fe2e66b3620b",
    "resource": {
      "resourceType": "Practitioner",
      "id": "e30387e2-ea9c-46a7-9a74-fe2e66b3620b",
      "meta": {
        "profile": [ "http://hl7.org/fhir/us/qicore/StructureDefinition/qicore-practitioner" ]
      },
      "identifier": [ {
        "system": "http://hl7.org/fhir/sid/us-npi",
        "value": "1234567890"
      } ],
      "name": [ {
        "family": "Evil",
        "prefix": [ "Dr" ]
      } ]
    },
    "request": {
      "method": "PUT",
      "url": "Practitioner/e30387e2-ea9c-46a7-9a74-fe2e66b3620b"
    }
  }, {
    "fullUrl": "https://madie.cms.gov/MeasureReport/b60b093f-0ee6-42d6-bb8d-dcb932eed040",
    "resource": {
      "resourceType": "MeasureReport",
      "id": "b60b093f-0ee6-42d6-bb8d-dcb932eed040",
      "meta": {
        "profile": [ "http://hl7.org/fhir/us/cqfmeasures/StructureDefinition/test-case-cqfm" ]
      },
      "contained": [ {
        "resourceType": "Parameters",
        "id": "4bb895c6-79d7-4365-a485-231961a06584-parameters",
        "parameter": [ {
          "name": "subject",
          "valueString": "6ebc8a74-faad-47a1-ba93-14dec2677ef2"
        } ]
      } ],
      "extension": [ {
        "url": "http://hl7.org/fhir/StructureDefinition/cqf-inputParameters",
        "valueReference": {
          "reference": "#4bb895c6-79d7-4365-a485-231961a06584-parameters"
        }
      }, {
        "url": "http://hl7.org/fhir/us/cqfmeasures/StructureDefinition/cqfm-testCaseDescription",
        "valueMarkdown": "Patient has diagnosis of herpes"
      } ],
      "modifierExtension": [ {
        "url": "http://hl7.org/fhir/us/cqfmeasures/StructureDefinition/cqfm-isTestCase",
        "valueBoolean": true
      } ],
      "status": "complete",
      "type": "individual",
      "measure": "https://madie.cms.gov/Measure/CMS0334FHIRPCCesareanBirth",
      "period": {
        "start": "2026-01-01",
        "end": "2026-12-31"
      },
      "group": [ {
        "id": "Group_1",
        "population": [ {
          "id": "InitialPopulation_1",
          "code": {
            "coding": [ {
              "system": "http://terminology.hl7.org/CodeSystem/measure-population",
              "code": "initial-population",
              "display": "Initial Population"
            } ]
          },
          "count": 1
        }, {
          "id": "Denominator_1",
          "code": {
            "coding": [ {
              "system": "http://terminology.hl7.org/CodeSystem/measure-population",
              "code": "denominator",
              "display": "Denominator"
            } ]
          },
          "count": 1
        }, {
          "id": "DenominatorExclusion_1",
          "code": {
            "coding": [ {
              "system": "http://terminology.hl7.org/CodeSystem/measure-population",
              "code": "denominator-exclusion",
              "display": "Denominator Exclusion"
            } ]
          },
          "count": 1
        }, {
          "id": "Numerator_1",
          "code": {
            "coding": [ {
              "system": "http://terminology.hl7.org/CodeSystem/measure-population",
              "code": "numerator",
              "display": "Numerator"
            } ]
          },
          "count": 0
        } ],
        "measureScore": {
          "value": 0.0
        }
      } ],
      "evaluatedResource": [ {
        "reference": "Patient/6ebc8a74-faad-47a1-ba93-14dec2677ef2"
      }, {
        "reference": "Observation/52846565-8624-497c-94b8-9df20497e55d"
      }, {
        "reference": "Observation/98934064-ed85-41a2-8acd-4a4f7431051d"
      }, {
        "reference": "Observation/7ecd2153-071b-468e-b46b-90f674be474b"
      }, {
        "reference": "Encounter/2ca595db-11fc-474c-b16f-1bd9cc0e30c6"
      }, {
        "reference": "Procedure/83b9e607-01f0-4779-badf-ff2a43978530"
      }, {
        "reference": "Condition/532702f3-4b58-4225-8848-77eafebf924b"
      }, {
        "reference": "Condition/1514dd45-c328-4fde-b7b2-d81e897b5acc"
      }, {
        "reference": "Coverage/4580ab64-eaa6-475f-8c1d-621ef409727e"
      }, {
        "reference": "Organization/b2a42c3b-e28a-46f5-a2fd-c53f98259568"
      }, {
        "reference": "Practitioner/e30387e2-ea9c-46a7-9a74-fe2e66b3620b"
      } ]
    },
    "request": {
      "method": "PUT",
      "url": "MeasureReport/b60b093f-0ee6-42d6-bb8d-dcb932eed040"
    }
  } ]
}