{
  "resourceType": "Bundle",
  "id": "6494618ad09ece2c2e9bf90c",
  "type": "collection",
  "entry": [ {
    "fullUrl": "https://madie.cms.gov/Patient/944f86a3-e617-4a14-97b8-e5678fb92f8e",
    "resource": {
      "resourceType": "Patient",
      "id": "944f86a3-e617-4a14-97b8-e5678fb92f8e",
      "meta": {
        "profile": [ "http://hl7.org/fhir/us/qicore/StructureDefinition/qicore-patient" ]
      },
      "extension": [ {
        "url": "http://hl7.org/fhir/us/core/StructureDefinition/us-core-race",
        "extension": [ {
          "url": "ombCategory",
          "valueCoding": {
            "system": "urn:oid:2.16.840.1.113883.6.238",
            "code": "2106-3",
            "display": "White",
            "userSelected": true
          }
        }, {
          "url": "text",
          "valueString": "White"
        } ]
      }, {
        "url": "http://hl7.org/fhir/us/core/StructureDefinition/us-core-ethnicity",
        "extension": [ {
          "url": "ombCategory",
          "valueCoding": {
            "system": "urn:oid:2.16.840.1.113883.6.238",
            "code": "2135-2",
            "display": "Hispanic or Latino",
            "userSelected": true
          }
        }, {
          "url": "text",
          "valueString": "Hispanic or Latino"
        } ]
      } ],
      "identifier": [ {
        "type": {
          "coding": [ {
            "system": "http://terminology.hl7.org/CodeSystem/v2-0203",
            "code": "MR"
          } ]
        },
        "system": "https://bonnie-fhir.healthit.gov/",
        "value": "6494618ad09ece2c2e9bf90c"
      } ],
      "name": [ {
        "family": "8NumFail",
        "given": [ "TwoEncwithOneDuringMPoneafterMP" ]
      } ],
      "gender": "male",
      "birthDate": "1990-10-21"
    }
  }, {
    "fullUrl": "https://madie.cms.gov/Condition/df694ab4-bdc2-43ce-8bcc-04c66310a1ce",
    "resource": {
      "resourceType": "Condition",
      "id": "df694ab4-bdc2-43ce-8bcc-04c66310a1ce",
      "meta": {
        "profile": [ "http://hl7.org/fhir/us/qicore/StructureDefinition/qicore-condition-problems-health-concerns" ]
      },
      "clinicalStatus": {
        "coding": [ {
          "system": "http://terminology.hl7.org/CodeSystem/condition-clinical",
          "code": "active",
          "display": "active",
          "userSelected": true
        } ]
      },
      "category": [ {
        "coding": [ {
          "system": "http://terminology.hl7.org/CodeSystem/condition-category",
          "code": "problem-list-item",
          "display": "Problem List Item"
        } ]
      } ],
      "code": {
        "coding": [ {
          "system": "http://hl7.org/fhir/sid/icd-9-cm",
          "version": "2013",
          "code": "042",
          "display": "Human immunodeficiency virus [HIV] disease",
          "userSelected": true
        }, {
          "system": "http://snomed.info/sct",
          "version": "http://snomed.info/sct/731000124108/version/20250301",
          "code": "165816005",
          "userSelected": true
        } ]
      },
      "subject": {
        "reference": "Patient/944f86a3-e617-4a14-97b8-e5678fb92f8e"
      },
      "onsetDateTime": "2002-08-27T09:00:00.000+00:00",
      "recordedDate": "2002-08-27T09:30:00.000+00:00"
    }
  }, {
    "fullUrl": "https://madie.cms.gov/Encounter/96fd7bec-0459-408d-947a-1b2b3539935d",
    "resource": {
      "resourceType": "Encounter",
      "id": "96fd7bec-0459-408d-947a-1b2b3539935d",
      "meta": {
        "profile": [ "http://hl7.org/fhir/us/qicore/StructureDefinition/qicore-encounter" ]
      },
      "status": "finished",
      "class": {
        "system": "http://terminology.hl7.org/CodeSystem/v3-ActCode",
        "code": "AMB",
        "display": "ambulatory"
      },
      "type": [ {
        "coding": [ {
          "system": "http://snomed.info/sct",
          "version": "2022-09",
          "code": "281036007",
          "display": "Follow-up consultation (procedure)",
          "userSelected": true
        } ]
      } ],
      "subject": {
        "reference": "Patient/944f86a3-e617-4a14-97b8-e5678fb92f8e"
      },
      "period": {
        "start": "2026-05-22T08:00:00.000+00:00",
        "end": "2026-05-22T08:00:00.000+00:00"
      }
    }
  }, {
    "fullUrl": "https://madie.cms.gov/Encounter/c478e00a-02ee-4671-891a-a1ac35dce82b",
    "resource": {
      "resourceType": "Encounter",
      "id": "c478e00a-02ee-4671-891a-a1ac35dce82b",
      "meta": {
        "profile": [ "http://hl7.org/fhir/us/qicore/StructureDefinition/qicore-encounter" ]
      },
      "status": "finished",
      "class": {
        "system": "http://terminology.hl7.org/CodeSystem/v3-ActCode",
        "code": "IMP",
        "display": "inpatient encounter"
      },
      "type": [ {
        "coding": [ {
          "system": "http://snomed.info/sct",
          "version": "2022-09",
          "code": "12843005",
          "display": "Subsequent hospital visit by physician (procedure)",
          "userSelected": true
        } ]
      } ],
      "subject": {
        "reference": "Patient/944f86a3-e617-4a14-97b8-e5678fb92f8e"
      },
      "period": {
        "start": "2027-01-01T00:00:00.000+00:00",
        "end": "2027-01-01T08:15:00.000+00:00"
      }
    }
  }, {
    "fullUrl": "https://madie.cms.gov/Coverage/109ead4e-b1cb-4f0a-8f03-8da395cf8bb0",
    "resource": {
      "resourceType": "Coverage",
      "id": "109ead4e-b1cb-4f0a-8f03-8da395cf8bb0",
      "meta": {
        "profile": [ "http://hl7.org/fhir/us/qicore/StructureDefinition/qicore-coverage" ]
      },
      "status": "active",
      "subscriberId": "123456",
      "beneficiary": {
        "reference": "Patient/944f86a3-e617-4a14-97b8-e5678fb92f8e"
      },
      "relationship": {
        "coding": [ {
          "system": "http://terminology.hl7.org/CodeSystem/subscriber-relationship",
          "code": "self",
          "display": "Self"
        } ]
      },
      "payor": [ {
        "reference": "Organization/4c4a4724-885e-43d5-8e86-519822439025"
      } ]
    }
  }, {
    "fullUrl": "https://madie.cms.gov/Organization/4c4a4724-885e-43d5-8e86-519822439025",
    "resource": {
      "resourceType": "Organization",
      "id": "4c4a4724-885e-43d5-8e86-519822439025",
      "meta": {
        "profile": [ "http://hl7.org/fhir/us/qicore/StructureDefinition/qicore-organization" ]
      },
      "identifier": [ {
        "use": "temp",
        "system": "urn:oid:2.16.840.1.113883.4.4",
        "value": "21-3259825"
      } ],
      "active": true,
      "type": [ {
        "coding": [ {
          "system": "http://terminology.hl7.org/CodeSystem/organization-type",
          "code": "pay",
          "display": "Payer"
        } ]
      } ],
      "name": "Blue Cross Blue Shield of Texas",
      "telecom": [ {
        "system": "phone",
        "value": "(+1) 972-766-6900"
      } ],
      "address": [ {
        "use": "billing",
        "type": "postal",
        "line": [ "P.O. Box 660044" ],
        "city": "Dallas",
        "state": "TX",
        "postalCode": "75266-0044",
        "country": "USA"
      } ]
    }
  }, {
    "fullUrl": "https://madie.cms.gov/Practitioner/9fadff52-a04c-4d49-a89a-29b8ec40c86c",
    "resource": {
      "resourceType": "Practitioner",
      "id": "9fadff52-a04c-4d49-a89a-29b8ec40c86c",
      "meta": {
        "profile": [ "http://hl7.org/fhir/us/qicore/StructureDefinition/qicore-practitioner" ]
      },
      "identifier": [ {
        "system": "http://hl7.org/fhir/sid/us-npi",
        "value": "1689411712"
      } ],
      "name": [ {
        "family": "Evil",
        "prefix": [ "Dr" ]
      } ]
    }
  }, {
    "fullUrl": "https://madie.cms.gov/MeasureReport/6a45ed40-a7ab-44b5-8813-92f98be4b534",
    "resource": {
      "resourceType": "MeasureReport",
      "id": "6a45ed40-a7ab-44b5-8813-92f98be4b534",
      "meta": {
        "profile": [ "http://hl7.org/fhir/us/cqfmeasures/StructureDefinition/test-case-cqfm" ]
      },
      "contained": [ {
        "resourceType": "Parameters",
        "id": "8af2ace2-c374-433d-b99b-5e6e33eecfb7-parameters",
        "parameter": [ {
          "name": "subject",
          "valueString": "944f86a3-e617-4a14-97b8-e5678fb92f8e"
        } ]
      } ],
      "extension": [ {
        "url": "http://hl7.org/fhir/StructureDefinition/cqf-inputParameters",
        "valueReference": {
          "reference": "#8af2ace2-c374-433d-b99b-5e6e33eecfb7-parameters"
        }
      }, {
        "url": "http://hl7.org/fhir/us/cqfmeasures/StructureDefinition/cqfm-testCaseDescription",
        "valueMarkdown": "Two encounters with one after the MP"
      } ],
      "modifierExtension": [ {
        "url": "http://hl7.org/fhir/us/cqfmeasures/StructureDefinition/cqfm-isTestCase",
        "valueBoolean": true
      } ],
      "status": "complete",
      "type": "individual",
      "measure": "https://madie.cms.gov/Measure/CMS1157FHIRHIVRetention",
      "period": {
        "start": "2026-01-01",
        "end": "2026-12-31"
      },
      "group": [ {
        "id": "Group_1",
        "population": [ {
          "id": "InitialPopulation_1",
          "code": {
            "coding": [ {
              "system": "http://terminology.hl7.org/CodeSystem/measure-population",
              "code": "initial-population",
              "display": "Initial Population"
            } ]
          },
          "count": 1
        }, {
          "id": "Denominator_1",
          "code": {
            "coding": [ {
              "system": "http://terminology.hl7.org/CodeSystem/measure-population",
              "code": "denominator",
              "display": "Denominator"
            } ]
          },
          "count": 1
        }, {
          "id": "Numerator_1",
          "code": {
            "coding": [ {
              "system": "http://terminology.hl7.org/CodeSystem/measure-population",
              "code": "numerator",
              "display": "Numerator"
            } ]
          },
          "count": 0
        } ],
        "measureScore": {
          "value": 1.0
        }
      } ],
      "evaluatedResource": [ {
        "reference": "Patient/944f86a3-e617-4a14-97b8-e5678fb92f8e"
      }, {
        "reference": "Condition/df694ab4-bdc2-43ce-8bcc-04c66310a1ce"
      }, {
        "reference": "Encounter/96fd7bec-0459-408d-947a-1b2b3539935d"
      }, {
        "reference": "Encounter/c478e00a-02ee-4671-891a-a1ac35dce82b"
      }, {
        "reference": "Coverage/109ead4e-b1cb-4f0a-8f03-8da395cf8bb0"
      }, {
        "reference": "Organization/4c4a4724-885e-43d5-8e86-519822439025"
      }, {
        "reference": "Practitioner/9fadff52-a04c-4d49-a89a-29b8ec40c86c"
      } ]
    }
  } ]
}