{
  "resourceType": "Bundle",
  "id": "60f82c2f98086b570510e2be",
  "type": "transaction",
  "entry": [ {
    "fullUrl": "https://madie.cms.gov/Patient/53e176e2-42f5-4c27-a1fe-23a280982bde",
    "resource": {
      "resourceType": "Patient",
      "id": "53e176e2-42f5-4c27-a1fe-23a280982bde",
      "meta": {
        "profile": [ "http://hl7.org/fhir/us/qicore/StructureDefinition/qicore-patient" ]
      },
      "text": {
        "status": "generated",
        "div": "<div xmlns=\"http://www.w3.org/1999/xhtml\"><div class=\"hapiHeaderText\">EncPrinDx=IschemicStrokeTestOccurr <b>IPPPASS </b></div><table class=\"hapiPropertyTable\"><tbody><tr><td>Identifier</td><td>6e2b90860fcc9b1c4eb9431a66a27a09b7f448bf6d8d855872a784ef7a54a594</td></tr><tr><td>Date of birth</td><td><span>20 August 1994</span></td></tr></tbody></table></div>"
      },
      "extension": [ {
        "url": "http://hl7.org/fhir/us/core/StructureDefinition/us-core-race",
        "extension": [ {
          "url": "ombCategory",
          "valueCoding": {
            "system": "urn:oid:2.16.840.1.113883.6.238",
            "code": "1002-5",
            "display": "American Indian or Alaska Native",
            "userSelected": true
          }
        }, {
          "url": "text",
          "valueString": "American Indian or Alaska Native"
        } ]
      }, {
        "url": "http://hl7.org/fhir/us/core/StructureDefinition/us-core-ethnicity",
        "extension": [ {
          "url": "ombCategory",
          "valueCoding": {
            "system": "urn:oid:2.16.840.1.113883.6.238",
            "code": "2186-5",
            "display": "Not Hispanic or Latino",
            "userSelected": true
          }
        }, {
          "url": "text",
          "valueString": "Not Hispanic or Latino"
        } ]
      } ],
      "identifier": [ {
        "type": {
          "coding": [ {
            "system": "http://terminology.hl7.org/CodeSystem/v2-0203",
            "code": "MR"
          } ]
        },
        "system": "https://bonnie-fhir.healthit.gov/",
        "value": "60f82c2f98086b570510e2be"
      } ],
      "active": true,
      "name": [ {
        "use": "usual",
        "family": "IPPPass",
        "given": [ "EncPrinDxIschemicStrokeTestOccurr" ]
      } ],
      "gender": "male",
      "birthDate": "1995-08-20"
    },
    "request": {
      "method": "PUT",
      "url": "Patient/53e176e2-42f5-4c27-a1fe-23a280982bde"
    }
  }, {
    "fullUrl": "https://madie.cms.gov/Encounter/e504cfa5-a9a9-4135-8df7-b6a1795ba52a",
    "resource": {
      "resourceType": "Encounter",
      "id": "e504cfa5-a9a9-4135-8df7-b6a1795ba52a",
      "meta": {
        "profile": [ "http://hl7.org/fhir/us/qicore/StructureDefinition/qicore-encounter" ]
      },
      "status": "finished",
      "class": {
        "system": "http://terminology.hl7.org/CodeSystem/v3-ActCode",
        "code": "IMP",
        "display": "inpatient encounter"
      },
      "type": [ {
        "coding": [ {
          "system": "http://snomed.info/sct",
          "code": "183452005"
        } ]
      } ],
      "subject": {
        "reference": "Patient/53e176e2-42f5-4c27-a1fe-23a280982bde"
      },
      "period": {
        "start": "2026-08-20T09:00:00.000+00:00",
        "end": "2026-08-20T23:59:00.000+00:00"
      },
      "length": {
        "value": 0,
        "unit": "days"
      }
    },
    "request": {
      "method": "PUT",
      "url": "Encounter/e504cfa5-a9a9-4135-8df7-b6a1795ba52a"
    }
  }, {
    "fullUrl": "https://madie.cms.gov/Encounter/f103c8c3-f427-48ff-9cbc-5f797ee5c9b8",
    "resource": {
      "resourceType": "Encounter",
      "id": "f103c8c3-f427-48ff-9cbc-5f797ee5c9b8",
      "meta": {
        "profile": [ "http://hl7.org/fhir/us/qicore/StructureDefinition/qicore-encounter" ]
      },
      "status": "finished",
      "class": {
        "system": "http://terminology.hl7.org/CodeSystem/v3-ActCode",
        "code": "IMP",
        "display": "inpatient encounter"
      },
      "type": [ {
        "coding": [ {
          "system": "http://snomed.info/sct",
          "code": "32485007"
        } ]
      } ],
      "subject": {
        "reference": "Patient/53e176e2-42f5-4c27-a1fe-23a280982bde"
      },
      "period": {
        "start": "2026-08-21T00:00:00.000+00:00",
        "end": "2026-12-18T23:59:00.000+00:00"
      },
      "length": {
        "value": 119,
        "unit": "days"
      },
      "reasonReference": [ {
        "reference": "Condition/191c4524-4ed7-43a7-995d-b2c386b61443"
      } ]
    },
    "request": {
      "method": "PUT",
      "url": "Encounter/f103c8c3-f427-48ff-9cbc-5f797ee5c9b8"
    }
  }, {
    "fullUrl": "https://madie.cms.gov/Coverage/6b54fbee-4e5f-4c20-b716-e9a47aa41bcc",
    "resource": {
      "resourceType": "Coverage",
      "id": "6b54fbee-4e5f-4c20-b716-e9a47aa41bcc",
      "status": "active",
      "beneficiary": {
        "reference": "Patient/53e176e2-42f5-4c27-a1fe-23a280982bde"
      },
      "period": {
        "start": "1995-08-20T07:00:00.000+00:00"
      },
      "payor": [ {
        "reference": "Organization/c57cab79-ef97-4c45-844b-54ed5f0ff3eb"
      } ]
    },
    "request": {
      "method": "PUT",
      "url": "Coverage/6b54fbee-4e5f-4c20-b716-e9a47aa41bcc"
    }
  }, {
    "fullUrl": "https://madie.cms.gov/Condition/11bd8a97-34e9-4e31-a09e-638e76546a49",
    "resource": {
      "resourceType": "Condition",
      "id": "11bd8a97-34e9-4e31-a09e-638e76546a49",
      "meta": {
        "profile": [ "http://hl7.org/fhir/us/qicore/StructureDefinition/qicore-condition-encounter-diagnosis" ]
      },
      "clinicalStatus": {
        "coding": [ {
          "system": "http://terminology.hl7.org/CodeSystem/condition-clinical",
          "code": "active"
        } ]
      },
      "verificationStatus": {
        "coding": [ {
          "system": "http://terminology.hl7.org/CodeSystem/condition-ver-status",
          "code": "confirmed"
        } ]
      },
      "category": [ {
        "coding": [ {
          "system": "http://terminology.hl7.org/CodeSystem/condition-category",
          "code": "encounter-diagnosis",
          "display": "Encounter Diagnosis"
        } ]
      } ],
      "code": {
        "coding": [ {
          "system": "http://snomed.info/sct",
          "version": "2020-09",
          "code": "111297002",
          "display": "Nonparalytic stroke (disorder)",
          "userSelected": true
        } ]
      },
      "subject": {
        "reference": "Patient/53e176e2-42f5-4c27-a1fe-23a280982bde"
      },
      "encounter": {
        "reference": "Encounter/f103c8c3-f427-48ff-9cbc-5f797ee5c9b8"
      },
      "recordedDate": "2026-08-16T08:00:00.000+00:00"
    },
    "request": {
      "method": "PUT",
      "url": "Condition/11bd8a97-34e9-4e31-a09e-638e76546a49"
    }
  }, {
    "fullUrl": "https://madie.cms.gov/claim/5ca62962b8484628b8de1ec5",
    "resource": {
      "resourceType": "Claim",
      "id": "5ca62962b8484628b8de1ec5",
      "meta": {
        "profile": [ "http://hl7.org/fhir/us/qicore/StructureDefinition/qicore-claim" ]
      },
      "status": "active",
      "type": {
        "coding": [ {
          "system": "http://terminology.hl7.org/CodeSystem/claim-type",
          "code": "institutional"
        } ]
      },
      "use": "claim",
      "patient": {
        "reference": "Patient/53e176e2-42f5-4c27-a1fe-23a280982bde"
      },
      "created": "2026-12-01",
      "provider": {
        "reference": "Practitioner/e44e02c6-f1ea-414c-b1d5-9ecb610ef8fd"
      },
      "priority": {
        "coding": [ {
          "system": "http://terminology.hl7.org/CodeSystem/processpriority",
          "code": "normal"
        } ]
      },
      "diagnosis": [ {
        "sequence": 1,
        "diagnosisCodeableConcept": {
          "coding": [ {
            "system": "http://hl7.org/fhir/sid/icd-10-cm",
            "code": "I63.00"
          } ]
        },
        "type": [ {
          "coding": [ {
            "system": "http://terminology.hl7.org/CodeSystem/ex-diagnosistype",
            "code": "principal"
          } ]
        } ]
      } ],
      "insurance": [ {
        "sequence": 1,
        "focal": true,
        "coverage": {
          "reference": "Coverage/5fa041661c76ba66d9959367"
        }
      } ],
      "item": [ {
        "sequence": 1,
        "diagnosisSequence": [ 1 ],
        "productOrService": {
          "coding": [ {
            "system": "http://terminology.hl7.org/CodeSystem/ex-USCLS",
            "code": "99555"
          } ]
        },
        "encounter": [ {
          "reference": "Encounter/f103c8c3-f427-48ff-9cbc-5f797ee5c9b8"
        } ]
      } ]
    },
    "request": {
      "method": "PUT",
      "url": "Claim/5ca62962b8484628b8de1ec5"
    }
  }, {
    "fullUrl": "https://madie.cms.gov/Condition/191c4524-4ed7-43a7-995d-b2c386b61443",
    "resource": {
      "resourceType": "Condition",
      "id": "191c4524-4ed7-43a7-995d-b2c386b61443",
      "meta": {
        "profile": [ "http://hl7.org/fhir/us/qicore/StructureDefinition/qicore-condition" ]
      },
      "clinicalStatus": {
        "coding": [ {
          "system": "http://terminology.hl7.org/CodeSystem/condition-clinical",
          "code": "active"
        } ]
      },
      "verificationStatus": {
        "coding": [ {
          "system": "http://terminology.hl7.org/CodeSystem/condition-ver-status",
          "code": "confirmed"
        } ]
      },
      "category": [ {
        "coding": [ {
          "system": "http://terminology.hl7.org/CodeSystem/condition-category",
          "code": "encounter-diagnosis",
          "display": "Encounter Diagnosis"
        } ]
      } ],
      "code": {
        "coding": [ {
          "system": "http://snomed.info/sct",
          "version": "2020-09",
          "code": "111297002",
          "display": "Nonparalytic stroke (disorder)",
          "userSelected": true
        } ]
      },
      "subject": {
        "reference": "Patient/53e176e2-42f5-4c27-a1fe-23a280982bde"
      },
      "encounter": {
        "reference": "Encounter/f103c8c3-f427-48ff-9cbc-5f797ee5c9b8"
      },
      "recordedDate": "2026-08-16T08:00:00.000+00:00"
    },
    "request": {
      "method": "PUT",
      "url": "Condition/191c4524-4ed7-43a7-995d-b2c386b61443"
    }
  }, {
    "fullUrl": "https://madie.cms.gov/Organization/c57cab79-ef97-4c45-844b-54ed5f0ff3eb",
    "resource": {
      "resourceType": "Organization",
      "id": "c57cab79-ef97-4c45-844b-54ed5f0ff3eb",
      "meta": {
        "profile": [ "http://hl7.org/fhir/us/qicore/StructureDefinition/qicore-organization" ]
      },
      "identifier": [ {
        "use": "temp",
        "system": "urn:oid:2.16.840.1.113883.4.4",
        "value": "21-3259825"
      } ],
      "active": true,
      "type": [ {
        "coding": [ {
          "system": "http://terminology.hl7.org/CodeSystem/organization-type",
          "code": "pay",
          "display": "Payer"
        } ]
      } ],
      "name": "Blue Cross Blue Shield of Texas",
      "telecom": [ {
        "system": "phone",
        "value": "(+1) 972-766-6900"
      } ],
      "address": [ {
        "use": "billing",
        "type": "postal",
        "line": [ "P.O. Box 660044" ],
        "city": "Dallas",
        "state": "TX",
        "postalCode": "75266-0044",
        "country": "USA"
      } ]
    },
    "request": {
      "method": "PUT",
      "url": "Organization/c57cab79-ef97-4c45-844b-54ed5f0ff3eb"
    }
  }, {
    "fullUrl": "https://madie.cms.gov/Practitioner/e44e02c6-f1ea-414c-b1d5-9ecb610ef8fd",
    "resource": {
      "resourceType": "Practitioner",
      "id": "e44e02c6-f1ea-414c-b1d5-9ecb610ef8fd",
      "identifier": [ {
        "system": "http://hl7.org/fhir/sid/us-npi",
        "value": "123456"
      } ],
      "name": [ {
        "family": "Evil",
        "prefix": [ "Dr" ]
      } ]
    },
    "request": {
      "method": "PUT",
      "url": "Practitioner/e44e02c6-f1ea-414c-b1d5-9ecb610ef8fd"
    }
  }, {
    "fullUrl": "https://madie.cms.gov/MeasureReport/4aa497f6-b4fa-4320-92fe-fb80b9ce2458",
    "resource": {
      "resourceType": "MeasureReport",
      "id": "4aa497f6-b4fa-4320-92fe-fb80b9ce2458",
      "meta": {
        "profile": [ "http://hl7.org/fhir/us/cqfmeasures/StructureDefinition/test-case-cqfm" ]
      },
      "contained": [ {
        "resourceType": "Parameters",
        "id": "361d6523-b32f-4453-aefc-67cb4c4ba960-parameters",
        "parameter": [ {
          "name": "subject",
          "valueString": "53e176e2-42f5-4c27-a1fe-23a280982bde"
        } ]
      } ],
      "extension": [ {
        "url": "http://hl7.org/fhir/StructureDefinition/cqf-inputParameters",
        "valueReference": {
          "reference": "#361d6523-b32f-4453-aefc-67cb4c4ba960-parameters"
        }
      }, {
        "url": "http://hl7.org/fhir/us/cqfmeasures/StructureDefinition/cqfm-testCaseDescription",
        "valueMarkdown": "EncPrinDx=IschemicStroke LOS<120. Testing multiple occurrences\n"
      } ],
      "modifierExtension": [ {
        "url": "http://hl7.org/fhir/us/cqfmeasures/StructureDefinition/cqfm-isTestCase",
        "valueBoolean": true
      } ],
      "status": "complete",
      "type": "individual",
      "measure": "https://madie.cms.gov/Measure/CMS72FHIRSTKAntithromboticDay2",
      "period": {
        "start": "2026-01-01",
        "end": "2026-12-31"
      },
      "group": [ {
        "id": "Group_1",
        "population": [ {
          "id": "InitialPopulation_1",
          "code": {
            "coding": [ {
              "system": "http://terminology.hl7.org/CodeSystem/measure-population",
              "code": "initial-population",
              "display": "Initial Population"
            } ]
          },
          "count": 1
        }, {
          "id": "Denominator_1",
          "code": {
            "coding": [ {
              "system": "http://terminology.hl7.org/CodeSystem/measure-population",
              "code": "denominator",
              "display": "Denominator"
            } ]
          },
          "count": 1
        }, {
          "id": "DenominatorExclusion_1",
          "code": {
            "coding": [ {
              "system": "http://terminology.hl7.org/CodeSystem/measure-population",
              "code": "denominator-exclusion",
              "display": "Denominator Exclusion"
            } ]
          },
          "count": 0
        }, {
          "id": "Numerator_1",
          "code": {
            "coding": [ {
              "system": "http://terminology.hl7.org/CodeSystem/measure-population",
              "code": "numerator",
              "display": "Numerator"
            } ]
          },
          "count": 0
        }, {
          "id": "DenominatorException_1",
          "code": {
            "coding": [ {
              "system": "http://terminology.hl7.org/CodeSystem/measure-population",
              "code": "denominator-exception",
              "display": "Denominator Exception"
            } ]
          },
          "count": 0
        } ],
        "measureScore": {
          "value": 0.0
        }
      } ],
      "evaluatedResource": [ {
        "reference": "Patient/53e176e2-42f5-4c27-a1fe-23a280982bde"
      }, {
        "reference": "Encounter/e504cfa5-a9a9-4135-8df7-b6a1795ba52a"
      }, {
        "reference": "Encounter/f103c8c3-f427-48ff-9cbc-5f797ee5c9b8"
      }, {
        "reference": "Coverage/6b54fbee-4e5f-4c20-b716-e9a47aa41bcc"
      }, {
        "reference": "Condition/11bd8a97-34e9-4e31-a09e-638e76546a49"
      }, {
        "reference": "Claim/5ca62962b8484628b8de1ec5"
      }, {
        "reference": "Condition/191c4524-4ed7-43a7-995d-b2c386b61443"
      }, {
        "reference": "Organization/c57cab79-ef97-4c45-844b-54ed5f0ff3eb"
      }, {
        "reference": "Practitioner/e44e02c6-f1ea-414c-b1d5-9ecb610ef8fd"
      } ]
    },
    "request": {
      "method": "PUT",
      "url": "MeasureReport/4aa497f6-b4fa-4320-92fe-fb80b9ce2458"
    }
  } ]
}