{
  "resourceType": "Bundle",
  "id": "612e6b3902c62a011f2ecf1f",
  "type": "transaction",
  "entry": [ {
    "fullUrl": "https://madie.cms.gov/Patient/c0ddfe7a-d2b7-43d2-a51f-7190870e39c5",
    "resource": {
      "resourceType": "Patient",
      "id": "c0ddfe7a-d2b7-43d2-a51f-7190870e39c5",
      "meta": {
        "profile": [ "http://hl7.org/fhir/us/qicore/StructureDefinition/qicore-patient" ]
      },
      "text": {
        "status": "generated",
        "div": "<div xmlns=\"http://www.w3.org/1999/xhtml\"><div class=\"hapiHeaderText\">LOSLT2Days <b>DENEXPASS </b></div><table class=\"hapiPropertyTable\"><tbody><tr><td>Identifier</td><td>26fb5d0b2c67d4a85fcb0701daa6142b</td></tr><tr><td>Date of birth</td><td><span>02 January 1974</span></td></tr></tbody></table></div>"
      },
      "extension": [ {
        "url": "http://hl7.org/fhir/us/core/StructureDefinition/us-core-race",
        "extension": [ {
          "url": "ombCategory",
          "valueCoding": {
            "system": "urn:oid:2.16.840.1.113883.6.238",
            "code": "1002-5",
            "display": "American Indian or Alaska Native",
            "userSelected": true
          }
        }, {
          "url": "text",
          "valueString": "American Indian or Alaska Native"
        } ]
      }, {
        "url": "http://hl7.org/fhir/us/core/StructureDefinition/us-core-ethnicity",
        "extension": [ {
          "url": "ombCategory",
          "valueCoding": {
            "system": "urn:oid:2.16.840.1.113883.6.238",
            "code": "2135-2",
            "display": "Hispanic or Latino",
            "userSelected": true
          }
        }, {
          "url": "text",
          "valueString": "Hispanic or Latino"
        } ]
      } ],
      "identifier": [ {
        "type": {
          "coding": [ {
            "system": "http://terminology.hl7.org/CodeSystem/v2-0203",
            "code": "MR"
          } ]
        },
        "system": "https://bonnie-fhir.healthit.gov/",
        "value": "612e6b3902c62a011f2ecf1f"
      } ],
      "active": true,
      "name": [ {
        "use": "usual",
        "family": "DENEXPass",
        "given": [ "LOSLT2Days" ]
      } ],
      "gender": "male",
      "birthDate": "1975-01-02"
    },
    "request": {
      "method": "PUT",
      "url": "Patient/c0ddfe7a-d2b7-43d2-a51f-7190870e39c5"
    }
  }, {
    "fullUrl": "https://madie.cms.gov/Encounter/803d4487-a28e-4d75-9967-60e64f018c29",
    "resource": {
      "resourceType": "Encounter",
      "id": "803d4487-a28e-4d75-9967-60e64f018c29",
      "meta": {
        "profile": [ "http://hl7.org/fhir/us/qicore/StructureDefinition/qicore-encounter" ]
      },
      "status": "finished",
      "class": {
        "system": "http://terminology.hl7.org/CodeSystem/v3-ActCode",
        "code": "IMP",
        "display": "inpatient encounter"
      },
      "type": [ {
        "coding": [ {
          "system": "http://snomed.info/sct",
          "code": "8715000"
        } ]
      } ],
      "subject": {
        "reference": "Patient/c0ddfe7a-d2b7-43d2-a51f-7190870e39c5"
      },
      "period": {
        "start": "2026-11-01T00:00:00.000+00:00",
        "end": "2026-11-02T23:59:00.000+00:00"
      },
      "length": {
        "value": 1.0,
        "unit": "days"
      }
    },
    "request": {
      "method": "PUT",
      "url": "Encounter/803d4487-a28e-4d75-9967-60e64f018c29"
    }
  }, {
    "fullUrl": "https://madie.cms.gov/Coverage/894866fe-d5a8-4028-85ff-14f9f300d689",
    "resource": {
      "resourceType": "Coverage",
      "id": "894866fe-d5a8-4028-85ff-14f9f300d689",
      "status": "active",
      "beneficiary": {
        "reference": "Patient/c0ddfe7a-d2b7-43d2-a51f-7190870e39c5"
      },
      "period": {
        "start": "1975-01-02T08:00:00.000+00:00"
      },
      "payor": [ {
        "reference": "Organization/ccdef84a-41d5-412c-a586-1e1a1c05ec37"
      } ]
    },
    "request": {
      "method": "PUT",
      "url": "Coverage/894866fe-d5a8-4028-85ff-14f9f300d689"
    }
  }, {
    "fullUrl": "https://madie.cms.gov/Organization/ccdef84a-41d5-412c-a586-1e1a1c05ec37",
    "resource": {
      "resourceType": "Organization",
      "id": "ccdef84a-41d5-412c-a586-1e1a1c05ec37",
      "meta": {
        "profile": [ "http://hl7.org/fhir/us/qicore/StructureDefinition/qicore-organization" ]
      },
      "identifier": [ {
        "use": "temp",
        "system": "urn:oid:2.16.840.1.113883.4.4",
        "value": "21-3259825"
      } ],
      "active": true,
      "type": [ {
        "coding": [ {
          "system": "http://terminology.hl7.org/CodeSystem/organization-type",
          "code": "pay",
          "display": "Payer"
        } ]
      } ],
      "name": "Blue Cross Blue Shield of Texas",
      "telecom": [ {
        "system": "phone",
        "value": "(+1) 972-766-6900"
      } ],
      "address": [ {
        "use": "billing",
        "type": "postal",
        "line": [ "P.O. Box 660044" ],
        "city": "Dallas",
        "state": "TX",
        "postalCode": "75266-0044",
        "country": "USA"
      } ]
    },
    "request": {
      "method": "PUT",
      "url": "Organization/ccdef84a-41d5-412c-a586-1e1a1c05ec37"
    }
  }, {
    "fullUrl": "https://madie.cms.gov/Practitioner/c630de68-8a79-48b1-8d2b-d27627fbf9b3",
    "resource": {
      "resourceType": "Practitioner",
      "id": "c630de68-8a79-48b1-8d2b-d27627fbf9b3",
      "identifier": [ {
        "system": "http://hl7.org/fhir/sid/us-npi",
        "value": "123456"
      } ],
      "name": [ {
        "family": "Evil",
        "prefix": [ "Dr" ]
      } ]
    },
    "request": {
      "method": "PUT",
      "url": "Practitioner/c630de68-8a79-48b1-8d2b-d27627fbf9b3"
    }
  }, {
    "fullUrl": "https://madie.cms.gov/MeasureReport/4bf470e5-47f0-4cf3-8caa-b10a3afcc0a9",
    "resource": {
      "resourceType": "MeasureReport",
      "id": "4bf470e5-47f0-4cf3-8caa-b10a3afcc0a9",
      "meta": {
        "profile": [ "http://hl7.org/fhir/us/cqfmeasures/StructureDefinition/test-case-cqfm" ]
      },
      "contained": [ {
        "resourceType": "Parameters",
        "id": "ce6c6c5d-c023-471a-a76f-72134957eab9-parameters",
        "parameter": [ {
          "name": "subject",
          "valueString": "c0ddfe7a-d2b7-43d2-a51f-7190870e39c5"
        } ]
      } ],
      "extension": [ {
        "url": "http://hl7.org/fhir/StructureDefinition/cqf-inputParameters",
        "valueReference": {
          "reference": "#ce6c6c5d-c023-471a-a76f-72134957eab9-parameters"
        }
      }, {
        "url": "http://hl7.org/fhir/us/cqfmeasures/StructureDefinition/cqfm-testCaseDescription",
        "valueMarkdown": "LOS = 1 days\n"
      } ],
      "modifierExtension": [ {
        "url": "http://hl7.org/fhir/us/cqfmeasures/StructureDefinition/cqfm-isTestCase",
        "valueBoolean": true
      } ],
      "status": "complete",
      "type": "individual",
      "measure": "https://madie.cms.gov/Measure/CMS108FHIRVTEProphylaxis",
      "period": {
        "start": "2026-01-01",
        "end": "2026-12-31"
      },
      "group": [ {
        "id": "Group_1",
        "population": [ {
          "id": "InitialPopulation_1",
          "code": {
            "coding": [ {
              "system": "http://terminology.hl7.org/CodeSystem/measure-population",
              "code": "initial-population",
              "display": "Initial Population"
            } ]
          },
          "count": 1
        }, {
          "id": "Denominator_1",
          "code": {
            "coding": [ {
              "system": "http://terminology.hl7.org/CodeSystem/measure-population",
              "code": "denominator",
              "display": "Denominator"
            } ]
          },
          "count": 1
        }, {
          "id": "DenominatorExclusion_1",
          "code": {
            "coding": [ {
              "system": "http://terminology.hl7.org/CodeSystem/measure-population",
              "code": "denominator-exclusion",
              "display": "Denominator Exclusion"
            } ]
          },
          "count": 1
        }, {
          "id": "Numerator_1",
          "code": {
            "coding": [ {
              "system": "http://terminology.hl7.org/CodeSystem/measure-population",
              "code": "numerator",
              "display": "Numerator"
            } ]
          },
          "count": 0
        } ],
        "measureScore": {
          "value": 0.0
        }
      } ],
      "evaluatedResource": [ {
        "reference": "Patient/c0ddfe7a-d2b7-43d2-a51f-7190870e39c5"
      }, {
        "reference": "Encounter/803d4487-a28e-4d75-9967-60e64f018c29"
      }, {
        "reference": "Coverage/894866fe-d5a8-4028-85ff-14f9f300d689"
      }, {
        "reference": "Organization/ccdef84a-41d5-412c-a586-1e1a1c05ec37"
      }, {
        "reference": "Practitioner/c630de68-8a79-48b1-8d2b-d27627fbf9b3"
      } ]
    },
    "request": {
      "method": "PUT",
      "url": "MeasureReport/4bf470e5-47f0-4cf3-8caa-b10a3afcc0a9"
    }
  } ]
}