{
  "resourceType": "Bundle",
  "id": "60f82c2f98086b570510e2ac",
  "type": "transaction",
  "entry": [ {
    "fullUrl": "https://madie.cms.gov/Patient/c014ff5d-792f-45c9-9659-4999537005b0",
    "resource": {
      "resourceType": "Patient",
      "id": "c014ff5d-792f-45c9-9659-4999537005b0",
      "meta": {
        "profile": [ "http://hl7.org/fhir/us/qicore/StructureDefinition/qicore-patient" ]
      },
      "text": {
        "status": "generated",
        "div": "<div xmlns=\"http://www.w3.org/1999/xhtml\"><div class=\"hapiHeaderText\">INRDayOfObs_ED&lt;1hrObs&lt;1hrBFEncDayAft <b>DENEXCEPASS </b></div><table class=\"hapiPropertyTable\"><tbody><tr><td>Identifier</td><td>4544f9c471c2652e8cf28f7d498adb0102cf9aa43a574101f4daf3f05c2d1fab</td></tr><tr><td>Date of birth</td><td><span>26 September 1975</span></td></tr></tbody></table></div>"
      },
      "extension": [ {
        "url": "http://hl7.org/fhir/us/core/StructureDefinition/us-core-race",
        "extension": [ {
          "url": "ombCategory",
          "valueCoding": {
            "system": "urn:oid:2.16.840.1.113883.6.238",
            "code": "2054-5",
            "display": "Black or African American",
            "userSelected": true
          }
        }, {
          "url": "text",
          "valueString": "Black or African American"
        } ]
      }, {
        "url": "http://hl7.org/fhir/us/core/StructureDefinition/us-core-ethnicity",
        "extension": [ {
          "url": "ombCategory",
          "valueCoding": {
            "system": "urn:oid:2.16.840.1.113883.6.238",
            "code": "2186-5",
            "display": "Not Hispanic or Latino",
            "userSelected": true
          }
        }, {
          "url": "text",
          "valueString": "Not Hispanic or Latino"
        } ]
      } ],
      "identifier": [ {
        "type": {
          "coding": [ {
            "system": "http://terminology.hl7.org/CodeSystem/v2-0203",
            "code": "MR"
          } ]
        },
        "system": "https://bonnie-fhir.healthit.gov/",
        "value": "60f82c2f98086b570510e2ac"
      } ],
      "active": true,
      "name": [ {
        "use": "usual",
        "family": "DENEXCEPass",
        "given": [ "INRDayOfObs_ED<1hrObs<1hrBFEncDayAft" ]
      } ],
      "gender": "female",
      "birthDate": "1976-09-26"
    },
    "request": {
      "method": "PUT",
      "url": "Patient/c014ff5d-792f-45c9-9659-4999537005b0"
    }
  }, {
    "fullUrl": "https://madie.cms.gov/Encounter/892f01bf-01bf-442a-9ade-4b99a67544de",
    "resource": {
      "resourceType": "Encounter",
      "id": "892f01bf-01bf-442a-9ade-4b99a67544de",
      "meta": {
        "profile": [ "http://hl7.org/fhir/us/qicore/StructureDefinition/qicore-encounter" ]
      },
      "status": "finished",
      "class": {
        "system": "http://terminology.hl7.org/CodeSystem/v3-ActCode",
        "code": "EMER",
        "display": "emergency",
        "userSelected": true
      },
      "type": [ {
        "coding": [ {
          "system": "http://snomed.info/sct",
          "code": "4525004"
        } ]
      } ],
      "subject": {
        "reference": "Patient/c014ff5d-792f-45c9-9659-4999537005b0"
      },
      "period": {
        "start": "2026-10-11T06:15:00.000+00:00",
        "end": "2026-10-11T06:30:00.000+00:00"
      },
      "length": {
        "value": 0,
        "unit": "days"
      }
    },
    "request": {
      "method": "PUT",
      "url": "Encounter/892f01bf-01bf-442a-9ade-4b99a67544de"
    }
  }, {
    "fullUrl": "https://madie.cms.gov/Encounter/65936ab5-e8b0-4b51-883a-530e13b5f988",
    "resource": {
      "resourceType": "Encounter",
      "id": "65936ab5-e8b0-4b51-883a-530e13b5f988",
      "meta": {
        "profile": [ "http://hl7.org/fhir/us/qicore/StructureDefinition/qicore-encounter" ]
      },
      "status": "finished",
      "class": {
        "system": "http://terminology.hl7.org/CodeSystem/v3-ActCode",
        "code": "OBSENC",
        "display": "observation encounter",
        "userSelected": true
      },
      "type": [ {
        "coding": [ {
          "system": "http://snomed.info/sct",
          "code": "448951000124107"
        } ]
      } ],
      "subject": {
        "reference": "Patient/c014ff5d-792f-45c9-9659-4999537005b0"
      },
      "period": {
        "start": "2026-10-11T06:31:00.000+00:00",
        "end": "2026-10-11T23:59:00.000+00:00"
      },
      "length": {
        "value": 0,
        "unit": "days"
      }
    },
    "request": {
      "method": "PUT",
      "url": "Encounter/65936ab5-e8b0-4b51-883a-530e13b5f988"
    }
  }, {
    "fullUrl": "https://madie.cms.gov/Encounter/043972c5-86ed-411e-85a2-c5c4de627aef",
    "resource": {
      "resourceType": "Encounter",
      "id": "043972c5-86ed-411e-85a2-c5c4de627aef",
      "meta": {
        "profile": [ "http://hl7.org/fhir/us/qicore/StructureDefinition/qicore-encounter" ]
      },
      "status": "finished",
      "class": {
        "system": "http://terminology.hl7.org/CodeSystem/v3-ActCode",
        "code": "IMP",
        "display": "inpatient encounter",
        "userSelected": true
      },
      "type": [ {
        "coding": [ {
          "system": "http://snomed.info/sct",
          "code": "32485007"
        } ]
      } ],
      "subject": {
        "reference": "Patient/c014ff5d-792f-45c9-9659-4999537005b0"
      },
      "period": {
        "start": "2026-10-12T00:00:00.000+00:00",
        "end": "2026-10-15T11:30:00.000+00:00"
      },
      "length": {
        "value": 3,
        "unit": "days"
      },
      "reasonReference": [ {
        "reference": "Condition/302eb279-c40c-40ef-afac-d4a97d068462"
      } ]
    },
    "request": {
      "method": "PUT",
      "url": "Encounter/043972c5-86ed-411e-85a2-c5c4de627aef"
    }
  }, {
    "fullUrl": "https://madie.cms.gov/claim/5ca62962b8484628b8de1ec5",
    "resource": {
      "resourceType": "Claim",
      "id": "5ca62962b8484628b8de1ec5",
      "meta": {
        "profile": [ "http://hl7.org/fhir/us/qicore/StructureDefinition/qicore-claim" ]
      },
      "status": "active",
      "type": {
        "coding": [ {
          "system": "http://terminology.hl7.org/CodeSystem/claim-type",
          "code": "institutional"
        } ]
      },
      "use": "claim",
      "patient": {
        "reference": "Patient/d170a0a8-b5ad-4303-b6df-e304dd5f92ad"
      },
      "created": "2026-12-01",
      "provider": {
        "reference": "Practitioner/practitioner-123456"
      },
      "priority": {
        "coding": [ {
          "system": "http://terminology.hl7.org/CodeSystem/processpriority",
          "code": "normal"
        } ]
      },
      "diagnosis": [ {
        "sequence": 1,
        "diagnosisCodeableConcept": {
          "coding": [ {
            "system": "http://hl7.org/fhir/sid/icd-10-cm",
            "code": "I63.00"
          } ]
        },
        "type": [ {
          "coding": [ {
            "system": "http://terminology.hl7.org/CodeSystem/ex-diagnosistype",
            "code": "principal"
          } ]
        } ]
      } ],
      "insurance": [ {
        "sequence": 1,
        "focal": true,
        "coverage": {
          "reference": "Coverage/5fa041661c76ba66d9959367"
        }
      } ],
      "item": [ {
        "sequence": 1,
        "diagnosisSequence": [ 1 ],
        "productOrService": {
          "coding": [ {
            "system": "http://terminology.hl7.org/CodeSystem/ex-USCLS",
            "code": "99555"
          } ]
        },
        "encounter": [ {
          "reference": "Encounter/043972c5-86ed-411e-85a2-c5c4de627aef"
        } ]
      } ]
    },
    "request": {
      "method": "PUT",
      "url": "Claim/5ca62962b8484628b8de1ec5"
    }
  }, {
    "fullUrl": "https://madie.cms.gov/Observation/f9c84acc-1c46-4c2c-bf24-1a7871b352b9",
    "resource": {
      "resourceType": "Observation",
      "id": "f9c84acc-1c46-4c2c-bf24-1a7871b352b9",
      "meta": {
        "profile": [ "http://hl7.org/fhir/us/qicore/StructureDefinition/qicore-observation-lab" ]
      },
      "status": "final",
      "category": [ {
        "coding": [ {
          "system": "http://terminology.hl7.org/CodeSystem/observation-category",
          "code": "laboratory",
          "display": "Laboratory"
        } ]
      } ],
      "code": {
        "coding": [ {
          "system": "http://loinc.org",
          "code": "34714-6"
        } ]
      },
      "subject": {
        "reference": "Patient/c014ff5d-792f-45c9-9659-4999537005b0"
      },
      "effectivePeriod": {
        "start": "2026-10-11T08:00:00.000+00:00"
      },
      "issued": "2026-10-11T23:59:00.000+00:00",
      "valueQuantity": {
        "value": 3.6
      }
    },
    "request": {
      "method": "PUT",
      "url": "Observation/f9c84acc-1c46-4c2c-bf24-1a7871b352b9"
    }
  }, {
    "fullUrl": "https://madie.cms.gov/Coverage/e11d2bd1-1a17-4deb-999f-61841dbda65f",
    "resource": {
      "resourceType": "Coverage",
      "id": "e11d2bd1-1a17-4deb-999f-61841dbda65f",
      "status": "active",
      "subscriberId": "523435",
      "beneficiary": {
        "reference": "Patient/c014ff5d-792f-45c9-9659-4999537005b0"
      },
      "relationship": {
        "coding": [ {
          "system": "http://terminology.hl7.org/CodeSystem/subscriber-relationship",
          "code": "self"
        } ]
      },
      "period": {
        "start": "1976-09-26T08:00:00.000+00:00"
      },
      "payor": [ {
        "reference": "Organization/a7d410ee-0ca5-4193-b8ca-6b5fdd59a20e"
      } ]
    },
    "request": {
      "method": "PUT",
      "url": "Coverage/e11d2bd1-1a17-4deb-999f-61841dbda65f"
    }
  }, {
    "fullUrl": "https://madie.cms.gov/Condition/302eb279-c40c-40ef-afac-d4a97d068462",
    "resource": {
      "resourceType": "Condition",
      "id": "302eb279-c40c-40ef-afac-d4a97d068462",
      "meta": {
        "profile": [ "http://hl7.org/fhir/us/qicore/StructureDefinition/qicore-condition-encounter-diagnosis" ]
      },
      "clinicalStatus": {
        "coding": [ {
          "system": "http://terminology.hl7.org/CodeSystem/condition-clinical",
          "code": "active"
        } ]
      },
      "verificationStatus": {
        "coding": [ {
          "system": "http://terminology.hl7.org/CodeSystem/condition-ver-status",
          "code": "confirmed"
        } ]
      },
      "category": [ {
        "coding": [ {
          "system": "http://terminology.hl7.org/CodeSystem/condition-category",
          "code": "encounter-diagnosis",
          "display": "Encounter Diagnosis"
        } ]
      } ],
      "code": {
        "coding": [ {
          "system": "http://snomed.info/sct",
          "version": "2020-09",
          "code": "111297002",
          "display": "Nonparalytic stroke (disorder)",
          "userSelected": true
        } ]
      },
      "subject": {
        "reference": "Patient/c014ff5d-792f-45c9-9659-4999537005b0"
      },
      "recordedDate": "2026-08-06T08:00:00.000+00:00"
    },
    "request": {
      "method": "PUT",
      "url": "Condition/302eb279-c40c-40ef-afac-d4a97d068462"
    }
  }, {
    "fullUrl": "https://madie.cms.gov/Organization/a7d410ee-0ca5-4193-b8ca-6b5fdd59a20e",
    "resource": {
      "resourceType": "Organization",
      "id": "a7d410ee-0ca5-4193-b8ca-6b5fdd59a20e",
      "meta": {
        "profile": [ "http://hl7.org/fhir/us/qicore/StructureDefinition/qicore-organization" ]
      },
      "identifier": [ {
        "use": "temp",
        "system": "urn:oid:2.16.840.1.113883.4.4",
        "value": "21-3259825"
      } ],
      "active": true,
      "type": [ {
        "coding": [ {
          "system": "http://terminology.hl7.org/CodeSystem/organization-type",
          "code": "pay",
          "display": "Payer"
        } ]
      } ],
      "name": "Blue Cross Blue Shield of Texas",
      "telecom": [ {
        "system": "phone",
        "value": "(+1) 972-766-6900"
      } ],
      "address": [ {
        "use": "billing",
        "type": "postal",
        "line": [ "P.O. Box 660044" ],
        "city": "Dallas",
        "state": "TX",
        "postalCode": "75266-0044",
        "country": "USA"
      } ]
    },
    "request": {
      "method": "PUT",
      "url": "Organization/a7d410ee-0ca5-4193-b8ca-6b5fdd59a20e"
    }
  }, {
    "fullUrl": "https://madie.cms.gov/MeasureReport/b640a42d-0255-4462-93eb-a3874b14f714",
    "resource": {
      "resourceType": "MeasureReport",
      "id": "b640a42d-0255-4462-93eb-a3874b14f714",
      "meta": {
        "profile": [ "http://hl7.org/fhir/us/cqfmeasures/StructureDefinition/test-case-cqfm" ]
      },
      "contained": [ {
        "resourceType": "Parameters",
        "id": "5caaa48a-efe1-42d2-a337-b046dbcf9d68-parameters",
        "parameter": [ {
          "name": "subject",
          "valueString": "c014ff5d-792f-45c9-9659-4999537005b0"
        } ]
      } ],
      "extension": [ {
        "url": "http://hl7.org/fhir/StructureDefinition/cqf-inputParameters",
        "valueReference": {
          "reference": "#5caaa48a-efe1-42d2-a337-b046dbcf9d68-parameters"
        }
      }, {
        "url": "http://hl7.org/fhir/us/cqfmeasures/StructureDefinition/cqfm-testCaseDescription",
        "valueMarkdown": "Patient receives INR day of Obs, ED ends 1 min before Obs start,  ED ends 1 min before observation, Obs ends 1 min before IP start at midnight. Testing Day of operator with HospitalizationWithObservation function.\n"
      } ],
      "modifierExtension": [ {
        "url": "http://hl7.org/fhir/us/cqfmeasures/StructureDefinition/cqfm-isTestCase",
        "valueBoolean": true
      } ],
      "status": "complete",
      "type": "individual",
      "measure": "https://madie.cms.gov/Measure/CMS72FHIRSTKAntithromboticDay2",
      "period": {
        "start": "2026-01-01",
        "end": "2026-12-31"
      },
      "group": [ {
        "id": "Group_1",
        "population": [ {
          "id": "InitialPopulation_1",
          "code": {
            "coding": [ {
              "system": "http://terminology.hl7.org/CodeSystem/measure-population",
              "code": "initial-population",
              "display": "Initial Population"
            } ]
          },
          "count": 1
        }, {
          "id": "Denominator_1",
          "code": {
            "coding": [ {
              "system": "http://terminology.hl7.org/CodeSystem/measure-population",
              "code": "denominator",
              "display": "Denominator"
            } ]
          },
          "count": 1
        }, {
          "id": "DenominatorExclusion_1",
          "code": {
            "coding": [ {
              "system": "http://terminology.hl7.org/CodeSystem/measure-population",
              "code": "denominator-exclusion",
              "display": "Denominator Exclusion"
            } ]
          },
          "count": 0
        }, {
          "id": "Numerator_1",
          "code": {
            "coding": [ {
              "system": "http://terminology.hl7.org/CodeSystem/measure-population",
              "code": "numerator",
              "display": "Numerator"
            } ]
          },
          "count": 0
        }, {
          "id": "DenominatorException_1",
          "code": {
            "coding": [ {
              "system": "http://terminology.hl7.org/CodeSystem/measure-population",
              "code": "denominator-exception",
              "display": "Denominator Exception"
            } ]
          },
          "count": 1
        } ],
        "measureScore": {
          "value": 0.0
        }
      } ],
      "evaluatedResource": [ {
        "reference": "Patient/c014ff5d-792f-45c9-9659-4999537005b0"
      }, {
        "reference": "Encounter/892f01bf-01bf-442a-9ade-4b99a67544de"
      }, {
        "reference": "Encounter/65936ab5-e8b0-4b51-883a-530e13b5f988"
      }, {
        "reference": "Encounter/043972c5-86ed-411e-85a2-c5c4de627aef"
      }, {
        "reference": "Claim/5ca62962b8484628b8de1ec5"
      }, {
        "reference": "Observation/f9c84acc-1c46-4c2c-bf24-1a7871b352b9"
      }, {
        "reference": "Coverage/e11d2bd1-1a17-4deb-999f-61841dbda65f"
      }, {
        "reference": "Condition/302eb279-c40c-40ef-afac-d4a97d068462"
      }, {
        "reference": "Organization/a7d410ee-0ca5-4193-b8ca-6b5fdd59a20e"
      } ]
    },
    "request": {
      "method": "PUT",
      "url": "MeasureReport/b640a42d-0255-4462-93eb-a3874b14f714"
    }
  } ]
}