{
  "resourceType": "Bundle",
  "id": "657cbdc9b4f1f0343662347a",
  "type": "transaction",
  "entry": [ {
    "fullUrl": "https://madie.cms.gov/Patient/5a2ea578-db19-487b-9ee2-27abaaa76383",
    "resource": {
      "resourceType": "Patient",
      "id": "5a2ea578-db19-487b-9ee2-27abaaa76383",
      "meta": {
        "profile": [ "http://hl7.org/fhir/us/qicore/StructureDefinition/qicore-patient" ]
      },
      "extension": [ {
        "url": "http://hl7.org/fhir/us/core/StructureDefinition/us-core-race",
        "extension": [ {
          "url": "ombCategory",
          "valueCoding": {
            "system": "urn:oid:2.16.840.1.113883.6.238",
            "code": "2106-3",
            "display": "White",
            "userSelected": true
          }
        }, {
          "url": "text",
          "valueString": "White"
        } ]
      }, {
        "url": "http://hl7.org/fhir/us/core/StructureDefinition/us-core-ethnicity",
        "extension": [ {
          "url": "ombCategory",
          "valueCoding": {
            "system": "urn:oid:2.16.840.1.113883.6.238",
            "code": "2186-5",
            "display": "Not Hispanic or Latino",
            "userSelected": true
          }
        }, {
          "url": "text",
          "valueString": "Not Hispanic or Latino"
        } ]
      } ],
      "identifier": [ {
        "type": {
          "coding": [ {
            "system": "http://terminology.hl7.org/CodeSystem/v2-0203",
            "code": "MR"
          } ]
        },
        "system": "https://bonnie-fhir.healthit.gov/",
        "value": "657cbdc9b4f1f0343662347a"
      } ],
      "name": [ {
        "family": "MedicationRequestNotPerformedPass",
        "given": [ "MedicationRequestDoNotPerform" ]
      } ],
      "gender": "female",
      "birthDate": "2008-01-01"
    },
    "request": {
      "method": "PUT",
      "url": "Patient/5a2ea578-db19-487b-9ee2-27abaaa76383"
    }
  }, {
    "fullUrl": "https://madie.cms.gov/Encounter/a0092492-0a46-4782-a2ff-38f544455342",
    "resource": {
      "resourceType": "Encounter",
      "id": "a0092492-0a46-4782-a2ff-38f544455342",
      "meta": {
        "profile": [ "http://hl7.org/fhir/us/qicore/StructureDefinition/qicore-encounter" ]
      },
      "status": "finished",
      "class": {
        "system": "http://terminology.hl7.org/CodeSystem/v3-ActCode",
        "code": "ACUTE",
        "display": "inpatient acute"
      },
      "type": [ {
        "coding": [ {
          "system": "http://snomed.info/sct",
          "version": "2024",
          "code": "32485007",
          "display": "Hospital admission (procedure)",
          "userSelected": true
        } ]
      } ],
      "subject": {
        "reference": "Patient/5a2ea578-db19-487b-9ee2-27abaaa76383"
      },
      "period": {
        "start": "2026-01-01T08:00:00.000Z",
        "end": "2026-01-02T09:15:00.000Z"
      },
      "diagnosis": [ {
        "condition": {
          "reference": "Condition/96515cbe-4dfe-43a9-97c9-49bf5aab7b66"
        },
        "use": {
          "coding": [ {
            "system": "http://terminology.hl7.org/CodeSystem/diagnosis-role",
            "code": "billing"
          } ]
        },
        "rank": 1
      } ]
    },
    "request": {
      "method": "PUT",
      "url": "Encounter/a0092492-0a46-4782-a2ff-38f544455342"
    }
  }, {
    "fullUrl": "https://madie.cms.gov/Location/3ff4a8fc-a805-4f42-a1f2-edaa2ccc6931",
    "resource": {
      "resourceType": "Location",
      "id": "3ff4a8fc-a805-4f42-a1f2-edaa2ccc6931",
      "meta": {
        "profile": [ "http://hl7.org/fhir/us/qicore/StructureDefinition/qicore-location" ]
      },
      "identifier": [ {
        "use": "usual",
        "system": "http://exampleoflocation.com",
        "value": "B1-S.F2"
      } ],
      "name": "Medical Surgical East, first floor",
      "type": [ {
        "coding": [ {
          "system": "https://www.cdc.gov/nhsn/cdaportal/terminology/codesystem/hsloc.html",
          "code": "1028-0",
          "display": "Medical Cardiac Critical Care",
          "userSelected": true
        } ]
      } ]
    },
    "request": {
      "method": "PUT",
      "url": "Location/3ff4a8fc-a805-4f42-a1f2-edaa2ccc6931"
    }
  }, {
    "fullUrl": "https://madie.cms.gov/MedicationRequest/2b7a48a5-aae1-4577-b996-9aff937c7d18",
    "resource": {
      "resourceType": "MedicationRequest",
      "id": "2b7a48a5-aae1-4577-b996-9aff937c7d18",
      "meta": {
        "profile": [ "http://hl7.org/fhir/us/qicore/StructureDefinition/qicore-medicationrequest" ]
      },
      "status": "completed",
      "intent": "order",
      "doNotPerform": true,
      "reportedReference": {
        "reference": "Patient/5a2ea578-db19-487b-9ee2-27abaaa76383"
      },
      "medicationCodeableConcept": {
        "coding": [ {
          "system": "http://www.nlm.nih.gov/research/umls/rxnorm",
          "version": "06052023",
          "code": "1007184"
        } ]
      },
      "subject": {
        "reference": "Patient/5a2ea578-db19-487b-9ee2-27abaaa76383"
      },
      "authoredOn": "2026-01-01T08:15:00.000Z",
      "requester": {
        "reference": "Practitioner/33d87640-6b2a-40b0-ab11-542478a88d5a"
      },
      "dosageInstruction": [ {
        "timing": {
          "repeat": {
            "boundsPeriod": {
              "start": "2025-01-01T08:15:00.000Z"
            }
          }
        }
      } ]
    },
    "request": {
      "method": "PUT",
      "url": "MedicationRequest/2b7a48a5-aae1-4577-b996-9aff937c7d18"
    }
  }, {
    "fullUrl": "https://madie.cms.gov/Medication/a708bd60-bd98-4129-ae9e-3fcc0b48eda5",
    "resource": {
      "resourceType": "Medication",
      "id": "a708bd60-bd98-4129-ae9e-3fcc0b48eda5",
      "meta": {
        "profile": [ "http://hl7.org/fhir/us/qicore/StructureDefinition/qicore-medication" ]
      },
      "code": {
        "coding": [ {
          "system": "http://www.nlm.nih.gov/research/umls/rxnorm",
          "code": "1007184",
          "display": "insulin aspart protamine, human / insulin aspart, human"
        } ]
      },
      "status": "active",
      "manufacturer": {
        "reference": "Organization/f5c2c2da-58dd-4ed7-bd93-a8cd18b94b71"
      },
      "form": {
        "coding": [ {
          "system": "http://snomed.info/sct",
          "code": "385219001",
          "display": "Conventional release solution for injection (dose form)"
        } ]
      },
      "ingredient": [ {
        "itemCodeableConcept": {
          "coding": [ {
            "system": "http://snomed.info/sct",
            "code": "420609005",
            "display": "Human regular insulin (substance)"
          } ]
        },
        "strength": {
          "numerator": {
            "value": 12,
            "system": "http://unitsofmeasure.org",
            "code": "mg"
          },
          "denominator": {
            "value": 1.2,
            "system": "http://unitsofmeasure.org",
            "code": "mL"
          }
        }
      } ],
      "batch": {
        "lotNumber": "9494788",
        "expirationDate": "2026-05-22"
      }
    },
    "request": {
      "method": "PUT",
      "url": "Medication/a708bd60-bd98-4129-ae9e-3fcc0b48eda5"
    }
  }, {
    "fullUrl": "https://madie.cms.gov/Coverage/f822622d-6ebf-4df6-a4f5-4c0e8a74dcab",
    "resource": {
      "resourceType": "Coverage",
      "id": "f822622d-6ebf-4df6-a4f5-4c0e8a74dcab",
      "meta": {
        "profile": [ "http://hl7.org/fhir/us/qicore/StructureDefinition/qicore-coverage" ]
      },
      "identifier": [ {
        "system": "http://benefitsinc.com/certificate",
        "value": "12345"
      } ],
      "status": "active",
      "type": {
        "coding": [ {
          "system": "https://nahdo.org/sopt",
          "version": "1.0.1",
          "code": "1",
          "display": "MEDICARE",
          "userSelected": true
        } ]
      },
      "subscriberId": "AB9876",
      "beneficiary": {
        "reference": "Patient/5a2ea578-db19-487b-9ee2-27abaaa76383"
      },
      "relationship": {
        "coding": [ {
          "system": "http://terminology.hl7.org/CodeSystem/subscriber-relationship",
          "code": "self"
        } ]
      },
      "payor": [ {
        "reference": "Organization/f5c2c2da-58dd-4ed7-bd93-a8cd18b94b71"
      } ]
    },
    "request": {
      "method": "PUT",
      "url": "Coverage/f822622d-6ebf-4df6-a4f5-4c0e8a74dcab"
    }
  }, {
    "fullUrl": "https://madie.cms.gov/Organization/f5c2c2da-58dd-4ed7-bd93-a8cd18b94b71",
    "resource": {
      "resourceType": "Organization",
      "id": "f5c2c2da-58dd-4ed7-bd93-a8cd18b94b71",
      "meta": {
        "profile": [ "http://hl7.org/fhir/us/qicore/StructureDefinition/qicore-organization" ]
      },
      "identifier": [ {
        "use": "temp",
        "system": "urn:oid:2.16.840.1.113883.4.4",
        "value": "21-3259825"
      } ],
      "active": true,
      "type": [ {
        "coding": [ {
          "system": "http://terminology.hl7.org/CodeSystem/organization-type",
          "code": "pay",
          "display": "Payer"
        } ]
      } ],
      "name": "Blue Cross Blue Shield of Texas",
      "telecom": [ {
        "system": "phone",
        "value": "(+1) 972-766-6900"
      } ],
      "address": [ {
        "use": "billing",
        "type": "postal",
        "line": [ "P.O. Box 660044" ],
        "city": "Dallas",
        "state": "TX",
        "postalCode": "75266-0044",
        "country": "USA"
      } ]
    },
    "request": {
      "method": "PUT",
      "url": "Organization/f5c2c2da-58dd-4ed7-bd93-a8cd18b94b71"
    }
  }, {
    "fullUrl": "https://madie.cms.gov/Practitioner/3918b950-65d5-4a0c-be2f-03e4043e7b00",
    "resource": {
      "resourceType": "Practitioner",
      "id": "3918b950-65d5-4a0c-be2f-03e4043e7b00",
      "meta": {
        "profile": [ "http://hl7.org/fhir/us/qicore/StructureDefinition/qicore-practitioner" ]
      },
      "identifier": [ {
        "system": "http://hl7.org/fhir/sid/us-npi",
        "value": "0723660813"
      } ],
      "name": [ {
        "family": "Evil",
        "prefix": [ "Dr" ]
      } ]
    },
    "request": {
      "method": "PUT",
      "url": "Practitioner/3918b950-65d5-4a0c-be2f-03e4043e7b00"
    }
  }, {
    "fullUrl": "https://madie.cms.gov/MeasureReport/caa1ce7b-2c56-4784-8818-ef678f2af762",
    "resource": {
      "resourceType": "MeasureReport",
      "id": "caa1ce7b-2c56-4784-8818-ef678f2af762",
      "meta": {
        "profile": [ "http://hl7.org/fhir/us/cqfmeasures/StructureDefinition/test-case-cqfm" ]
      },
      "contained": [ {
        "resourceType": "Parameters",
        "id": "6fc41c23-744d-4493-8b32-2a88ca217802-parameters",
        "parameter": [ {
          "name": "subject",
          "valueString": "5a2ea578-db19-487b-9ee2-27abaaa76383"
        } ]
      } ],
      "extension": [ {
        "url": "http://hl7.org/fhir/StructureDefinition/cqf-inputParameters",
        "valueReference": {
          "reference": "#6fc41c23-744d-4493-8b32-2a88ca217802-parameters"
        }
      }, {
        "url": "http://hl7.org/fhir/us/cqfmeasures/StructureDefinition/cqfm-testCaseDescription",
        "valueMarkdown": "Inpatient encounter with diabetic medication during MP with SDE medication request do not perform attribute"
      } ],
      "modifierExtension": [ {
        "url": "http://hl7.org/fhir/us/cqfmeasures/StructureDefinition/cqfm-isTestCase",
        "valueBoolean": true
      } ],
      "status": "complete",
      "type": "individual",
      "measure": "https://madie.cms.gov/Measure/NHSNGlycemicControlHypoglycemiaInitialPopulation",
      "period": {
        "start": "2026-01-01",
        "end": "2026-12-31"
      },
      "group": [ {
        "id": "Group_1",
        "population": [ {
          "id": "InitialPopulation_1",
          "code": {
            "coding": [ {
              "system": "http://terminology.hl7.org/CodeSystem/measure-population",
              "code": "initial-population",
              "display": "Initial Population"
            } ]
          },
          "count": 1
        } ],
        "measureScore": {
          "value": 0.0
        }
      } ],
      "evaluatedResource": [ {
        "reference": "Patient/5a2ea578-db19-487b-9ee2-27abaaa76383"
      }, {
        "reference": "Encounter/a0092492-0a46-4782-a2ff-38f544455342"
      }, {
        "reference": "Location/3ff4a8fc-a805-4f42-a1f2-edaa2ccc6931"
      }, {
        "reference": "MedicationRequest/2b7a48a5-aae1-4577-b996-9aff937c7d18"
      }, {
        "reference": "Medication/a708bd60-bd98-4129-ae9e-3fcc0b48eda5"
      }, {
        "reference": "Coverage/f822622d-6ebf-4df6-a4f5-4c0e8a74dcab"
      }, {
        "reference": "Organization/f5c2c2da-58dd-4ed7-bd93-a8cd18b94b71"
      }, {
        "reference": "Practitioner/3918b950-65d5-4a0c-be2f-03e4043e7b00"
      } ]
    },
    "request": {
      "method": "PUT",
      "url": "MeasureReport/caa1ce7b-2c56-4784-8818-ef678f2af762"
    }
  } ]
}