{
  "resourceType": "Bundle",
  "id": "612e6f6f02c62a011f2f1da2",
  "type": "transaction",
  "entry": [ {
    "fullUrl": "https://madie.cms.gov/Patient/002fcec4-89ed-42be-a7b7-41fa0acddf8c",
    "resource": {
      "resourceType": "Patient",
      "id": "002fcec4-89ed-42be-a7b7-41fa0acddf8c",
      "meta": {
        "profile": [ "http://hl7.org/fhir/us/qicore/StructureDefinition/qicore-patient" ]
      },
      "text": {
        "status": "generated",
        "div": "<div xmlns=\"http://www.w3.org/1999/xhtml\"><div class=\"hapiHeaderText\">TestMultipleOccur1inExcl1inNum <b>NUMERPASS </b></div><table class=\"hapiPropertyTable\"><tbody><tr><td>Identifier</td><td>1d32025f189fa435c8f5577d60ac33ec63a4414947e2aa89a0a7970a5a451ef3</td></tr><tr><td>Date of birth</td><td><span>03 March 1974</span></td></tr></tbody></table></div>"
      },
      "extension": [ {
        "url": "http://hl7.org/fhir/us/core/StructureDefinition/us-core-race",
        "extension": [ {
          "url": "ombCategory",
          "valueCoding": {
            "system": "urn:oid:2.16.840.1.113883.6.238",
            "code": "1002-5",
            "display": "American Indian or Alaska Native",
            "userSelected": true
          }
        }, {
          "url": "text",
          "valueString": "American Indian or Alaska Native"
        } ]
      }, {
        "url": "http://hl7.org/fhir/us/core/StructureDefinition/us-core-ethnicity",
        "extension": [ {
          "url": "ombCategory",
          "valueCoding": {
            "system": "urn:oid:2.16.840.1.113883.6.238",
            "code": "2135-2",
            "display": "Hispanic or Latino",
            "userSelected": true
          }
        }, {
          "url": "text",
          "valueString": "Hispanic or Latino"
        } ]
      } ],
      "identifier": [ {
        "type": {
          "coding": [ {
            "system": "http://terminology.hl7.org/CodeSystem/v2-0203",
            "code": "MR"
          } ]
        },
        "system": "https://bonnie-fhir.healthit.gov/",
        "value": "612e6f6f02c62a011f2f1da2"
      } ],
      "active": true,
      "name": [ {
        "use": "usual",
        "family": "NUMERPass",
        "given": [ "TestMultipleOccur1inExcl1inNum" ]
      } ],
      "gender": "female",
      "birthDate": "1975-03-03"
    },
    "request": {
      "method": "PUT",
      "url": "Patient/002fcec4-89ed-42be-a7b7-41fa0acddf8c"
    }
  }, {
    "fullUrl": "https://madie.cms.gov/Encounter/17fa6445-1ca7-41b0-a7d4-781202d886ea",
    "resource": {
      "resourceType": "Encounter",
      "id": "17fa6445-1ca7-41b0-a7d4-781202d886ea",
      "meta": {
        "profile": [ "http://hl7.org/fhir/us/qicore/StructureDefinition/qicore-encounter" ]
      },
      "status": "finished",
      "class": {
        "system": "http://terminology.hl7.org/CodeSystem/v3-ActCode",
        "code": "IMP",
        "display": "inpatient encounter"
      },
      "type": [ {
        "coding": [ {
          "system": "http://snomed.info/sct",
          "code": "183452005"
        } ]
      } ],
      "subject": {
        "reference": "Patient/002fcec4-89ed-42be-a7b7-41fa0acddf8c"
      },
      "period": {
        "start": "2026-03-22T08:00:00.000+00:00",
        "end": "2026-03-26T08:15:00.000+00:00"
      },
      "length": {
        "value": 4,
        "unit": "days"
      },
      "location": [ {
        "location": {
          "reference": "Location/64c32993-3c4f-4f16-a77a-1f1eb152ee00"
        },
        "period": {
          "start": "2026-03-23T09:00:00.000+00:00",
          "end": "2026-03-24T08:15:00.000+00:00"
        }
      } ]
    },
    "request": {
      "method": "PUT",
      "url": "Encounter/17fa6445-1ca7-41b0-a7d4-781202d886ea"
    }
  }, {
    "fullUrl": "https://madie.cms.gov/Encounter/3af6237d-cdc0-407c-b0ab-71b8084275ad",
    "resource": {
      "resourceType": "Encounter",
      "id": "3af6237d-cdc0-407c-b0ab-71b8084275ad",
      "meta": {
        "profile": [ "http://hl7.org/fhir/us/qicore/StructureDefinition/qicore-encounter" ]
      },
      "status": "finished",
      "class": {
        "system": "http://terminology.hl7.org/CodeSystem/v3-ActCode",
        "code": "EMER",
        "display": "emergency"
      },
      "type": [ {
        "coding": [ {
          "system": "http://snomed.info/sct",
          "code": "4525004"
        } ]
      } ],
      "subject": {
        "reference": "Patient/002fcec4-89ed-42be-a7b7-41fa0acddf8c"
      },
      "period": {
        "start": "2026-12-06T02:00:00.000+00:00",
        "end": "2026-12-06T08:15:00.000+00:00"
      },
      "length": {
        "value": 0,
        "unit": "days"
      }
    },
    "request": {
      "method": "PUT",
      "url": "Encounter/3af6237d-cdc0-407c-b0ab-71b8084275ad"
    }
  }, {
    "fullUrl": "https://madie.cms.gov/Encounter/85885088-ab0e-4411-89ee-483bc698902c",
    "resource": {
      "resourceType": "Encounter",
      "id": "85885088-ab0e-4411-89ee-483bc698902c",
      "meta": {
        "profile": [ "http://hl7.org/fhir/us/qicore/StructureDefinition/qicore-encounter" ]
      },
      "status": "finished",
      "class": {
        "system": "http://terminology.hl7.org/CodeSystem/v3-ActCode",
        "code": "IMP",
        "display": "inpatient encounter"
      },
      "type": [ {
        "coding": [ {
          "system": "http://snomed.info/sct",
          "code": "8715000"
        } ]
      } ],
      "subject": {
        "reference": "Patient/002fcec4-89ed-42be-a7b7-41fa0acddf8c"
      },
      "period": {
        "start": "2026-12-06T08:45:00.000+00:00",
        "end": "2026-12-30T08:15:00.000+00:00"
      },
      "length": {
        "value": 24,
        "unit": "days"
      },
      "location": [ {
        "location": {
          "reference": "Location/2aa4b60e-3a9d-481c-b345-d2bdb1e62fe5"
        },
        "period": {
          "start": "2026-12-06T09:00:00.000+00:00",
          "end": "2026-12-12T08:15:00.000+00:00"
        }
      } ]
    },
    "request": {
      "method": "PUT",
      "url": "Encounter/85885088-ab0e-4411-89ee-483bc698902c"
    }
  }, {
    "fullUrl": "https://madie.cms.gov/ServiceRequest/8bbfa984-5d54-4413-925b-cb6459113296",
    "resource": {
      "resourceType": "ServiceRequest",
      "id": "8bbfa984-5d54-4413-925b-cb6459113296",
      "meta": {
        "profile": [ "http://hl7.org/fhir/us/qicore/StructureDefinition/qicore-servicerequest" ]
      },
      "status": "active",
      "intent": "order",
      "code": {
        "coding": [ {
          "system": "http://snomed.info/sct",
          "code": "133918004"
        } ]
      },
      "subject": {
        "reference": "Patient/002fcec4-89ed-42be-a7b7-41fa0acddf8c"
      },
      "authoredOn": "2026-03-22T08:00:00.000+00:00"
    },
    "request": {
      "method": "PUT",
      "url": "ServiceRequest/8bbfa984-5d54-4413-925b-cb6459113296"
    }
  }, {
    "fullUrl": "https://madie.cms.gov/Coverage/90e64b09-9bd5-4eab-b497-7e3a19721162",
    "resource": {
      "resourceType": "Coverage",
      "id": "90e64b09-9bd5-4eab-b497-7e3a19721162",
      "status": "active",
      "beneficiary": {
        "reference": "Patient/002fcec4-89ed-42be-a7b7-41fa0acddf8c"
      },
      "period": {
        "start": "1975-03-03T08:00:00.000+00:00"
      },
      "payor": [ {
        "reference": "Organization/9caa8caf-dee9-4b90-b4e6-208b66371cc5"
      } ]
    },
    "request": {
      "method": "PUT",
      "url": "Coverage/90e64b09-9bd5-4eab-b497-7e3a19721162"
    }
  }, {
    "fullUrl": "https://madie.cms.gov/MedicationAdministration/3e92684d-3b09-432e-959a-a39896ee207b",
    "resource": {
      "resourceType": "MedicationAdministration",
      "id": "3e92684d-3b09-432e-959a-a39896ee207b",
      "meta": {
        "profile": [ "http://hl7.org/fhir/us/qicore/StructureDefinition/qicore-medicationadministration" ]
      },
      "status": "completed",
      "medicationCodeableConcept": {
        "coding": [ {
          "system": "http://www.nlm.nih.gov/research/umls/rxnorm",
          "code": "308351"
        } ]
      },
      "subject": {
        "reference": "Patient/002fcec4-89ed-42be-a7b7-41fa0acddf8c"
      },
      "effectivePeriod": {
        "start": "2026-12-06T06:30:00.000+00:00"
      }
    },
    "request": {
      "method": "PUT",
      "url": "MedicationAdministration/3e92684d-3b09-432e-959a-a39896ee207b"
    }
  }, {
    "fullUrl": "https://madie.cms.gov/Location/64c32993-3c4f-4f16-a77a-1f1eb152ee00",
    "resource": {
      "resourceType": "Location",
      "id": "64c32993-3c4f-4f16-a77a-1f1eb152ee00",
      "meta": {
        "profile": [ "http://hl7.org/fhir/us/qicore/StructureDefinition/qicore-location" ]
      },
      "identifier": [ {
        "use": "usual",
        "system": "http://exampleoflocation.com",
        "value": "B1-S.F2"
      } ],
      "name": "Medical Surgical East, first floor",
      "type": [ {
        "coding": [ {
          "system": "https://www.cdc.gov/nhsn/cdaportal/terminology/codesystem/hsloc.html",
          "code": "1025-6",
          "display": "Trauma Critical Care",
          "userSelected": true
        } ]
      } ]
    },
    "request": {
      "method": "PUT",
      "url": "Location/64c32993-3c4f-4f16-a77a-1f1eb152ee00"
    }
  }, {
    "fullUrl": "https://madie.cms.gov/Location/2aa4b60e-3a9d-481c-b345-d2bdb1e62fe5",
    "resource": {
      "resourceType": "Location",
      "id": "2aa4b60e-3a9d-481c-b345-d2bdb1e62fe5",
      "meta": {
        "profile": [ "http://hl7.org/fhir/us/qicore/StructureDefinition/qicore-location" ]
      },
      "identifier": [ {
        "use": "usual",
        "system": "http://exampleoflocation.com",
        "value": "B1-S.F2"
      } ],
      "name": "Medical Surgical East, first floor",
      "type": [ {
        "coding": [ {
          "system": "https://www.cdc.gov/nhsn/cdaportal/terminology/codesystem/hsloc.html",
          "code": "1025-6",
          "display": "Trauma Critical Care",
          "userSelected": true
        } ]
      } ]
    },
    "request": {
      "method": "PUT",
      "url": "Location/2aa4b60e-3a9d-481c-b345-d2bdb1e62fe5"
    }
  }, {
    "fullUrl": "https://madie.cms.gov/Organization/9caa8caf-dee9-4b90-b4e6-208b66371cc5",
    "resource": {
      "resourceType": "Organization",
      "id": "9caa8caf-dee9-4b90-b4e6-208b66371cc5",
      "meta": {
        "profile": [ "http://hl7.org/fhir/us/qicore/StructureDefinition/qicore-organization" ]
      },
      "identifier": [ {
        "use": "temp",
        "system": "urn:oid:2.16.840.1.113883.4.4",
        "value": "21-3259825"
      } ],
      "active": true,
      "type": [ {
        "coding": [ {
          "system": "http://terminology.hl7.org/CodeSystem/organization-type",
          "code": "pay",
          "display": "Payer"
        } ]
      } ],
      "name": "Blue Cross Blue Shield of Texas",
      "telecom": [ {
        "system": "phone",
        "value": "(+1) 972-766-6900"
      } ],
      "address": [ {
        "use": "billing",
        "type": "postal",
        "line": [ "P.O. Box 660044" ],
        "city": "Dallas",
        "state": "TX",
        "postalCode": "75266-0044",
        "country": "USA"
      } ]
    },
    "request": {
      "method": "PUT",
      "url": "Organization/9caa8caf-dee9-4b90-b4e6-208b66371cc5"
    }
  }, {
    "fullUrl": "https://madie.cms.gov/Practitioner/f5a51022-f85f-486c-87ab-69d08629b628",
    "resource": {
      "resourceType": "Practitioner",
      "id": "f5a51022-f85f-486c-87ab-69d08629b628",
      "identifier": [ {
        "system": "http://hl7.org/fhir/sid/us-npi",
        "value": "123456"
      } ],
      "name": [ {
        "family": "Evil",
        "prefix": [ "Dr" ]
      } ]
    },
    "request": {
      "method": "PUT",
      "url": "Practitioner/f5a51022-f85f-486c-87ab-69d08629b628"
    }
  }, {
    "fullUrl": "https://madie.cms.gov/MeasureReport/ffaa450a-d875-40f6-a60e-bc2c325cabff",
    "resource": {
      "resourceType": "MeasureReport",
      "id": "ffaa450a-d875-40f6-a60e-bc2c325cabff",
      "meta": {
        "profile": [ "http://hl7.org/fhir/us/cqfmeasures/StructureDefinition/test-case-cqfm" ]
      },
      "contained": [ {
        "resourceType": "Parameters",
        "id": "5720c8c7-2060-4bd7-9b47-de55ccae02ae-parameters",
        "parameter": [ {
          "name": "subject",
          "valueString": "002fcec4-89ed-42be-a7b7-41fa0acddf8c"
        } ]
      } ],
      "extension": [ {
        "url": "http://hl7.org/fhir/StructureDefinition/cqf-inputParameters",
        "valueReference": {
          "reference": "#5720c8c7-2060-4bd7-9b47-de55ccae02ae-parameters"
        }
      }, {
        "url": "http://hl7.org/fhir/us/cqfmeasures/StructureDefinition/cqfm-testCaseDescription",
        "valueMarkdown": " Patient has 2 encounters, one in DENEX due to CMO and another pass Numerator \n"
      } ],
      "modifierExtension": [ {
        "url": "http://hl7.org/fhir/us/cqfmeasures/StructureDefinition/cqfm-isTestCase",
        "valueBoolean": true
      } ],
      "status": "complete",
      "type": "individual",
      "measure": "https://madie.cms.gov/Measure/CMS190FHIRVTEProphylaxisICU",
      "period": {
        "start": "2026-01-01",
        "end": "2026-12-31"
      },
      "group": [ {
        "id": "Group_1",
        "population": [ {
          "id": "InitialPopulation_1",
          "code": {
            "coding": [ {
              "system": "http://terminology.hl7.org/CodeSystem/measure-population",
              "code": "initial-population",
              "display": "Initial Population"
            } ]
          },
          "count": 2
        }, {
          "id": "Denominator_1",
          "code": {
            "coding": [ {
              "system": "http://terminology.hl7.org/CodeSystem/measure-population",
              "code": "denominator",
              "display": "Denominator"
            } ]
          },
          "count": 2
        }, {
          "id": "DenominatorExclusion_1",
          "code": {
            "coding": [ {
              "system": "http://terminology.hl7.org/CodeSystem/measure-population",
              "code": "denominator-exclusion",
              "display": "Denominator Exclusion"
            } ]
          },
          "count": 1
        }, {
          "id": "Numerator_1",
          "code": {
            "coding": [ {
              "system": "http://terminology.hl7.org/CodeSystem/measure-population",
              "code": "numerator",
              "display": "Numerator"
            } ]
          },
          "count": 1
        }, {
          "id": "DenominatorException_1",
          "code": {
            "coding": [ {
              "system": "http://terminology.hl7.org/CodeSystem/measure-population",
              "code": "denominator-exception",
              "display": "Denominator Exception"
            } ]
          },
          "count": 0
        } ],
        "measureScore": {
          "value": 0.0
        }
      } ],
      "evaluatedResource": [ {
        "reference": "Patient/002fcec4-89ed-42be-a7b7-41fa0acddf8c"
      }, {
        "reference": "Encounter/17fa6445-1ca7-41b0-a7d4-781202d886ea"
      }, {
        "reference": "Encounter/3af6237d-cdc0-407c-b0ab-71b8084275ad"
      }, {
        "reference": "Encounter/85885088-ab0e-4411-89ee-483bc698902c"
      }, {
        "reference": "ServiceRequest/8bbfa984-5d54-4413-925b-cb6459113296"
      }, {
        "reference": "Coverage/90e64b09-9bd5-4eab-b497-7e3a19721162"
      }, {
        "reference": "MedicationAdministration/3e92684d-3b09-432e-959a-a39896ee207b"
      }, {
        "reference": "Location/64c32993-3c4f-4f16-a77a-1f1eb152ee00"
      }, {
        "reference": "Location/2aa4b60e-3a9d-481c-b345-d2bdb1e62fe5"
      }, {
        "reference": "Organization/9caa8caf-dee9-4b90-b4e6-208b66371cc5"
      }, {
        "reference": "Practitioner/f5a51022-f85f-486c-87ab-69d08629b628"
      } ]
    },
    "request": {
      "method": "PUT",
      "url": "MeasureReport/ffaa450a-d875-40f6-a60e-bc2c325cabff"
    }
  } ]
}