{
  "resourceType": "Bundle",
  "id": "60f82c3098086b570510e2e3",
  "type": "transaction",
  "entry": [ {
    "fullUrl": "https://madie.cms.gov/Patient/0ccb9c3c-d834-4769-a68a-6b01ce1e868e",
    "resource": {
      "resourceType": "Patient",
      "id": "0ccb9c3c-d834-4769-a68a-6b01ce1e868e",
      "meta": {
        "profile": [ "http://hl7.org/fhir/us/qicore/StructureDefinition/qicore-patient" ]
      },
      "text": {
        "status": "generated",
        "div": "<div xmlns=\"http://www.w3.org/1999/xhtml\"><div class=\"hapiHeaderText\">CMP_DayOf_RelvDat_1minAftIPEnd_EDEndLT1hrB4Obs_ObsEndLT1hrB4IP <b>DENEXPASS </b></div><table class=\"hapiPropertyTable\"><tbody><tr><td>Date of birth</td><td><span>01 January 1980</span></td></tr></tbody></table></div>"
      },
      "extension": [ {
        "url": "http://hl7.org/fhir/us/core/StructureDefinition/us-core-race",
        "extension": [ {
          "url": "ombCategory",
          "valueCoding": {
            "system": "urn:oid:2.16.840.1.113883.6.238",
            "code": "2106-3",
            "display": "White",
            "userSelected": true
          }
        }, {
          "url": "text",
          "valueString": "White"
        } ]
      }, {
        "url": "http://hl7.org/fhir/us/core/StructureDefinition/us-core-ethnicity",
        "extension": [ {
          "url": "ombCategory",
          "valueCoding": {
            "system": "urn:oid:2.16.840.1.113883.6.238",
            "code": "2186-5",
            "display": "Not Hispanic or Latino",
            "userSelected": true
          }
        }, {
          "url": "text",
          "valueString": "Not Hispanic or Latino"
        } ]
      } ],
      "identifier": [ {
        "type": {
          "coding": [ {
            "system": "http://terminology.hl7.org/CodeSystem/v2-0203",
            "code": "MR"
          } ]
        },
        "system": "https://bonnie-fhir.healthit.gov/",
        "value": "60f82c3098086b570510e2e3"
      } ],
      "active": true,
      "name": [ {
        "use": "usual",
        "family": "DENEXPass",
        "given": [ "CMP_DayOf_RelvDat_1minAftIPEnd_EDEndLT1hrB4Obs_ObsEndLT1hrB4IP" ]
      } ],
      "gender": "female",
      "birthDate": "1981-01-01"
    },
    "request": {
      "method": "PUT",
      "url": "Patient/0ccb9c3c-d834-4769-a68a-6b01ce1e868e"
    }
  }, {
    "fullUrl": "https://madie.cms.gov/Encounter/1b76fb77-ccaa-4a48-8533-12e988d831e0",
    "resource": {
      "resourceType": "Encounter",
      "id": "1b76fb77-ccaa-4a48-8533-12e988d831e0",
      "meta": {
        "profile": [ "http://hl7.org/fhir/us/qicore/StructureDefinition/qicore-encounter" ]
      },
      "status": "finished",
      "class": {
        "system": "http://terminology.hl7.org/CodeSystem/v3-ActCode",
        "code": "EMER",
        "display": "emergency",
        "userSelected": true
      },
      "type": [ {
        "coding": [ {
          "system": "http://snomed.info/sct",
          "code": "4525004"
        } ]
      } ],
      "subject": {
        "reference": "Patient/0ccb9c3c-d834-4769-a68a-6b01ce1e868e"
      },
      "period": {
        "start": "2026-11-18T07:00:00.000+00:00",
        "end": "2026-11-18T08:01:00.000+00:00"
      },
      "diagnosis": [ {
        "condition": {
          "reference": "Condition/ef20d5df-4040-42e1-97fe-1a7e4c9c20a5"
        },
        "use": {
          "coding": [ {
            "system": "http://terminology.hl7.org/CodeSystem/diagnosis-role",
            "code": "billing",
            "display": "Billing"
          } ]
        },
        "rank": 1
      } ]
    },
    "request": {
      "method": "PUT",
      "url": "Encounter/1b76fb77-ccaa-4a48-8533-12e988d831e0"
    }
  }, {
    "fullUrl": "https://madie.cms.gov/Encounter/ec86151b-7418-4138-843c-cbd1039a119b",
    "resource": {
      "resourceType": "Encounter",
      "id": "ec86151b-7418-4138-843c-cbd1039a119b",
      "meta": {
        "profile": [ "http://hl7.org/fhir/us/qicore/StructureDefinition/qicore-encounter" ]
      },
      "status": "finished",
      "class": {
        "system": "http://terminology.hl7.org/CodeSystem/v3-ActCode",
        "code": "OBSENC",
        "display": "observation encounter",
        "userSelected": true
      },
      "type": [ {
        "coding": [ {
          "system": "http://snomed.info/sct",
          "code": "448951000124107"
        } ]
      } ],
      "subject": {
        "reference": "Patient/0ccb9c3c-d834-4769-a68a-6b01ce1e868e"
      },
      "period": {
        "start": "2026-11-18T09:00:00.000+00:00",
        "end": "2026-11-18T10:01:00.000+00:00"
      }
    },
    "request": {
      "method": "PUT",
      "url": "Encounter/ec86151b-7418-4138-843c-cbd1039a119b"
    }
  }, {
    "fullUrl": "https://madie.cms.gov/Encounter/11238d9b-6e31-437c-85e5-9939bf32ed9d",
    "resource": {
      "resourceType": "Encounter",
      "id": "11238d9b-6e31-437c-85e5-9939bf32ed9d",
      "meta": {
        "profile": [ "http://hl7.org/fhir/us/qicore/StructureDefinition/qicore-encounter" ]
      },
      "status": "finished",
      "class": {
        "system": "http://terminology.hl7.org/CodeSystem/v3-ActCode",
        "code": "IMP",
        "display": "inpatient encounter",
        "userSelected": true
      },
      "type": [ {
        "coding": [ {
          "system": "http://snomed.info/sct",
          "code": "183452005"
        } ]
      } ],
      "subject": {
        "reference": "Patient/0ccb9c3c-d834-4769-a68a-6b01ce1e868e"
      },
      "period": {
        "start": "2026-11-18T11:00:00.000+00:00",
        "end": "2026-11-18T20:15:00.000+00:00"
      },
      "reasonReference": [ {
        "reference": "Condition/ef20d5df-4040-42e1-97fe-1a7e4c9c20a5"
      } ]
    },
    "request": {
      "method": "PUT",
      "url": "Encounter/11238d9b-6e31-437c-85e5-9939bf32ed9d"
    }
  }, {
    "fullUrl": "https://madie.cms.gov/claim/5ca62962b8484628b8de1ec5",
    "resource": {
      "resourceType": "Claim",
      "id": "5ca62962b8484628b8de1ec5",
      "meta": {
        "profile": [ "http://hl7.org/fhir/us/qicore/StructureDefinition/qicore-claim" ]
      },
      "status": "active",
      "type": {
        "coding": [ {
          "system": "http://terminology.hl7.org/CodeSystem/claim-type",
          "code": "institutional"
        } ]
      },
      "use": "claim",
      "patient": {
        "reference": "Patient/0ccb9c3c-d834-4769-a68a-6b01ce1e868e"
      },
      "created": "2026-12-01",
      "provider": {
        "reference": "Practitioner/practitioner-123456"
      },
      "priority": {
        "coding": [ {
          "system": "http://terminology.hl7.org/CodeSystem/processpriority",
          "code": "normal"
        } ]
      },
      "diagnosis": [ {
        "sequence": 1,
        "diagnosisCodeableConcept": {
          "coding": [ {
            "system": "http://hl7.org/fhir/sid/icd-10-cm",
            "code": "I63.00"
          } ]
        },
        "type": [ {
          "coding": [ {
            "system": "http://terminology.hl7.org/CodeSystem/ex-diagnosistype",
            "code": "principal"
          } ]
        } ]
      } ],
      "insurance": [ {
        "sequence": 1,
        "focal": true,
        "coverage": {
          "reference": "Coverage/1cf6bfd6-b83d-42f4-8c3a-3e632fb4dcca"
        }
      } ],
      "item": [ {
        "sequence": 1,
        "diagnosisSequence": [ 1 ],
        "productOrService": {
          "coding": [ {
            "system": "http://terminology.hl7.org/CodeSystem/ex-USCLS",
            "code": "99555"
          } ]
        },
        "encounter": [ {
          "reference": "Encounter/11238d9b-6e31-437c-85e5-9939bf32ed9d"
        } ]
      } ]
    },
    "request": {
      "method": "PUT",
      "url": "Claim/5ca62962b8484628b8de1ec5"
    }
  }, {
    "fullUrl": "https://madie.cms.gov/Procedure/643735e3-b4a5-4742-893f-309bc0797e2b",
    "resource": {
      "resourceType": "Procedure",
      "id": "643735e3-b4a5-4742-893f-309bc0797e2b",
      "meta": {
        "profile": [ "http://hl7.org/fhir/us/qicore/StructureDefinition/qicore-procedure" ]
      },
      "extension": [ {
        "url": "http://hl7.org/fhir/us/qicore/StructureDefinition/qicore-recorded",
        "valueDateTime": "2026-11-18T11:00:00.000+00:00"
      } ],
      "status": "completed",
      "code": {
        "coding": [ {
          "system": "http://snomed.info/sct",
          "code": "133918004"
        } ]
      },
      "subject": {
        "reference": "Patient/0ccb9c3c-d834-4769-a68a-6b01ce1e868e"
      },
      "performedPeriod": {
        "start": "2026-11-18T11:00:00.000+00:00",
        "end": "2026-11-18T20:15:00.000+00:00"
      }
    },
    "request": {
      "method": "PUT",
      "url": "Procedure/643735e3-b4a5-4742-893f-309bc0797e2b"
    }
  }, {
    "fullUrl": "https://madie.cms.gov/Condition/ef20d5df-4040-42e1-97fe-1a7e4c9c20a5",
    "resource": {
      "resourceType": "Condition",
      "id": "ef20d5df-4040-42e1-97fe-1a7e4c9c20a5",
      "meta": {
        "profile": [ "http://hl7.org/fhir/us/qicore/StructureDefinition/qicore-condition-encounter-diagnosis" ]
      },
      "clinicalStatus": {
        "coding": [ {
          "system": "http://terminology.hl7.org/CodeSystem/condition-clinical",
          "code": "active"
        } ]
      },
      "verificationStatus": {
        "coding": [ {
          "system": "http://terminology.hl7.org/CodeSystem/condition-ver-status",
          "code": "confirmed"
        } ]
      },
      "category": [ {
        "coding": [ {
          "system": "http://terminology.hl7.org/CodeSystem/condition-category",
          "code": "encounter-diagnosis",
          "display": "Encounter Diagnosis"
        } ]
      } ],
      "code": {
        "coding": [ {
          "system": "http://snomed.info/sct",
          "version": "2020-09",
          "code": "111297002",
          "display": "Nonparalytic stroke (disorder)",
          "userSelected": true
        } ]
      },
      "subject": {
        "reference": "Patient/0ccb9c3c-d834-4769-a68a-6b01ce1e868e"
      },
      "recordedDate": "2026-08-13T08:00:00.000+00:00"
    },
    "request": {
      "method": "PUT",
      "url": "Condition/ef20d5df-4040-42e1-97fe-1a7e4c9c20a5"
    }
  }, {
    "fullUrl": "https://madie.cms.gov/Coverage/1cf6bfd6-b83d-42f4-8c3a-3e632fb4dcca",
    "resource": {
      "resourceType": "Coverage",
      "id": "1cf6bfd6-b83d-42f4-8c3a-3e632fb4dcca",
      "meta": {
        "profile": [ "http://hl7.org/fhir/us/qicore/StructureDefinition/qicore-coverage" ]
      },
      "status": "active",
      "beneficiary": {
        "reference": "Patient/0ccb9c3c-d834-4769-a68a-6b01ce1e868e"
      },
      "payor": [ {
        "reference": "Organization/49be4289-2f22-4059-9905-5a671d502141"
      } ]
    },
    "request": {
      "method": "PUT",
      "url": "Coverage/1cf6bfd6-b83d-42f4-8c3a-3e632fb4dcca"
    }
  }, {
    "fullUrl": "https://madie.cms.gov/Organization/49be4289-2f22-4059-9905-5a671d502141",
    "resource": {
      "resourceType": "Organization",
      "id": "49be4289-2f22-4059-9905-5a671d502141",
      "meta": {
        "profile": [ "http://hl7.org/fhir/us/qicore/StructureDefinition/qicore-organization" ]
      },
      "identifier": [ {
        "use": "temp",
        "system": "urn:oid:2.16.840.1.113883.4.4",
        "value": "21-3259825"
      } ],
      "active": true,
      "type": [ {
        "coding": [ {
          "system": "http://terminology.hl7.org/CodeSystem/organization-type",
          "code": "pay",
          "display": "Payer"
        } ]
      } ],
      "name": "Blue Cross Blue Shield of Texas",
      "telecom": [ {
        "system": "phone",
        "value": "(+1) 972-766-6900"
      } ],
      "address": [ {
        "use": "billing",
        "type": "postal",
        "line": [ "P.O. Box 660044" ],
        "city": "Dallas",
        "state": "TX",
        "postalCode": "75266-0044",
        "country": "USA"
      } ]
    },
    "request": {
      "method": "PUT",
      "url": "Organization/49be4289-2f22-4059-9905-5a671d502141"
    }
  }, {
    "fullUrl": "https://madie.cms.gov/MeasureReport/00adaa40-b948-4978-b8ff-40cd92983069",
    "resource": {
      "resourceType": "MeasureReport",
      "id": "00adaa40-b948-4978-b8ff-40cd92983069",
      "meta": {
        "profile": [ "http://hl7.org/fhir/us/cqfmeasures/StructureDefinition/test-case-cqfm" ]
      },
      "contained": [ {
        "resourceType": "Parameters",
        "id": "c7e32c68-59ac-4437-8d6f-4c11e99662e4-parameters",
        "parameter": [ {
          "name": "subject",
          "valueString": "0ccb9c3c-d834-4769-a68a-6b01ce1e868e"
        } ]
      } ],
      "extension": [ {
        "url": "http://hl7.org/fhir/StructureDefinition/cqf-inputParameters",
        "valueReference": {
          "reference": "#c7e32c68-59ac-4437-8d6f-4c11e99662e4-parameters"
        }
      }, {
        "url": "http://hl7.org/fhir/us/cqfmeasures/StructureDefinition/cqfm-testCaseDescription",
        "valueMarkdown": "Patient receives comfort measures performed on the day of hospital arrival, 1 minute after IP end. ED ends less than 1 hour before Obs Start, Obs ends less than 1 hour before IP start.\n"
      } ],
      "modifierExtension": [ {
        "url": "http://hl7.org/fhir/us/cqfmeasures/StructureDefinition/cqfm-isTestCase",
        "valueBoolean": true
      } ],
      "status": "complete",
      "type": "individual",
      "measure": "https://madie.cms.gov/Measure/CMS72FHIRSTKAntithromboticDay2",
      "period": {
        "start": "2026-01-01",
        "end": "2026-12-31"
      },
      "group": [ {
        "id": "Group_1",
        "population": [ {
          "id": "InitialPopulation_1",
          "code": {
            "coding": [ {
              "system": "http://terminology.hl7.org/CodeSystem/measure-population",
              "code": "initial-population",
              "display": "Initial Population"
            } ]
          },
          "count": 1
        }, {
          "id": "Denominator_1",
          "code": {
            "coding": [ {
              "system": "http://terminology.hl7.org/CodeSystem/measure-population",
              "code": "denominator",
              "display": "Denominator"
            } ]
          },
          "count": 1
        }, {
          "id": "DenominatorExclusion_1",
          "code": {
            "coding": [ {
              "system": "http://terminology.hl7.org/CodeSystem/measure-population",
              "code": "denominator-exclusion",
              "display": "Denominator Exclusion"
            } ]
          },
          "count": 1
        }, {
          "id": "Numerator_1",
          "code": {
            "coding": [ {
              "system": "http://terminology.hl7.org/CodeSystem/measure-population",
              "code": "numerator",
              "display": "Numerator"
            } ]
          },
          "count": 0
        }, {
          "id": "DenominatorException_1",
          "code": {
            "coding": [ {
              "system": "http://terminology.hl7.org/CodeSystem/measure-population",
              "code": "denominator-exception",
              "display": "Denominator Exception"
            } ]
          },
          "count": 0
        } ],
        "measureScore": {
          "value": 0.0
        }
      } ],
      "evaluatedResource": [ {
        "reference": "Patient/0ccb9c3c-d834-4769-a68a-6b01ce1e868e"
      }, {
        "reference": "Encounter/1b76fb77-ccaa-4a48-8533-12e988d831e0"
      }, {
        "reference": "Encounter/ec86151b-7418-4138-843c-cbd1039a119b"
      }, {
        "reference": "Encounter/11238d9b-6e31-437c-85e5-9939bf32ed9d"
      }, {
        "reference": "Claim/5ca62962b8484628b8de1ec5"
      }, {
        "reference": "Procedure/643735e3-b4a5-4742-893f-309bc0797e2b"
      }, {
        "reference": "Condition/ef20d5df-4040-42e1-97fe-1a7e4c9c20a5"
      }, {
        "reference": "Coverage/1cf6bfd6-b83d-42f4-8c3a-3e632fb4dcca"
      }, {
        "reference": "Organization/49be4289-2f22-4059-9905-5a671d502141"
      } ]
    },
    "request": {
      "method": "PUT",
      "url": "MeasureReport/00adaa40-b948-4978-b8ff-40cd92983069"
    }
  } ]
}