{
  "resourceType": "Bundle",
  "id": "633b3f9f0968f80122503cdb",
  "type": "transaction",
  "entry": [ {
    "fullUrl": "https://madie.cms.gov/Patient/c93bb9b9-164a-4c9e-997b-f26c6fb26408",
    "resource": {
      "resourceType": "Patient",
      "id": "c93bb9b9-164a-4c9e-997b-f26c6fb26408",
      "meta": {
        "profile": [ "http://hl7.org/fhir/us/qicore/StructureDefinition/qicore-patient" ]
      },
      "text": {
        "status": "generated",
        "div": "<div xmlns=\"http://www.w3.org/1999/xhtml\"><div class=\"hapiHeaderText\">BldTxInED12HrAftOnSameDayAsDelAndDelEncEnd<b>NUMERFail</b></div><table class=\"hapiPropertyTable\"><tbody><tr><td>Date of birth</td><td><span>01 February 2004</span></td></tr></tbody></table></div>"
      },
      "extension": [ {
        "url": "http://hl7.org/fhir/us/core/StructureDefinition/us-core-race",
        "extension": [ {
          "url": "ombCategory",
          "valueCoding": {
            "system": "urn:oid:2.16.840.1.113883.6.238",
            "code": "1002-5",
            "display": "American Indian or Alaska Native",
            "userSelected": true
          }
        }, {
          "url": "text",
          "valueString": "American Indian or Alaska Native"
        } ]
      }, {
        "url": "http://hl7.org/fhir/us/core/StructureDefinition/us-core-ethnicity",
        "extension": [ {
          "url": "ombCategory",
          "valueCoding": {
            "system": "urn:oid:2.16.840.1.113883.6.238",
            "code": "2135-2",
            "display": "Hispanic or Latino",
            "userSelected": true
          }
        }, {
          "url": "text",
          "valueString": "Hispanic or Latino"
        } ]
      } ],
      "identifier": [ {
        "type": {
          "coding": [ {
            "system": "http://terminology.hl7.org/CodeSystem/v2-0203",
            "code": "MR"
          } ]
        },
        "system": "https://bonnie-fhir.healthit.gov/",
        "value": "633b3f9f0968f80122503cdb"
      } ],
      "active": true,
      "name": [ {
        "use": "usual",
        "family": "NUMERFail",
        "given": [ "BldTxInED12HrAftOnSameDayAsDelAndDelEncEnd" ]
      } ],
      "gender": "female",
      "birthDate": "2005-02-01"
    },
    "request": {
      "method": "PUT",
      "url": "Patient/c93bb9b9-164a-4c9e-997b-f26c6fb26408"
    }
  }, {
    "fullUrl": "https://madie.cms.gov/Observation/0c7f8a70-cc19-45dd-bb75-03e94bfe4721",
    "resource": {
      "resourceType": "Observation",
      "id": "0c7f8a70-cc19-45dd-bb75-03e94bfe4721",
      "meta": {
        "profile": [ "http://hl7.org/fhir/us/qicore/StructureDefinition/qicore-simple-observation" ]
      },
      "status": "final",
      "category": [ {
        "coding": [ {
          "system": "http://terminology.hl7.org/CodeSystem/observation-category",
          "code": "exam",
          "display": "exam",
          "userSelected": true
        } ]
      } ],
      "code": {
        "coding": [ {
          "system": "http://loinc.org",
          "code": "93857-1"
        } ]
      },
      "subject": {
        "reference": "Patient/c93bb9b9-164a-4c9e-997b-f26c6fb26408"
      },
      "effectiveDateTime": "2026-02-05T08:00:00.000+00:00",
      "performer": [ {
        "reference": "Organization/example1",
        "display": "Hendricks Country Hospital"
      } ],
      "valueDateTime": "2026-02-05T08:00:00.000+00:00"
    },
    "request": {
      "method": "PUT",
      "url": "Observation/0c7f8a70-cc19-45dd-bb75-03e94bfe4721"
    }
  }, {
    "fullUrl": "https://madie.cms.gov/Observation/9ab6fe17-ea65-40fb-a71f-5a5b7412acd8",
    "resource": {
      "resourceType": "Observation",
      "id": "9ab6fe17-ea65-40fb-a71f-5a5b7412acd8",
      "meta": {
        "profile": [ "http://hl7.org/fhir/us/qicore/StructureDefinition/qicore-simple-observation" ]
      },
      "status": "final",
      "category": [ {
        "coding": [ {
          "system": "http://terminology.hl7.org/CodeSystem/observation-category",
          "code": "exam",
          "display": "exam",
          "userSelected": true
        } ]
      } ],
      "code": {
        "coding": [ {
          "system": "http://loinc.org",
          "code": "11884-4"
        } ]
      },
      "subject": {
        "reference": "Patient/c93bb9b9-164a-4c9e-997b-f26c6fb26408"
      },
      "effectiveDateTime": "2026-02-05T08:00:00.000+00:00",
      "performer": [ {
        "reference": "Organization/example1",
        "display": "Hendricks Country Hospital"
      } ],
      "valueQuantity": {
        "value": 21,
        "system": "http://unitsofmeasure.org",
        "code": "wk"
      }
    },
    "request": {
      "method": "PUT",
      "url": "Observation/9ab6fe17-ea65-40fb-a71f-5a5b7412acd8"
    }
  }, {
    "fullUrl": "https://madie.cms.gov/Condition/512181b4-471b-4b66-8947-6435d8f1a331",
    "resource": {
      "resourceType": "Condition",
      "id": "512181b4-471b-4b66-8947-6435d8f1a331",
      "meta": {
        "profile": [ "http://hl7.org/fhir/us/qicore/StructureDefinition/qicore-condition-encounter-diagnosis" ]
      },
      "category": [ {
        "coding": [ {
          "system": "http://terminology.hl7.org/CodeSystem/condition-category",
          "code": "encounter-diagnosis",
          "display": "Encounter Diagnosis"
        } ]
      } ],
      "code": {
        "coding": [ {
          "system": "http://hl7.org/fhir/sid/icd-10-cm",
          "version": "2023",
          "code": "Z3A.21",
          "display": "21 weeks gestation",
          "userSelected": true
        } ]
      },
      "subject": {
        "reference": "Patient/c93bb9b9-164a-4c9e-997b-f26c6fb26408"
      },
      "recordedDate": "2026-10-26T08:00:00.000+00:00"
    },
    "request": {
      "method": "PUT",
      "url": "Condition/512181b4-471b-4b66-8947-6435d8f1a331"
    }
  }, {
    "fullUrl": "https://madie.cms.gov/Encounter/5afa29ff-9251-401e-a28f-32cc13af974a",
    "resource": {
      "resourceType": "Encounter",
      "id": "5afa29ff-9251-401e-a28f-32cc13af974a",
      "meta": {
        "profile": [ "http://hl7.org/fhir/us/qicore/StructureDefinition/qicore-encounter" ]
      },
      "status": "finished",
      "class": {
        "system": "http://terminology.hl7.org/CodeSystem/v3-ActCode",
        "code": "IMP",
        "display": "inpatient encounter"
      },
      "type": [ {
        "coding": [ {
          "system": "http://snomed.info/sct",
          "code": "183452005"
        } ]
      } ],
      "subject": {
        "reference": "Patient/c93bb9b9-164a-4c9e-997b-f26c6fb26408"
      },
      "period": {
        "start": "2026-02-01T08:00:00.000+00:00",
        "end": "2026-02-05T08:15:00.000+00:00"
      },
      "reasonReference": [ {
        "reference": "Condition/512181b4-471b-4b66-8947-6435d8f1a331"
      } ]
    },
    "request": {
      "method": "PUT",
      "url": "Encounter/5afa29ff-9251-401e-a28f-32cc13af974a"
    }
  }, {
    "fullUrl": "https://madie.cms.gov/Coverage/5c9558b4-2424-4502-a038-b5d73a33e8a6",
    "resource": {
      "resourceType": "Coverage",
      "id": "5c9558b4-2424-4502-a038-b5d73a33e8a6",
      "status": "active",
      "subscriberId": "523435",
      "beneficiary": {
        "reference": "Patient/c93bb9b9-164a-4c9e-997b-f26c6fb26408"
      },
      "relationship": {
        "coding": [ {
          "system": "http://terminology.hl7.org/CodeSystem/subscriber-relationship",
          "code": "self"
        } ]
      },
      "period": {
        "start": "2005-02-01T08:00:00.000+00:00"
      },
      "payor": [ {
        "reference": "Organization/f62211e9-dc72-49a7-83e2-8a2cae336cd0"
      } ]
    },
    "request": {
      "method": "PUT",
      "url": "Coverage/5c9558b4-2424-4502-a038-b5d73a33e8a6"
    }
  }, {
    "fullUrl": "https://madie.cms.gov/Procedure/a34c5e14-5d0a-4b5a-9d33-e75bcf0f21a0",
    "resource": {
      "resourceType": "Procedure",
      "id": "a34c5e14-5d0a-4b5a-9d33-e75bcf0f21a0",
      "meta": {
        "profile": [ "http://hl7.org/fhir/us/qicore/StructureDefinition/qicore-procedure" ]
      },
      "extension": [ {
        "url": "http://hl7.org/fhir/us/qicore/StructureDefinition/qicore-recorded",
        "valueDateTime": "2014-04-05T13:35:00.000+00:00"
      } ],
      "status": "completed",
      "code": {
        "coding": [ {
          "system": "http://snomed.info/sct",
          "code": "10745001"
        } ]
      },
      "subject": {
        "reference": "Patient/c93bb9b9-164a-4c9e-997b-f26c6fb26408"
      },
      "performedPeriod": {
        "start": "2026-02-01T08:00:00.000+00:00",
        "end": "2026-02-01T08:15:00.000+00:00"
      }
    },
    "request": {
      "method": "PUT",
      "url": "Procedure/a34c5e14-5d0a-4b5a-9d33-e75bcf0f21a0"
    }
  }, {
    "fullUrl": "https://madie.cms.gov/Encounter/b5527185-2554-48cd-ac8e-9c17fbc26a6b",
    "resource": {
      "resourceType": "Encounter",
      "id": "b5527185-2554-48cd-ac8e-9c17fbc26a6b",
      "meta": {
        "profile": [ "http://hl7.org/fhir/us/qicore/StructureDefinition/qicore-encounter" ]
      },
      "status": "finished",
      "class": {
        "system": "http://terminology.hl7.org/CodeSystem/v3-ActCode",
        "code": "IMP",
        "display": "inpatient encounter"
      },
      "type": [ {
        "coding": [ {
          "system": "http://snomed.info/sct",
          "code": "183452005"
        } ]
      } ],
      "subject": {
        "reference": "Patient/c93bb9b9-164a-4c9e-997b-f26c6fb26408"
      },
      "period": {
        "start": "2026-02-05T19:00:00.000+00:00",
        "end": "2026-02-06T08:15:00.000+00:00"
      },
      "diagnosis": [ {
        "extension": [ {
          "url": "http://hl7.org/fhir/us/qicore/StructureDefinition/qicore-encounter-diagnosisPresentOnAdmission",
          "valueCodeableConcept": {
            "coding": [ {
              "system": "https://www.cms.gov/Medicare/Medicare-Fee-for-Service-Payment/HospitalAcqCond/Coding",
              "code": "N"
            } ]
          }
        } ],
        "condition": {
          "reference": "Condition/severe-maternal-morbidity-diagnoses-adc2"
        }
      } ]
    },
    "request": {
      "method": "PUT",
      "url": "Encounter/b5527185-2554-48cd-ac8e-9c17fbc26a6b"
    }
  }, {
    "fullUrl": "https://madie.cms.gov/Procedure/f7595370-555e-4c52-9009-7b120f7e367c",
    "resource": {
      "resourceType": "Procedure",
      "id": "f7595370-555e-4c52-9009-7b120f7e367c",
      "meta": {
        "profile": [ "http://hl7.org/fhir/us/qicore/StructureDefinition/qicore-procedure" ]
      },
      "extension": [ {
        "url": "http://hl7.org/fhir/us/qicore/StructureDefinition/qicore-recorded",
        "valueDateTime": "2026-02-06T00:01:00.000+00:00"
      } ],
      "status": "completed",
      "code": {
        "coding": [ {
          "system": "http://snomed.info/sct",
          "code": "11397000"
        } ]
      },
      "subject": {
        "reference": "Patient/c93bb9b9-164a-4c9e-997b-f26c6fb26408"
      },
      "performedPeriod": {
        "start": "2026-02-05T20:00:00.000+00:00",
        "end": "2026-02-05T20:01:00.000+00:00"
      }
    },
    "request": {
      "method": "PUT",
      "url": "Procedure/f7595370-555e-4c52-9009-7b120f7e367c"
    }
  }, {
    "fullUrl": "https://madie.cms.gov/Organization/f62211e9-dc72-49a7-83e2-8a2cae336cd0",
    "resource": {
      "resourceType": "Organization",
      "id": "f62211e9-dc72-49a7-83e2-8a2cae336cd0",
      "meta": {
        "profile": [ "http://hl7.org/fhir/us/qicore/StructureDefinition/qicore-organization" ]
      },
      "identifier": [ {
        "use": "temp",
        "system": "urn:oid:2.16.840.1.113883.4.4",
        "value": "21-3259825"
      } ],
      "active": true,
      "type": [ {
        "coding": [ {
          "system": "http://terminology.hl7.org/CodeSystem/organization-type",
          "code": "pay",
          "display": "Payer"
        } ]
      } ],
      "name": "Blue Cross Blue Shield of Texas",
      "telecom": [ {
        "system": "phone",
        "value": "(+1) 972-766-6900"
      } ],
      "address": [ {
        "use": "billing",
        "type": "postal",
        "line": [ "P.O. Box 660044" ],
        "city": "Dallas",
        "state": "TX",
        "postalCode": "75266-0044",
        "country": "USA"
      } ]
    },
    "request": {
      "method": "PUT",
      "url": "Organization/f62211e9-dc72-49a7-83e2-8a2cae336cd0"
    }
  }, {
    "fullUrl": "https://madie.cms.gov/Practitioner/69916340-0cfd-4f48-96a5-7b581e9f5910",
    "resource": {
      "resourceType": "Practitioner",
      "id": "69916340-0cfd-4f48-96a5-7b581e9f5910",
      "meta": {
        "profile": [ "http://hl7.org/fhir/us/qicore/StructureDefinition/qicore-practitioner" ]
      },
      "identifier": [ {
        "system": "http://hl7.org/fhir/sid/us-npi",
        "value": "9999999896"
      } ],
      "name": [ {
        "family": "Evil",
        "prefix": [ "Dr" ]
      } ]
    },
    "request": {
      "method": "PUT",
      "url": "Practitioner/69916340-0cfd-4f48-96a5-7b581e9f5910"
    }
  }, {
    "fullUrl": "https://madie.cms.gov/MeasureReport/e0c5f228-1675-44cc-a10e-8ec6566031de",
    "resource": {
      "resourceType": "MeasureReport",
      "id": "e0c5f228-1675-44cc-a10e-8ec6566031de",
      "meta": {
        "profile": [ "http://hl7.org/fhir/us/cqfmeasures/StructureDefinition/test-case-cqfm" ]
      },
      "contained": [ {
        "resourceType": "Parameters",
        "id": "eb36935d-2b8c-43a3-84be-b592ab0413ee-parameters",
        "parameter": [ {
          "name": "subject",
          "valueString": "c93bb9b9-164a-4c9e-997b-f26c6fb26408"
        } ]
      } ],
      "extension": [ {
        "url": "http://hl7.org/fhir/StructureDefinition/cqf-inputParameters",
        "valueReference": {
          "reference": "#eb36935d-2b8c-43a3-84be-b592ab0413ee-parameters"
        }
      }, {
        "url": "http://hl7.org/fhir/us/cqfmeasures/StructureDefinition/cqfm-testCaseDescription",
        "valueMarkdown": "Blood transfusion in ED 12 hours after, on same day as delivery encounter ends"
      } ],
      "modifierExtension": [ {
        "url": "http://hl7.org/fhir/us/cqfmeasures/StructureDefinition/cqfm-isTestCase",
        "valueBoolean": true
      } ],
      "status": "complete",
      "type": "individual",
      "measure": "https://madie.cms.gov/Measure/CMS1028FHIRPCSevereOBComps",
      "period": {
        "start": "2026-01-01",
        "end": "2026-12-31"
      },
      "group": [ {
        "id": "Group_1",
        "population": [ {
          "id": "InitialPopulation_1",
          "code": {
            "coding": [ {
              "system": "http://terminology.hl7.org/CodeSystem/measure-population",
              "code": "initial-population",
              "display": "Initial Population"
            } ]
          },
          "count": 1
        }, {
          "id": "Denominator_1",
          "code": {
            "coding": [ {
              "system": "http://terminology.hl7.org/CodeSystem/measure-population",
              "code": "denominator",
              "display": "Denominator"
            } ]
          },
          "count": 1
        }, {
          "id": "Numerator_1",
          "code": {
            "coding": [ {
              "system": "http://terminology.hl7.org/CodeSystem/measure-population",
              "code": "numerator",
              "display": "Numerator"
            } ]
          },
          "count": 0
        }, {
          "id": "NumeratorExclusion_1",
          "code": {
            "coding": [ {
              "system": "http://terminology.hl7.org/CodeSystem/measure-population",
              "code": "numerator-exclusion",
              "display": "Numerator Exclusion"
            } ]
          },
          "count": 0
        } ],
        "measureScore": {
          "value": 0.0
        }
      }, {
        "id": "Group_2",
        "population": [ {
          "id": "InitialPopulation_2",
          "code": {
            "coding": [ {
              "system": "http://terminology.hl7.org/CodeSystem/measure-population",
              "code": "initial-population",
              "display": "Initial Population"
            } ]
          },
          "count": 1
        }, {
          "id": "Denominator_2",
          "code": {
            "coding": [ {
              "system": "http://terminology.hl7.org/CodeSystem/measure-population",
              "code": "denominator",
              "display": "Denominator"
            } ]
          },
          "count": 1
        }, {
          "id": "Numerator_2",
          "code": {
            "coding": [ {
              "system": "http://terminology.hl7.org/CodeSystem/measure-population",
              "code": "numerator",
              "display": "Numerator"
            } ]
          },
          "count": 0
        }, {
          "id": "NumeratorExclusion_2",
          "code": {
            "coding": [ {
              "system": "http://terminology.hl7.org/CodeSystem/measure-population",
              "code": "numerator-exclusion",
              "display": "Numerator Exclusion"
            } ]
          },
          "count": 0
        } ],
        "measureScore": {
          "value": 0.0
        }
      } ],
      "evaluatedResource": [ {
        "reference": "Patient/c93bb9b9-164a-4c9e-997b-f26c6fb26408"
      }, {
        "reference": "Observation/0c7f8a70-cc19-45dd-bb75-03e94bfe4721"
      }, {
        "reference": "Observation/9ab6fe17-ea65-40fb-a71f-5a5b7412acd8"
      }, {
        "reference": "Condition/512181b4-471b-4b66-8947-6435d8f1a331"
      }, {
        "reference": "Encounter/5afa29ff-9251-401e-a28f-32cc13af974a"
      }, {
        "reference": "Coverage/5c9558b4-2424-4502-a038-b5d73a33e8a6"
      }, {
        "reference": "Procedure/a34c5e14-5d0a-4b5a-9d33-e75bcf0f21a0"
      }, {
        "reference": "Encounter/b5527185-2554-48cd-ac8e-9c17fbc26a6b"
      }, {
        "reference": "Procedure/f7595370-555e-4c52-9009-7b120f7e367c"
      }, {
        "reference": "Organization/f62211e9-dc72-49a7-83e2-8a2cae336cd0"
      }, {
        "reference": "Practitioner/69916340-0cfd-4f48-96a5-7b581e9f5910"
      } ]
    },
    "request": {
      "method": "PUT",
      "url": "MeasureReport/e0c5f228-1675-44cc-a10e-8ec6566031de"
    }
  } ]
}