{
  "resourceType": "Bundle",
  "id": "612e6b1002c62a011f2ec46d",
  "type": "transaction",
  "entry": [ {
    "fullUrl": "https://madie.cms.gov/Patient/3d6571e7-25b8-4ec7-a4a7-0e41fafeadb5",
    "resource": {
      "resourceType": "Patient",
      "id": "3d6571e7-25b8-4ec7-a4a7-0e41fafeadb5",
      "meta": {
        "profile": [ "http://hl7.org/fhir/us/qicore/StructureDefinition/qicore-patient" ]
      },
      "text": {
        "status": "generated",
        "div": "<div xmlns=\"http://www.w3.org/1999/xhtml\"><div class=\"hapiHeaderText\">MARixDrgOBSEDEQ1hr <b>NUMERPASS </b></div><table class=\"hapiPropertyTable\"><tbody><tr><td>Identifier</td><td>9ac41bff10ef3353d0742df1f73dc984</td></tr><tr><td>Date of birth</td><td><span>02 January 1974</span></td></tr></tbody></table></div>"
      },
      "extension": [ {
        "url": "http://hl7.org/fhir/us/core/StructureDefinition/us-core-race",
        "extension": [ {
          "url": "ombCategory",
          "valueCoding": {
            "system": "urn:oid:2.16.840.1.113883.6.238",
            "code": "1002-5",
            "display": "American Indian or Alaska Native",
            "userSelected": true
          }
        }, {
          "url": "text",
          "valueString": "American Indian or Alaska Native"
        } ]
      }, {
        "url": "http://hl7.org/fhir/us/core/StructureDefinition/us-core-ethnicity",
        "extension": [ {
          "url": "ombCategory",
          "valueCoding": {
            "system": "urn:oid:2.16.840.1.113883.6.238",
            "code": "2135-2",
            "display": "Hispanic or Latino",
            "userSelected": true
          }
        }, {
          "url": "text",
          "valueString": "Hispanic or Latino"
        } ]
      } ],
      "identifier": [ {
        "type": {
          "coding": [ {
            "system": "http://terminology.hl7.org/CodeSystem/v2-0203",
            "code": "MR"
          } ]
        },
        "system": "https://bonnie-fhir.healthit.gov/",
        "value": "612e6b1002c62a011f2ec46d"
      } ],
      "active": true,
      "name": [ {
        "use": "usual",
        "family": "NUMERPass",
        "given": [ "MARixDrgOBSEDEQ1hr" ]
      } ],
      "gender": "male",
      "birthDate": "1975-01-02"
    },
    "request": {
      "method": "PUT",
      "url": "Patient/3d6571e7-25b8-4ec7-a4a7-0e41fafeadb5"
    }
  }, {
    "fullUrl": "https://madie.cms.gov/Encounter/1560c823-5686-4149-a0ad-99f31d3facf0",
    "resource": {
      "resourceType": "Encounter",
      "id": "1560c823-5686-4149-a0ad-99f31d3facf0",
      "meta": {
        "profile": [ "http://hl7.org/fhir/us/qicore/StructureDefinition/qicore-encounter" ]
      },
      "status": "finished",
      "class": {
        "system": "http://terminology.hl7.org/CodeSystem/v3-ActCode",
        "code": "IMP",
        "display": "inpatient encounter"
      },
      "type": [ {
        "coding": [ {
          "system": "http://snomed.info/sct",
          "code": "8715000"
        } ]
      } ],
      "subject": {
        "reference": "Patient/3d6571e7-25b8-4ec7-a4a7-0e41fafeadb5"
      },
      "period": {
        "start": "2026-11-01T08:00:00.000+00:00",
        "end": "2026-11-26T08:15:00.000+00:00"
      },
      "length": {
        "value": 25,
        "unit": "days"
      }
    },
    "request": {
      "method": "PUT",
      "url": "Encounter/1560c823-5686-4149-a0ad-99f31d3facf0"
    }
  }, {
    "fullUrl": "https://madie.cms.gov/Encounter/f8c8cfdf-0fc2-42e6-9c86-2b4871fb4c1f",
    "resource": {
      "resourceType": "Encounter",
      "id": "f8c8cfdf-0fc2-42e6-9c86-2b4871fb4c1f",
      "meta": {
        "profile": [ "http://hl7.org/fhir/us/qicore/StructureDefinition/qicore-encounter" ]
      },
      "status": "finished",
      "class": {
        "system": "http://terminology.hl7.org/CodeSystem/v3-ActCode",
        "code": "EMER",
        "display": "emergency"
      },
      "type": [ {
        "coding": [ {
          "system": "http://snomed.info/sct",
          "code": "4525004"
        } ]
      } ],
      "subject": {
        "reference": "Patient/3d6571e7-25b8-4ec7-a4a7-0e41fafeadb5"
      },
      "period": {
        "start": "2026-10-31T10:00:00.000+00:00",
        "end": "2026-10-31T19:00:00.000+00:00"
      }
    },
    "request": {
      "method": "PUT",
      "url": "Encounter/f8c8cfdf-0fc2-42e6-9c86-2b4871fb4c1f"
    }
  }, {
    "fullUrl": "https://madie.cms.gov/Encounter/8c40a171-799d-41b9-ac3b-016959c951b6",
    "resource": {
      "resourceType": "Encounter",
      "id": "8c40a171-799d-41b9-ac3b-016959c951b6",
      "meta": {
        "profile": [ "http://hl7.org/fhir/us/qicore/StructureDefinition/qicore-encounter" ]
      },
      "status": "finished",
      "class": {
        "system": "http://terminology.hl7.org/CodeSystem/v3-ActCode",
        "code": "OBSENC",
        "display": "observation encounter"
      },
      "type": [ {
        "coding": [ {
          "system": "http://snomed.info/sct",
          "code": "448951000124107"
        } ]
      } ],
      "subject": {
        "reference": "Patient/3d6571e7-25b8-4ec7-a4a7-0e41fafeadb5"
      },
      "period": {
        "start": "2026-10-31T20:00:00.000+00:00",
        "end": "2026-11-01T07:00:00.000+00:00"
      }
    },
    "request": {
      "method": "PUT",
      "url": "Encounter/8c40a171-799d-41b9-ac3b-016959c951b6"
    }
  }, {
    "fullUrl": "https://madie.cms.gov/Coverage/9a2c40f7-47da-4a4c-bd0a-646e998574e0",
    "resource": {
      "resourceType": "Coverage",
      "id": "9a2c40f7-47da-4a4c-bd0a-646e998574e0",
      "status": "active",
      "beneficiary": {
        "reference": "Patient/3d6571e7-25b8-4ec7-a4a7-0e41fafeadb5"
      },
      "period": {
        "start": "1975-01-02T08:00:00.000+00:00"
      },
      "payor": [ {
        "reference": "Organization/c99591bc-9dff-4ac7-87da-0bff6ab1a098"
      } ]
    },
    "request": {
      "method": "PUT",
      "url": "Coverage/9a2c40f7-47da-4a4c-bd0a-646e998574e0"
    }
  }, {
    "fullUrl": "https://madie.cms.gov/MedicationAdministration/be007ccd-4c92-45a3-b409-71b003f0900b",
    "resource": {
      "resourceType": "MedicationAdministration",
      "id": "be007ccd-4c92-45a3-b409-71b003f0900b",
      "meta": {
        "profile": [ "http://hl7.org/fhir/us/qicore/StructureDefinition/qicore-medicationadministration" ]
      },
      "status": "completed",
      "medicationCodeableConcept": {
        "coding": [ {
          "system": "http://www.nlm.nih.gov/research/umls/rxnorm",
          "code": "1114198"
        } ]
      },
      "subject": {
        "reference": "Patient/3d6571e7-25b8-4ec7-a4a7-0e41fafeadb5"
      },
      "effectivePeriod": {
        "start": "2026-10-31T20:10:00.000+00:00",
        "end": "2026-10-31T20:15:00.000+00:00"
      }
    },
    "request": {
      "method": "PUT",
      "url": "MedicationAdministration/be007ccd-4c92-45a3-b409-71b003f0900b"
    }
  }, {
    "fullUrl": "https://madie.cms.gov/Organization/c99591bc-9dff-4ac7-87da-0bff6ab1a098",
    "resource": {
      "resourceType": "Organization",
      "id": "c99591bc-9dff-4ac7-87da-0bff6ab1a098",
      "meta": {
        "profile": [ "http://hl7.org/fhir/us/qicore/StructureDefinition/qicore-organization" ]
      },
      "identifier": [ {
        "use": "temp",
        "system": "urn:oid:2.16.840.1.113883.4.4",
        "value": "21-3259825"
      } ],
      "active": true,
      "type": [ {
        "coding": [ {
          "system": "http://terminology.hl7.org/CodeSystem/organization-type",
          "code": "pay",
          "display": "Payer"
        } ]
      } ],
      "name": "Blue Cross Blue Shield of Texas",
      "telecom": [ {
        "system": "phone",
        "value": "(+1) 972-766-6900"
      } ],
      "address": [ {
        "use": "billing",
        "type": "postal",
        "line": [ "P.O. Box 660044" ],
        "city": "Dallas",
        "state": "TX",
        "postalCode": "75266-0044",
        "country": "USA"
      } ]
    },
    "request": {
      "method": "PUT",
      "url": "Organization/c99591bc-9dff-4ac7-87da-0bff6ab1a098"
    }
  }, {
    "fullUrl": "https://madie.cms.gov/Practitioner/f9b65e9d-ca70-44c5-b65a-a828168585aa",
    "resource": {
      "resourceType": "Practitioner",
      "id": "f9b65e9d-ca70-44c5-b65a-a828168585aa",
      "identifier": [ {
        "system": "http://hl7.org/fhir/sid/us-npi",
        "value": "123456"
      } ],
      "name": [ {
        "family": "Evil",
        "prefix": [ "Dr" ]
      } ]
    },
    "request": {
      "method": "PUT",
      "url": "Practitioner/f9b65e9d-ca70-44c5-b65a-a828168585aa"
    }
  }, {
    "fullUrl": "https://madie.cms.gov/MeasureReport/38d4702f-29d7-4c0c-9ee8-3c3c54f3486c",
    "resource": {
      "resourceType": "MeasureReport",
      "id": "38d4702f-29d7-4c0c-9ee8-3c3c54f3486c",
      "meta": {
        "profile": [ "http://hl7.org/fhir/us/cqfmeasures/StructureDefinition/test-case-cqfm" ]
      },
      "contained": [ {
        "resourceType": "Parameters",
        "id": "4a456dd6-3a2d-461b-a942-f5001ee86840-parameters",
        "parameter": [ {
          "name": "subject",
          "valueString": "3d6571e7-25b8-4ec7-a4a7-0e41fafeadb5"
        } ]
      } ],
      "extension": [ {
        "url": "http://hl7.org/fhir/StructureDefinition/cqf-inputParameters",
        "valueReference": {
          "reference": "#4a456dd6-3a2d-461b-a942-f5001ee86840-parameters"
        }
      }, {
        "url": "http://hl7.org/fhir/us/cqfmeasures/StructureDefinition/cqfm-testCaseDescription",
        "valueMarkdown": "Rivaroxaban  for VTE Prophylaxis Med Administered during OBS which ends 1 hr before adm and ED = 1 hr ends OBS\n"
      } ],
      "modifierExtension": [ {
        "url": "http://hl7.org/fhir/us/cqfmeasures/StructureDefinition/cqfm-isTestCase",
        "valueBoolean": true
      } ],
      "status": "complete",
      "type": "individual",
      "measure": "https://madie.cms.gov/Measure/CMS108FHIRVTEProphylaxis",
      "period": {
        "start": "2026-01-01",
        "end": "2026-12-31"
      },
      "group": [ {
        "id": "Group_1",
        "population": [ {
          "id": "InitialPopulation_1",
          "code": {
            "coding": [ {
              "system": "http://terminology.hl7.org/CodeSystem/measure-population",
              "code": "initial-population",
              "display": "Initial Population"
            } ]
          },
          "count": 1
        }, {
          "id": "Denominator_1",
          "code": {
            "coding": [ {
              "system": "http://terminology.hl7.org/CodeSystem/measure-population",
              "code": "denominator",
              "display": "Denominator"
            } ]
          },
          "count": 1
        }, {
          "id": "DenominatorExclusion_1",
          "code": {
            "coding": [ {
              "system": "http://terminology.hl7.org/CodeSystem/measure-population",
              "code": "denominator-exclusion",
              "display": "Denominator Exclusion"
            } ]
          },
          "count": 0
        }, {
          "id": "Numerator_1",
          "code": {
            "coding": [ {
              "system": "http://terminology.hl7.org/CodeSystem/measure-population",
              "code": "numerator",
              "display": "Numerator"
            } ]
          },
          "count": 1
        } ],
        "measureScore": {
          "value": 0.0
        }
      } ],
      "evaluatedResource": [ {
        "reference": "Patient/3d6571e7-25b8-4ec7-a4a7-0e41fafeadb5"
      }, {
        "reference": "Encounter/1560c823-5686-4149-a0ad-99f31d3facf0"
      }, {
        "reference": "Encounter/f8c8cfdf-0fc2-42e6-9c86-2b4871fb4c1f"
      }, {
        "reference": "Encounter/8c40a171-799d-41b9-ac3b-016959c951b6"
      }, {
        "reference": "Coverage/9a2c40f7-47da-4a4c-bd0a-646e998574e0"
      }, {
        "reference": "MedicationAdministration/be007ccd-4c92-45a3-b409-71b003f0900b"
      }, {
        "reference": "Organization/c99591bc-9dff-4ac7-87da-0bff6ab1a098"
      }, {
        "reference": "Practitioner/f9b65e9d-ca70-44c5-b65a-a828168585aa"
      } ]
    },
    "request": {
      "method": "PUT",
      "url": "MeasureReport/38d4702f-29d7-4c0c-9ee8-3c3c54f3486c"
    }
  } ]
}