{
  "resourceType": "Bundle",
  "id": "62c880ec0111a60120dc21f6",
  "type": "transaction",
  "entry": [ {
    "fullUrl": "https://madie.cms.gov/Patient/bbdccaa6-f3a0-426d-8e77-eff43095cfc9",
    "resource": {
      "resourceType": "Patient",
      "id": "bbdccaa6-f3a0-426d-8e77-eff43095cfc9",
      "meta": {
        "profile": [ "http://hl7.org/fhir/us/qicore/StructureDefinition/qicore-patient" ]
      },
      "extension": [ {
        "url": "http://hl7.org/fhir/us/core/StructureDefinition/us-core-race",
        "extension": [ {
          "url": "ombCategory",
          "valueCoding": {
            "system": "urn:oid:2.16.840.1.113883.6.238",
            "code": "1002-5",
            "display": "American Indian or Alaska Native",
            "userSelected": true
          }
        }, {
          "url": "text",
          "valueString": "American Indian or Alaska Native"
        } ]
      }, {
        "url": "http://hl7.org/fhir/us/core/StructureDefinition/us-core-ethnicity",
        "extension": [ {
          "url": "ombCategory",
          "valueCoding": {
            "system": "urn:oid:2.16.840.1.113883.6.238",
            "code": "2135-2",
            "display": "Hispanic or Latino",
            "userSelected": true
          }
        }, {
          "url": "text",
          "valueString": "Hispanic or Latino"
        } ]
      } ],
      "identifier": [ {
        "type": {
          "coding": [ {
            "system": "http://terminology.hl7.org/CodeSystem/v2-0203",
            "code": "MR"
          } ]
        },
        "system": "https://bonnie-fhir.healthit.gov/",
        "value": "62c880ec0111a60120dc21f6"
      } ],
      "active": true,
      "name": [ {
        "use": "usual",
        "family": "NUMERFailPop2",
        "given": [ "PainAssessPriorRadTx" ]
      } ],
      "gender": "male",
      "birthDate": "1952-02-10"
    },
    "request": {
      "method": "PUT",
      "url": "Patient/bbdccaa6-f3a0-426d-8e77-eff43095cfc9"
    }
  }, {
    "fullUrl": "https://madie.cms.gov/Observation/d9c6565f-dbfc-46e3-86d1-58cabac7a49c",
    "resource": {
      "resourceType": "Observation",
      "id": "d9c6565f-dbfc-46e3-86d1-58cabac7a49c",
      "meta": {
        "profile": [ "http://hl7.org/fhir/us/qicore/StructureDefinition/qicore-observation-screening-assessment" ]
      },
      "status": "final",
      "category": [ {
        "coding": [ {
          "system": "http://terminology.hl7.org/CodeSystem/observation-category",
          "code": "survey",
          "display": "Survey"
        } ],
        "text": "Survey"
      } ],
      "code": {
        "coding": [ {
          "system": "http://loinc.org",
          "code": "38208-5",
          "display": "Pain severity - Reported"
        } ],
        "text": "Pain severity - Reported"
      },
      "subject": {
        "reference": "Patient/bbdccaa6-f3a0-426d-8e77-eff43095cfc9"
      },
      "effectivePeriod": {
        "start": "2026-02-10T08:00:00.000+00:00",
        "end": "2026-02-10T08:15:00.000+00:00"
      },
      "valueInteger": 5
    },
    "request": {
      "method": "PUT",
      "url": "Observation/d9c6565f-dbfc-46e3-86d1-58cabac7a49c"
    }
  }, {
    "fullUrl": "https://madie.cms.gov/Condition/521f2fd1-4b92-484c-bb30-72a67a4bb45b",
    "resource": {
      "resourceType": "Condition",
      "id": "521f2fd1-4b92-484c-bb30-72a67a4bb45b",
      "meta": {
        "profile": [ "http://hl7.org/fhir/us/qicore/StructureDefinition/qicore-condition-problems-health-concerns" ]
      },
      "clinicalStatus": {
        "coding": [ {
          "system": "http://terminology.hl7.org/CodeSystem/condition-clinical",
          "code": "active",
          "display": "active",
          "userSelected": true
        } ]
      },
      "verificationStatus": {
        "coding": [ {
          "system": "http://terminology.hl7.org/CodeSystem/condition-ver-status",
          "code": "confirmed",
          "display": "Confirmed"
        } ]
      },
      "category": [ {
        "coding": [ {
          "system": "http://terminology.hl7.org/CodeSystem/condition-category",
          "code": "problem-list-item",
          "display": "Problem List Item"
        } ]
      } ],
      "code": {
        "coding": [ {
          "system": "http://snomed.info/sct",
          "code": "107691000119101"
        } ]
      },
      "subject": {
        "reference": "Patient/bbdccaa6-f3a0-426d-8e77-eff43095cfc9"
      },
      "onsetDateTime": "2022-09-12T10:45:00.000+00:00"
    },
    "request": {
      "method": "PUT",
      "url": "Condition/521f2fd1-4b92-484c-bb30-72a67a4bb45b"
    }
  }, {
    "fullUrl": "https://madie.cms.gov/Coverage/9450d833-ee98-47c4-af5f-7d08a097a735",
    "resource": {
      "resourceType": "Coverage",
      "id": "9450d833-ee98-47c4-af5f-7d08a097a735",
      "meta": {
        "profile": [ "http://hl7.org/fhir/us/qicore/StructureDefinition/qicore-coverage" ]
      },
      "status": "active",
      "beneficiary": {
        "reference": "Patient/bbdccaa6-f3a0-426d-8e77-eff43095cfc9"
      },
      "period": {
        "start": "1952-02-10T08:00:00.000+00:00"
      },
      "payor": [ {
        "reference": "Organization/b4b7dc12-860a-4214-85f6-8132b3f2539d"
      } ]
    },
    "request": {
      "method": "PUT",
      "url": "Coverage/9450d833-ee98-47c4-af5f-7d08a097a735"
    }
  }, {
    "fullUrl": "https://madie.cms.gov/Encounter/8951b37b-a833-4ba1-bff8-791b820a47ef",
    "resource": {
      "resourceType": "Encounter",
      "id": "8951b37b-a833-4ba1-bff8-791b820a47ef",
      "meta": {
        "profile": [ "http://hl7.org/fhir/us/qicore/StructureDefinition/qicore-encounter" ]
      },
      "status": "finished",
      "class": {
        "system": "http://terminology.hl7.org/CodeSystem/v3-ActCode",
        "code": "AMB",
        "display": "ambulatory",
        "userSelected": true
      },
      "type": [ {
        "coding": [ {
          "system": "http://www.ama-assn.org/go/cpt",
          "version": "2023",
          "code": "77427",
          "display": "Radiation treatment management, 5 treatments",
          "userSelected": true
        } ]
      } ],
      "subject": {
        "reference": "Patient/bbdccaa6-f3a0-426d-8e77-eff43095cfc9"
      },
      "period": {
        "start": "2026-09-20T11:30:00.000+00:00",
        "end": "2026-09-20T11:30:00.000+00:00"
      }
    },
    "request": {
      "method": "PUT",
      "url": "Encounter/8951b37b-a833-4ba1-bff8-791b820a47ef"
    }
  }, {
    "fullUrl": "https://madie.cms.gov/Organization/b4b7dc12-860a-4214-85f6-8132b3f2539d",
    "resource": {
      "resourceType": "Organization",
      "id": "b4b7dc12-860a-4214-85f6-8132b3f2539d",
      "meta": {
        "profile": [ "http://hl7.org/fhir/us/qicore/StructureDefinition/qicore-organization" ]
      },
      "identifier": [ {
        "use": "temp",
        "system": "urn:oid:2.16.840.1.113883.4.4",
        "value": "21-3259825"
      } ],
      "active": true,
      "type": [ {
        "coding": [ {
          "system": "http://terminology.hl7.org/CodeSystem/organization-type",
          "code": "pay",
          "display": "Payer"
        } ]
      } ],
      "name": "Blue Cross Blue Shield of Texas",
      "telecom": [ {
        "system": "phone",
        "value": "(+1) 972-766-6900"
      } ],
      "address": [ {
        "use": "billing",
        "type": "postal",
        "line": [ "P.O. Box 660044" ],
        "city": "Dallas",
        "state": "TX",
        "postalCode": "75266-0044",
        "country": "USA"
      } ]
    },
    "request": {
      "method": "PUT",
      "url": "Organization/b4b7dc12-860a-4214-85f6-8132b3f2539d"
    }
  }, {
    "fullUrl": "https://madie.cms.gov/Practitioner/b9c8c59c-250b-4adf-b6c0-9d1a12b07a4e",
    "resource": {
      "resourceType": "Practitioner",
      "id": "b9c8c59c-250b-4adf-b6c0-9d1a12b07a4e",
      "meta": {
        "profile": [ "http://hl7.org/fhir/us/qicore/StructureDefinition/qicore-practitioner" ]
      },
      "identifier": [ {
        "system": "http://hl7.org/fhir/sid/us-npi",
        "value": "1234567890"
      } ],
      "name": [ {
        "family": "Evil",
        "prefix": [ "Dr" ]
      } ]
    },
    "request": {
      "method": "PUT",
      "url": "Practitioner/b9c8c59c-250b-4adf-b6c0-9d1a12b07a4e"
    }
  }, {
    "fullUrl": "https://madie.cms.gov/MeasureReport/91d6f9d4-bf3f-407e-a9cd-5486e51bde81",
    "resource": {
      "resourceType": "MeasureReport",
      "id": "91d6f9d4-bf3f-407e-a9cd-5486e51bde81",
      "meta": {
        "profile": [ "http://hl7.org/fhir/us/cqfmeasures/StructureDefinition/test-case-cqfm" ]
      },
      "contained": [ {
        "resourceType": "Parameters",
        "id": "1eeb83ff-0d7f-49df-b1ca-80a7e4bd488b-parameters",
        "parameter": [ {
          "name": "subject",
          "valueString": "bbdccaa6-f3a0-426d-8e77-eff43095cfc9"
        } ]
      } ],
      "extension": [ {
        "url": "http://hl7.org/fhir/StructureDefinition/cqf-inputParameters",
        "valueReference": {
          "reference": "#1eeb83ff-0d7f-49df-b1ca-80a7e4bd488b-parameters"
        }
      }, {
        "url": "http://hl7.org/fhir/us/cqfmeasures/StructureDefinition/cqfm-testCaseDescription",
        "valueMarkdown": "Patient with cancer diagnosis that overlaps radiation treatment management during measurement period. Pain intensity assessment was performed months before radiation treatment management encounter.\n"
      } ],
      "modifierExtension": [ {
        "url": "http://hl7.org/fhir/us/cqfmeasures/StructureDefinition/cqfm-isTestCase",
        "valueBoolean": true
      } ],
      "status": "complete",
      "type": "individual",
      "measure": "https://madie.cms.gov/Measure/CMS157FHIRPainIntensityQuantified",
      "period": {
        "start": "2026-01-01",
        "end": "2026-12-31"
      },
      "group": [ {
        "id": "Group_1",
        "population": [ {
          "id": "InitialPopulation_1",
          "code": {
            "coding": [ {
              "system": "http://terminology.hl7.org/CodeSystem/measure-population",
              "code": "initial-population",
              "display": "Initial Population"
            } ]
          },
          "count": 0
        }, {
          "id": "Denominator_1",
          "code": {
            "coding": [ {
              "system": "http://terminology.hl7.org/CodeSystem/measure-population",
              "code": "denominator",
              "display": "Denominator"
            } ]
          },
          "count": 0
        }, {
          "id": "Numerator_1",
          "code": {
            "coding": [ {
              "system": "http://terminology.hl7.org/CodeSystem/measure-population",
              "code": "numerator",
              "display": "Numerator"
            } ]
          },
          "count": 0
        } ],
        "measureScore": {
          "value": 0.0
        }
      }, {
        "id": "Group_2",
        "population": [ {
          "id": "InitialPopulation_2",
          "code": {
            "coding": [ {
              "system": "http://terminology.hl7.org/CodeSystem/measure-population",
              "code": "initial-population",
              "display": "Initial Population"
            } ]
          },
          "count": 1
        }, {
          "id": "Denominator_2",
          "code": {
            "coding": [ {
              "system": "http://terminology.hl7.org/CodeSystem/measure-population",
              "code": "denominator",
              "display": "Denominator"
            } ]
          },
          "count": 1
        }, {
          "id": "Numerator_2",
          "code": {
            "coding": [ {
              "system": "http://terminology.hl7.org/CodeSystem/measure-population",
              "code": "numerator",
              "display": "Numerator"
            } ]
          },
          "count": 0
        } ],
        "measureScore": {
          "value": 0.0
        }
      } ],
      "evaluatedResource": [ {
        "reference": "Patient/bbdccaa6-f3a0-426d-8e77-eff43095cfc9"
      }, {
        "reference": "Observation/d9c6565f-dbfc-46e3-86d1-58cabac7a49c"
      }, {
        "reference": "Condition/521f2fd1-4b92-484c-bb30-72a67a4bb45b"
      }, {
        "reference": "Coverage/9450d833-ee98-47c4-af5f-7d08a097a735"
      }, {
        "reference": "Encounter/8951b37b-a833-4ba1-bff8-791b820a47ef"
      }, {
        "reference": "Organization/b4b7dc12-860a-4214-85f6-8132b3f2539d"
      }, {
        "reference": "Practitioner/b9c8c59c-250b-4adf-b6c0-9d1a12b07a4e"
      } ]
    },
    "request": {
      "method": "PUT",
      "url": "MeasureReport/91d6f9d4-bf3f-407e-a9cd-5486e51bde81"
    }
  } ]
}