{
  "resourceType": "Bundle",
  "id": "NUMPass-InitOrthog90DaysB4THAFUOrthog425DaysAfterTHA",
  "type": "collection",
  "entry": [ {
    "fullUrl": "https://madie.cms.gov/Patient/b3e44f80-29cf-4800-b6cb-1d65a330b7c7",
    "resource": {
      "resourceType": "Patient",
      "id": "b3e44f80-29cf-4800-b6cb-1d65a330b7c7",
      "meta": {
        "profile": [ "http://hl7.org/fhir/us/qicore/StructureDefinition/qicore-patient" ]
      },
      "extension": [ {
        "url": "http://hl7.org/fhir/us/core/StructureDefinition/us-core-race",
        "extension": [ {
          "url": "ombCategory",
          "valueCoding": {
            "system": "urn:oid:2.16.840.1.113883.6.238",
            "code": "2028-9",
            "display": "Asian"
          }
        }, {
          "url": "text",
          "valueString": "Asian"
        } ]
      }, {
        "url": "http://hl7.org/fhir/us/core/StructureDefinition/us-core-ethnicity",
        "extension": [ {
          "url": "ombCategory",
          "valueCoding": {
            "system": "urn:oid:2.16.840.1.113883.6.238",
            "code": "2135-2",
            "display": "Hispanic or Latino"
          }
        }, {
          "url": "text",
          "valueString": "Hispanic or Latino"
        } ]
      } ],
      "identifier": [ {
        "system": "http://hospital.smarthealthit.org",
        "value": "999999995"
      } ],
      "name": [ {
        "family": "Bertha",
        "given": [ "Betty" ]
      } ],
      "gender": "female",
      "birthDate": "2007-01-01"
    }
  }, {
    "fullUrl": "https://madie.cms.gov/Procedure/352ef3df-5e5c-429d-b0d0-f66a607dd9dd",
    "resource": {
      "resourceType": "Procedure",
      "id": "352ef3df-5e5c-429d-b0d0-f66a607dd9dd",
      "meta": {
        "profile": [ "http://hl7.org/fhir/us/qicore/StructureDefinition/qicore-procedure" ]
      },
      "extension": [ {
        "url": "http://hl7.org/fhir/us/qicore/StructureDefinition/qicore-recorded",
        "valueDateTime": "2024-11-01T00:00:00.000+00:00"
      } ],
      "status": "completed",
      "code": {
        "coding": [ {
          "system": "http://www.cms.gov/Medicare/Coding/ICD10",
          "code": "0SR9019",
          "display": "Replacement of Right Hip Joint with Metal Synthetic Substitute, Cemented, Open Approach"
        } ]
      },
      "subject": {
        "reference": "Patient/b3e44f80-29cf-4800-b6cb-1d65a330b7c7"
      },
      "performedPeriod": {
        "start": "2024-11-01T00:00:00.000+00:00",
        "end": "2024-11-01T01:00:00.000+00:00"
      }
    }
  }, {
    "fullUrl": "https://madie.cms.gov/Encounter/137d43ca-88dd-4bcc-b84b-b01e854af351",
    "resource": {
      "resourceType": "Encounter",
      "id": "137d43ca-88dd-4bcc-b84b-b01e854af351",
      "meta": {
        "profile": [ "http://hl7.org/fhir/us/qicore/StructureDefinition/qicore-encounter" ]
      },
      "status": "finished",
      "class": {
        "system": "http://terminology.hl7.org/CodeSystem/v3-ActCode",
        "code": "AMB",
        "display": "ambulatory"
      },
      "type": [ {
        "coding": [ {
          "system": "http://snomed.info/sct",
          "version": "http://snomed.info/sct/731000124108/version/20250301",
          "code": "281036007",
          "display": "Follow-up consultation (procedure)"
        } ]
      } ],
      "subject": {
        "reference": "Patient/b3e44f80-29cf-4800-b6cb-1d65a330b7c7"
      },
      "period": {
        "start": "2025-11-01T00:00:00.000+00:00",
        "end": "2025-11-01T01:15:00.000+00:00"
      }
    }
  }, {
    "fullUrl": "https://madie.cms.gov/Observation/ecf393e8-c773-416d-b0ae-43c0826a41a6",
    "resource": {
      "resourceType": "Observation",
      "id": "ecf393e8-c773-416d-b0ae-43c0826a41a6",
      "meta": {
        "profile": [ "http://hl7.org/fhir/us/qicore/StructureDefinition/qicore-observation-screening-assessment" ]
      },
      "status": "final",
      "category": [ {
        "coding": [ {
          "system": "http://terminology.hl7.org/CodeSystem/observation-category",
          "code": "survey"
        } ]
      } ],
      "code": {
        "coding": [ {
          "system": "http://loinc.org",
          "code": "72028-4",
          "display": "VR-12 Mental component summary (MCS) score - orthogonal method T-score"
        } ]
      },
      "subject": {
        "reference": "Patient/b3e44f80-29cf-4800-b6cb-1d65a330b7c7"
      },
      "effectivePeriod": {
        "start": "2024-08-03T00:00:00.000+00:00",
        "end": "2024-08-03T01:00:00.000+00:00"
      },
      "valueInteger": 60
    }
  }, {
    "fullUrl": "https://madie.cms.gov/Observation/76ff08e4-d013-4db8-bf1c-2cfea70e538f",
    "resource": {
      "resourceType": "Observation",
      "id": "76ff08e4-d013-4db8-bf1c-2cfea70e538f",
      "meta": {
        "profile": [ "http://hl7.org/fhir/us/qicore/StructureDefinition/qicore-observation-screening-assessment" ]
      },
      "status": "final",
      "category": [ {
        "coding": [ {
          "system": "http://terminology.hl7.org/CodeSystem/observation-category",
          "code": "survey"
        } ]
      } ],
      "code": {
        "coding": [ {
          "system": "http://loinc.org",
          "code": "72027-6",
          "display": "VR-12 Physical component summary (PCS) score - orthogonal method T-score"
        } ]
      },
      "subject": {
        "reference": "Patient/b3e44f80-29cf-4800-b6cb-1d65a330b7c7"
      },
      "effectivePeriod": {
        "start": "2024-08-03T00:00:00.000+00:00",
        "end": "2024-08-03T01:00:00.000+00:00"
      },
      "valueInteger": 60
    }
  }, {
    "fullUrl": "https://madie.cms.gov/Observation/d9883689-2bb8-4f99-b29b-a93c08b7223e",
    "resource": {
      "resourceType": "Observation",
      "id": "d9883689-2bb8-4f99-b29b-a93c08b7223e",
      "meta": {
        "profile": [ "http://hl7.org/fhir/us/qicore/StructureDefinition/qicore-observation-screening-assessment" ]
      },
      "status": "final",
      "category": [ {
        "coding": [ {
          "system": "http://terminology.hl7.org/CodeSystem/observation-category",
          "code": "survey"
        } ]
      } ],
      "code": {
        "coding": [ {
          "system": "http://loinc.org",
          "code": "72028-4",
          "display": "VR-12 Mental component summary (MCS) score - orthogonal method T-score"
        } ]
      },
      "subject": {
        "reference": "Patient/b3e44f80-29cf-4800-b6cb-1d65a330b7c7"
      },
      "effectivePeriod": {
        "start": "2025-12-30T00:00:00.000+00:00",
        "end": "2025-12-30T01:00:00.000+00:00"
      },
      "valueInteger": 60
    }
  }, {
    "fullUrl": "https://madie.cms.gov/Observation/34b3ffba-a32f-4b3d-aa4c-df268a9088d9",
    "resource": {
      "resourceType": "Observation",
      "id": "34b3ffba-a32f-4b3d-aa4c-df268a9088d9",
      "meta": {
        "profile": [ "http://hl7.org/fhir/us/qicore/StructureDefinition/qicore-observation-screening-assessment" ]
      },
      "status": "final",
      "category": [ {
        "coding": [ {
          "system": "http://terminology.hl7.org/CodeSystem/observation-category",
          "code": "survey"
        } ]
      } ],
      "code": {
        "coding": [ {
          "system": "http://loinc.org",
          "code": "72027-6",
          "display": "VR-12 Physical component summary (PCS) score - orthogonal method T-score"
        } ]
      },
      "subject": {
        "reference": "Patient/b3e44f80-29cf-4800-b6cb-1d65a330b7c7"
      },
      "effectivePeriod": {
        "start": "2025-12-30T00:00:00.000+00:00",
        "end": "2025-12-30T01:00:00.000+00:00"
      },
      "valueInteger": 60
    }
  }, {
    "fullUrl": "https://madie.cms.gov/MeasureReport/a555c664-a607-4cd7-a5c4-ba164d77963c",
    "resource": {
      "resourceType": "MeasureReport",
      "id": "a555c664-a607-4cd7-a5c4-ba164d77963c",
      "meta": {
        "profile": [ "http://hl7.org/fhir/us/cqfmeasures/StructureDefinition/test-case-cqfm" ]
      },
      "contained": [ {
        "resourceType": "Parameters",
        "id": "474b3dd5-f7ab-4425-9c9c-4e0fae9e7c19-parameters",
        "parameter": [ {
          "name": "subject",
          "valueString": "b3e44f80-29cf-4800-b6cb-1d65a330b7c7"
        } ]
      } ],
      "extension": [ {
        "url": "http://hl7.org/fhir/StructureDefinition/cqf-inputParameters",
        "valueReference": {
          "reference": "#474b3dd5-f7ab-4425-9c9c-4e0fae9e7c19-parameters"
        }
      }, {
        "url": "http://hl7.org/fhir/us/cqfmeasures/StructureDefinition/cqfm-testCaseDescription",
        "valueMarkdown": "Patient w/ a THA Procedure 11/1, Initial Hip Assessment Orthogonal 90 days before THA Procedure(8/3), and FollowUp Hip Assessment Orthogonal 425 days after THA Procedure (12/30)"
      } ],
      "modifierExtension": [ {
        "url": "http://hl7.org/fhir/us/cqfmeasures/StructureDefinition/cqfm-isTestCase",
        "valueBoolean": true
      } ],
      "status": "complete",
      "type": "individual",
      "measure": "https://madie.cms.gov/Measure/CMS56FHIRFuncStatHipReplacement",
      "period": {
        "start": "2026-01-01",
        "end": "2026-12-31"
      },
      "group": [ {
        "id": "Group_1",
        "population": [ {
          "id": "InitialPopulation_1",
          "code": {
            "coding": [ {
              "system": "http://terminology.hl7.org/CodeSystem/measure-population",
              "code": "initial-population",
              "display": "Initial Population"
            } ]
          },
          "count": 1
        }, {
          "id": "Denominator_1",
          "code": {
            "coding": [ {
              "system": "http://terminology.hl7.org/CodeSystem/measure-population",
              "code": "denominator",
              "display": "Denominator"
            } ]
          },
          "count": 1
        }, {
          "id": "DenominatorExclusion_1",
          "code": {
            "coding": [ {
              "system": "http://terminology.hl7.org/CodeSystem/measure-population",
              "code": "denominator-exclusion",
              "display": "Denominator Exclusion"
            } ]
          },
          "count": 0
        }, {
          "id": "Numerator_1",
          "code": {
            "coding": [ {
              "system": "http://terminology.hl7.org/CodeSystem/measure-population",
              "code": "numerator",
              "display": "Numerator"
            } ]
          },
          "count": 1
        } ],
        "measureScore": {
          "value": 1.0
        }
      } ],
      "evaluatedResource": [ {
        "reference": "Patient/b3e44f80-29cf-4800-b6cb-1d65a330b7c7"
      }, {
        "reference": "Procedure/352ef3df-5e5c-429d-b0d0-f66a607dd9dd"
      }, {
        "reference": "Encounter/137d43ca-88dd-4bcc-b84b-b01e854af351"
      }, {
        "reference": "Observation/ecf393e8-c773-416d-b0ae-43c0826a41a6"
      }, {
        "reference": "Observation/76ff08e4-d013-4db8-bf1c-2cfea70e538f"
      }, {
        "reference": "Observation/d9883689-2bb8-4f99-b29b-a93c08b7223e"
      }, {
        "reference": "Observation/34b3ffba-a32f-4b3d-aa4c-df268a9088d9"
      } ]
    }
  } ]
}