{
  "resourceType": "Bundle",
  "id": "60abda28bf0a01003e3f76bd",
  "type": "collection",
  "entry": [ {
    "fullUrl": "https://madie.cms.gov/Patient/959743cc-af58-48ff-afa3-68428e69f0f5",
    "resource": {
      "resourceType": "Patient",
      "id": "959743cc-af58-48ff-afa3-68428e69f0f5",
      "meta": {
        "profile": [ "http://hl7.org/fhir/us/qicore/StructureDefinition/qicore-patient" ]
      },
      "extension": [ {
        "url": "http://hl7.org/fhir/us/core/StructureDefinition/us-core-race",
        "extension": [ {
          "url": "ombCategory",
          "valueCoding": {
            "system": "urn:oid:2.16.840.1.113883.6.238",
            "code": "2054-5",
            "display": "Black or African American"
          }
        }, {
          "url": "text",
          "valueString": "Black or African American"
        } ]
      }, {
        "url": "http://hl7.org/fhir/us/core/StructureDefinition/us-core-ethnicity",
        "extension": [ {
          "url": "ombCategory",
          "valueCoding": {
            "system": "urn:oid:2.16.840.1.113883.6.238",
            "code": "2186-5",
            "display": "Not Hispanic or Latino"
          }
        }, {
          "url": "text",
          "valueString": "Not Hispanic or Latino"
        } ]
      } ],
      "identifier": [ {
        "type": {
          "coding": [ {
            "system": "http://terminology.hl7.org/CodeSystem/v2-0203",
            "code": "MR"
          } ]
        },
        "system": "https://bonnie-fhir.healthit.gov/",
        "value": "4616351646135312"
      } ],
      "name": [ {
        "family": "NUMERFail",
        "given": [ "DexaDoNotPerformTrue" ]
      } ],
      "gender": "male",
      "birthDate": "1954-06-15"
    }
  }, {
    "fullUrl": "https://madie.cms.gov/Encounter/32356a7a-a05b-410a-9882-de53f84cf0e8",
    "resource": {
      "resourceType": "Encounter",
      "id": "32356a7a-a05b-410a-9882-de53f84cf0e8",
      "meta": {
        "profile": [ "http://hl7.org/fhir/us/qicore/StructureDefinition/qicore-encounter" ]
      },
      "status": "finished",
      "class": {
        "system": "http://terminology.hl7.org/CodeSystem/v3-ActCode",
        "code": "AMB",
        "display": "ambulatory"
      },
      "type": [ {
        "coding": [ {
          "system": "http://snomed.info/sct",
          "version": "http://snomed.info/sct/731000124108/version/20240301",
          "code": "185463005",
          "display": "Visit out of hours (procedure)"
        } ]
      } ],
      "subject": {
        "reference": "Patient/959743cc-af58-48ff-afa3-68428e69f0f5"
      },
      "period": {
        "start": "2026-02-04T08:00:00.000Z",
        "end": "2026-02-04T08:15:00.000Z"
      }
    }
  }, {
    "fullUrl": "https://madie.cms.gov/Condition/d5bc0d87-5dc1-46ef-bda7-b5fdb5443252",
    "resource": {
      "resourceType": "Condition",
      "id": "d5bc0d87-5dc1-46ef-bda7-b5fdb5443252",
      "meta": {
        "profile": [ "http://hl7.org/fhir/us/qicore/StructureDefinition/qicore-condition-problems-health-concerns" ]
      },
      "clinicalStatus": {
        "coding": [ {
          "system": "http://terminology.hl7.org/CodeSystem/condition-clinical",
          "code": "active",
          "display": "Active"
        } ]
      },
      "verificationStatus": {
        "coding": [ {
          "system": "http://terminology.hl7.org/CodeSystem/condition-ver-status",
          "code": "confirmed"
        } ]
      },
      "category": [ {
        "coding": [ {
          "system": "http://terminology.hl7.org/CodeSystem/condition-category",
          "code": "problem-list-item",
          "display": "Problem List Item"
        } ]
      } ],
      "code": {
        "coding": [ {
          "system": "http://snomed.info/sct",
          "version": "http://snomed.info/sct/731000124108/version/20250301",
          "code": "254900004",
          "display": "Carcinoma of prostate (disorder)"
        } ]
      },
      "subject": {
        "reference": "Patient/959743cc-af58-48ff-afa3-68428e69f0f5"
      },
      "onsetPeriod": {
        "start": "2025-10-04T08:00:00.000Z"
      }
    }
  }, {
    "fullUrl": "https://madie.cms.gov/ServiceRequest/0beb5e33-2316-4de7-90f3-fd7975c0b927",
    "resource": {
      "resourceType": "ServiceRequest",
      "id": "0beb5e33-2316-4de7-90f3-fd7975c0b927",
      "meta": {
        "profile": [ "http://hl7.org/fhir/us/qicore/StructureDefinition/qicore-servicerequest" ]
      },
      "status": "revoked",
      "intent": "order",
      "doNotPerform": false,
      "code": {
        "coding": [ {
          "system": "http://loinc.org",
          "version": "2.76",
          "code": "38265-5",
          "display": "DXA Radius and Ulna [T-score] Bone density"
        } ]
      },
      "subject": {
        "reference": "Patient/959743cc-af58-48ff-afa3-68428e69f0f5"
      },
      "authoredOn": "2025-05-04T10:00:00.000Z"
    }
  }, {
    "fullUrl": "https://madie.cms.gov/Practitioner/5369eafe-b845-4879-9e73-c10a5c9361e7",
    "resource": {
      "resourceType": "Practitioner",
      "id": "5369eafe-b845-4879-9e73-c10a5c9361e7",
      "meta": {
        "profile": [ "http://hl7.org/fhir/us/qicore/StructureDefinition/qicore-practitioner" ]
      },
      "identifier": [ {
        "use": "temp",
        "system": "urn:oid:2.16.840.1.113883.4.336",
        "value": "Practitioner-23"
      } ],
      "active": true,
      "name": [ {
        "family": "Careful",
        "given": [ "Adam" ],
        "prefix": [ "Dr" ]
      } ],
      "address": [ {
        "use": "home",
        "line": [ "534 Erewhon St" ],
        "city": "PleasantVille",
        "state": "UT",
        "postalCode": "84414"
      } ],
      "qualification": [ {
        "identifier": [ {
          "system": "http://example.org/UniversityIdentifier",
          "value": "12345"
        } ],
        "code": {
          "coding": [ {
            "system": "http://terminology.hl7.org/CodeSystem/v2-0360|2.7",
            "code": "BS",
            "display": "Bachelor of Science"
          } ],
          "text": "Bachelor of Science"
        },
        "period": {
          "start": "1996"
        },
        "issuer": {
          "display": "Example University"
        }
      } ]
    }
  }, {
    "fullUrl": "https://madie.cms.gov/MedicationRequest/0c9b8f5a-7d7f-41a9-8942-6c1ac919550e",
    "resource": {
      "resourceType": "MedicationRequest",
      "id": "0c9b8f5a-7d7f-41a9-8942-6c1ac919550e",
      "meta": {
        "profile": [ "http://hl7.org/fhir/us/qicore/StructureDefinition/qicore-medicationrequest" ]
      },
      "status": "active",
      "intent": "order",
      "medicationCodeableConcept": {
        "coding": [ {
          "system": "http://www.nlm.nih.gov/research/umls/rxnorm",
          "version": "06052023",
          "code": "1115257",
          "display": "1.5 ML leuprolide acetate 30 MG/ML Prefilled Syringe"
        } ]
      },
      "subject": {
        "reference": "Patient/959743cc-af58-48ff-afa3-68428e69f0f5"
      },
      "authoredOn": "2025-12-03T08:00:00.000Z",
      "requester": {
        "reference": "http://myGoodHealthcare.com/fhir/Practitioner/5369eafe-b845-4879-9e73-c10a5c9361e7"
      },
      "dosageInstruction": [ {
        "timing": {
          "repeat": {
            "boundsPeriod": {
              "start": "2025-12-03T08:00:00.000Z",
              "end": "2026-03-04T08:00:00.000Z"
            }
          }
        }
      } ]
    }
  }, {
    "fullUrl": "https://madie.cms.gov/ServiceRequest/4fb08848-9236-416a-aff4-7a42a4a1f30c",
    "resource": {
      "resourceType": "ServiceRequest",
      "id": "4fb08848-9236-416a-aff4-7a42a4a1f30c",
      "meta": {
        "profile": [ "http://hl7.org/fhir/us/qicore/StructureDefinition/qicore-servicerequest" ]
      },
      "status": "active",
      "intent": "order",
      "code": {
        "coding": [ {
          "system": "http://snomed.info/sct",
          "version": "http://snomed.info/sct/731000124108/version/20250301",
          "code": "456381000124102",
          "display": "Injection of leuprolide acetate for twelve month period (regime/therapy)"
        } ]
      },
      "subject": {
        "reference": "Patient/959743cc-af58-48ff-afa3-68428e69f0f5"
      },
      "authoredOn": "2025-12-04T08:00:00.000Z"
    }
  }, {
    "fullUrl": "https://madie.cms.gov/MeasureReport/a73136e7-01bd-4fc1-bf9d-c1b0067a0feb",
    "resource": {
      "resourceType": "MeasureReport",
      "id": "a73136e7-01bd-4fc1-bf9d-c1b0067a0feb",
      "meta": {
        "profile": [ "http://hl7.org/fhir/us/cqfmeasures/StructureDefinition/test-case-cqfm" ]
      },
      "contained": [ {
        "resourceType": "Parameters",
        "id": "18785936-e953-4450-bed4-20a7de74879e-parameters",
        "parameter": [ {
          "name": "subject",
          "valueString": "959743cc-af58-48ff-afa3-68428e69f0f5"
        } ]
      } ],
      "extension": [ {
        "url": "http://hl7.org/fhir/StructureDefinition/cqf-inputParameters",
        "valueReference": {
          "reference": "#18785936-e953-4450-bed4-20a7de74879e-parameters"
        }
      }, {
        "url": "http://hl7.org/fhir/us/cqfmeasures/StructureDefinition/cqfm-testCaseDescription",
        "valueMarkdown": "Case to cover QI-Core issue with status revoked for DEXA Service Request"
      } ],
      "modifierExtension": [ {
        "url": "http://hl7.org/fhir/us/cqfmeasures/StructureDefinition/cqfm-isTestCase",
        "valueBoolean": true
      } ],
      "status": "complete",
      "type": "individual",
      "measure": "https://madie.cms.gov/Measure/CMS645FHIRBoneDensityPCADTherapy",
      "period": {
        "start": "2026-01-01",
        "end": "2026-12-31"
      },
      "group": [ {
        "id": "Group_1",
        "population": [ {
          "id": "InitialPopulation_1",
          "code": {
            "coding": [ {
              "system": "http://terminology.hl7.org/CodeSystem/measure-population",
              "code": "initial-population",
              "display": "Initial Population"
            } ]
          },
          "count": 1
        }, {
          "id": "Denominator_1",
          "code": {
            "coding": [ {
              "system": "http://terminology.hl7.org/CodeSystem/measure-population",
              "code": "denominator",
              "display": "Denominator"
            } ]
          },
          "count": 1
        }, {
          "id": "Numerator_1",
          "code": {
            "coding": [ {
              "system": "http://terminology.hl7.org/CodeSystem/measure-population",
              "code": "numerator",
              "display": "Numerator"
            } ]
          },
          "count": 0
        }, {
          "id": "DenominatorException_1",
          "code": {
            "coding": [ {
              "system": "http://terminology.hl7.org/CodeSystem/measure-population",
              "code": "denominator-exception",
              "display": "Denominator Exception"
            } ]
          },
          "count": 0
        } ],
        "measureScore": {
          "value": 1.0
        }
      } ],
      "evaluatedResource": [ {
        "reference": "Patient/959743cc-af58-48ff-afa3-68428e69f0f5"
      }, {
        "reference": "Encounter/32356a7a-a05b-410a-9882-de53f84cf0e8"
      }, {
        "reference": "Condition/d5bc0d87-5dc1-46ef-bda7-b5fdb5443252"
      }, {
        "reference": "ServiceRequest/0beb5e33-2316-4de7-90f3-fd7975c0b927"
      }, {
        "reference": "Practitioner/5369eafe-b845-4879-9e73-c10a5c9361e7"
      }, {
        "reference": "MedicationRequest/0c9b8f5a-7d7f-41a9-8942-6c1ac919550e"
      }, {
        "reference": "ServiceRequest/4fb08848-9236-416a-aff4-7a42a4a1f30c"
      } ]
    }
  } ]
}