{
  "resourceType": "Bundle",
  "id": "633b3f9f0968f80122503cdb",
  "type": "transaction",
  "entry": [ {
    "fullUrl": "https://madie.cms.gov/Patient/50cce45f-635d-4fcd-9a4b-3b1010714b84",
    "resource": {
      "resourceType": "Patient",
      "id": "50cce45f-635d-4fcd-9a4b-3b1010714b84",
      "meta": {
        "profile": [ "http://hl7.org/fhir/us/qicore/StructureDefinition/qicore-patient" ]
      },
      "text": {
        "status": "generated",
        "div": "<div xmlns=\"http://www.w3.org/1999/xhtml\"><div class=\"hapiHeaderText\">HystWithIncretaReasonCode<b>NUMEXPass</b></div><table class=\"hapiPropertyTable\"><tbody><tr><td>Date of birth</td><td><span>01 February 2004</span></td></tr></tbody></table></div>"
      },
      "extension": [ {
        "url": "http://hl7.org/fhir/us/core/StructureDefinition/us-core-race",
        "extension": [ {
          "url": "ombCategory",
          "valueCoding": {
            "system": "urn:oid:2.16.840.1.113883.6.238",
            "code": "1002-5",
            "display": "American Indian or Alaska Native",
            "userSelected": true
          }
        }, {
          "url": "text",
          "valueString": "American Indian or Alaska Native"
        } ]
      }, {
        "url": "http://hl7.org/fhir/us/core/StructureDefinition/us-core-ethnicity",
        "extension": [ {
          "url": "ombCategory",
          "valueCoding": {
            "system": "urn:oid:2.16.840.1.113883.6.238",
            "code": "2135-2",
            "display": "Hispanic or Latino",
            "userSelected": true
          }
        }, {
          "url": "text",
          "valueString": "Hispanic or Latino"
        } ]
      } ],
      "identifier": [ {
        "type": {
          "coding": [ {
            "system": "http://terminology.hl7.org/CodeSystem/v2-0203",
            "code": "MR"
          } ]
        },
        "system": "https://bonnie-fhir.healthit.gov/",
        "value": "633b3f9f0968f80122503cdb"
      } ],
      "active": true,
      "name": [ {
        "use": "usual",
        "family": "NUMEXPass",
        "given": [ "HystWithIncretaReasonCode" ]
      } ],
      "gender": "female",
      "birthDate": "2005-02-01"
    },
    "request": {
      "method": "PUT",
      "url": "Patient/50cce45f-635d-4fcd-9a4b-3b1010714b84"
    }
  }, {
    "fullUrl": "https://madie.cms.gov/Observation/79131ee1-8c95-432c-8cab-386b76943b43",
    "resource": {
      "resourceType": "Observation",
      "id": "79131ee1-8c95-432c-8cab-386b76943b43",
      "meta": {
        "profile": [ "http://hl7.org/fhir/us/qicore/StructureDefinition/qicore-simple-observation" ]
      },
      "status": "final",
      "category": [ {
        "coding": [ {
          "system": "http://terminology.hl7.org/CodeSystem/observation-category",
          "code": "exam",
          "display": "exam",
          "userSelected": true
        } ]
      } ],
      "code": {
        "coding": [ {
          "system": "http://loinc.org",
          "code": "93857-1"
        } ]
      },
      "subject": {
        "reference": "Patient/50cce45f-635d-4fcd-9a4b-3b1010714b84"
      },
      "effectiveDateTime": "2026-02-01T08:00:00.000+00:00",
      "performer": [ {
        "reference": "Organization/example1",
        "display": "Hendricks Country Hospital"
      } ],
      "valueDateTime": "2026-02-01T08:00:00.000+00:00"
    },
    "request": {
      "method": "PUT",
      "url": "Observation/79131ee1-8c95-432c-8cab-386b76943b43"
    }
  }, {
    "fullUrl": "https://madie.cms.gov/Observation/f464e1f0-39aa-4b03-8038-c92605dadfb4",
    "resource": {
      "resourceType": "Observation",
      "id": "f464e1f0-39aa-4b03-8038-c92605dadfb4",
      "meta": {
        "profile": [ "http://hl7.org/fhir/us/qicore/StructureDefinition/qicore-simple-observation" ]
      },
      "status": "final",
      "category": [ {
        "coding": [ {
          "system": "http://terminology.hl7.org/CodeSystem/observation-category",
          "code": "exam",
          "display": "exam",
          "userSelected": true
        } ]
      } ],
      "code": {
        "coding": [ {
          "system": "http://loinc.org",
          "code": "11884-4"
        } ]
      },
      "subject": {
        "reference": "Patient/50cce45f-635d-4fcd-9a4b-3b1010714b84"
      },
      "effectiveDateTime": "2026-02-01T08:00:00.000+00:00",
      "performer": [ {
        "reference": "Organization/example1",
        "display": "Hendricks Country Hospital"
      } ],
      "valueQuantity": {
        "value": 20,
        "system": "http://unitsofmeasure.org",
        "code": "wk"
      }
    },
    "request": {
      "method": "PUT",
      "url": "Observation/f464e1f0-39aa-4b03-8038-c92605dadfb4"
    }
  }, {
    "fullUrl": "https://madie.cms.gov/Encounter/988c1eb2-e917-4fa0-9fb2-7da198c61783",
    "resource": {
      "resourceType": "Encounter",
      "id": "988c1eb2-e917-4fa0-9fb2-7da198c61783",
      "meta": {
        "profile": [ "http://hl7.org/fhir/us/qicore/StructureDefinition/qicore-encounter" ]
      },
      "status": "finished",
      "class": {
        "system": "http://terminology.hl7.org/CodeSystem/v3-ActCode",
        "code": "IMP",
        "display": "inpatient encounter"
      },
      "type": [ {
        "coding": [ {
          "system": "http://snomed.info/sct",
          "code": "183452005"
        } ]
      } ],
      "subject": {
        "reference": "Patient/50cce45f-635d-4fcd-9a4b-3b1010714b84"
      },
      "period": {
        "start": "2026-02-01T08:00:00.000+00:00",
        "end": "2026-02-05T08:15:00.000+00:00"
      },
      "reasonCode": [ {
        "coding": [ {
          "system": "http://hl7.org/fhir/sid/icd-10-cm",
          "code": "O43.229",
          "display": "Placenta increta, unspecified trimester"
        } ]
      } ],
      "reasonReference": [ {
        "reference": "Condition/1c12a402-d3af-42bb-9b42-c3da61342d75"
      } ]
    },
    "request": {
      "method": "PUT",
      "url": "Encounter/988c1eb2-e917-4fa0-9fb2-7da198c61783"
    }
  }, {
    "fullUrl": "https://madie.cms.gov/Claim/ed122e11-72de-4e72-bdb3-9eb54ea1c1c5",
    "resource": {
      "resourceType": "Claim",
      "id": "ed122e11-72de-4e72-bdb3-9eb54ea1c1c5",
      "meta": {
        "profile": [ "http://hl7.org/fhir/us/qicore/StructureDefinition/qicore-claim" ]
      },
      "status": "active",
      "type": {
        "coding": [ {
          "system": "http://terminology.hl7.org/CodeSystem/claim-type",
          "code": "institutional",
          "display": "Institutional"
        } ]
      },
      "use": "claim",
      "patient": {
        "reference": "Patient/50cce45f-635d-4fcd-9a4b-3b1010714b84"
      },
      "created": "2026-11-08",
      "provider": {
        "reference": "Practitioner/d239c7e6-0245-4c82-966f-383d8dccc556"
      },
      "priority": {
        "coding": [ {
          "system": "http://terminology.hl7.org/CodeSystem/processpriority",
          "code": "normal"
        } ]
      },
      "diagnosis": [ {
        "sequence": 1,
        "diagnosisCodeableConcept": {
          "coding": [ {
            "system": "http://hl7.org/fhir/sid/icd-10-cm",
            "code": "O43.229",
            "display": "Placenta increta, unspecified trimester"
          } ]
        },
        "type": [ {
          "coding": [ {
            "system": "http://terminology.hl7.org/CodeSystem/ex-diagnosistype",
            "code": "discharge",
            "display": "Discharge Diagnosis"
          } ]
        } ],
        "onAdmission": {
          "coding": [ {
            "system": "https://www.cms.gov/Medicare/Medicare-Fee-for-Service-Payment/HospitalAcqCond/Coding",
            "code": "Y"
          } ]
        }
      } ],
      "insurance": [ {
        "sequence": 1,
        "focal": true,
        "coverage": {
          "reference": "Coverage/Coverage-1"
        }
      } ],
      "item": [ {
        "sequence": 1,
        "careTeamSequence": [ 1 ],
        "diagnosisSequence": [ 1 ],
        "productOrService": {
          "coding": [ {
            "system": "http://www.ama-assn.org/go/cpt",
            "code": "99232"
          } ]
        },
        "encounter": [ {
          "reference": "Encounter/988c1eb2-e917-4fa0-9fb2-7da198c61783"
        } ]
      }, {
        "sequence": 2,
        "careTeamSequence": [ 1 ],
        "diagnosisSequence": [ 2 ],
        "productOrService": {
          "coding": [ {
            "system": "http://www.ama-assn.org/go/cpt",
            "code": "99233"
          } ]
        },
        "encounter": [ {
          "reference": "Encounter/988c1eb2-e917-4fa0-9fb2-7da198c61783"
        } ]
      } ],
      "total": {
        "value": 3800,
        "currency": "USD"
      }
    },
    "request": {
      "method": "PUT",
      "url": "Claim/ed122e11-72de-4e72-bdb3-9eb54ea1c1c5"
    }
  }, {
    "fullUrl": "https://madie.cms.gov/Condition/1c12a402-d3af-42bb-9b42-c3da61342d75",
    "resource": {
      "resourceType": "Condition",
      "id": "1c12a402-d3af-42bb-9b42-c3da61342d75",
      "meta": {
        "profile": [ "http://hl7.org/fhir/us/qicore/StructureDefinition/qicore-condition-encounter-diagnosis" ]
      },
      "category": [ {
        "coding": [ {
          "system": "http://terminology.hl7.org/CodeSystem/condition-category",
          "code": "encounter-diagnosis",
          "display": "Encounter Diagnosis"
        } ]
      } ],
      "code": {
        "coding": [ {
          "system": "http://hl7.org/fhir/sid/icd-10-cm",
          "version": "2023",
          "code": "Z3A.20",
          "display": "20 weeks gestation",
          "userSelected": true
        } ]
      },
      "subject": {
        "reference": "Patient/50cce45f-635d-4fcd-9a4b-3b1010714b84"
      },
      "recordedDate": "2026-10-26T08:00:00.000+00:00"
    },
    "request": {
      "method": "PUT",
      "url": "Condition/1c12a402-d3af-42bb-9b42-c3da61342d75"
    }
  }, {
    "fullUrl": "https://madie.cms.gov/Coverage/ee17db29-11af-478f-8c20-ad067f5495fe",
    "resource": {
      "resourceType": "Coverage",
      "id": "ee17db29-11af-478f-8c20-ad067f5495fe",
      "status": "active",
      "subscriberId": "523435",
      "beneficiary": {
        "reference": "Patient/50cce45f-635d-4fcd-9a4b-3b1010714b84"
      },
      "relationship": {
        "coding": [ {
          "system": "http://terminology.hl7.org/CodeSystem/subscriber-relationship",
          "code": "self"
        } ]
      },
      "period": {
        "start": "2005-02-01T08:00:00.000+00:00"
      },
      "payor": [ {
        "reference": "Organization/997b1c57-f5b2-4f4e-9469-30fcdf80dc1f"
      } ]
    },
    "request": {
      "method": "PUT",
      "url": "Coverage/ee17db29-11af-478f-8c20-ad067f5495fe"
    }
  }, {
    "fullUrl": "https://madie.cms.gov/Procedure/783ad9c2-6693-43f3-bde2-697a4aae7511",
    "resource": {
      "resourceType": "Procedure",
      "id": "783ad9c2-6693-43f3-bde2-697a4aae7511",
      "meta": {
        "profile": [ "http://hl7.org/fhir/us/qicore/StructureDefinition/qicore-procedure" ]
      },
      "extension": [ {
        "url": "http://hl7.org/fhir/us/qicore/StructureDefinition/qicore-recorded",
        "valueDateTime": "2014-04-05T13:35:00.000+00:00"
      } ],
      "status": "completed",
      "code": {
        "coding": [ {
          "system": "http://snomed.info/sct",
          "code": "10745001"
        } ]
      },
      "subject": {
        "reference": "Patient/50cce45f-635d-4fcd-9a4b-3b1010714b84"
      },
      "performedPeriod": {
        "start": "2026-02-01T08:00:00.000+00:00",
        "end": "2026-02-01T08:00:00.000+00:00"
      }
    },
    "request": {
      "method": "PUT",
      "url": "Procedure/783ad9c2-6693-43f3-bde2-697a4aae7511"
    }
  }, {
    "fullUrl": "https://madie.cms.gov/Procedure/cfa05a34-a8ca-4f87-a77d-9bee95197689",
    "resource": {
      "resourceType": "Procedure",
      "id": "cfa05a34-a8ca-4f87-a77d-9bee95197689",
      "meta": {
        "profile": [ "http://hl7.org/fhir/us/qicore/StructureDefinition/qicore-procedure" ]
      },
      "extension": [ {
        "url": "http://hl7.org/fhir/us/qicore/StructureDefinition/qicore-recorded",
        "valueDateTime": "2026-02-01T04:01:00.000+00:00"
      } ],
      "status": "completed",
      "code": {
        "coding": [ {
          "system": "http://snomed.info/sct",
          "code": "11050006"
        } ]
      },
      "subject": {
        "reference": "Patient/50cce45f-635d-4fcd-9a4b-3b1010714b84"
      },
      "performedPeriod": {
        "start": "2026-02-04T00:00:00.000+00:00",
        "end": "2026-02-04T11:59:00.000+00:00"
      }
    },
    "request": {
      "method": "PUT",
      "url": "Procedure/cfa05a34-a8ca-4f87-a77d-9bee95197689"
    }
  }, {
    "fullUrl": "https://madie.cms.gov/Organization/997b1c57-f5b2-4f4e-9469-30fcdf80dc1f",
    "resource": {
      "resourceType": "Organization",
      "id": "997b1c57-f5b2-4f4e-9469-30fcdf80dc1f",
      "meta": {
        "profile": [ "http://hl7.org/fhir/us/qicore/StructureDefinition/qicore-organization" ]
      },
      "identifier": [ {
        "use": "temp",
        "system": "urn:oid:2.16.840.1.113883.4.4",
        "value": "21-3259825"
      } ],
      "active": true,
      "type": [ {
        "coding": [ {
          "system": "http://terminology.hl7.org/CodeSystem/organization-type",
          "code": "pay",
          "display": "Payer"
        } ]
      } ],
      "name": "Blue Cross Blue Shield of Texas",
      "telecom": [ {
        "system": "phone",
        "value": "(+1) 972-766-6900"
      } ],
      "address": [ {
        "use": "billing",
        "type": "postal",
        "line": [ "P.O. Box 660044" ],
        "city": "Dallas",
        "state": "TX",
        "postalCode": "75266-0044",
        "country": "USA"
      } ]
    },
    "request": {
      "method": "PUT",
      "url": "Organization/997b1c57-f5b2-4f4e-9469-30fcdf80dc1f"
    }
  }, {
    "fullUrl": "https://madie.cms.gov/Practitioner/d239c7e6-0245-4c82-966f-383d8dccc556",
    "resource": {
      "resourceType": "Practitioner",
      "id": "d239c7e6-0245-4c82-966f-383d8dccc556",
      "meta": {
        "profile": [ "http://hl7.org/fhir/us/qicore/StructureDefinition/qicore-practitioner" ]
      },
      "identifier": [ {
        "system": "http://hl7.org/fhir/sid/us-npi",
        "value": "9999999896"
      } ],
      "name": [ {
        "family": "Evil",
        "prefix": [ "Dr" ]
      } ]
    },
    "request": {
      "method": "PUT",
      "url": "Practitioner/d239c7e6-0245-4c82-966f-383d8dccc556"
    }
  }, {
    "fullUrl": "https://madie.cms.gov/MeasureReport/e188835b-2000-48cd-b0fb-34b772cbad02",
    "resource": {
      "resourceType": "MeasureReport",
      "id": "e188835b-2000-48cd-b0fb-34b772cbad02",
      "meta": {
        "profile": [ "http://hl7.org/fhir/us/cqfmeasures/StructureDefinition/test-case-cqfm" ]
      },
      "contained": [ {
        "resourceType": "Parameters",
        "id": "6ac9b8af-e8b2-485f-a788-377738b2df23-parameters",
        "parameter": [ {
          "name": "subject",
          "valueString": "50cce45f-635d-4fcd-9a4b-3b1010714b84"
        } ]
      } ],
      "extension": [ {
        "url": "http://hl7.org/fhir/StructureDefinition/cqf-inputParameters",
        "valueReference": {
          "reference": "#6ac9b8af-e8b2-485f-a788-377738b2df23-parameters"
        }
      }, {
        "url": "http://hl7.org/fhir/us/cqfmeasures/StructureDefinition/cqfm-testCaseDescription",
        "valueMarkdown": "Hysterectomy with Placenta Increta (reasonCode) and no other SOC."
      } ],
      "modifierExtension": [ {
        "url": "http://hl7.org/fhir/us/cqfmeasures/StructureDefinition/cqfm-isTestCase",
        "valueBoolean": true
      } ],
      "status": "complete",
      "type": "individual",
      "measure": "https://madie.cms.gov/Measure/CMS1028FHIRPCSevereOBComps",
      "period": {
        "start": "2026-01-01",
        "end": "2026-12-31"
      },
      "group": [ {
        "id": "Group_1",
        "population": [ {
          "id": "InitialPopulation_1",
          "code": {
            "coding": [ {
              "system": "http://terminology.hl7.org/CodeSystem/measure-population",
              "code": "initial-population",
              "display": "Initial Population"
            } ]
          },
          "count": 1
        }, {
          "id": "Denominator_1",
          "code": {
            "coding": [ {
              "system": "http://terminology.hl7.org/CodeSystem/measure-population",
              "code": "denominator",
              "display": "Denominator"
            } ]
          },
          "count": 1
        }, {
          "id": "Numerator_1",
          "code": {
            "coding": [ {
              "system": "http://terminology.hl7.org/CodeSystem/measure-population",
              "code": "numerator",
              "display": "Numerator"
            } ]
          },
          "count": 1
        }, {
          "id": "NumeratorExclusion_1",
          "code": {
            "coding": [ {
              "system": "http://terminology.hl7.org/CodeSystem/measure-population",
              "code": "numerator-exclusion",
              "display": "Numerator Exclusion"
            } ]
          },
          "count": 1
        } ],
        "measureScore": {
          "value": 0.0
        }
      }, {
        "id": "Group_2",
        "population": [ {
          "id": "InitialPopulation_2",
          "code": {
            "coding": [ {
              "system": "http://terminology.hl7.org/CodeSystem/measure-population",
              "code": "initial-population",
              "display": "Initial Population"
            } ]
          },
          "count": 1
        }, {
          "id": "Denominator_2",
          "code": {
            "coding": [ {
              "system": "http://terminology.hl7.org/CodeSystem/measure-population",
              "code": "denominator",
              "display": "Denominator"
            } ]
          },
          "count": 1
        }, {
          "id": "Numerator_2",
          "code": {
            "coding": [ {
              "system": "http://terminology.hl7.org/CodeSystem/measure-population",
              "code": "numerator",
              "display": "Numerator"
            } ]
          },
          "count": 1
        }, {
          "id": "NumeratorExclusion_2",
          "code": {
            "coding": [ {
              "system": "http://terminology.hl7.org/CodeSystem/measure-population",
              "code": "numerator-exclusion",
              "display": "Numerator Exclusion"
            } ]
          },
          "count": 1
        } ],
        "measureScore": {
          "value": 0.0
        }
      } ],
      "evaluatedResource": [ {
        "reference": "Patient/50cce45f-635d-4fcd-9a4b-3b1010714b84"
      }, {
        "reference": "Observation/79131ee1-8c95-432c-8cab-386b76943b43"
      }, {
        "reference": "Observation/f464e1f0-39aa-4b03-8038-c92605dadfb4"
      }, {
        "reference": "Encounter/988c1eb2-e917-4fa0-9fb2-7da198c61783"
      }, {
        "reference": "Claim/ed122e11-72de-4e72-bdb3-9eb54ea1c1c5"
      }, {
        "reference": "Condition/1c12a402-d3af-42bb-9b42-c3da61342d75"
      }, {
        "reference": "Coverage/ee17db29-11af-478f-8c20-ad067f5495fe"
      }, {
        "reference": "Procedure/783ad9c2-6693-43f3-bde2-697a4aae7511"
      }, {
        "reference": "Procedure/cfa05a34-a8ca-4f87-a77d-9bee95197689"
      }, {
        "reference": "Organization/997b1c57-f5b2-4f4e-9469-30fcdf80dc1f"
      }, {
        "reference": "Practitioner/d239c7e6-0245-4c82-966f-383d8dccc556"
      } ]
    },
    "request": {
      "method": "PUT",
      "url": "MeasureReport/e188835b-2000-48cd-b0fb-34b772cbad02"
    }
  } ]
}