{
  "resourceType": "Bundle",
  "id": "DENEXFail-PalliativeCareObsOnDec31B4Interval",
  "type": "transaction",
  "entry": [ {
    "fullUrl": "https://madie.cms.gov/Patient/d3b4f0ab-d8d1-4c4c-8763-7a8276e0c3ca",
    "resource": {
      "resourceType": "Patient",
      "id": "d3b4f0ab-d8d1-4c4c-8763-7a8276e0c3ca",
      "meta": {
        "profile": [ "http://hl7.org/fhir/us/qicore/StructureDefinition/qicore-patient" ]
      },
      "extension": [ {
        "url": "http://hl7.org/fhir/us/core/StructureDefinition/us-core-race",
        "extension": [ {
          "url": "ombCategory",
          "valueCoding": {
            "system": "urn:oid:2.16.840.1.113883.6.238",
            "code": "2028-9",
            "display": "Asian"
          }
        }, {
          "url": "text",
          "valueString": "Asian"
        } ]
      }, {
        "url": "http://hl7.org/fhir/us/core/StructureDefinition/us-core-ethnicity",
        "extension": [ {
          "url": "ombCategory",
          "valueCoding": {
            "system": "urn:oid:2.16.840.1.113883.6.238",
            "code": "2135-2",
            "display": "Hispanic or Latino"
          }
        }, {
          "url": "text",
          "valueString": "Hispanic or Latino"
        } ]
      } ],
      "identifier": [ {
        "system": "http://hospital.smarthealthit.org",
        "value": "999999995"
      } ],
      "name": [ {
        "family": "Bertha",
        "given": [ "Betty" ]
      } ],
      "gender": "female",
      "birthDate": "2007-12-31"
    },
    "request": {
      "method": "PUT",
      "url": "Patient/d3b4f0ab-d8d1-4c4c-8763-7a8276e0c3ca"
    }
  }, {
    "fullUrl": "https://madie.cms.gov/Encounter/ef4c0686-afb4-4f2d-8220-18d96dfb1986",
    "resource": {
      "resourceType": "Encounter",
      "id": "ef4c0686-afb4-4f2d-8220-18d96dfb1986",
      "meta": {
        "profile": [ "http://hl7.org/fhir/us/qicore/StructureDefinition/qicore-encounter" ]
      },
      "status": "finished",
      "class": {
        "system": "http://terminology.hl7.org/CodeSystem/v3-ActCode",
        "code": "AMB",
        "display": "ambulatory"
      },
      "type": [ {
        "coding": [ {
          "system": "http://snomed.info/sct",
          "code": "185463005",
          "display": "Visit out of hours (procedure)"
        } ]
      } ],
      "subject": {
        "reference": "Patient/d3b4f0ab-d8d1-4c4c-8763-7a8276e0c3ca"
      },
      "period": {
        "start": "2026-01-01T00:00:00.000+00:00",
        "end": "2026-01-01T00:00:00.000+00:00"
      }
    },
    "request": {
      "method": "PUT",
      "url": "Encounter/ef4c0686-afb4-4f2d-8220-18d96dfb1986"
    }
  }, {
    "fullUrl": "https://madie.cms.gov/Condition/b0b41a19-bd90-43f1-bfa4-92fc1a92e452",
    "resource": {
      "resourceType": "Condition",
      "id": "b0b41a19-bd90-43f1-bfa4-92fc1a92e452",
      "meta": {
        "profile": [ "http://hl7.org/fhir/us/qicore/StructureDefinition/qicore-condition-encounter-diagnosis" ]
      },
      "clinicalStatus": {
        "coding": [ {
          "system": "http://terminology.hl7.org/CodeSystem/condition-clinical",
          "code": "active"
        } ]
      },
      "category": [ {
        "coding": [ {
          "system": "http://terminology.hl7.org/CodeSystem/condition-category",
          "code": "encounter-diagnosis",
          "display": "Encounter Diagnosis"
        } ]
      } ],
      "code": {
        "coding": [ {
          "system": "http://snomed.info/sct",
          "code": "102781000119107",
          "display": "Sensory neuropathy due to type 1 diabetes mellitus (disorder)"
        } ]
      },
      "subject": {
        "reference": "Patient/d3b4f0ab-d8d1-4c4c-8763-7a8276e0c3ca"
      },
      "onsetDateTime": "2026-01-01T00:00:00.000+00:00"
    },
    "request": {
      "method": "PUT",
      "url": "Condition/b0b41a19-bd90-43f1-bfa4-92fc1a92e452"
    }
  }, {
    "fullUrl": "https://madie.cms.gov/Observation/c0a7e7a3-5f81-413f-80e4-70ca358978b9",
    "resource": {
      "resourceType": "Observation",
      "id": "c0a7e7a3-5f81-413f-80e4-70ca358978b9",
      "meta": {
        "profile": [ "http://hl7.org/fhir/us/qicore/StructureDefinition/qicore-observation-screening-assessment" ]
      },
      "status": "final",
      "category": [ {
        "coding": [ {
          "system": "http://terminology.hl7.org/CodeSystem/observation-category",
          "code": "survey"
        } ]
      } ],
      "code": {
        "coding": [ {
          "system": "http://loinc.org",
          "code": "71007-9",
          "display": "Functional Assessment of Chronic Illness Therapy - Palliative Care Questionnaire (FACIT-Pal)"
        } ]
      },
      "subject": {
        "reference": "Patient/d3b4f0ab-d8d1-4c4c-8763-7a8276e0c3ca"
      },
      "effectivePeriod": {
        "start": "2023-12-31T23:59:59.000+00:00",
        "end": "2023-12-31T23:59:59.000+00:00"
      },
      "dataAbsentReason": {
        "extension": [ {
          "url": "http://hl7.org/fhir/StructureDefinition/data-absent-reason",
          "valueCode": "unknown"
        } ]
      }
    },
    "request": {
      "method": "PUT",
      "url": "Observation/c0a7e7a3-5f81-413f-80e4-70ca358978b9"
    }
  }, {
    "fullUrl": "https://madie.cms.gov/MeasureReport/ad3d99ac-3873-41e3-bab7-c55604885e90",
    "resource": {
      "resourceType": "MeasureReport",
      "id": "ad3d99ac-3873-41e3-bab7-c55604885e90",
      "meta": {
        "profile": [ "http://hl7.org/fhir/us/cqfmeasures/StructureDefinition/test-case-cqfm" ]
      },
      "contained": [ {
        "resourceType": "Parameters",
        "id": "31d44c3d-b2d9-49b1-87bd-2eae419d5f8d-parameters",
        "parameter": [ {
          "name": "subject",
          "valueString": "d3b4f0ab-d8d1-4c4c-8763-7a8276e0c3ca"
        } ]
      } ],
      "extension": [ {
        "url": "http://hl7.org/fhir/StructureDefinition/cqf-inputParameters",
        "valueReference": {
          "reference": "#31d44c3d-b2d9-49b1-87bd-2eae419d5f8d-parameters"
        }
      }, {
        "url": "http://hl7.org/fhir/us/cqfmeasures/StructureDefinition/cqfm-testCaseDescription",
        "valueMarkdown": "Patient 18yo w/ an Office Visit Encounter 1/1 of the MP, & Diabetes Condition ending 1/1 during the MP, & a Palliative Care Observation that starts on 12/31 before the observation interval."
      } ],
      "modifierExtension": [ {
        "url": "http://hl7.org/fhir/us/cqfmeasures/StructureDefinition/cqfm-isTestCase",
        "valueBoolean": true
      } ],
      "status": "complete",
      "type": "individual",
      "measure": "https://madie.cms.gov/Measure/CMS131FHIRDiabetesEyeExam",
      "period": {
        "start": "2026-01-01",
        "end": "2026-12-31"
      },
      "group": [ {
        "id": "Group_1",
        "population": [ {
          "id": "InitialPopulation_1",
          "code": {
            "coding": [ {
              "system": "http://terminology.hl7.org/CodeSystem/measure-population",
              "code": "initial-population",
              "display": "Initial Population"
            } ]
          },
          "count": 1
        }, {
          "id": "Denominator_1",
          "code": {
            "coding": [ {
              "system": "http://terminology.hl7.org/CodeSystem/measure-population",
              "code": "denominator",
              "display": "Denominator"
            } ]
          },
          "count": 1
        }, {
          "id": "DenominatorExclusion_1",
          "code": {
            "coding": [ {
              "system": "http://terminology.hl7.org/CodeSystem/measure-population",
              "code": "denominator-exclusion",
              "display": "Denominator Exclusion"
            } ]
          },
          "count": 0
        }, {
          "id": "Numerator_1",
          "code": {
            "coding": [ {
              "system": "http://terminology.hl7.org/CodeSystem/measure-population",
              "code": "numerator",
              "display": "Numerator"
            } ]
          },
          "count": 0
        } ],
        "measureScore": {
          "value": 1.0
        }
      } ],
      "evaluatedResource": [ {
        "reference": "Patient/d3b4f0ab-d8d1-4c4c-8763-7a8276e0c3ca"
      }, {
        "reference": "Encounter/ef4c0686-afb4-4f2d-8220-18d96dfb1986"
      }, {
        "reference": "Condition/b0b41a19-bd90-43f1-bfa4-92fc1a92e452"
      }, {
        "reference": "Observation/c0a7e7a3-5f81-413f-80e4-70ca358978b9"
      } ]
    },
    "request": {
      "method": "PUT",
      "url": "MeasureReport/ad3d99ac-3873-41e3-bab7-c55604885e90"
    }
  } ]
}