{
  "resourceType": "Bundle",
  "id": "63487c300968f801225401c6",
  "type": "transaction",
  "entry": [ {
    "fullUrl": "https://madie.cms.gov/Patient/b2cb7909-8a02-46ad-8bc9-4154902fee43",
    "resource": {
      "resourceType": "Patient",
      "id": "b2cb7909-8a02-46ad-8bc9-4154902fee43",
      "meta": {
        "profile": [ "http://hl7.org/fhir/us/qicore/StructureDefinition/qicore-patient" ]
      },
      "text": {
        "status": "generated",
        "div": "<div xmlns=\"http://www.w3.org/1999/xhtml\"><div class=\"hapiHeaderText\">AssessPLastResultIsNull <b>DENPASS </b></div><table class=\"hapiPropertyTable\"><tbody><tr><td>Identifier</td><td>cb4a87fae0aeb4667064306e289209af09ca2376f26fb181f5d5ea03cba5dc53</td></tr><tr><td>Date of birth</td><td><span>14 February 1985</span></td></tr></tbody></table></div>"
      },
      "extension": [ {
        "url": "http://hl7.org/fhir/us/core/StructureDefinition/us-core-race",
        "extension": [ {
          "url": "ombCategory",
          "valueCoding": {
            "system": "urn:oid:2.16.840.1.113883.6.238",
            "code": "1002-5",
            "display": "American Indian or Alaska Native",
            "userSelected": true
          }
        }, {
          "url": "text",
          "valueString": "American Indian or Alaska Native"
        } ]
      }, {
        "url": "http://hl7.org/fhir/us/core/StructureDefinition/us-core-ethnicity",
        "extension": [ {
          "url": "ombCategory",
          "valueCoding": {
            "system": "urn:oid:2.16.840.1.113883.6.238",
            "code": "2135-2",
            "display": "Hispanic or Latino",
            "userSelected": true
          }
        }, {
          "url": "text",
          "valueString": "Hispanic or Latino"
        } ]
      } ],
      "identifier": [ {
        "type": {
          "coding": [ {
            "system": "http://terminology.hl7.org/CodeSystem/v2-0203",
            "code": "MR"
          } ]
        },
        "system": "https://bonnie-fhir.healthit.gov/",
        "value": "63487c300968f801225401c6"
      } ],
      "active": true,
      "name": [ {
        "use": "usual",
        "family": "DENPass",
        "given": [ "AssessPLastResultIsNull" ]
      } ],
      "gender": "female",
      "birthDate": "1998-02-14"
    },
    "request": {
      "method": "PUT",
      "url": "Patient/b2cb7909-8a02-46ad-8bc9-4154902fee43"
    }
  }, {
    "fullUrl": "https://madie.cms.gov/Observation/382d9a3d-fd4a-4e33-a477-6b131cceb43e",
    "resource": {
      "resourceType": "Observation",
      "id": "382d9a3d-fd4a-4e33-a477-6b131cceb43e",
      "meta": {
        "profile": [ "http://hl7.org/fhir/us/qicore/StructureDefinition/qicore-simple-observation" ]
      },
      "status": "final",
      "category": [ {
        "coding": [ {
          "system": "http://terminology.hl7.org/CodeSystem/observation-category",
          "code": "exam",
          "display": "exam",
          "userSelected": true
        } ]
      } ],
      "code": {
        "coding": [ {
          "system": "http://loinc.org",
          "code": "11977-6"
        } ]
      },
      "subject": {
        "reference": "Patient/b2cb7909-8a02-46ad-8bc9-4154902fee43"
      },
      "effectiveDateTime": "2026-06-08T18:00:00.000+00:00",
      "valueInteger": 0
    },
    "request": {
      "method": "PUT",
      "url": "Observation/382d9a3d-fd4a-4e33-a477-6b131cceb43e"
    }
  }, {
    "fullUrl": "https://madie.cms.gov/Observation/9d70e3a3-4e89-4eb3-81f4-352c889593d3",
    "resource": {
      "resourceType": "Observation",
      "id": "9d70e3a3-4e89-4eb3-81f4-352c889593d3",
      "meta": {
        "profile": [ "http://hl7.org/fhir/us/qicore/StructureDefinition/qicore-simple-observation" ]
      },
      "status": "final",
      "category": [ {
        "coding": [ {
          "system": "http://terminology.hl7.org/CodeSystem/observation-category",
          "code": "exam",
          "display": "exam",
          "userSelected": true
        } ]
      } ],
      "code": {
        "coding": [ {
          "system": "http://loinc.org",
          "code": "11884-4"
        } ]
      },
      "subject": {
        "reference": "Patient/b2cb7909-8a02-46ad-8bc9-4154902fee43"
      },
      "effectiveDateTime": "2026-06-08T20:00:00.000+00:00",
      "valueQuantity": {
        "value": 37,
        "system": "http://unitsofmeasure.org",
        "code": "wk"
      }
    },
    "request": {
      "method": "PUT",
      "url": "Observation/9d70e3a3-4e89-4eb3-81f4-352c889593d3"
    }
  }, {
    "fullUrl": "https://madie.cms.gov/Observation/2da4efdb-b341-41f5-9ee9-7e6893856d7a",
    "resource": {
      "resourceType": "Observation",
      "id": "2da4efdb-b341-41f5-9ee9-7e6893856d7a",
      "meta": {
        "profile": [ "http://hl7.org/fhir/us/qicore/StructureDefinition/qicore-simple-observation" ]
      },
      "status": "final",
      "category": [ {
        "coding": [ {
          "system": "http://terminology.hl7.org/CodeSystem/observation-category",
          "code": "exam",
          "display": "exam",
          "userSelected": true
        } ]
      } ],
      "code": {
        "coding": [ {
          "system": "http://loinc.org",
          "code": "93857-1"
        } ]
      },
      "subject": {
        "reference": "Patient/b2cb7909-8a02-46ad-8bc9-4154902fee43"
      },
      "effectiveDateTime": "2026-06-08T20:00:00.000+00:00",
      "valueDateTime": "2026-06-08T20:00:00.000+00:00"
    },
    "request": {
      "method": "PUT",
      "url": "Observation/2da4efdb-b341-41f5-9ee9-7e6893856d7a"
    }
  }, {
    "fullUrl": "https://madie.cms.gov/Observation/23b481df-34a9-41ab-872a-88176472db24",
    "resource": {
      "resourceType": "Observation",
      "id": "23b481df-34a9-41ab-872a-88176472db24",
      "meta": {
        "profile": [ "http://hl7.org/fhir/us/qicore/StructureDefinition/qicore-simple-observation" ]
      },
      "status": "final",
      "category": [ {
        "coding": [ {
          "system": "http://terminology.hl7.org/CodeSystem/observation-category",
          "code": "exam",
          "display": "exam",
          "userSelected": true
        } ]
      } ],
      "code": {
        "coding": [ {
          "system": "http://loinc.org",
          "code": "11977-6"
        } ]
      },
      "subject": {
        "reference": "Patient/b2cb7909-8a02-46ad-8bc9-4154902fee43"
      },
      "effectiveDateTime": "2026-06-08T19:59:00.000+00:00"
    },
    "request": {
      "method": "PUT",
      "url": "Observation/23b481df-34a9-41ab-872a-88176472db24"
    }
  }, {
    "fullUrl": "https://madie.cms.gov/Observation/b63958b5-f21b-454a-87cd-ec4c29eac2e8",
    "resource": {
      "resourceType": "Observation",
      "id": "b63958b5-f21b-454a-87cd-ec4c29eac2e8",
      "meta": {
        "profile": [ "http://hl7.org/fhir/us/qicore/StructureDefinition/qicore-simple-observation" ]
      },
      "status": "final",
      "category": [ {
        "coding": [ {
          "system": "http://terminology.hl7.org/CodeSystem/observation-category",
          "code": "exam",
          "display": "exam",
          "userSelected": true
        } ]
      } ],
      "code": {
        "coding": [ {
          "system": "http://loinc.org",
          "code": "11977-6"
        } ]
      },
      "subject": {
        "reference": "Patient/b2cb7909-8a02-46ad-8bc9-4154902fee43"
      },
      "effectivePeriod": {
        "start": "2026-05-11T08:00:00.000+00:00",
        "end": "2026-05-11T08:15:00.000+00:00"
      },
      "issued": "2026-05-11T08:00:00.000+00:00"
    },
    "request": {
      "method": "PUT",
      "url": "Observation/b63958b5-f21b-454a-87cd-ec4c29eac2e8"
    }
  }, {
    "fullUrl": "https://madie.cms.gov/Encounter/398394f3-bc1b-4955-b2bd-15b3955e4b79",
    "resource": {
      "resourceType": "Encounter",
      "id": "398394f3-bc1b-4955-b2bd-15b3955e4b79",
      "meta": {
        "profile": [ "http://hl7.org/fhir/us/qicore/StructureDefinition/qicore-encounter" ]
      },
      "status": "finished",
      "class": {
        "system": "http://terminology.hl7.org/CodeSystem/v3-ActCode",
        "code": "IMP",
        "display": "inpatient encounter"
      },
      "type": [ {
        "coding": [ {
          "system": "http://snomed.info/sct",
          "code": "8715000"
        } ]
      } ],
      "subject": {
        "reference": "Patient/b2cb7909-8a02-46ad-8bc9-4154902fee43"
      },
      "period": {
        "start": "2026-06-08T08:00:00.000+00:00",
        "end": "2026-06-10T08:15:00.000+00:00"
      },
      "length": {
        "value": 2,
        "unit": "days"
      },
      "reasonReference": [ {
        "reference": "Condition/5c6bc04a-4a5f-4369-a3ce-25cce1d774dd"
      } ]
    },
    "request": {
      "method": "PUT",
      "url": "Encounter/398394f3-bc1b-4955-b2bd-15b3955e4b79"
    }
  }, {
    "fullUrl": "https://madie.cms.gov/Coverage/5f5f9e561c76ba674bb03403",
    "resource": {
      "resourceType": "Coverage",
      "id": "5f5f9e561c76ba674bb03403",
      "meta": {
        "profile": [ "http://hl7.org/fhir/us/qicore/StructureDefinition/qicore-coverage" ]
      },
      "status": "active",
      "subscriberId": "523435",
      "beneficiary": {
        "reference": "Patient/b2cb7909-8a02-46ad-8bc9-4154902fee43"
      },
      "relationship": {
        "coding": [ {
          "system": "http://terminology.hl7.org/CodeSystem/subscriber-relationship",
          "code": "self"
        } ]
      },
      "period": {
        "start": "1986-02-14T08:00:00.000+00:00"
      },
      "payor": [ {
        "reference": "Organization/be15e2c8-a645-459b-b791-ff4995c102f7"
      } ]
    },
    "request": {
      "method": "PUT",
      "url": "Coverage/5f5f9e561c76ba674bb03403"
    }
  }, {
    "fullUrl": "https://madie.cms.gov/Procedure/0c928180-a729-4e8d-8886-b6d5bd90d126",
    "resource": {
      "resourceType": "Procedure",
      "id": "0c928180-a729-4e8d-8886-b6d5bd90d126",
      "meta": {
        "profile": [ "http://hl7.org/fhir/us/qicore/StructureDefinition/qicore-procedure" ]
      },
      "extension": [ {
        "url": "http://hl7.org/fhir/us/qicore/StructureDefinition/qicore-recorded",
        "valueDateTime": "2014-04-05T13:35:00.000+00:00"
      } ],
      "status": "completed",
      "code": {
        "coding": [ {
          "system": "http://www.cms.gov/Medicare/Coding/ICD10",
          "code": "10D00Z0"
        }, {
          "system": "http://snomed.info/sct",
          "code": "4504004"
        } ]
      },
      "subject": {
        "reference": "Patient/b2cb7909-8a02-46ad-8bc9-4154902fee43"
      },
      "performedPeriod": {
        "start": "2026-06-08T20:00:00.000+00:00",
        "end": "2026-06-08T20:15:00.000+00:00"
      }
    },
    "request": {
      "method": "PUT",
      "url": "Procedure/0c928180-a729-4e8d-8886-b6d5bd90d126"
    }
  }, {
    "fullUrl": "https://madie.cms.gov/Condition/5c6bc04a-4a5f-4369-a3ce-25cce1d774dd",
    "resource": {
      "resourceType": "Condition",
      "id": "5c6bc04a-4a5f-4369-a3ce-25cce1d774dd",
      "meta": {
        "profile": [ "http://hl7.org/fhir/us/qicore/StructureDefinition/qicore-condition-encounter-diagnosis" ]
      },
      "category": [ {
        "coding": [ {
          "system": "http://terminology.hl7.org/CodeSystem/condition-category",
          "code": "encounter-diagnosis",
          "display": "Encounter Diagnosis"
        } ]
      } ],
      "code": {
        "coding": [ {
          "system": "http://snomed.info/sct",
          "version": "2022-09",
          "code": "169826009",
          "display": "Single live birth from singleton pregnancy (finding)",
          "userSelected": true
        } ]
      },
      "subject": {
        "reference": "Patient/b2cb7909-8a02-46ad-8bc9-4154902fee43"
      },
      "encounter": {
        "reference": "Encounter/398394f3-bc1b-4955-b2bd-15b3955e4b79"
      },
      "recordedDate": "2026-10-19T08:00:00.000+00:00"
    },
    "request": {
      "method": "PUT",
      "url": "Condition/5c6bc04a-4a5f-4369-a3ce-25cce1d774dd"
    }
  }, {
    "fullUrl": "https://madie.cms.gov/Organization/be15e2c8-a645-459b-b791-ff4995c102f7",
    "resource": {
      "resourceType": "Organization",
      "id": "be15e2c8-a645-459b-b791-ff4995c102f7",
      "meta": {
        "profile": [ "http://hl7.org/fhir/us/qicore/StructureDefinition/qicore-organization" ]
      },
      "identifier": [ {
        "use": "temp",
        "system": "urn:oid:2.16.840.1.113883.4.4",
        "value": "21-3259825"
      } ],
      "active": true,
      "type": [ {
        "coding": [ {
          "system": "http://terminology.hl7.org/CodeSystem/organization-type",
          "code": "pay",
          "display": "Payer"
        } ]
      } ],
      "name": "Blue Cross Blue Shield of Texas",
      "telecom": [ {
        "system": "phone",
        "value": "(+1) 972-766-6900"
      } ],
      "address": [ {
        "use": "billing",
        "type": "postal",
        "line": [ "P.O. Box 660044" ],
        "city": "Dallas",
        "state": "TX",
        "postalCode": "75266-0044",
        "country": "USA"
      } ]
    },
    "request": {
      "method": "PUT",
      "url": "Organization/be15e2c8-a645-459b-b791-ff4995c102f7"
    }
  }, {
    "fullUrl": "https://madie.cms.gov/Practitioner/cb439e24-7958-4509-8a2a-3b2f8a90206c",
    "resource": {
      "resourceType": "Practitioner",
      "id": "cb439e24-7958-4509-8a2a-3b2f8a90206c",
      "meta": {
        "profile": [ "http://hl7.org/fhir/us/qicore/StructureDefinition/qicore-practitioner" ]
      },
      "identifier": [ {
        "system": "http://hl7.org/fhir/sid/us-npi",
        "value": "1234567890"
      } ],
      "name": [ {
        "family": "Evil",
        "prefix": [ "Dr" ]
      } ]
    },
    "request": {
      "method": "PUT",
      "url": "Practitioner/cb439e24-7958-4509-8a2a-3b2f8a90206c"
    }
  }, {
    "fullUrl": "https://madie.cms.gov/MeasureReport/2f9775fb-7df5-41b3-8cad-aeddc588f5e2",
    "resource": {
      "resourceType": "MeasureReport",
      "id": "2f9775fb-7df5-41b3-8cad-aeddc588f5e2",
      "meta": {
        "profile": [ "http://hl7.org/fhir/us/cqfmeasures/StructureDefinition/test-case-cqfm" ]
      },
      "contained": [ {
        "resourceType": "Parameters",
        "id": "24acc2f9-e701-4fc2-a7d5-c8320587b4be-parameters",
        "parameter": [ {
          "name": "subject",
          "valueString": "b2cb7909-8a02-46ad-8bc9-4154902fee43"
        } ]
      } ],
      "extension": [ {
        "url": "http://hl7.org/fhir/StructureDefinition/cqf-inputParameters",
        "valueReference": {
          "reference": "#24acc2f9-e701-4fc2-a7d5-c8320587b4be-parameters"
        }
      }, {
        "url": "http://hl7.org/fhir/us/cqfmeasures/StructureDefinition/cqfm-testCaseDescription",
        "valueMarkdown": "Parity Last Result is Null but first is zero, relevant date/time same date but time less than delivery date/time\n"
      } ],
      "modifierExtension": [ {
        "url": "http://hl7.org/fhir/us/cqfmeasures/StructureDefinition/cqfm-isTestCase",
        "valueBoolean": true
      } ],
      "status": "complete",
      "type": "individual",
      "measure": "https://madie.cms.gov/Measure/CMS0334FHIRPCCesareanBirth",
      "period": {
        "start": "2026-01-01",
        "end": "2026-12-31"
      },
      "group": [ {
        "id": "Group_1",
        "population": [ {
          "id": "InitialPopulation_1",
          "code": {
            "coding": [ {
              "system": "http://terminology.hl7.org/CodeSystem/measure-population",
              "code": "initial-population",
              "display": "Initial Population"
            } ]
          },
          "count": 1
        }, {
          "id": "Denominator_1",
          "code": {
            "coding": [ {
              "system": "http://terminology.hl7.org/CodeSystem/measure-population",
              "code": "denominator",
              "display": "Denominator"
            } ]
          },
          "count": 1
        }, {
          "id": "DenominatorExclusion_1",
          "code": {
            "coding": [ {
              "system": "http://terminology.hl7.org/CodeSystem/measure-population",
              "code": "denominator-exclusion",
              "display": "Denominator Exclusion"
            } ]
          },
          "count": 0
        }, {
          "id": "Numerator_1",
          "code": {
            "coding": [ {
              "system": "http://terminology.hl7.org/CodeSystem/measure-population",
              "code": "numerator",
              "display": "Numerator"
            } ]
          },
          "count": 1
        } ],
        "measureScore": {
          "value": 0.0
        }
      } ],
      "evaluatedResource": [ {
        "reference": "Patient/b2cb7909-8a02-46ad-8bc9-4154902fee43"
      }, {
        "reference": "Observation/382d9a3d-fd4a-4e33-a477-6b131cceb43e"
      }, {
        "reference": "Observation/9d70e3a3-4e89-4eb3-81f4-352c889593d3"
      }, {
        "reference": "Observation/2da4efdb-b341-41f5-9ee9-7e6893856d7a"
      }, {
        "reference": "Observation/23b481df-34a9-41ab-872a-88176472db24"
      }, {
        "reference": "Observation/b63958b5-f21b-454a-87cd-ec4c29eac2e8"
      }, {
        "reference": "Encounter/398394f3-bc1b-4955-b2bd-15b3955e4b79"
      }, {
        "reference": "Coverage/5f5f9e561c76ba674bb03403"
      }, {
        "reference": "Procedure/0c928180-a729-4e8d-8886-b6d5bd90d126"
      }, {
        "reference": "Condition/5c6bc04a-4a5f-4369-a3ce-25cce1d774dd"
      }, {
        "reference": "Organization/be15e2c8-a645-459b-b791-ff4995c102f7"
      }, {
        "reference": "Practitioner/cb439e24-7958-4509-8a2a-3b2f8a90206c"
      } ]
    },
    "request": {
      "method": "PUT",
      "url": "MeasureReport/2f9775fb-7df5-41b3-8cad-aeddc588f5e2"
    }
  } ]
}