{
  "resourceType": "Bundle",
  "id": "6356dca654e383debade75aa",
  "type": "transaction",
  "entry": [ {
    "fullUrl": "https://madie.cms.gov/Patient/f3551c07-89fe-4e7a-90fe-03788ace10f8",
    "resource": {
      "resourceType": "Patient",
      "id": "f3551c07-89fe-4e7a-90fe-03788ace10f8",
      "meta": {
        "profile": [ "http://hl7.org/fhir/us/qicore/StructureDefinition/qicore-patient" ]
      },
      "text": {
        "status": "generated",
        "div": "<div xmlns=\"http://www.w3.org/1999/xhtml\"><div class=\"hapiHeaderText\">PretermBirthCodeCGAEGABothNull <b>RISKPass</b></div><table class=\"hapiPropertyTable\"><tbody><tr><td>Date of birth</td><td><span>01 February 2004</span></td></tr></tbody></table></div>"
      },
      "extension": [ {
        "url": "http://hl7.org/fhir/us/core/StructureDefinition/us-core-race",
        "extension": [ {
          "url": "ombCategory",
          "valueCoding": {
            "system": "urn:oid:2.16.840.1.113883.6.238",
            "code": "1002-5",
            "display": "American Indian or Alaska Native",
            "userSelected": true
          }
        }, {
          "url": "text",
          "valueString": "American Indian or Alaska Native"
        } ]
      }, {
        "url": "http://hl7.org/fhir/us/core/StructureDefinition/us-core-ethnicity",
        "extension": [ {
          "url": "ombCategory",
          "valueCoding": {
            "system": "urn:oid:2.16.840.1.113883.6.238",
            "code": "2135-2",
            "display": "Hispanic or Latino",
            "userSelected": true
          }
        }, {
          "url": "text",
          "valueString": "Hispanic or Latino"
        } ]
      } ],
      "identifier": [ {
        "type": {
          "coding": [ {
            "system": "http://terminology.hl7.org/CodeSystem/v2-0203",
            "code": "MR"
          } ]
        },
        "system": "https://bonnie-fhir.healthit.gov/",
        "value": "6356dca654e383debade75aa"
      } ],
      "active": true,
      "name": [ {
        "use": "usual",
        "family": "RISKPass",
        "given": [ "PretermBirthCodeCGAEGABothNull" ]
      } ],
      "gender": "female",
      "birthDate": "2005-02-01"
    },
    "request": {
      "method": "PUT",
      "url": "Patient/f3551c07-89fe-4e7a-90fe-03788ace10f8"
    }
  }, {
    "fullUrl": "https://madie.cms.gov/Observation/f6af74c8-e445-49e3-bbee-2cb6163a71fe",
    "resource": {
      "resourceType": "Observation",
      "id": "f6af74c8-e445-49e3-bbee-2cb6163a71fe",
      "meta": {
        "profile": [ "http://hl7.org/fhir/us/qicore/StructureDefinition/qicore-simple-observation" ]
      },
      "status": "final",
      "category": [ {
        "coding": [ {
          "system": "http://terminology.hl7.org/CodeSystem/observation-category",
          "code": "exam",
          "display": "exam",
          "userSelected": true
        } ]
      } ],
      "code": {
        "coding": [ {
          "system": "http://loinc.org",
          "code": "93857-1"
        } ]
      },
      "subject": {
        "reference": "Patient/f3551c07-89fe-4e7a-90fe-03788ace10f8"
      },
      "effectiveDateTime": "2026-02-01T08:00:00.000+00:00",
      "performer": [ {
        "reference": "Organization/example1",
        "display": "Hendricks Country Hospital"
      } ],
      "valueDateTime": "2026-02-01T08:00:00.000+00:00"
    },
    "request": {
      "method": "PUT",
      "url": "Observation/f6af74c8-e445-49e3-bbee-2cb6163a71fe"
    }
  }, {
    "fullUrl": "https://madie.cms.gov/Encounter/83b07400-b711-4c69-b608-85ec4125c4ae",
    "resource": {
      "resourceType": "Encounter",
      "id": "83b07400-b711-4c69-b608-85ec4125c4ae",
      "meta": {
        "profile": [ "http://hl7.org/fhir/us/qicore/StructureDefinition/qicore-encounter" ]
      },
      "status": "finished",
      "class": {
        "system": "http://terminology.hl7.org/CodeSystem/v3-ActCode",
        "code": "IMP",
        "display": "inpatient encounter"
      },
      "type": [ {
        "coding": [ {
          "system": "http://snomed.info/sct",
          "code": "183452005"
        } ]
      } ],
      "subject": {
        "reference": "Patient/f3551c07-89fe-4e7a-90fe-03788ace10f8"
      },
      "period": {
        "start": "2026-02-01T08:00:00.000+00:00",
        "end": "2026-02-05T08:15:00.000+00:00"
      },
      "reasonReference": [ {
        "reference": "Condition/6c53ec46-c2ee-43d7-8913-e179373c9cc6"
      } ]
    },
    "request": {
      "method": "PUT",
      "url": "Encounter/83b07400-b711-4c69-b608-85ec4125c4ae"
    }
  }, {
    "fullUrl": "https://madie.cms.gov/Procedure/9fc46a2c-a9d0-438a-b8b7-58bf9c7a831d",
    "resource": {
      "resourceType": "Procedure",
      "id": "9fc46a2c-a9d0-438a-b8b7-58bf9c7a831d",
      "meta": {
        "profile": [ "http://hl7.org/fhir/us/qicore/StructureDefinition/qicore-procedure" ]
      },
      "extension": [ {
        "url": "http://hl7.org/fhir/us/qicore/StructureDefinition/qicore-recorded",
        "valueDateTime": "2014-04-05T13:35:00.000+00:00"
      } ],
      "status": "completed",
      "code": {
        "coding": [ {
          "system": "http://snomed.info/sct",
          "code": "10745001"
        } ]
      },
      "subject": {
        "reference": "Patient/f3551c07-89fe-4e7a-90fe-03788ace10f8"
      },
      "performedPeriod": {
        "start": "2026-02-01T08:00:00.000+00:00",
        "end": "2026-02-05T08:15:00.000+00:00"
      }
    },
    "request": {
      "method": "PUT",
      "url": "Procedure/9fc46a2c-a9d0-438a-b8b7-58bf9c7a831d"
    }
  }, {
    "fullUrl": "https://madie.cms.gov/Condition/6c53ec46-c2ee-43d7-8913-e179373c9cc6",
    "resource": {
      "resourceType": "Condition",
      "id": "6c53ec46-c2ee-43d7-8913-e179373c9cc6",
      "meta": {
        "profile": [ "http://hl7.org/fhir/us/qicore/StructureDefinition/qicore-condition-encounter-diagnosis" ]
      },
      "category": [ {
        "coding": [ {
          "system": "http://terminology.hl7.org/CodeSystem/condition-category",
          "code": "encounter-diagnosis",
          "display": "Encounter Diagnosis"
        } ]
      } ],
      "code": {
        "coding": [ {
          "system": "http://hl7.org/fhir/sid/icd-10-cm",
          "version": "2023",
          "code": "Z3A.20",
          "display": "20 weeks gestation",
          "userSelected": true
        } ]
      },
      "subject": {
        "reference": "Patient/f3551c07-89fe-4e7a-90fe-03788ace10f8"
      },
      "recordedDate": "2026-10-26T08:00:00.000+00:00"
    },
    "request": {
      "method": "PUT",
      "url": "Condition/6c53ec46-c2ee-43d7-8913-e179373c9cc6"
    }
  }, {
    "fullUrl": "https://madie.cms.gov/Claim/d0172c56-21ab-4ec3-bcca-8f892f5fc3e1",
    "resource": {
      "resourceType": "Claim",
      "id": "d0172c56-21ab-4ec3-bcca-8f892f5fc3e1",
      "meta": {
        "profile": [ "http://hl7.org/fhir/us/qicore/StructureDefinition/qicore-claim" ]
      },
      "status": "active",
      "type": {
        "coding": [ {
          "system": "http://terminology.hl7.org/CodeSystem/claim-type",
          "code": "institutional",
          "display": "Institutional"
        } ]
      },
      "use": "claim",
      "patient": {
        "reference": "Patient/f3551c07-89fe-4e7a-90fe-03788ace10f8"
      },
      "created": "2026-11-08",
      "provider": {
        "reference": "Practitioner/ead67ee3-9263-424d-b628-c24717a4512c"
      },
      "priority": {
        "coding": [ {
          "system": "http://terminology.hl7.org/CodeSystem/processpriority",
          "code": "normal"
        } ]
      },
      "diagnosis": [ {
        "sequence": 1,
        "diagnosisCodeableConcept": {
          "coding": [ {
            "system": "http://hl7.org/fhir/sid/icd-10-cm",
            "code": "Z3A.20",
            "display": "20 weeks gestation of pregnancy"
          } ]
        },
        "type": [ {
          "coding": [ {
            "system": "http://terminology.hl7.org/CodeSystem/ex-diagnosistype",
            "code": "discharge",
            "display": "Discharge Diagnosis"
          } ]
        } ],
        "onAdmission": {
          "coding": [ {
            "system": "https://www.cms.gov/Medicare/Medicare-Fee-for-Service-Payment/HospitalAcqCond/Coding",
            "code": "Y"
          } ]
        }
      } ],
      "insurance": [ {
        "sequence": 1,
        "focal": true,
        "coverage": {
          "reference": "Coverage/Coverage-1"
        }
      } ],
      "item": [ {
        "sequence": 1,
        "careTeamSequence": [ 1 ],
        "diagnosisSequence": [ 1 ],
        "productOrService": {
          "coding": [ {
            "system": "http://www.ama-assn.org/go/cpt",
            "code": "99232"
          } ]
        },
        "encounter": [ {
          "reference": "Encounter/83b07400-b711-4c69-b608-85ec4125c4ae"
        } ]
      }, {
        "sequence": 2,
        "careTeamSequence": [ 1 ],
        "diagnosisSequence": [ 2 ],
        "productOrService": {
          "coding": [ {
            "system": "http://www.ama-assn.org/go/cpt",
            "code": "99233"
          } ]
        },
        "encounter": [ {
          "reference": "Encounter/83b07400-b711-4c69-b608-85ec4125c4ae"
        } ]
      } ],
      "total": {
        "value": 3800,
        "currency": "USD"
      }
    },
    "request": {
      "method": "PUT",
      "url": "Claim/d0172c56-21ab-4ec3-bcca-8f892f5fc3e1"
    }
  }, {
    "fullUrl": "https://madie.cms.gov/Coverage/78223b31-6e66-4630-967e-55d8b65ed0d9",
    "resource": {
      "resourceType": "Coverage",
      "id": "78223b31-6e66-4630-967e-55d8b65ed0d9",
      "meta": {
        "profile": [ "http://hl7.org/fhir/us/qicore/StructureDefinition/qicore-coverage" ]
      },
      "status": "active",
      "beneficiary": {
        "reference": "Patient/f3551c07-89fe-4e7a-90fe-03788ace10f8"
      },
      "payor": [ {
        "reference": "Organization/387b1af5-6f84-4d8f-ba98-2bc2e37ef761"
      } ]
    },
    "request": {
      "method": "PUT",
      "url": "Coverage/78223b31-6e66-4630-967e-55d8b65ed0d9"
    }
  }, {
    "fullUrl": "https://madie.cms.gov/Organization/387b1af5-6f84-4d8f-ba98-2bc2e37ef761",
    "resource": {
      "resourceType": "Organization",
      "id": "387b1af5-6f84-4d8f-ba98-2bc2e37ef761",
      "meta": {
        "profile": [ "http://hl7.org/fhir/us/qicore/StructureDefinition/qicore-organization" ]
      },
      "identifier": [ {
        "use": "temp",
        "system": "urn:oid:2.16.840.1.113883.4.4",
        "value": "21-3259825"
      } ],
      "active": true,
      "type": [ {
        "coding": [ {
          "system": "http://terminology.hl7.org/CodeSystem/organization-type",
          "code": "pay",
          "display": "Payer"
        } ]
      } ],
      "name": "Blue Cross Blue Shield of Texas",
      "telecom": [ {
        "system": "phone",
        "value": "(+1) 972-766-6900"
      } ],
      "address": [ {
        "use": "billing",
        "type": "postal",
        "line": [ "P.O. Box 660044" ],
        "city": "Dallas",
        "state": "TX",
        "postalCode": "75266-0044",
        "country": "USA"
      } ]
    },
    "request": {
      "method": "PUT",
      "url": "Organization/387b1af5-6f84-4d8f-ba98-2bc2e37ef761"
    }
  }, {
    "fullUrl": "https://madie.cms.gov/Practitioner/ead67ee3-9263-424d-b628-c24717a4512c",
    "resource": {
      "resourceType": "Practitioner",
      "id": "ead67ee3-9263-424d-b628-c24717a4512c",
      "identifier": [ {
        "system": "http://hl7.org/fhir/sid/us-npi",
        "value": "123456"
      } ],
      "name": [ {
        "family": "Evil",
        "prefix": [ "Dr" ]
      } ]
    },
    "request": {
      "method": "PUT",
      "url": "Practitioner/ead67ee3-9263-424d-b628-c24717a4512c"
    }
  }, {
    "fullUrl": "https://madie.cms.gov/MeasureReport/adba523f-1799-4275-8cae-f32bcbfd6875",
    "resource": {
      "resourceType": "MeasureReport",
      "id": "adba523f-1799-4275-8cae-f32bcbfd6875",
      "meta": {
        "profile": [ "http://hl7.org/fhir/us/cqfmeasures/StructureDefinition/test-case-cqfm" ]
      },
      "contained": [ {
        "resourceType": "Parameters",
        "id": "ed1fee1e-2773-4a93-aec0-256a2cfc33d6-parameters",
        "parameter": [ {
          "name": "subject",
          "valueString": "f3551c07-89fe-4e7a-90fe-03788ace10f8"
        } ]
      } ],
      "extension": [ {
        "url": "http://hl7.org/fhir/StructureDefinition/cqf-inputParameters",
        "valueReference": {
          "reference": "#ed1fee1e-2773-4a93-aec0-256a2cfc33d6-parameters"
        }
      }, {
        "url": "http://hl7.org/fhir/us/cqfmeasures/StructureDefinition/cqfm-testCaseDescription",
        "valueMarkdown": "CGA and EGA are both null.  Dx code indicative of preterm birth.  So Risk Variable PreTermBirth will pass based on coding."
      } ],
      "modifierExtension": [ {
        "url": "http://hl7.org/fhir/us/cqfmeasures/StructureDefinition/cqfm-isTestCase",
        "valueBoolean": true
      } ],
      "status": "complete",
      "type": "individual",
      "measure": "https://madie.cms.gov/Measure/CMS1028FHIRPCSevereOBComps",
      "period": {
        "start": "2026-01-01",
        "end": "2026-12-31"
      },
      "group": [ {
        "id": "Group_1",
        "population": [ {
          "id": "InitialPopulation_1",
          "code": {
            "coding": [ {
              "system": "http://terminology.hl7.org/CodeSystem/measure-population",
              "code": "initial-population",
              "display": "Initial Population"
            } ]
          },
          "count": 1
        }, {
          "id": "Denominator_1",
          "code": {
            "coding": [ {
              "system": "http://terminology.hl7.org/CodeSystem/measure-population",
              "code": "denominator",
              "display": "Denominator"
            } ]
          },
          "count": 1
        }, {
          "id": "Numerator_1",
          "code": {
            "coding": [ {
              "system": "http://terminology.hl7.org/CodeSystem/measure-population",
              "code": "numerator",
              "display": "Numerator"
            } ]
          },
          "count": 0
        }, {
          "id": "NumeratorExclusion_1",
          "code": {
            "coding": [ {
              "system": "http://terminology.hl7.org/CodeSystem/measure-population",
              "code": "numerator-exclusion",
              "display": "Numerator Exclusion"
            } ]
          },
          "count": 0
        } ],
        "measureScore": {
          "value": 0.0
        }
      }, {
        "id": "Group_2",
        "population": [ {
          "id": "InitialPopulation_2",
          "code": {
            "coding": [ {
              "system": "http://terminology.hl7.org/CodeSystem/measure-population",
              "code": "initial-population",
              "display": "Initial Population"
            } ]
          },
          "count": 1
        }, {
          "id": "Denominator_2",
          "code": {
            "coding": [ {
              "system": "http://terminology.hl7.org/CodeSystem/measure-population",
              "code": "denominator",
              "display": "Denominator"
            } ]
          },
          "count": 1
        }, {
          "id": "Numerator_2",
          "code": {
            "coding": [ {
              "system": "http://terminology.hl7.org/CodeSystem/measure-population",
              "code": "numerator",
              "display": "Numerator"
            } ]
          },
          "count": 0
        }, {
          "id": "NumeratorExclusion_2",
          "code": {
            "coding": [ {
              "system": "http://terminology.hl7.org/CodeSystem/measure-population",
              "code": "numerator-exclusion",
              "display": "Numerator Exclusion"
            } ]
          },
          "count": 0
        } ],
        "measureScore": {
          "value": 0.0
        }
      } ],
      "evaluatedResource": [ {
        "reference": "Patient/f3551c07-89fe-4e7a-90fe-03788ace10f8"
      }, {
        "reference": "Observation/f6af74c8-e445-49e3-bbee-2cb6163a71fe"
      }, {
        "reference": "Encounter/83b07400-b711-4c69-b608-85ec4125c4ae"
      }, {
        "reference": "Procedure/9fc46a2c-a9d0-438a-b8b7-58bf9c7a831d"
      }, {
        "reference": "Condition/6c53ec46-c2ee-43d7-8913-e179373c9cc6"
      }, {
        "reference": "Claim/d0172c56-21ab-4ec3-bcca-8f892f5fc3e1"
      }, {
        "reference": "Coverage/78223b31-6e66-4630-967e-55d8b65ed0d9"
      }, {
        "reference": "Organization/387b1af5-6f84-4d8f-ba98-2bc2e37ef761"
      }, {
        "reference": "Practitioner/ead67ee3-9263-424d-b628-c24717a4512c"
      } ]
    },
    "request": {
      "method": "PUT",
      "url": "MeasureReport/adba523f-1799-4275-8cae-f32bcbfd6875"
    }
  } ]
}