{
  "resourceType": "Bundle",
  "id": "6179dfd9e2011aa9929f3309",
  "type": "transaction",
  "entry": [ {
    "fullUrl": "https://madie.cms.gov/Patient/8fd4eb55-cb9d-435c-869b-c49e3d7bf8ac",
    "resource": {
      "resourceType": "Patient",
      "id": "8fd4eb55-cb9d-435c-869b-c49e3d7bf8ac",
      "meta": {
        "profile": [ "http://hl7.org/fhir/us/qicore/StructureDefinition/qicore-patient" ]
      },
      "extension": [ {
        "url": "http://hl7.org/fhir/us/core/StructureDefinition/us-core-race",
        "extension": [ {
          "url": "ombCategory",
          "valueCoding": {
            "system": "urn:oid:2.16.840.1.113883.6.238",
            "code": "2076-8",
            "display": "Native Hawaiian or Other Pacific Islander",
            "userSelected": true
          }
        }, {
          "url": "text",
          "valueString": "Native Hawaiian or Other Pacific Islander"
        } ]
      }, {
        "url": "http://hl7.org/fhir/us/core/StructureDefinition/us-core-ethnicity",
        "extension": [ {
          "url": "ombCategory",
          "valueCoding": {
            "system": "urn:oid:2.16.840.1.113883.6.238",
            "code": "2186-5",
            "display": "Not Hispanic or Latino",
            "userSelected": true
          }
        }, {
          "url": "text",
          "valueString": "Not Hispanic or Latino"
        } ]
      }, {
        "url": "http://hl7.org/fhir/us/core/StructureDefinition/us-core-sex",
        "valueCode": "248152002"
      } ],
      "identifier": [ {
        "type": {
          "coding": [ {
            "system": "http://terminology.hl7.org/CodeSystem/v2-0203",
            "code": "MR"
          } ]
        },
        "system": "https://bonnie-fhir.healthit.gov/",
        "value": "6179dfd9e2011aa9929f3309"
      } ],
      "name": [ {
        "family": "DenExcl1Fail",
        "given": [ "DxExclStartsBeforeEndsAfterED" ]
      } ],
      "gender": "female",
      "birthDate": "1985-12-02"
    },
    "request": {
      "method": "PUT",
      "url": "Patient/8fd4eb55-cb9d-435c-869b-c49e3d7bf8ac"
    }
  }, {
    "fullUrl": "https://madie.cms.gov/Encounter/76c235e0-82d6-4c3f-afd2-5de28978f150",
    "resource": {
      "resourceType": "Encounter",
      "id": "76c235e0-82d6-4c3f-afd2-5de28978f150",
      "meta": {
        "profile": [ "http://hl7.org/fhir/us/qicore/StructureDefinition/qicore-encounter" ]
      },
      "status": "finished",
      "class": {
        "system": "http://terminology.hl7.org/CodeSystem/v3-ActCode",
        "code": "EMER",
        "display": "emergency",
        "userSelected": true
      },
      "type": [ {
        "coding": [ {
          "system": "http://snomed.info/sct",
          "version": "2020-09",
          "code": "4525004",
          "display": "Emergency department patient visit (procedure)",
          "userSelected": true
        } ]
      } ],
      "subject": {
        "reference": "Patient/8fd4eb55-cb9d-435c-869b-c49e3d7bf8ac"
      },
      "period": {
        "start": "2026-10-09T08:05:00.000+00:00",
        "end": "2026-10-10T07:15:00.000+00:00"
      },
      "reasonReference": [ {
        "reference": "Condition/79e245f1-8a9c-438f-922a-30f0f8de5886"
      } ]
    },
    "request": {
      "method": "PUT",
      "url": "Encounter/76c235e0-82d6-4c3f-afd2-5de28978f150"
    }
  }, {
    "fullUrl": "https://madie.cms.gov/Condition/79e245f1-8a9c-438f-922a-30f0f8de5886",
    "resource": {
      "resourceType": "Condition",
      "id": "79e245f1-8a9c-438f-922a-30f0f8de5886",
      "meta": {
        "profile": [ "http://hl7.org/fhir/us/qicore/StructureDefinition/qicore-condition-problems-health-concerns" ]
      },
      "clinicalStatus": {
        "coding": [ {
          "system": "http://terminology.hl7.org/CodeSystem/condition-clinical",
          "code": "active",
          "display": "active",
          "userSelected": true
        } ]
      },
      "category": [ {
        "coding": [ {
          "system": "http://terminology.hl7.org/CodeSystem/condition-category",
          "code": "problem-list-item",
          "display": "Problem List Item",
          "userSelected": true
        } ]
      } ],
      "code": {
        "coding": [ {
          "system": "http://snomed.info/sct",
          "version": "2020-09",
          "code": "401303003",
          "display": "Acute ST segment elevation myocardial infarction (disorder)",
          "userSelected": true
        } ]
      },
      "subject": {
        "reference": "Patient/8fd4eb55-cb9d-435c-869b-c49e3d7bf8ac"
      },
      "onsetDateTime": "2026-10-09T08:30:00.000+00:00"
    },
    "request": {
      "method": "PUT",
      "url": "Condition/79e245f1-8a9c-438f-922a-30f0f8de5886"
    }
  }, {
    "fullUrl": "https://madie.cms.gov/Condition/06f76d05-3a15-4f54-b50f-b677acb106af",
    "resource": {
      "resourceType": "Condition",
      "id": "06f76d05-3a15-4f54-b50f-b677acb106af",
      "meta": {
        "profile": [ "http://hl7.org/fhir/us/qicore/StructureDefinition/qicore-condition-problems-health-concerns" ]
      },
      "clinicalStatus": {
        "coding": [ {
          "system": "http://terminology.hl7.org/CodeSystem/condition-clinical",
          "version": "4.0.1",
          "code": "inactive",
          "display": "Inactive",
          "userSelected": true
        } ]
      },
      "category": [ {
        "coding": [ {
          "system": "http://terminology.hl7.org/CodeSystem/condition-category",
          "code": "problem-list-item",
          "display": "Problem List Item",
          "userSelected": true
        } ]
      } ],
      "code": {
        "coding": [ {
          "system": "http://snomed.info/sct",
          "version": "2020-09",
          "code": "111633007",
          "display": "Open fracture of sacrum AND/OR coccyx with complete cauda equina lesion (disorder)",
          "userSelected": true
        } ]
      },
      "subject": {
        "reference": "Patient/8fd4eb55-cb9d-435c-869b-c49e3d7bf8ac"
      },
      "onsetDateTime": "2026-01-08T08:00:00.000+00:00",
      "abatementDateTime": "2026-11-08T08:15:00.000+00:00"
    },
    "request": {
      "method": "PUT",
      "url": "Condition/06f76d05-3a15-4f54-b50f-b677acb106af"
    }
  }, {
    "fullUrl": "https://madie.cms.gov/MeasureReport/65a20e87-b69b-4b6d-98f9-3b5700b4a2f6",
    "resource": {
      "resourceType": "MeasureReport",
      "id": "65a20e87-b69b-4b6d-98f9-3b5700b4a2f6",
      "meta": {
        "profile": [ "http://hl7.org/fhir/us/cqfmeasures/StructureDefinition/test-case-cqfm" ]
      },
      "contained": [ {
        "resourceType": "Parameters",
        "id": "6ffce981-722d-4e2d-be39-118178b08356-parameters",
        "parameter": [ {
          "name": "subject",
          "valueString": "8fd4eb55-cb9d-435c-869b-c49e3d7bf8ac"
        } ]
      } ],
      "extension": [ {
        "url": "http://hl7.org/fhir/StructureDefinition/cqf-inputParameters",
        "valueReference": {
          "reference": "#6ffce981-722d-4e2d-be39-118178b08356-parameters"
        }
      }, {
        "url": "http://hl7.org/fhir/us/cqfmeasures/StructureDefinition/cqfm-testCaseDescription",
        "valueMarkdown": "Patient has Neurologic Impairment (exclusion diagnosis) that starts before ED encounter and ends after ED"
      } ],
      "modifierExtension": [ {
        "url": "http://hl7.org/fhir/us/cqfmeasures/StructureDefinition/cqfm-isTestCase",
        "valueBoolean": true
      } ],
      "status": "complete",
      "type": "individual",
      "measure": "https://madie.cms.gov/Measure/CMS996FHIRAptTxforSTEMI",
      "period": {
        "start": "2026-01-01",
        "end": "2026-12-31"
      },
      "group": [ {
        "id": "Group_1",
        "population": [ {
          "id": "InitialPopulation_1",
          "code": {
            "coding": [ {
              "system": "http://terminology.hl7.org/CodeSystem/measure-population",
              "code": "initial-population",
              "display": "Initial Population"
            } ]
          },
          "count": 1
        }, {
          "id": "Denominator_1",
          "code": {
            "coding": [ {
              "system": "http://terminology.hl7.org/CodeSystem/measure-population",
              "code": "denominator",
              "display": "Denominator"
            } ]
          },
          "count": 1
        }, {
          "id": "DenominatorExclusion_1",
          "code": {
            "coding": [ {
              "system": "http://terminology.hl7.org/CodeSystem/measure-population",
              "code": "denominator-exclusion",
              "display": "Denominator Exclusion"
            } ]
          },
          "count": 0
        }, {
          "id": "Numerator_1",
          "code": {
            "coding": [ {
              "system": "http://terminology.hl7.org/CodeSystem/measure-population",
              "code": "numerator",
              "display": "Numerator"
            } ]
          },
          "count": 0
        }, {
          "id": "DenominatorException_1",
          "code": {
            "coding": [ {
              "system": "http://terminology.hl7.org/CodeSystem/measure-population",
              "code": "denominator-exception",
              "display": "Denominator Exception"
            } ]
          },
          "count": 0
        } ],
        "measureScore": {
          "value": 0.0
        }
      } ],
      "evaluatedResource": [ {
        "reference": "Patient/8fd4eb55-cb9d-435c-869b-c49e3d7bf8ac"
      }, {
        "reference": "Encounter/76c235e0-82d6-4c3f-afd2-5de28978f150"
      }, {
        "reference": "Condition/79e245f1-8a9c-438f-922a-30f0f8de5886"
      }, {
        "reference": "Condition/06f76d05-3a15-4f54-b50f-b677acb106af"
      } ]
    },
    "request": {
      "method": "PUT",
      "url": "MeasureReport/65a20e87-b69b-4b6d-98f9-3b5700b4a2f6"
    }
  } ]
}