{
  "resourceType": "Bundle",
  "id": "612e6a7002c62a011f2ea15f",
  "type": "transaction",
  "entry": [ {
    "fullUrl": "https://madie.cms.gov/Patient/ee7d6d89-bc00-4a58-ada5-8ee8c867ec74",
    "resource": {
      "resourceType": "Patient",
      "id": "ee7d6d89-bc00-4a58-ada5-8ee8c867ec74",
      "meta": {
        "profile": [ "http://hl7.org/fhir/us/qicore/StructureDefinition/qicore-patient" ]
      },
      "text": {
        "status": "generated",
        "div": "<div xmlns=\"http://www.w3.org/1999/xhtml\"><div class=\"hapiHeaderText\">PtRef_DO_GCS_1DayAFAnes <b>NUMERPASS </b></div><table class=\"hapiPropertyTable\"><tbody><tr><td>Identifier</td><td>24fc1ce85ce14557dd4d9eba17df9f17</td></tr><tr><td>Date of birth</td><td><span>02 January 1974</span></td></tr></tbody></table></div>"
      },
      "extension": [ {
        "url": "http://hl7.org/fhir/us/core/StructureDefinition/us-core-race",
        "extension": [ {
          "url": "ombCategory",
          "valueCoding": {
            "system": "urn:oid:2.16.840.1.113883.6.238",
            "code": "1002-5",
            "display": "American Indian or Alaska Native",
            "userSelected": true
          }
        }, {
          "url": "text",
          "valueString": "American Indian or Alaska Native"
        } ]
      }, {
        "url": "http://hl7.org/fhir/us/core/StructureDefinition/us-core-ethnicity",
        "extension": [ {
          "url": "ombCategory",
          "valueCoding": {
            "system": "urn:oid:2.16.840.1.113883.6.238",
            "code": "2135-2",
            "display": "Hispanic or Latino",
            "userSelected": true
          }
        }, {
          "url": "text",
          "valueString": "Hispanic or Latino"
        } ]
      } ],
      "identifier": [ {
        "type": {
          "coding": [ {
            "system": "http://terminology.hl7.org/CodeSystem/v2-0203",
            "code": "MR"
          } ]
        },
        "system": "https://bonnie-fhir.healthit.gov/",
        "value": "612e6a7002c62a011f2ea15f"
      } ],
      "active": true,
      "name": [ {
        "use": "usual",
        "family": "NUMERPass",
        "given": [ "PtRefDOGCS1DayAFAnes" ]
      } ],
      "gender": "male",
      "birthDate": "1975-01-02"
    },
    "request": {
      "method": "PUT",
      "url": "Patient/ee7d6d89-bc00-4a58-ada5-8ee8c867ec74"
    }
  }, {
    "fullUrl": "https://madie.cms.gov/Encounter/00436c00-6dd9-48a8-bab5-cd4d7bd86349",
    "resource": {
      "resourceType": "Encounter",
      "id": "00436c00-6dd9-48a8-bab5-cd4d7bd86349",
      "meta": {
        "profile": [ "http://hl7.org/fhir/us/qicore/StructureDefinition/qicore-encounter" ]
      },
      "status": "finished",
      "class": {
        "system": "http://terminology.hl7.org/CodeSystem/v3-ActCode",
        "code": "IMP",
        "display": "inpatient encounter"
      },
      "type": [ {
        "coding": [ {
          "system": "http://snomed.info/sct",
          "code": "8715000"
        } ]
      } ],
      "subject": {
        "reference": "Patient/ee7d6d89-bc00-4a58-ada5-8ee8c867ec74"
      },
      "period": {
        "start": "2026-11-01T08:00:00.000+00:00",
        "end": "2026-11-26T08:15:00.000+00:00"
      },
      "length": {
        "value": 25,
        "unit": "days"
      }
    },
    "request": {
      "method": "PUT",
      "url": "Encounter/00436c00-6dd9-48a8-bab5-cd4d7bd86349"
    }
  }, {
    "fullUrl": "https://madie.cms.gov/Coverage/a3dfa112-1f20-4d6f-896c-c671f11beb67",
    "resource": {
      "resourceType": "Coverage",
      "id": "a3dfa112-1f20-4d6f-896c-c671f11beb67",
      "status": "active",
      "beneficiary": {
        "reference": "Patient/ee7d6d89-bc00-4a58-ada5-8ee8c867ec74"
      },
      "period": {
        "start": "1975-01-02T08:00:00.000+00:00"
      },
      "payor": [ {
        "reference": "Organization/53f2f353-db5d-4506-9cd7-2474a394ebd0"
      } ]
    },
    "request": {
      "method": "PUT",
      "url": "Coverage/a3dfa112-1f20-4d6f-896c-c671f11beb67"
    }
  }, {
    "fullUrl": "https://madie.cms.gov/Procedure/02f577f9-2434-4531-84f6-eac34cb765a1",
    "resource": {
      "resourceType": "Procedure",
      "id": "02f577f9-2434-4531-84f6-eac34cb765a1",
      "meta": {
        "profile": [ "http://hl7.org/fhir/us/qicore/StructureDefinition/qicore-procedure" ]
      },
      "extension": [ {
        "url": "http://hl7.org/fhir/us/qicore/StructureDefinition/qicore-recorded",
        "valueDateTime": "2013-11-03T13:35:00.000+00:00"
      } ],
      "status": "completed",
      "code": {
        "coding": [ {
          "system": "http://snomed.info/sct",
          "code": "18946005"
        } ]
      },
      "subject": {
        "reference": "Patient/ee7d6d89-bc00-4a58-ada5-8ee8c867ec74"
      },
      "performedPeriod": {
        "start": "2026-11-02T09:00:00.000+00:00",
        "end": "2026-11-02T09:15:00.000+00:00"
      }
    },
    "request": {
      "method": "PUT",
      "url": "Procedure/02f577f9-2434-4531-84f6-eac34cb765a1"
    }
  }, {
    "fullUrl": "https://madie.cms.gov/ServiceRequest/3a9aaa80-44fe-40d1-b157-21ccb186ff8f",
    "resource": {
      "resourceType": "ServiceRequest",
      "id": "3a9aaa80-44fe-40d1-b157-21ccb186ff8f",
      "meta": {
        "profile": [ "http://hl7.org/fhir/us/qicore/StructureDefinition/qicore-servicenotrequested" ]
      },
      "extension": [ {
        "url": "http://hl7.org/fhir/us/qicore/StructureDefinition/qicore-doNotPerformReason",
        "valueCodeableConcept": {
          "coding": [ {
            "system": "http://snomed.info/sct",
            "code": "443390004",
            "display": "Refusal of treatment by patient (situation)"
          } ]
        }
      } ],
      "status": "completed",
      "intent": "order",
      "doNotPerform": true,
      "code": {
        "coding": [ {
          "system": "http://snomed.info/sct",
          "version": "2025-03",
          "code": "348681001",
          "display": "Graduated compression elastic hosiery (physical object)",
          "userSelected": true
        } ]
      },
      "subject": {
        "reference": "Patient/ee7d6d89-bc00-4a58-ada5-8ee8c867ec74"
      },
      "authoredOn": "2026-11-03T11:00:00.000+00:00"
    },
    "request": {
      "method": "PUT",
      "url": "ServiceRequest/3a9aaa80-44fe-40d1-b157-21ccb186ff8f"
    }
  }, {
    "fullUrl": "https://madie.cms.gov/Organization/53f2f353-db5d-4506-9cd7-2474a394ebd0",
    "resource": {
      "resourceType": "Organization",
      "id": "53f2f353-db5d-4506-9cd7-2474a394ebd0",
      "meta": {
        "profile": [ "http://hl7.org/fhir/us/qicore/StructureDefinition/qicore-organization" ]
      },
      "identifier": [ {
        "use": "temp",
        "system": "urn:oid:2.16.840.1.113883.4.4",
        "value": "21-3259825"
      } ],
      "active": true,
      "type": [ {
        "coding": [ {
          "system": "http://terminology.hl7.org/CodeSystem/organization-type",
          "code": "pay",
          "display": "Payer"
        } ]
      } ],
      "name": "Blue Cross Blue Shield of Texas",
      "telecom": [ {
        "system": "phone",
        "value": "(+1) 972-766-6900"
      } ],
      "address": [ {
        "use": "billing",
        "type": "postal",
        "line": [ "P.O. Box 660044" ],
        "city": "Dallas",
        "state": "TX",
        "postalCode": "75266-0044",
        "country": "USA"
      } ]
    },
    "request": {
      "method": "PUT",
      "url": "Organization/53f2f353-db5d-4506-9cd7-2474a394ebd0"
    }
  }, {
    "fullUrl": "https://madie.cms.gov/Practitioner/0b70ff9c-8d81-4bcf-92c6-1cfddd30ee96",
    "resource": {
      "resourceType": "Practitioner",
      "id": "0b70ff9c-8d81-4bcf-92c6-1cfddd30ee96",
      "identifier": [ {
        "system": "http://hl7.org/fhir/sid/us-npi",
        "value": "123456"
      } ],
      "name": [ {
        "family": "Evil",
        "prefix": [ "Dr" ]
      } ]
    },
    "request": {
      "method": "PUT",
      "url": "Practitioner/0b70ff9c-8d81-4bcf-92c6-1cfddd30ee96"
    }
  }, {
    "fullUrl": "https://madie.cms.gov/MeasureReport/5683bbc0-ad2b-43d8-9a5e-cf0a20288fa8",
    "resource": {
      "resourceType": "MeasureReport",
      "id": "5683bbc0-ad2b-43d8-9a5e-cf0a20288fa8",
      "meta": {
        "profile": [ "http://hl7.org/fhir/us/cqfmeasures/StructureDefinition/test-case-cqfm" ]
      },
      "contained": [ {
        "resourceType": "Parameters",
        "id": "5b41f4e7-3e32-470e-920f-7cbbd2e3468d-parameters",
        "parameter": [ {
          "name": "subject",
          "valueString": "ee7d6d89-bc00-4a58-ada5-8ee8c867ec74"
        } ]
      } ],
      "extension": [ {
        "url": "http://hl7.org/fhir/StructureDefinition/cqf-inputParameters",
        "valueReference": {
          "reference": "#5b41f4e7-3e32-470e-920f-7cbbd2e3468d-parameters"
        }
      }, {
        "url": "http://hl7.org/fhir/us/cqfmeasures/StructureDefinition/cqfm-testCaseDescription",
        "valueMarkdown": "GCS refused = 1 day after end of anesthesia;\n"
      } ],
      "modifierExtension": [ {
        "url": "http://hl7.org/fhir/us/cqfmeasures/StructureDefinition/cqfm-isTestCase",
        "valueBoolean": true
      } ],
      "status": "complete",
      "type": "individual",
      "measure": "https://madie.cms.gov/Measure/CMS108FHIRVTEProphylaxis",
      "period": {
        "start": "2026-01-01",
        "end": "2026-12-31"
      },
      "group": [ {
        "id": "Group_1",
        "population": [ {
          "id": "InitialPopulation_1",
          "code": {
            "coding": [ {
              "system": "http://terminology.hl7.org/CodeSystem/measure-population",
              "code": "initial-population",
              "display": "Initial Population"
            } ]
          },
          "count": 1
        }, {
          "id": "Denominator_1",
          "code": {
            "coding": [ {
              "system": "http://terminology.hl7.org/CodeSystem/measure-population",
              "code": "denominator",
              "display": "Denominator"
            } ]
          },
          "count": 1
        }, {
          "id": "DenominatorExclusion_1",
          "code": {
            "coding": [ {
              "system": "http://terminology.hl7.org/CodeSystem/measure-population",
              "code": "denominator-exclusion",
              "display": "Denominator Exclusion"
            } ]
          },
          "count": 0
        }, {
          "id": "Numerator_1",
          "code": {
            "coding": [ {
              "system": "http://terminology.hl7.org/CodeSystem/measure-population",
              "code": "numerator",
              "display": "Numerator"
            } ]
          },
          "count": 1
        } ],
        "measureScore": {
          "value": 0.0
        }
      } ],
      "evaluatedResource": [ {
        "reference": "Patient/ee7d6d89-bc00-4a58-ada5-8ee8c867ec74"
      }, {
        "reference": "Encounter/00436c00-6dd9-48a8-bab5-cd4d7bd86349"
      }, {
        "reference": "Coverage/a3dfa112-1f20-4d6f-896c-c671f11beb67"
      }, {
        "reference": "Procedure/02f577f9-2434-4531-84f6-eac34cb765a1"
      }, {
        "reference": "ServiceRequest/3a9aaa80-44fe-40d1-b157-21ccb186ff8f"
      }, {
        "reference": "Organization/53f2f353-db5d-4506-9cd7-2474a394ebd0"
      }, {
        "reference": "Practitioner/0b70ff9c-8d81-4bcf-92c6-1cfddd30ee96"
      } ]
    },
    "request": {
      "method": "PUT",
      "url": "MeasureReport/5683bbc0-ad2b-43d8-9a5e-cf0a20288fa8"
    }
  } ]
}