{
  "resourceType": "Bundle",
  "id": "63f3a249ccb3770120ffe6eb",
  "type": "transaction",
  "entry": [ {
    "fullUrl": "https://madie.cms.gov/Patient/56d14d39-e1d9-4bfa-8c97-0578669f75a8",
    "resource": {
      "resourceType": "Patient",
      "id": "56d14d39-e1d9-4bfa-8c97-0578669f75a8",
      "meta": {
        "profile": [ "http://hl7.org/fhir/us/qicore/StructureDefinition/qicore-patient" ]
      },
      "text": {
        "status": "generated",
        "div": "<div xmlns=\"http://www.w3.org/1999/xhtml\"><div class=\"hapiHeaderText\">LTE24before <b>BICARBPASS </b></div><table class=\"hapiPropertyTable\"><tbody><tr><td>Identifier</td><td>d69abbc179641b9cd673a4a9152886e8e63bc2e0e7b27e1a51505ef2a774679e</td></tr><tr><td>Date of birth</td><td><span>15 June 1956</span></td></tr></tbody></table></div>"
      },
      "extension": [ {
        "url": "http://hl7.org/fhir/us/core/StructureDefinition/us-core-race",
        "extension": [ {
          "url": "ombCategory",
          "valueCoding": {
            "system": "urn:oid:2.16.840.1.113883.6.238",
            "code": "1002-5",
            "display": "American Indian or Alaska Native",
            "userSelected": true
          }
        }, {
          "url": "text",
          "valueString": "American Indian or Alaska Native"
        } ]
      }, {
        "url": "http://hl7.org/fhir/us/core/StructureDefinition/us-core-ethnicity",
        "extension": [ {
          "url": "ombCategory",
          "valueCoding": {
            "system": "urn:oid:2.16.840.1.113883.6.238",
            "code": "2186-5",
            "display": "Not Hispanic or Latino",
            "userSelected": true
          }
        }, {
          "url": "text",
          "valueString": "Not Hispanic or Latino"
        } ]
      }, {
        "url": "http://hl7.org/fhir/us/core/StructureDefinition/us-core-sex",
        "valueCode": "248153007"
      } ],
      "identifier": [ {
        "type": {
          "coding": [ {
            "system": "http://terminology.hl7.org/CodeSystem/v2-0203",
            "code": "MR"
          } ]
        },
        "system": "https://bonnie-fhir.healthit.gov/",
        "value": "63f3a249ccb3770120ffe6eb"
      } ],
      "active": true,
      "name": [ {
        "use": "usual",
        "family": "BicarbonateFail",
        "given": [ "1MinBeforeInpatientEncStart" ]
      } ],
      "gender": "male",
      "birthDate": "1961-07-01"
    },
    "request": {
      "method": "PUT",
      "url": "Patient/56d14d39-e1d9-4bfa-8c97-0578669f75a8"
    }
  }, {
    "fullUrl": "https://madie.cms.gov/Encounter/d645e731-a6b5-4fb3-b309-7102d47b268e",
    "resource": {
      "resourceType": "Encounter",
      "id": "d645e731-a6b5-4fb3-b309-7102d47b268e",
      "meta": {
        "profile": [ "http://hl7.org/fhir/us/qicore/StructureDefinition/qicore-encounter" ]
      },
      "status": "finished",
      "class": {
        "system": "http://terminology.hl7.org/CodeSystem/v3-ActCode",
        "code": "IMP",
        "display": "inpatient encounter",
        "userSelected": true
      },
      "type": [ {
        "coding": [ {
          "system": "http://snomed.info/sct",
          "code": "183452005"
        } ]
      } ],
      "subject": {
        "reference": "Patient/56d14d39-e1d9-4bfa-8c97-0578669f75a8"
      },
      "period": {
        "start": "2026-07-01T08:00:00.000+00:00",
        "end": "2026-07-03T08:15:00.000+00:00"
      }
    },
    "request": {
      "method": "PUT",
      "url": "Encounter/d645e731-a6b5-4fb3-b309-7102d47b268e"
    }
  }, {
    "fullUrl": "https://madie.cms.gov/Coverage/b5da192f-911b-4370-a029-660c5ed27b34",
    "resource": {
      "resourceType": "Coverage",
      "id": "b5da192f-911b-4370-a029-660c5ed27b34",
      "meta": {
        "profile": [ "http://hl7.org/fhir/us/qicore/StructureDefinition/qicore-coverage" ]
      },
      "status": "active",
      "type": {
        "coding": [ {
          "system": "https://nahdo.org/sopt",
          "version": "1.0.1",
          "code": "1",
          "display": "MEDICARE",
          "userSelected": true
        } ]
      },
      "subscriberId": "AB9876",
      "beneficiary": {
        "reference": "Patient/56d14d39-e1d9-4bfa-8c97-0578669f75a8"
      },
      "relationship": {
        "coding": [ {
          "system": "http://terminology.hl7.org/CodeSystem/subscriber-relationship",
          "code": "self"
        } ]
      },
      "period": {
        "start": "2026-01-01T08:00:00.000+00:00",
        "end": "2026-12-31T08:15:00.000+00:00"
      },
      "payor": [ {
        "reference": "Organization/8dbed816-8387-4e3e-a3de-d085c228bdfa"
      } ]
    },
    "request": {
      "method": "PUT",
      "url": "Coverage/b5da192f-911b-4370-a029-660c5ed27b34"
    }
  }, {
    "fullUrl": "https://madie.cms.gov/Observation/262338f0-f29e-4e9c-836c-936890155dd6",
    "resource": {
      "resourceType": "Observation",
      "id": "262338f0-f29e-4e9c-836c-936890155dd6",
      "meta": {
        "profile": [ "http://hl7.org/fhir/us/qicore/StructureDefinition/qicore-observation-lab" ]
      },
      "status": "final",
      "category": [ {
        "coding": [ {
          "system": "http://terminology.hl7.org/CodeSystem/observation-category",
          "code": "laboratory",
          "display": "Laboratory",
          "userSelected": true
        } ]
      } ],
      "code": {
        "coding": [ {
          "system": "http://loinc.org",
          "version": "2.72",
          "code": "14627-4",
          "display": "Bicarbonate [Moles/volume] in Venous blood"
        } ]
      },
      "subject": {
        "reference": "Patient/56d14d39-e1d9-4bfa-8c97-0578669f75a8"
      },
      "effectiveDateTime": "2026-06-30T07:59:00.000+00:00",
      "issued": "2026-07-01T07:59:00.000+00:00",
      "performer": [ {
        "reference": "Organization/Organization-1"
      } ],
      "valueQuantity": {
        "value": 25,
        "unit": "mmol/L",
        "system": "http://unitsofmeasure.org",
        "code": "mg/dL"
      }
    },
    "request": {
      "method": "PUT",
      "url": "Observation/262338f0-f29e-4e9c-836c-936890155dd6"
    }
  }, {
    "fullUrl": "https://madie.cms.gov/Organization/8dbed816-8387-4e3e-a3de-d085c228bdfa",
    "resource": {
      "resourceType": "Organization",
      "id": "8dbed816-8387-4e3e-a3de-d085c228bdfa",
      "meta": {
        "profile": [ "http://hl7.org/fhir/us/qicore/StructureDefinition/qicore-organization" ]
      },
      "identifier": [ {
        "use": "temp",
        "system": "urn:oid:2.16.840.1.113883.4.4",
        "value": "21-3259825"
      } ],
      "active": true,
      "type": [ {
        "coding": [ {
          "system": "http://terminology.hl7.org/CodeSystem/organization-type",
          "code": "pay",
          "display": "Payer"
        } ]
      } ],
      "name": "Blue Cross Blue Shield of Texas",
      "telecom": [ {
        "system": "phone",
        "value": "(+1) 972-766-6900"
      } ],
      "address": [ {
        "use": "billing",
        "type": "postal",
        "line": [ "P.O. Box 660044" ],
        "city": "Dallas",
        "state": "TX",
        "postalCode": "75266-0044",
        "country": "USA"
      } ]
    },
    "request": {
      "method": "PUT",
      "url": "Organization/8dbed816-8387-4e3e-a3de-d085c228bdfa"
    }
  }, {
    "fullUrl": "https://madie.cms.gov/Practitioner/f07e454e-c932-43f0-84ef-3bb865f52bc8",
    "resource": {
      "resourceType": "Practitioner",
      "id": "f07e454e-c932-43f0-84ef-3bb865f52bc8",
      "meta": {
        "profile": [ "http://hl7.org/fhir/us/qicore/StructureDefinition/qicore-practitioner" ]
      },
      "identifier": [ {
        "system": "http://hl7.org/fhir/sid/us-npi",
        "value": "0723660813"
      } ],
      "name": [ {
        "family": "Evil",
        "prefix": [ "Dr" ]
      } ]
    },
    "request": {
      "method": "PUT",
      "url": "Practitioner/f07e454e-c932-43f0-84ef-3bb865f52bc8"
    }
  }, {
    "fullUrl": "https://madie.cms.gov/MeasureReport/f95a2bfd-7b08-45e9-bc42-49b1decf01cd",
    "resource": {
      "resourceType": "MeasureReport",
      "id": "f95a2bfd-7b08-45e9-bc42-49b1decf01cd",
      "meta": {
        "profile": [ "http://hl7.org/fhir/us/cqfmeasures/StructureDefinition/test-case-cqfm" ]
      },
      "contained": [ {
        "resourceType": "Parameters",
        "id": "f43057bc-16de-43ff-b071-4fee3df2762a-parameters",
        "parameter": [ {
          "name": "subject",
          "valueString": "56d14d39-e1d9-4bfa-8c97-0578669f75a8"
        } ]
      } ],
      "extension": [ {
        "url": "http://hl7.org/fhir/StructureDefinition/cqf-inputParameters",
        "valueReference": {
          "reference": "#f43057bc-16de-43ff-b071-4fee3df2762a-parameters"
        }
      }, {
        "url": "http://hl7.org/fhir/us/cqfmeasures/StructureDefinition/cqfm-testCaseDescription",
        "valueMarkdown": "Enc first day of MP (7/1), has Medicare, bicarbonate test performed 1 min before start of inpatient encounter. "
      } ],
      "modifierExtension": [ {
        "url": "http://hl7.org/fhir/us/cqfmeasures/StructureDefinition/cqfm-isTestCase",
        "valueBoolean": true
      } ],
      "status": "complete",
      "type": "individual",
      "measure": "https://madie.cms.gov/Measure/CMSFHIR844HybridHospitalWideMortality",
      "period": {
        "start": "2026-07-01",
        "end": "2027-06-30"
      },
      "group": [ {
        "id": "Group_1",
        "population": [ {
          "id": "InitialPopulation_1",
          "code": {
            "coding": [ {
              "system": "http://terminology.hl7.org/CodeSystem/measure-population",
              "code": "initial-population",
              "display": "Initial Population"
            } ]
          },
          "count": 1
        } ],
        "measureScore": {
          "value": 0.0
        }
      } ],
      "evaluatedResource": [ {
        "reference": "Patient/56d14d39-e1d9-4bfa-8c97-0578669f75a8"
      }, {
        "reference": "Encounter/d645e731-a6b5-4fb3-b309-7102d47b268e"
      }, {
        "reference": "Coverage/b5da192f-911b-4370-a029-660c5ed27b34"
      }, {
        "reference": "Observation/262338f0-f29e-4e9c-836c-936890155dd6"
      }, {
        "reference": "Organization/8dbed816-8387-4e3e-a3de-d085c228bdfa"
      }, {
        "reference": "Practitioner/f07e454e-c932-43f0-84ef-3bb865f52bc8"
      } ]
    },
    "request": {
      "method": "PUT",
      "url": "MeasureReport/f95a2bfd-7b08-45e9-bc42-49b1decf01cd"
    }
  } ]
}