{
  "resourceType": "Bundle",
  "id": "60f82c2d98086b570510e258",
  "type": "transaction",
  "entry": [ {
    "fullUrl": "https://madie.cms.gov/Patient/77a6cd7b-4322-4c29-b248-64d8af106ce7",
    "resource": {
      "resourceType": "Patient",
      "id": "77a6cd7b-4322-4c29-b248-64d8af106ce7",
      "meta": {
        "profile": [ "http://hl7.org/fhir/us/qicore/StructureDefinition/qicore-patient" ]
      },
      "text": {
        "status": "generated",
        "div": "<div xmlns=\"http://www.w3.org/1999/xhtml\"><div class=\"hapiHeaderText\">LOS=2Days_EDB4EncIP <b>DENEXFAIL </b></div><table class=\"hapiPropertyTable\"><tbody><tr><td>Identifier</td><td>be3adb57f2e68395a45087bbc450d773</td></tr><tr><td>Date of birth</td><td><span>21 August 1993</span></td></tr></tbody></table></div>"
      },
      "extension": [ {
        "url": "http://hl7.org/fhir/us/core/StructureDefinition/us-core-race",
        "extension": [ {
          "url": "ombCategory",
          "valueCoding": {
            "system": "urn:oid:2.16.840.1.113883.6.238",
            "code": "1002-5",
            "display": "American Indian or Alaska Native",
            "userSelected": true
          }
        }, {
          "url": "text",
          "valueString": "American Indian or Alaska Native"
        } ]
      }, {
        "url": "http://hl7.org/fhir/us/core/StructureDefinition/us-core-ethnicity",
        "extension": [ {
          "url": "ombCategory",
          "valueCoding": {
            "system": "urn:oid:2.16.840.1.113883.6.238",
            "code": "2135-2",
            "display": "Hispanic or Latino",
            "userSelected": true
          }
        }, {
          "url": "text",
          "valueString": "Hispanic or Latino"
        } ]
      } ],
      "identifier": [ {
        "type": {
          "coding": [ {
            "system": "http://terminology.hl7.org/CodeSystem/v2-0203",
            "code": "MR"
          } ]
        },
        "system": "https://bonnie-fhir.healthit.gov/",
        "value": "60f82c2d98086b570510e258"
      } ],
      "active": true,
      "name": [ {
        "use": "usual",
        "family": "DENEXFail",
        "given": [ "LOSEQ2DaysEDB4EncIP" ]
      } ],
      "gender": "male",
      "birthDate": "1994-08-21"
    },
    "request": {
      "method": "PUT",
      "url": "Patient/77a6cd7b-4322-4c29-b248-64d8af106ce7"
    }
  }, {
    "fullUrl": "https://madie.cms.gov/Encounter/5aee2359-df3d-451a-a5f6-c10a86cfe399",
    "resource": {
      "resourceType": "Encounter",
      "id": "5aee2359-df3d-451a-a5f6-c10a86cfe399",
      "meta": {
        "profile": [ "http://hl7.org/fhir/us/qicore/StructureDefinition/qicore-encounter" ]
      },
      "status": "finished",
      "class": {
        "system": "http://terminology.hl7.org/CodeSystem/v3-ActCode",
        "code": "EMER",
        "display": "emergency",
        "userSelected": true
      },
      "type": [ {
        "coding": [ {
          "system": "http://snomed.info/sct",
          "code": "4525004"
        } ]
      } ],
      "subject": {
        "reference": "Patient/77a6cd7b-4322-4c29-b248-64d8af106ce7"
      },
      "period": {
        "start": "2026-08-20T08:00:00.000+00:00",
        "end": "2026-08-20T21:30:00.000+00:00"
      },
      "length": {
        "value": 0,
        "unit": "days"
      }
    },
    "request": {
      "method": "PUT",
      "url": "Encounter/5aee2359-df3d-451a-a5f6-c10a86cfe399"
    }
  }, {
    "fullUrl": "https://madie.cms.gov/Encounter/89a2397d-e561-4437-8a9d-4586290a3d80",
    "resource": {
      "resourceType": "Encounter",
      "id": "89a2397d-e561-4437-8a9d-4586290a3d80",
      "meta": {
        "profile": [ "http://hl7.org/fhir/us/qicore/StructureDefinition/qicore-encounter" ]
      },
      "status": "finished",
      "class": {
        "system": "http://terminology.hl7.org/CodeSystem/v3-ActCode",
        "code": "IMP",
        "display": "inpatient encounter",
        "userSelected": true
      },
      "type": [ {
        "coding": [ {
          "system": "http://snomed.info/sct",
          "code": "32485007"
        } ]
      } ],
      "subject": {
        "reference": "Patient/77a6cd7b-4322-4c29-b248-64d8af106ce7"
      },
      "period": {
        "start": "2026-08-20T22:00:00.000+00:00",
        "end": "2026-08-22T12:00:00.000+00:00"
      },
      "length": {
        "value": 2,
        "unit": "days"
      },
      "reasonReference": [ {
        "reference": "Condition/5d149211-6328-4814-a5ec-444479ab4dd7"
      } ]
    },
    "request": {
      "method": "PUT",
      "url": "Encounter/89a2397d-e561-4437-8a9d-4586290a3d80"
    }
  }, {
    "fullUrl": "https://madie.cms.gov/Coverage/87c39da5-3bb1-4939-b7bf-45f26cb7c591",
    "resource": {
      "resourceType": "Coverage",
      "id": "87c39da5-3bb1-4939-b7bf-45f26cb7c591",
      "status": "active",
      "beneficiary": {
        "reference": "Patient/77a6cd7b-4322-4c29-b248-64d8af106ce7"
      },
      "period": {
        "start": "1994-08-21T07:00:00.000+00:00"
      },
      "payor": [ {
        "reference": "Organization/8cbdc691-ad2a-49e7-be6c-8b78db83a0a5"
      } ]
    },
    "request": {
      "method": "PUT",
      "url": "Coverage/87c39da5-3bb1-4939-b7bf-45f26cb7c591"
    }
  }, {
    "fullUrl": "https://madie.cms.gov/Condition/5d149211-6328-4814-a5ec-444479ab4dd7",
    "resource": {
      "resourceType": "Condition",
      "id": "5d149211-6328-4814-a5ec-444479ab4dd7",
      "meta": {
        "profile": [ "http://hl7.org/fhir/us/qicore/StructureDefinition/qicore-condition-encounter-diagnosis" ]
      },
      "clinicalStatus": {
        "coding": [ {
          "system": "http://terminology.hl7.org/CodeSystem/condition-clinical",
          "code": "active"
        } ]
      },
      "verificationStatus": {
        "coding": [ {
          "system": "http://terminology.hl7.org/CodeSystem/condition-ver-status",
          "code": "confirmed"
        } ]
      },
      "category": [ {
        "coding": [ {
          "system": "http://terminology.hl7.org/CodeSystem/condition-category",
          "code": "encounter-diagnosis",
          "display": "Encounter Diagnosis"
        } ]
      } ],
      "code": {
        "coding": [ {
          "system": "http://snomed.info/sct",
          "version": "2020-09",
          "code": "111297002",
          "display": "Nonparalytic stroke (disorder)",
          "userSelected": true
        } ]
      },
      "subject": {
        "reference": "Patient/77a6cd7b-4322-4c29-b248-64d8af106ce7"
      },
      "encounter": {
        "reference": "Encounter/89a2397d-e561-4437-8a9d-4586290a3d80"
      },
      "recordedDate": "2026-08-12T08:00:00.000+00:00"
    },
    "request": {
      "method": "PUT",
      "url": "Condition/5d149211-6328-4814-a5ec-444479ab4dd7"
    }
  }, {
    "fullUrl": "https://madie.cms.gov/claim/5ca62962b8484628b8de1ec5",
    "resource": {
      "resourceType": "Claim",
      "id": "5ca62962b8484628b8de1ec5",
      "meta": {
        "profile": [ "http://hl7.org/fhir/us/qicore/StructureDefinition/qicore-claim" ]
      },
      "status": "active",
      "type": {
        "coding": [ {
          "system": "http://terminology.hl7.org/CodeSystem/claim-type",
          "code": "institutional"
        } ]
      },
      "use": "claim",
      "patient": {
        "reference": "Patient/5450abfd-a667-4eb9-9b59-e85feed4865c"
      },
      "created": "2026-12-01",
      "provider": {
        "reference": "Practitioner/practitioner-123456"
      },
      "priority": {
        "coding": [ {
          "system": "http://terminology.hl7.org/CodeSystem/processpriority",
          "code": "normal"
        } ]
      },
      "diagnosis": [ {
        "sequence": 1,
        "diagnosisCodeableConcept": {
          "coding": [ {
            "system": "http://hl7.org/fhir/sid/icd-10-cm",
            "code": "I63.00"
          } ]
        },
        "type": [ {
          "coding": [ {
            "system": "http://terminology.hl7.org/CodeSystem/ex-diagnosistype",
            "code": "principal"
          } ]
        } ]
      } ],
      "insurance": [ {
        "sequence": 1,
        "focal": true,
        "coverage": {
          "reference": "Coverage/5fa041661c76ba66d9959367"
        }
      } ],
      "item": [ {
        "sequence": 1,
        "diagnosisSequence": [ 1 ],
        "productOrService": {
          "coding": [ {
            "system": "http://terminology.hl7.org/CodeSystem/ex-USCLS",
            "code": "99555"
          } ]
        },
        "encounter": [ {
          "reference": "Encounter/89a2397d-e561-4437-8a9d-4586290a3d80"
        } ]
      } ]
    },
    "request": {
      "method": "PUT",
      "url": "Claim/5ca62962b8484628b8de1ec5"
    }
  }, {
    "fullUrl": "https://madie.cms.gov/Organization/8cbdc691-ad2a-49e7-be6c-8b78db83a0a5",
    "resource": {
      "resourceType": "Organization",
      "id": "8cbdc691-ad2a-49e7-be6c-8b78db83a0a5",
      "meta": {
        "profile": [ "http://hl7.org/fhir/us/qicore/StructureDefinition/qicore-organization" ]
      },
      "identifier": [ {
        "use": "temp",
        "system": "urn:oid:2.16.840.1.113883.4.4",
        "value": "21-3259825"
      } ],
      "active": true,
      "type": [ {
        "coding": [ {
          "system": "http://terminology.hl7.org/CodeSystem/organization-type",
          "code": "pay",
          "display": "Payer"
        } ]
      } ],
      "name": "Blue Cross Blue Shield of Texas",
      "telecom": [ {
        "system": "phone",
        "value": "(+1) 972-766-6900"
      } ],
      "address": [ {
        "use": "billing",
        "type": "postal",
        "line": [ "P.O. Box 660044" ],
        "city": "Dallas",
        "state": "TX",
        "postalCode": "75266-0044",
        "country": "USA"
      } ]
    },
    "request": {
      "method": "PUT",
      "url": "Organization/8cbdc691-ad2a-49e7-be6c-8b78db83a0a5"
    }
  }, {
    "fullUrl": "https://madie.cms.gov/MeasureReport/4f061295-d171-48c8-a3b4-9dd6a321311a",
    "resource": {
      "resourceType": "MeasureReport",
      "id": "4f061295-d171-48c8-a3b4-9dd6a321311a",
      "meta": {
        "profile": [ "http://hl7.org/fhir/us/cqfmeasures/StructureDefinition/test-case-cqfm" ]
      },
      "contained": [ {
        "resourceType": "Parameters",
        "id": "83b5dd7b-0c9b-4ded-aba7-67abdae005c0-parameters",
        "parameter": [ {
          "name": "subject",
          "valueString": "77a6cd7b-4322-4c29-b248-64d8af106ce7"
        } ]
      } ],
      "extension": [ {
        "url": "http://hl7.org/fhir/StructureDefinition/cqf-inputParameters",
        "valueReference": {
          "reference": "#83b5dd7b-0c9b-4ded-aba7-67abdae005c0-parameters"
        }
      }, {
        "url": "http://hl7.org/fhir/us/cqfmeasures/StructureDefinition/cqfm-testCaseDescription",
        "valueMarkdown": "Patient has  ED Visit <= 1 hour ends before IP encounter and starts = 2 days before end of IP , global.Hospitalization ( = Ed +IP)\n"
      } ],
      "modifierExtension": [ {
        "url": "http://hl7.org/fhir/us/cqfmeasures/StructureDefinition/cqfm-isTestCase",
        "valueBoolean": true
      } ],
      "status": "complete",
      "type": "individual",
      "measure": "https://madie.cms.gov/Measure/CMS72FHIRSTKAntithromboticDay2",
      "period": {
        "start": "2026-01-01",
        "end": "2026-12-31"
      },
      "group": [ {
        "id": "Group_1",
        "population": [ {
          "id": "InitialPopulation_1",
          "code": {
            "coding": [ {
              "system": "http://terminology.hl7.org/CodeSystem/measure-population",
              "code": "initial-population",
              "display": "Initial Population"
            } ]
          },
          "count": 1
        }, {
          "id": "Denominator_1",
          "code": {
            "coding": [ {
              "system": "http://terminology.hl7.org/CodeSystem/measure-population",
              "code": "denominator",
              "display": "Denominator"
            } ]
          },
          "count": 1
        }, {
          "id": "DenominatorExclusion_1",
          "code": {
            "coding": [ {
              "system": "http://terminology.hl7.org/CodeSystem/measure-population",
              "code": "denominator-exclusion",
              "display": "Denominator Exclusion"
            } ]
          },
          "count": 0
        }, {
          "id": "Numerator_1",
          "code": {
            "coding": [ {
              "system": "http://terminology.hl7.org/CodeSystem/measure-population",
              "code": "numerator",
              "display": "Numerator"
            } ]
          },
          "count": 0
        }, {
          "id": "DenominatorException_1",
          "code": {
            "coding": [ {
              "system": "http://terminology.hl7.org/CodeSystem/measure-population",
              "code": "denominator-exception",
              "display": "Denominator Exception"
            } ]
          },
          "count": 0
        } ],
        "measureScore": {
          "value": 0.0
        }
      } ],
      "evaluatedResource": [ {
        "reference": "Patient/77a6cd7b-4322-4c29-b248-64d8af106ce7"
      }, {
        "reference": "Encounter/5aee2359-df3d-451a-a5f6-c10a86cfe399"
      }, {
        "reference": "Encounter/89a2397d-e561-4437-8a9d-4586290a3d80"
      }, {
        "reference": "Coverage/87c39da5-3bb1-4939-b7bf-45f26cb7c591"
      }, {
        "reference": "Condition/5d149211-6328-4814-a5ec-444479ab4dd7"
      }, {
        "reference": "Claim/5ca62962b8484628b8de1ec5"
      }, {
        "reference": "Organization/8cbdc691-ad2a-49e7-be6c-8b78db83a0a5"
      } ]
    },
    "request": {
      "method": "PUT",
      "url": "MeasureReport/4f061295-d171-48c8-a3b4-9dd6a321311a"
    }
  } ]
}