{
  "resourceType": "Bundle",
  "id": "633c9d030968f8012250fc8b",
  "type": "transaction",
  "entry": [ {
    "fullUrl": "https://madie.cms.gov/Patient/8646b35e-68e3-4932-ae69-0bd7fb4e7a27",
    "resource": {
      "resourceType": "Patient",
      "id": "8646b35e-68e3-4932-ae69-0bd7fb4e7a27",
      "meta": {
        "profile": [ "http://hl7.org/fhir/us/qicore/StructureDefinition/qicore-patient" ]
      },
      "text": {
        "status": "generated",
        "div": "<div xmlns=\"http://www.w3.org/1999/xhtml\"><div class=\"hapiHeaderText\">MedDCAnticoaStartsLT_EncStart <b>NUMERFAIL </b></div><table class=\"hapiPropertyTable\"><tbody><tr><td>Identifier</td><td>f98585d469325120c7402b7bc8149691</td></tr><tr><td>Date of birth</td><td><span>23 May 1954</span></td></tr></tbody></table></div>"
      },
      "extension": [ {
        "url": "http://hl7.org/fhir/us/core/StructureDefinition/us-core-race",
        "extension": [ {
          "url": "ombCategory",
          "valueCoding": {
            "system": "urn:oid:2.16.840.1.113883.6.238",
            "code": "1002-5",
            "display": "American Indian or Alaska Native",
            "userSelected": true
          }
        }, {
          "url": "text",
          "valueString": "American Indian or Alaska Native"
        } ]
      }, {
        "url": "http://hl7.org/fhir/us/core/StructureDefinition/us-core-ethnicity",
        "extension": [ {
          "url": "ombCategory",
          "valueCoding": {
            "system": "urn:oid:2.16.840.1.113883.6.238",
            "code": "2135-2",
            "display": "Hispanic or Latino",
            "userSelected": true
          }
        }, {
          "url": "text",
          "valueString": "Hispanic or Latino"
        } ]
      } ],
      "identifier": [ {
        "type": {
          "coding": [ {
            "system": "http://terminology.hl7.org/CodeSystem/v2-0203",
            "code": "MR"
          } ]
        },
        "system": "https://bonnie-fhir.healthit.gov/",
        "value": "633c9d030968f8012250fc8b"
      } ],
      "active": true,
      "name": [ {
        "use": "usual",
        "family": "NUMERFail",
        "given": [ "MedDCAnticoaStartsLT_EncStart" ]
      } ],
      "gender": "female",
      "birthDate": "1955-05-23"
    },
    "request": {
      "method": "PUT",
      "url": "Patient/8646b35e-68e3-4932-ae69-0bd7fb4e7a27"
    }
  }, {
    "fullUrl": "https://madie.cms.gov/Encounter/28d7c131-9665-4012-b6aa-3fd98f10a414",
    "resource": {
      "resourceType": "Encounter",
      "id": "28d7c131-9665-4012-b6aa-3fd98f10a414",
      "meta": {
        "profile": [ "http://hl7.org/fhir/us/qicore/StructureDefinition/qicore-encounter" ]
      },
      "status": "finished",
      "class": {
        "system": "http://terminology.hl7.org/CodeSystem/v3-ActCode",
        "code": "IMP",
        "display": "inpatient encounter"
      },
      "type": [ {
        "coding": [ {
          "system": "http://snomed.info/sct",
          "code": "32485007"
        } ]
      } ],
      "subject": {
        "reference": "Patient/8646b35e-68e3-4932-ae69-0bd7fb4e7a27"
      },
      "period": {
        "start": "2026-11-20T08:00:00.000+00:00",
        "end": "2026-11-24T08:15:00.000+00:00"
      },
      "length": {
        "value": 4,
        "unit": "days"
      },
      "reasonReference": [ {
        "reference": "Condition/32233650-c9ec-47c1-b10b-8f67a1c41ddf"
      } ]
    },
    "request": {
      "method": "PUT",
      "url": "Encounter/28d7c131-9665-4012-b6aa-3fd98f10a414"
    }
  }, {
    "fullUrl": "https://madie.cms.gov/claim/5ca62962b8484628b8de1ec5",
    "resource": {
      "resourceType": "Claim",
      "id": "5ca62962b8484628b8de1ec5",
      "meta": {
        "profile": [ "http://hl7.org/fhir/us/qicore/StructureDefinition/qicore-claim" ]
      },
      "status": "active",
      "type": {
        "coding": [ {
          "system": "http://terminology.hl7.org/CodeSystem/claim-type",
          "code": "institutional"
        } ]
      },
      "use": "claim",
      "patient": {
        "reference": "Patient/d170a0a8-b5ad-4303-b6df-e304dd5f92ad"
      },
      "created": "2026-12-01",
      "provider": {
        "reference": "Practitioner/1b487df0-d0d3-482d-bbde-f8d3ea6725b3"
      },
      "priority": {
        "coding": [ {
          "system": "http://terminology.hl7.org/CodeSystem/processpriority",
          "code": "normal"
        } ]
      },
      "diagnosis": [ {
        "sequence": 1,
        "diagnosisCodeableConcept": {
          "coding": [ {
            "system": "http://hl7.org/fhir/sid/icd-10-cm",
            "code": "I63.00"
          } ]
        },
        "type": [ {
          "coding": [ {
            "system": "http://terminology.hl7.org/CodeSystem/ex-diagnosistype",
            "code": "principal"
          } ]
        } ]
      } ],
      "insurance": [ {
        "sequence": 1,
        "focal": true,
        "coverage": {
          "reference": "Coverage/5fa041661c76ba66d9959367"
        }
      } ],
      "item": [ {
        "sequence": 1,
        "diagnosisSequence": [ 1 ],
        "productOrService": {
          "coding": [ {
            "system": "http://terminology.hl7.org/CodeSystem/ex-USCLS",
            "code": "99555"
          } ]
        },
        "encounter": [ {
          "reference": "Encounter/28d7c131-9665-4012-b6aa-3fd98f10a414"
        } ]
      } ]
    },
    "request": {
      "method": "PUT",
      "url": "Claim/5ca62962b8484628b8de1ec5"
    }
  }, {
    "fullUrl": "https://madie.cms.gov/MedicationRequest/73a86922-a3b0-402f-9f3f-faf25d374696",
    "resource": {
      "resourceType": "MedicationRequest",
      "id": "73a86922-a3b0-402f-9f3f-faf25d374696",
      "meta": {
        "profile": [ "http://hl7.org/fhir/us/qicore/StructureDefinition/qicore-medicationrequest" ]
      },
      "status": "active",
      "intent": "order",
      "medicationCodeableConcept": {
        "coding": [ {
          "system": "http://www.nlm.nih.gov/research/umls/rxnorm",
          "code": "1037045"
        } ]
      },
      "subject": {
        "reference": "Patient/8646b35e-68e3-4932-ae69-0bd7fb4e7a27"
      },
      "authoredOn": "2026-11-20T07:59:00.000+00:00",
      "requester": {
        "reference": "Practitioner/example"
      }
    },
    "request": {
      "method": "PUT",
      "url": "MedicationRequest/73a86922-a3b0-402f-9f3f-faf25d374696"
    }
  }, {
    "fullUrl": "https://madie.cms.gov/Coverage/fe0e7ee4-9596-46b6-8f33-e1d8826cbd9b",
    "resource": {
      "resourceType": "Coverage",
      "id": "fe0e7ee4-9596-46b6-8f33-e1d8826cbd9b",
      "meta": {
        "profile": [ "http://hl7.org/fhir/us/qicore/StructureDefinition/qicore-coverage" ]
      },
      "status": "active",
      "subscriberId": "523435",
      "beneficiary": {
        "reference": "Patient/162a5913-9989-42f2-8d6a-ae460e245e4c"
      },
      "relationship": {
        "coding": [ {
          "system": "http://terminology.hl7.org/CodeSystem/subscriber-relationship",
          "code": "self"
        } ]
      },
      "payor": [ {
        "reference": "Organization/17b4a0fc-aa44-4ed6-a584-e0ca931ef053"
      } ]
    },
    "request": {
      "method": "PUT",
      "url": "Coverage/fe0e7ee4-9596-46b6-8f33-e1d8826cbd9b"
    }
  }, {
    "fullUrl": "https://madie.cms.gov/Procedure/81464c4b-34a1-4bf2-9d4b-af8891f13f75",
    "resource": {
      "resourceType": "Procedure",
      "id": "81464c4b-34a1-4bf2-9d4b-af8891f13f75",
      "meta": {
        "profile": [ "http://hl7.org/fhir/us/qicore/StructureDefinition/qicore-procedure" ]
      },
      "extension": [ {
        "url": "http://hl7.org/fhir/us/qicore/StructureDefinition/qicore-recorded",
        "valueDateTime": "2026-11-19T13:35:00.000+00:00"
      } ],
      "status": "completed",
      "code": {
        "coding": [ {
          "system": "http://www.cms.gov/Medicare/Coding/ICD10",
          "code": "02560ZZ"
        }, {
          "system": "http://snomed.info/sct",
          "code": "175095005"
        } ]
      },
      "subject": {
        "reference": "Patient/8646b35e-68e3-4932-ae69-0bd7fb4e7a27"
      },
      "performedPeriod": {
        "start": "2026-11-20T06:00:00.000+00:00",
        "end": "2026-11-20T07:15:00.000+00:00"
      }
    },
    "request": {
      "method": "PUT",
      "url": "Procedure/81464c4b-34a1-4bf2-9d4b-af8891f13f75"
    }
  }, {
    "fullUrl": "https://madie.cms.gov/Condition/32233650-c9ec-47c1-b10b-8f67a1c41ddf",
    "resource": {
      "resourceType": "Condition",
      "id": "32233650-c9ec-47c1-b10b-8f67a1c41ddf",
      "meta": {
        "profile": [ "http://hl7.org/fhir/us/qicore/StructureDefinition/qicore-condition-problems-health-concerns" ]
      },
      "clinicalStatus": {
        "coding": [ {
          "system": "http://terminology.hl7.org/CodeSystem/condition-clinical",
          "code": "active"
        } ]
      },
      "verificationStatus": {
        "coding": [ {
          "system": "http://terminology.hl7.org/CodeSystem/condition-ver-status",
          "code": "confirmed"
        } ]
      },
      "category": [ {
        "coding": [ {
          "system": "http://terminology.hl7.org/CodeSystem/condition-category",
          "code": "encounter-diagnosis",
          "display": "Encounter Diagnosis"
        } ]
      } ],
      "code": {
        "coding": [ {
          "system": "http://snomed.info/sct",
          "version": "2021-09",
          "code": "111297002",
          "display": "Nonparalytic stroke (disorder)",
          "userSelected": true
        } ]
      },
      "subject": {
        "reference": "Patient/8646b35e-68e3-4932-ae69-0bd7fb4e7a27"
      },
      "recordedDate": "2026-10-13T08:00:00.000+00:00"
    },
    "request": {
      "method": "PUT",
      "url": "Condition/32233650-c9ec-47c1-b10b-8f67a1c41ddf"
    }
  }, {
    "fullUrl": "https://madie.cms.gov/Organization/17b4a0fc-aa44-4ed6-a584-e0ca931ef053",
    "resource": {
      "resourceType": "Organization",
      "id": "17b4a0fc-aa44-4ed6-a584-e0ca931ef053",
      "meta": {
        "profile": [ "http://hl7.org/fhir/us/qicore/StructureDefinition/qicore-organization" ]
      },
      "identifier": [ {
        "use": "temp",
        "system": "urn:oid:2.16.840.1.113883.4.4",
        "value": "21-3259825"
      } ],
      "active": true,
      "type": [ {
        "coding": [ {
          "system": "http://terminology.hl7.org/CodeSystem/organization-type",
          "code": "pay",
          "display": "Payer"
        } ]
      } ],
      "name": "Blue Cross Blue Shield of Texas",
      "telecom": [ {
        "system": "phone",
        "value": "(+1) 972-766-6900"
      } ],
      "address": [ {
        "use": "billing",
        "type": "postal",
        "line": [ "P.O. Box 660044" ],
        "city": "Dallas",
        "state": "TX",
        "postalCode": "75266-0044",
        "country": "USA"
      } ]
    },
    "request": {
      "method": "PUT",
      "url": "Organization/17b4a0fc-aa44-4ed6-a584-e0ca931ef053"
    }
  }, {
    "fullUrl": "https://madie.cms.gov/Practitioner/1b487df0-d0d3-482d-bbde-f8d3ea6725b3",
    "resource": {
      "resourceType": "Practitioner",
      "id": "1b487df0-d0d3-482d-bbde-f8d3ea6725b3",
      "meta": {
        "profile": [ "http://hl7.org/fhir/us/qicore/StructureDefinition/qicore-practitioner" ]
      },
      "identifier": [ {
        "system": "http://hl7.org/fhir/sid/us-npi",
        "value": "9999999896"
      } ],
      "name": [ {
        "family": "Evil",
        "prefix": [ "Dr" ]
      } ]
    },
    "request": {
      "method": "PUT",
      "url": "Practitioner/1b487df0-d0d3-482d-bbde-f8d3ea6725b3"
    }
  }, {
    "fullUrl": "https://madie.cms.gov/MeasureReport/202f67ac-9368-4b22-a468-d9d92bbffc10",
    "resource": {
      "resourceType": "MeasureReport",
      "id": "202f67ac-9368-4b22-a468-d9d92bbffc10",
      "meta": {
        "profile": [ "http://hl7.org/fhir/us/cqfmeasures/StructureDefinition/test-case-cqfm" ]
      },
      "contained": [ {
        "resourceType": "Parameters",
        "id": "2d29e3f8-0a91-436d-bd55-a22bc188da51-parameters",
        "parameter": [ {
          "name": "subject",
          "valueString": "8646b35e-68e3-4932-ae69-0bd7fb4e7a27"
        } ]
      } ],
      "extension": [ {
        "url": "http://hl7.org/fhir/StructureDefinition/cqf-inputParameters",
        "valueReference": {
          "reference": "#2d29e3f8-0a91-436d-bd55-a22bc188da51-parameters"
        }
      }, {
        "url": "http://hl7.org/fhir/us/cqfmeasures/StructureDefinition/cqfm-testCaseDescription",
        "valueMarkdown": "Pt. discharged on anticoagulant, starts before OccurA\n"
      } ],
      "modifierExtension": [ {
        "url": "http://hl7.org/fhir/us/cqfmeasures/StructureDefinition/cqfm-isTestCase",
        "valueBoolean": true
      } ],
      "status": "complete",
      "type": "individual",
      "measure": "https://madie.cms.gov/Measure/CMS71FHIRSTKAnticoagAFFlutter",
      "period": {
        "start": "2026-01-01",
        "end": "2026-12-31"
      },
      "group": [ {
        "id": "Group_1",
        "population": [ {
          "id": "InitialPopulation_1",
          "code": {
            "coding": [ {
              "system": "http://terminology.hl7.org/CodeSystem/measure-population",
              "code": "initial-population",
              "display": "Initial Population"
            } ]
          },
          "count": 1
        }, {
          "id": "Denominator_1",
          "code": {
            "coding": [ {
              "system": "http://terminology.hl7.org/CodeSystem/measure-population",
              "code": "denominator",
              "display": "Denominator"
            } ]
          },
          "count": 1
        }, {
          "id": "DenominatorExclusion_1",
          "code": {
            "coding": [ {
              "system": "http://terminology.hl7.org/CodeSystem/measure-population",
              "code": "denominator-exclusion",
              "display": "Denominator Exclusion"
            } ]
          },
          "count": 0
        }, {
          "id": "Numerator_1",
          "code": {
            "coding": [ {
              "system": "http://terminology.hl7.org/CodeSystem/measure-population",
              "code": "numerator",
              "display": "Numerator"
            } ]
          },
          "count": 0
        }, {
          "id": "DenominatorException_1",
          "code": {
            "coding": [ {
              "system": "http://terminology.hl7.org/CodeSystem/measure-population",
              "code": "denominator-exception",
              "display": "Denominator Exception"
            } ]
          },
          "count": 0
        } ],
        "measureScore": {
          "value": 0.0
        }
      } ],
      "evaluatedResource": [ {
        "reference": "Patient/8646b35e-68e3-4932-ae69-0bd7fb4e7a27"
      }, {
        "reference": "Encounter/28d7c131-9665-4012-b6aa-3fd98f10a414"
      }, {
        "reference": "Claim/5ca62962b8484628b8de1ec5"
      }, {
        "reference": "MedicationRequest/73a86922-a3b0-402f-9f3f-faf25d374696"
      }, {
        "reference": "Coverage/fe0e7ee4-9596-46b6-8f33-e1d8826cbd9b"
      }, {
        "reference": "Procedure/81464c4b-34a1-4bf2-9d4b-af8891f13f75"
      }, {
        "reference": "Condition/32233650-c9ec-47c1-b10b-8f67a1c41ddf"
      }, {
        "reference": "Organization/17b4a0fc-aa44-4ed6-a584-e0ca931ef053"
      }, {
        "reference": "Practitioner/1b487df0-d0d3-482d-bbde-f8d3ea6725b3"
      } ]
    },
    "request": {
      "method": "PUT",
      "url": "MeasureReport/202f67ac-9368-4b22-a468-d9d92bbffc10"
    }
  } ]
}