{
  "resourceType": "Bundle",
  "id": "EncounterFallandModInjuryNPOA",
  "type": "transaction",
  "entry": [ {
    "fullUrl": "https://madie.cms.gov/Encounter/b318a073-9927-40d0-a74c-eb2cbe9f4498",
    "resource": {
      "resourceType": "Encounter",
      "id": "b318a073-9927-40d0-a74c-eb2cbe9f4498",
      "meta": {
        "profile": [ "http://hl7.org/fhir/us/qicore/StructureDefinition/qicore-encounter" ]
      },
      "status": "finished",
      "class": {
        "system": "http://terminology.hl7.org/CodeSystem/v3-ActCode",
        "code": "IMP",
        "display": "inpatient encounter"
      },
      "type": [ {
        "coding": [ {
          "system": "http://snomed.info/sct",
          "code": "183452005"
        } ]
      } ],
      "subject": {
        "reference": "Patient/d305cce9-ad3c-4259-9f9d-6026974fa847"
      },
      "period": {
        "start": "2026-11-09T11:00:00.000+00:00",
        "end": "2026-11-13T08:15:00.000+00:00"
      },
      "reasonReference": [ {
        "reference": "Condition/6a83e7c3-0031-451f-8877-606f1329a032"
      }, {
        "reference": "Condition/b0525771-80ea-408d-83c1-5349b821c552"
      } ]
    },
    "request": {
      "method": "PUT",
      "url": "Encounter/b318a073-9927-40d0-a74c-eb2cbe9f4498"
    }
  }, {
    "fullUrl": "https://madie.cms.gov/Encounter/bd9fa487-b35c-451d-8d93-129a0fbf4d57",
    "resource": {
      "resourceType": "Encounter",
      "id": "bd9fa487-b35c-451d-8d93-129a0fbf4d57",
      "meta": {
        "profile": [ "http://hl7.org/fhir/us/qicore/StructureDefinition/qicore-encounter" ]
      },
      "status": "finished",
      "class": {
        "system": "http://terminology.hl7.org/CodeSystem/v3-ActCode",
        "code": "IMP",
        "display": "inpatient encounter"
      },
      "type": [ {
        "coding": [ {
          "system": "http://snomed.info/sct",
          "code": "4525004"
        } ]
      } ],
      "subject": {
        "reference": "Patient/d305cce9-ad3c-4259-9f9d-6026974fa847"
      },
      "period": {
        "start": "2026-11-09T08:00:00.000+00:00",
        "end": "2026-11-09T10:15:00.000+00:00"
      }
    },
    "request": {
      "method": "PUT",
      "url": "Encounter/bd9fa487-b35c-451d-8d93-129a0fbf4d57"
    }
  }, {
    "fullUrl": "https://madie.cms.gov/Condition/b0525771-80ea-408d-83c1-5349b821c552",
    "resource": {
      "resourceType": "Condition",
      "id": "b0525771-80ea-408d-83c1-5349b821c552",
      "meta": {
        "profile": [ "http://hl7.org/fhir/us/qicore/StructureDefinition/qicore-condition-encounter-diagnosis" ]
      },
      "clinicalStatus": {
        "coding": [ {
          "system": "http://terminology.hl7.org/CodeSystem/condition-clinical",
          "code": "active"
        } ]
      },
      "verificationStatus": {
        "coding": [ {
          "system": "http://terminology.hl7.org/CodeSystem/condition-ver-status",
          "code": "confirmed"
        } ]
      },
      "category": [ {
        "coding": [ {
          "system": "http://terminology.hl7.org/CodeSystem/condition-category",
          "code": "encounter-diagnosis",
          "display": "Encounter Diagnosis"
        } ]
      } ],
      "code": {
        "coding": [ {
          "system": "http://hl7.org/fhir/sid/icd-10-cm",
          "code": "S01.02XA"
        } ]
      },
      "subject": {
        "reference": "Patient/d305cce9-ad3c-4259-9f9d-6026974fa847"
      },
      "encounter": {
        "reference": "Encounter/b318a073-9927-40d0-a74c-eb2cbe9f4498"
      }
    },
    "request": {
      "method": "PUT",
      "url": "Condition/b0525771-80ea-408d-83c1-5349b821c552"
    }
  }, {
    "fullUrl": "https://madie.cms.gov/Condition/6a83e7c3-0031-451f-8877-606f1329a032",
    "resource": {
      "resourceType": "Condition",
      "id": "6a83e7c3-0031-451f-8877-606f1329a032",
      "meta": {
        "profile": [ "http://hl7.org/fhir/us/qicore/StructureDefinition/qicore-condition-encounter-diagnosis" ]
      },
      "clinicalStatus": {
        "coding": [ {
          "system": "http://terminology.hl7.org/CodeSystem/condition-clinical",
          "code": "active"
        } ]
      },
      "verificationStatus": {
        "coding": [ {
          "system": "http://terminology.hl7.org/CodeSystem/condition-ver-status",
          "code": "confirmed"
        } ]
      },
      "category": [ {
        "coding": [ {
          "system": "http://terminology.hl7.org/CodeSystem/condition-category",
          "code": "encounter-diagnosis",
          "display": "Encounter Diagnosis"
        } ]
      } ],
      "code": {
        "coding": [ {
          "system": "http://hl7.org/fhir/sid/icd-10-cm",
          "code": "W01.0XXA"
        } ]
      },
      "subject": {
        "reference": "Patient/d305cce9-ad3c-4259-9f9d-6026974fa847"
      },
      "encounter": {
        "reference": "Encounter/b318a073-9927-40d0-a74c-eb2cbe9f4498"
      }
    },
    "request": {
      "method": "PUT",
      "url": "Condition/6a83e7c3-0031-451f-8877-606f1329a032"
    }
  }, {
    "fullUrl": "https://madie.cms.gov/Patient/d305cce9-ad3c-4259-9f9d-6026974fa847",
    "resource": {
      "resourceType": "Patient",
      "id": "d305cce9-ad3c-4259-9f9d-6026974fa847",
      "meta": {
        "profile": [ "http://hl7.org/fhir/us/qicore/StructureDefinition/qicore-patient" ]
      },
      "extension": [ {
        "url": "http://hl7.org/fhir/us/core/StructureDefinition/us-core-race",
        "extension": [ {
          "url": "ombCategory",
          "valueCoding": {
            "system": "urn:oid:2.16.840.1.113883.6.238",
            "code": "2028-9",
            "display": "Asian",
            "userSelected": true
          }
        }, {
          "url": "text",
          "valueString": "Asian"
        } ]
      }, {
        "url": "http://hl7.org/fhir/us/core/StructureDefinition/us-core-ethnicity",
        "extension": [ {
          "url": "ombCategory",
          "valueCoding": {
            "system": "urn:oid:2.16.840.1.113883.6.238",
            "code": "2186-5",
            "display": "Not Hispanic or Latino",
            "userSelected": true
          }
        }, {
          "url": "text",
          "valueString": "Not Hispanic or Latino"
        } ]
      } ],
      "identifier": [ {
        "type": {
          "coding": [ {
            "system": "http://terminology.hl7.org/CodeSystem/v2-0203",
            "code": "MR"
          } ]
        },
        "system": "https://bonnie-fhir.healthit.gov/",
        "value": "61152a3b98086b7a79cbd7c1"
      } ],
      "active": true,
      "name": [ {
        "use": "usual",
        "family": "NUMERPass",
        "given": [ "EncounterFallandModInjuryNPOA" ]
      } ],
      "gender": "male",
      "birthDate": "2000-09-09"
    },
    "request": {
      "method": "PUT",
      "url": "Patient/d305cce9-ad3c-4259-9f9d-6026974fa847"
    }
  }, {
    "fullUrl": "https://madie.cms.gov/Claim/94a26684-69aa-4931-a81a-4136759c2949",
    "resource": {
      "resourceType": "Claim",
      "id": "94a26684-69aa-4931-a81a-4136759c2949",
      "meta": {
        "profile": [ "http://hl7.org/fhir/us/qicore/StructureDefinition/qicore-claim" ]
      },
      "status": "active",
      "type": {
        "coding": [ {
          "system": "http://terminology.hl7.org/CodeSystem/claim-type",
          "code": "institutional"
        } ]
      },
      "use": "claim",
      "patient": {
        "reference": "Patient/d305cce9-ad3c-4259-9f9d-6026974fa847"
      },
      "billablePeriod": {
        "start": "2026-11-09",
        "end": "2026-11-13"
      },
      "created": "2026-11-13",
      "provider": {
        "reference": "Practitioner/practitioner-1"
      },
      "priority": {
        "coding": [ {
          "code": "normal"
        } ]
      },
      "diagnosis": [ {
        "sequence": 1,
        "diagnosisCodeableConcept": {
          "coding": [ {
            "system": "http://hl7.org/fhir/sid/icd-10-cm",
            "code": "W01.0XXA"
          } ]
        },
        "onAdmission": {
          "coding": [ {
            "system": "https://www.cms.gov/Medicare/Medicare-Fee-for-Service-Payment/HospitalAcqCond/Coding",
            "code": "N"
          } ]
        }
      } ],
      "insurance": [ {
        "sequence": 1,
        "focal": true,
        "coverage": {
          "reference": "Coverage/coverage-1"
        }
      } ],
      "item": [ {
        "sequence": 1,
        "diagnosisSequence": [ 1, 2 ],
        "productOrService": {
          "coding": [ {
            "system": "http://terminology.hl7.org/CodeSystem/ex-USCLS",
            "code": "1101"
          } ]
        },
        "encounter": [ {
          "reference": "Encounter/b318a073-9927-40d0-a74c-eb2cbe9f4498"
        } ]
      } ]
    },
    "request": {
      "method": "PUT",
      "url": "Claim/94a26684-69aa-4931-a81a-4136759c2949"
    }
  }, {
    "fullUrl": "https://madie.cms.gov/Claim/516e2971-feb4-414f-856b-28bddeec91ad",
    "resource": {
      "resourceType": "Claim",
      "id": "516e2971-feb4-414f-856b-28bddeec91ad",
      "meta": {
        "profile": [ "http://hl7.org/fhir/us/qicore/StructureDefinition/qicore-claim" ]
      },
      "status": "active",
      "type": {
        "coding": [ {
          "system": "http://terminology.hl7.org/CodeSystem/claim-type",
          "code": "institutional"
        } ]
      },
      "use": "claim",
      "patient": {
        "reference": "Patient/d305cce9-ad3c-4259-9f9d-6026974fa847"
      },
      "billablePeriod": {
        "start": "2026-11-09",
        "end": "2026-11-13"
      },
      "created": "2026-11-13",
      "provider": {
        "reference": "Practitioner/practitioner-1"
      },
      "priority": {
        "coding": [ {
          "code": "normal"
        } ]
      },
      "diagnosis": [ {
        "sequence": 2,
        "diagnosisCodeableConcept": {
          "coding": [ {
            "system": "http://hl7.org/fhir/sid/icd-10-cm",
            "code": "S01.02XA"
          } ]
        },
        "onAdmission": {
          "coding": [ {
            "system": "https://www.cms.gov/Medicare/Medicare-Fee-for-Service-Payment/HospitalAcqCond/Coding",
            "code": "U"
          } ]
        }
      } ],
      "insurance": [ {
        "sequence": 1,
        "focal": true,
        "coverage": {
          "reference": "Coverage/coverage-1"
        }
      } ],
      "item": [ {
        "sequence": 1,
        "diagnosisSequence": [ 1, 2 ],
        "productOrService": {
          "coding": [ {
            "system": "http://terminology.hl7.org/CodeSystem/ex-USCLS",
            "code": "1101"
          } ]
        },
        "encounter": [ {
          "reference": "Encounter/b318a073-9927-40d0-a74c-eb2cbe9f4498"
        } ]
      } ]
    },
    "request": {
      "method": "PUT",
      "url": "Claim/516e2971-feb4-414f-856b-28bddeec91ad"
    }
  }, {
    "fullUrl": "https://madie.cms.gov/Practitioner/609af1a2-2251-4e9e-bf22-143d94309d66",
    "resource": {
      "resourceType": "Practitioner",
      "id": "609af1a2-2251-4e9e-bf22-143d94309d66",
      "identifier": [ {
        "system": "http://www.cms.gov/identifiers/pracitioners",
        "value": "P12345"
      } ],
      "name": [ {
        "use": "official",
        "family": "Smith",
        "given": [ "John" ]
      } ],
      "qualification": [ {
        "identifier": [ {
          "system": "http://hl7.org/fhir/sid/us-npi",
          "value": "1234567890"
        } ],
        "code": {
          "coding": [ {
            "system": "http://terminology.hl7.org/CodeSystem/v2-0203",
            "code": "MD",
            "display": "Medical License number"
          } ]
        }
      } ]
    },
    "request": {
      "method": "PUT",
      "url": "Practitioner/609af1a2-2251-4e9e-bf22-143d94309d66"
    }
  }, {
    "fullUrl": "https://madie.cms.gov/Coverage/daefb3c4-73b1-4ab4-be33-7ad9ab95144c",
    "resource": {
      "resourceType": "Coverage",
      "id": "daefb3c4-73b1-4ab4-be33-7ad9ab95144c",
      "status": "active",
      "beneficiary": {
        "reference": "Patient/d305cce9-ad3c-4259-9f9d-6026974fa847"
      },
      "payor": [ {
        "reference": "Organization/ed372c70-ad2c-485f-bbbb-161715dd921e"
      } ]
    },
    "request": {
      "method": "PUT",
      "url": "Coverage/daefb3c4-73b1-4ab4-be33-7ad9ab95144c"
    }
  }, {
    "fullUrl": "https://madie.cms.gov/Organization/ed372c70-ad2c-485f-bbbb-161715dd921e",
    "resource": {
      "resourceType": "Organization",
      "id": "ed372c70-ad2c-485f-bbbb-161715dd921e",
      "identifier": [ {
        "system": "http://cms.gov/insurance-ids",
        "value": "AET12345"
      } ],
      "type": [ {
        "coding": [ {
          "system": "http://terminology.hl7.org/CodeSystem/organization-type",
          "code": "prov",
          "display": "Healthcare Provider"
        } ]
      } ],
      "name": "Aetna Insurance",
      "telecom": [ {
        "system": "phone",
        "value": "+1-800-123-4567"
      } ],
      "address": [ {
        "line": [ "123 Main Street" ],
        "city": "Cityville",
        "state": "CA",
        "postalCode": "12345",
        "country": "USA"
      } ]
    },
    "request": {
      "method": "PUT",
      "url": "Organization/ed372c70-ad2c-485f-bbbb-161715dd921e"
    }
  }, {
    "fullUrl": "https://madie.cms.gov/MeasureReport/a73c73db-78f6-428b-89ae-9f1907b86dfc",
    "resource": {
      "resourceType": "MeasureReport",
      "id": "a73c73db-78f6-428b-89ae-9f1907b86dfc",
      "meta": {
        "profile": [ "http://hl7.org/fhir/us/cqfmeasures/StructureDefinition/test-case-cqfm" ]
      },
      "contained": [ {
        "resourceType": "Parameters",
        "id": "f9ece493-70b1-4f6b-b2c7-3b53365f1a05-parameters",
        "parameter": [ {
          "name": "subject",
          "valueString": "d305cce9-ad3c-4259-9f9d-6026974fa847"
        } ]
      } ],
      "extension": [ {
        "url": "http://hl7.org/fhir/StructureDefinition/cqf-inputParameters",
        "valueReference": {
          "reference": "#f9ece493-70b1-4f6b-b2c7-3b53365f1a05-parameters"
        }
      }, {
        "url": "http://hl7.org/fhir/us/cqfmeasures/StructureDefinition/cqfm-testCaseDescription",
        "valueMarkdown": "Encounter with a fall and mod injury NPOA"
      } ],
      "modifierExtension": [ {
        "url": "http://hl7.org/fhir/us/cqfmeasures/StructureDefinition/cqfm-isTestCase",
        "valueBoolean": true
      } ],
      "status": "complete",
      "type": "individual",
      "measure": "https://madie.cms.gov/Measure/CMS1017FHIRHHFI",
      "period": {
        "start": "2026-01-01",
        "end": "2026-12-31"
      },
      "group": [ {
        "id": "Group_1",
        "population": [ {
          "id": "InitialPopulation_1",
          "code": {
            "coding": [ {
              "system": "http://terminology.hl7.org/CodeSystem/measure-population",
              "code": "initial-population",
              "display": "Initial Population"
            } ]
          },
          "count": 1
        }, {
          "id": "Denominator_1",
          "code": {
            "coding": [ {
              "system": "http://terminology.hl7.org/CodeSystem/measure-population",
              "code": "denominator",
              "display": "Denominator"
            } ]
          },
          "count": 1
        }, {
          "id": "DenominatorExclusion_1",
          "code": {
            "coding": [ {
              "system": "http://terminology.hl7.org/CodeSystem/measure-population",
              "code": "denominator-exclusion",
              "display": "Denominator Exclusion"
            } ]
          },
          "count": 0
        }, {
          "id": "Numerator_1",
          "code": {
            "coding": [ {
              "system": "http://terminology.hl7.org/CodeSystem/measure-population",
              "code": "numerator",
              "display": "Numerator"
            } ]
          },
          "count": 1
        }, {
          "id": "NumeratorExclusion_1",
          "code": {
            "coding": [ {
              "system": "http://terminology.hl7.org/CodeSystem/measure-population",
              "code": "numerator-exclusion",
              "display": "Numerator Exclusion"
            } ]
          },
          "count": 0
        }, {
          "id": "MeasureObservation_1_1_1",
          "code": {
            "coding": [ {
              "system": "http://terminology.hl7.org/CodeSystem/measure-population",
              "code": "measure-observation",
              "display": "Measure Observation"
            } ]
          },
          "count": 4
        }, {
          "id": "MeasureObservation_1_2_1",
          "code": {
            "coding": [ {
              "system": "http://terminology.hl7.org/CodeSystem/measure-population",
              "code": "measure-observation",
              "display": "Measure Observation"
            } ]
          },
          "count": 1
        } ],
        "measureScore": {
          "value": 0.0
        }
      } ],
      "evaluatedResource": [ {
        "reference": "Encounter/b318a073-9927-40d0-a74c-eb2cbe9f4498"
      }, {
        "reference": "Encounter/bd9fa487-b35c-451d-8d93-129a0fbf4d57"
      }, {
        "reference": "Condition/b0525771-80ea-408d-83c1-5349b821c552"
      }, {
        "reference": "Condition/6a83e7c3-0031-451f-8877-606f1329a032"
      }, {
        "reference": "Patient/d305cce9-ad3c-4259-9f9d-6026974fa847"
      }, {
        "reference": "Claim/94a26684-69aa-4931-a81a-4136759c2949"
      }, {
        "reference": "Claim/516e2971-feb4-414f-856b-28bddeec91ad"
      }, {
        "reference": "Practitioner/609af1a2-2251-4e9e-bf22-143d94309d66"
      }, {
        "reference": "Coverage/daefb3c4-73b1-4ab4-be33-7ad9ab95144c"
      }, {
        "reference": "Organization/ed372c70-ad2c-485f-bbbb-161715dd921e"
      } ]
    },
    "request": {
      "method": "PUT",
      "url": "MeasureReport/a73c73db-78f6-428b-89ae-9f1907b86dfc"
    }
  } ]
}