{
  "resourceType": "Bundle",
  "id": "63487c300968f801225401bd",
  "type": "transaction",
  "entry": [ {
    "fullUrl": "https://madie.cms.gov/Patient/faa0909e-a3b5-4fb2-885a-e8ddd20b9ab0",
    "resource": {
      "resourceType": "Patient",
      "id": "faa0909e-a3b5-4fb2-885a-e8ddd20b9ab0",
      "meta": {
        "profile": [ "http://hl7.org/fhir/us/qicore/StructureDefinition/qicore-patient" ]
      },
      "text": {
        "status": "generated",
        "div": "<div xmlns=\"http://www.w3.org/1999/xhtml\"><div class=\"hapiHeaderText\">AssessPreTermMissingResult <b>DENOMFail</b></div><table class=\"hapiPropertyTable\"><tbody><tr><td>Identifier</td><td>68ae6e24f0fface97c058e998841dc5fd1e621f11f5d5bc2aeef1a3a248ebc14</td></tr><tr><td>Date of birth</td><td><span>14 February 1985</span></td></tr></tbody></table></div>"
      },
      "extension": [ {
        "url": "http://hl7.org/fhir/us/core/StructureDefinition/us-core-race",
        "extension": [ {
          "url": "ombCategory",
          "valueCoding": {
            "system": "urn:oid:2.16.840.1.113883.6.238",
            "code": "1002-5",
            "display": "American Indian or Alaska Native",
            "userSelected": true
          }
        }, {
          "url": "text",
          "valueString": "American Indian or Alaska Native"
        } ]
      }, {
        "url": "http://hl7.org/fhir/us/core/StructureDefinition/us-core-ethnicity",
        "extension": [ {
          "url": "ombCategory",
          "valueCoding": {
            "system": "urn:oid:2.16.840.1.113883.6.238",
            "code": "2135-2",
            "display": "Hispanic or Latino",
            "userSelected": true
          }
        }, {
          "url": "text",
          "valueString": "Hispanic or Latino"
        } ]
      } ],
      "identifier": [ {
        "type": {
          "coding": [ {
            "system": "http://terminology.hl7.org/CodeSystem/v2-0203",
            "code": "MR"
          } ]
        },
        "system": "https://bonnie-fhir.healthit.gov/",
        "value": "63487c300968f801225401bd"
      } ],
      "active": true,
      "name": [ {
        "use": "usual",
        "family": "DENOMFail",
        "given": [ "AssessPreTermMissingResult" ]
      } ],
      "gender": "female",
      "birthDate": "1998-02-14"
    },
    "request": {
      "method": "PUT",
      "url": "Patient/faa0909e-a3b5-4fb2-885a-e8ddd20b9ab0"
    }
  }, {
    "fullUrl": "https://madie.cms.gov/Observation/7130034f-c6f2-4770-a9a0-9ff2a3e0d295",
    "resource": {
      "resourceType": "Observation",
      "id": "7130034f-c6f2-4770-a9a0-9ff2a3e0d295",
      "meta": {
        "profile": [ "http://hl7.org/fhir/us/qicore/StructureDefinition/qicore-simple-observation" ]
      },
      "status": "final",
      "category": [ {
        "coding": [ {
          "system": "http://terminology.hl7.org/CodeSystem/observation-category",
          "code": "exam",
          "display": "exam",
          "userSelected": true
        } ]
      } ],
      "code": {
        "coding": [ {
          "system": "http://loinc.org",
          "code": "11639-2"
        } ]
      },
      "subject": {
        "reference": "Patient/faa0909e-a3b5-4fb2-885a-e8ddd20b9ab0"
      },
      "effectiveDateTime": "2025-09-19T09:00:00.000+00:00",
      "valueInteger": 0
    },
    "request": {
      "method": "PUT",
      "url": "Observation/7130034f-c6f2-4770-a9a0-9ff2a3e0d295"
    }
  }, {
    "fullUrl": "https://madie.cms.gov/Observation/58ba7c44-c060-4f78-a4fe-ff7852c54212",
    "resource": {
      "resourceType": "Observation",
      "id": "58ba7c44-c060-4f78-a4fe-ff7852c54212",
      "meta": {
        "profile": [ "http://hl7.org/fhir/us/qicore/StructureDefinition/qicore-simple-observation" ]
      },
      "status": "final",
      "category": [ {
        "coding": [ {
          "system": "http://terminology.hl7.org/CodeSystem/observation-category",
          "code": "exam",
          "display": "exam",
          "userSelected": true
        } ]
      } ],
      "code": {
        "coding": [ {
          "system": "http://loinc.org",
          "code": "11884-4"
        } ]
      },
      "subject": {
        "reference": "Patient/faa0909e-a3b5-4fb2-885a-e8ddd20b9ab0"
      },
      "effectiveDateTime": "2026-06-08T20:00:00.000+00:00",
      "valueQuantity": {
        "value": 37,
        "system": "http://unitsofmeasure.org",
        "code": "wk"
      }
    },
    "request": {
      "method": "PUT",
      "url": "Observation/58ba7c44-c060-4f78-a4fe-ff7852c54212"
    }
  }, {
    "fullUrl": "https://madie.cms.gov/Observation/9513d4b8-9c2e-4a88-97a4-f6b1fca79c57",
    "resource": {
      "resourceType": "Observation",
      "id": "9513d4b8-9c2e-4a88-97a4-f6b1fca79c57",
      "meta": {
        "profile": [ "http://hl7.org/fhir/us/qicore/StructureDefinition/qicore-simple-observation" ]
      },
      "status": "final",
      "category": [ {
        "coding": [ {
          "system": "http://terminology.hl7.org/CodeSystem/observation-category",
          "code": "exam",
          "display": "exam",
          "userSelected": true
        } ]
      } ],
      "code": {
        "coding": [ {
          "system": "http://loinc.org",
          "code": "93857-1"
        } ]
      },
      "subject": {
        "reference": "Patient/faa0909e-a3b5-4fb2-885a-e8ddd20b9ab0"
      },
      "effectiveDateTime": "2026-06-08T20:00:00.000+00:00",
      "valueDateTime": "2026-06-08T20:00:00.000+00:00"
    },
    "request": {
      "method": "PUT",
      "url": "Observation/9513d4b8-9c2e-4a88-97a4-f6b1fca79c57"
    }
  }, {
    "fullUrl": "https://madie.cms.gov/Observation/d0400006-8cc6-4625-8186-37dc82a72f0e",
    "resource": {
      "resourceType": "Observation",
      "id": "d0400006-8cc6-4625-8186-37dc82a72f0e",
      "meta": {
        "profile": [ "http://hl7.org/fhir/us/qicore/StructureDefinition/qicore-simple-observation" ]
      },
      "status": "final",
      "category": [ {
        "coding": [ {
          "system": "http://terminology.hl7.org/CodeSystem/observation-category",
          "code": "exam",
          "display": "exam",
          "userSelected": true
        } ]
      } ],
      "code": {
        "coding": [ {
          "system": "http://loinc.org",
          "code": "11637-6"
        } ]
      },
      "subject": {
        "reference": "Patient/faa0909e-a3b5-4fb2-885a-e8ddd20b9ab0"
      }
    },
    "request": {
      "method": "PUT",
      "url": "Observation/d0400006-8cc6-4625-8186-37dc82a72f0e"
    }
  }, {
    "fullUrl": "https://madie.cms.gov/Encounter/09e0e688-f346-4031-920c-fea5ea7ee513",
    "resource": {
      "resourceType": "Encounter",
      "id": "09e0e688-f346-4031-920c-fea5ea7ee513",
      "meta": {
        "profile": [ "http://hl7.org/fhir/us/qicore/StructureDefinition/qicore-encounter" ]
      },
      "status": "finished",
      "class": {
        "system": "http://terminology.hl7.org/CodeSystem/v3-ActCode",
        "code": "IMP",
        "display": "inpatient encounter"
      },
      "type": [ {
        "coding": [ {
          "system": "http://snomed.info/sct",
          "code": "8715000"
        } ]
      } ],
      "subject": {
        "reference": "Patient/faa0909e-a3b5-4fb2-885a-e8ddd20b9ab0"
      },
      "period": {
        "start": "2026-06-08T08:00:00.000+00:00",
        "end": "2026-06-10T08:15:00.000+00:00"
      },
      "length": {
        "value": 2,
        "unit": "days"
      },
      "reasonReference": [ {
        "reference": "Condition/c6664652-3ee1-472c-a989-b664d73a8673"
      } ]
    },
    "request": {
      "method": "PUT",
      "url": "Encounter/09e0e688-f346-4031-920c-fea5ea7ee513"
    }
  }, {
    "fullUrl": "https://madie.cms.gov/Procedure/035dbe30-3cd0-47e8-8741-1f50a7d3a5ff",
    "resource": {
      "resourceType": "Procedure",
      "id": "035dbe30-3cd0-47e8-8741-1f50a7d3a5ff",
      "meta": {
        "profile": [ "http://hl7.org/fhir/us/qicore/StructureDefinition/qicore-procedure" ]
      },
      "extension": [ {
        "url": "http://hl7.org/fhir/us/qicore/StructureDefinition/qicore-recorded",
        "valueDateTime": "2014-04-05T13:35:00.000+00:00"
      } ],
      "status": "completed",
      "code": {
        "coding": [ {
          "system": "http://www.cms.gov/Medicare/Coding/ICD10",
          "code": "10D00Z0"
        }, {
          "system": "http://snomed.info/sct",
          "code": "4504004"
        }, {
          "system": "http://www.icd10data.com/icd10pcs",
          "code": "10D00Z0",
          "userSelected": true
        } ]
      },
      "subject": {
        "reference": "Patient/faa0909e-a3b5-4fb2-885a-e8ddd20b9ab0"
      },
      "performedPeriod": {
        "start": "2026-06-08T20:00:00.000+00:00",
        "end": "2026-06-08T20:15:00.000+00:00"
      }
    },
    "request": {
      "method": "PUT",
      "url": "Procedure/035dbe30-3cd0-47e8-8741-1f50a7d3a5ff"
    }
  }, {
    "fullUrl": "https://madie.cms.gov/Condition/c6664652-3ee1-472c-a989-b664d73a8673",
    "resource": {
      "resourceType": "Condition",
      "id": "c6664652-3ee1-472c-a989-b664d73a8673",
      "meta": {
        "profile": [ "http://hl7.org/fhir/us/qicore/StructureDefinition/qicore-condition-encounter-diagnosis" ]
      },
      "category": [ {
        "coding": [ {
          "system": "http://terminology.hl7.org/CodeSystem/condition-category",
          "code": "encounter-diagnosis",
          "display": "Encounter Diagnosis"
        } ]
      } ],
      "code": {
        "coding": [ {
          "system": "http://snomed.info/sct",
          "version": "2022-09",
          "code": "169826009",
          "display": "Single live birth from singleton pregnancy (finding)",
          "userSelected": true
        } ]
      },
      "subject": {
        "reference": "Patient/faa0909e-a3b5-4fb2-885a-e8ddd20b9ab0"
      },
      "encounter": {
        "reference": "Encounter/09e0e688-f346-4031-920c-fea5ea7ee513"
      },
      "recordedDate": "2026-10-21T08:00:00.000+00:00"
    },
    "request": {
      "method": "PUT",
      "url": "Condition/c6664652-3ee1-472c-a989-b664d73a8673"
    }
  }, {
    "fullUrl": "https://madie.cms.gov/Coverage/02b5734b-e165-41d6-9506-96784f5bcb92",
    "resource": {
      "resourceType": "Coverage",
      "id": "02b5734b-e165-41d6-9506-96784f5bcb92",
      "meta": {
        "profile": [ "http://hl7.org/fhir/us/qicore/StructureDefinition/qicore-coverage" ]
      },
      "status": "active",
      "subscriberId": "523435",
      "beneficiary": {
        "reference": "Patient/faa0909e-a3b5-4fb2-885a-e8ddd20b9ab0"
      },
      "relationship": {
        "coding": [ {
          "system": "http://terminology.hl7.org/CodeSystem/subscriber-relationship",
          "code": "self"
        } ]
      },
      "payor": [ {
        "reference": "Organization/919f9755-f3c8-44dd-851d-918e1a0a9482"
      } ]
    },
    "request": {
      "method": "PUT",
      "url": "Coverage/02b5734b-e165-41d6-9506-96784f5bcb92"
    }
  }, {
    "fullUrl": "https://madie.cms.gov/Organization/919f9755-f3c8-44dd-851d-918e1a0a9482",
    "resource": {
      "resourceType": "Organization",
      "id": "919f9755-f3c8-44dd-851d-918e1a0a9482",
      "meta": {
        "profile": [ "http://hl7.org/fhir/us/qicore/StructureDefinition/qicore-organization" ]
      },
      "identifier": [ {
        "use": "temp",
        "system": "urn:oid:2.16.840.1.113883.4.4",
        "value": "21-3259825"
      } ],
      "active": true,
      "type": [ {
        "coding": [ {
          "system": "http://terminology.hl7.org/CodeSystem/organization-type",
          "code": "pay",
          "display": "Payer"
        } ]
      } ],
      "name": "Blue Cross Blue Shield of Texas",
      "telecom": [ {
        "system": "phone",
        "value": "(+1) 972-766-6900"
      } ],
      "address": [ {
        "use": "billing",
        "type": "postal",
        "line": [ "P.O. Box 660044" ],
        "city": "Dallas",
        "state": "TX",
        "postalCode": "75266-0044",
        "country": "USA"
      } ]
    },
    "request": {
      "method": "PUT",
      "url": "Organization/919f9755-f3c8-44dd-851d-918e1a0a9482"
    }
  }, {
    "fullUrl": "https://madie.cms.gov/Practitioner/e70c86c6-ccb1-46aa-9744-d72530a12266",
    "resource": {
      "resourceType": "Practitioner",
      "id": "e70c86c6-ccb1-46aa-9744-d72530a12266",
      "meta": {
        "profile": [ "http://hl7.org/fhir/us/qicore/StructureDefinition/qicore-practitioner" ]
      },
      "identifier": [ {
        "system": "http://hl7.org/fhir/sid/us-npi",
        "value": "1234567890"
      } ],
      "name": [ {
        "family": "Evil",
        "prefix": [ "Dr" ]
      } ]
    },
    "request": {
      "method": "PUT",
      "url": "Practitioner/e70c86c6-ccb1-46aa-9744-d72530a12266"
    }
  }, {
    "fullUrl": "https://madie.cms.gov/MeasureReport/995b7e2d-6c61-45fb-9c1e-f615aa8af83f",
    "resource": {
      "resourceType": "MeasureReport",
      "id": "995b7e2d-6c61-45fb-9c1e-f615aa8af83f",
      "meta": {
        "profile": [ "http://hl7.org/fhir/us/cqfmeasures/StructureDefinition/test-case-cqfm" ]
      },
      "contained": [ {
        "resourceType": "Parameters",
        "id": "97823539-3aef-4d78-8d12-450ffd1d7b60-parameters",
        "parameter": [ {
          "name": "subject",
          "valueString": "faa0909e-a3b5-4fb2-885a-e8ddd20b9ab0"
        } ]
      } ],
      "extension": [ {
        "url": "http://hl7.org/fhir/StructureDefinition/cqf-inputParameters",
        "valueReference": {
          "reference": "#97823539-3aef-4d78-8d12-450ffd1d7b60-parameters"
        }
      }, {
        "url": "http://hl7.org/fhir/us/cqfmeasures/StructureDefinition/cqfm-testCaseDescription",
        "valueMarkdown": "\"Preterm Births missing result, relevant date/time before Asse delivery datetime\nTerm Newborn=0, authored < 42weeks prior to Asse delivery\"\n"
      } ],
      "modifierExtension": [ {
        "url": "http://hl7.org/fhir/us/cqfmeasures/StructureDefinition/cqfm-isTestCase",
        "valueBoolean": true
      } ],
      "status": "complete",
      "type": "individual",
      "measure": "https://madie.cms.gov/Measure/CMS0334FHIRPCCesareanBirth",
      "period": {
        "start": "2026-01-01",
        "end": "2026-12-31"
      },
      "group": [ {
        "id": "Group_1",
        "population": [ {
          "id": "InitialPopulation_1",
          "code": {
            "coding": [ {
              "system": "http://terminology.hl7.org/CodeSystem/measure-population",
              "code": "initial-population",
              "display": "Initial Population"
            } ]
          },
          "count": 1
        }, {
          "id": "Denominator_1",
          "code": {
            "coding": [ {
              "system": "http://terminology.hl7.org/CodeSystem/measure-population",
              "code": "denominator",
              "display": "Denominator"
            } ]
          },
          "count": 0
        }, {
          "id": "DenominatorExclusion_1",
          "code": {
            "coding": [ {
              "system": "http://terminology.hl7.org/CodeSystem/measure-population",
              "code": "denominator-exclusion",
              "display": "Denominator Exclusion"
            } ]
          },
          "count": 0
        }, {
          "id": "Numerator_1",
          "code": {
            "coding": [ {
              "system": "http://terminology.hl7.org/CodeSystem/measure-population",
              "code": "numerator",
              "display": "Numerator"
            } ]
          },
          "count": 0
        } ],
        "measureScore": {
          "value": 0.0
        }
      } ],
      "evaluatedResource": [ {
        "reference": "Patient/faa0909e-a3b5-4fb2-885a-e8ddd20b9ab0"
      }, {
        "reference": "Observation/7130034f-c6f2-4770-a9a0-9ff2a3e0d295"
      }, {
        "reference": "Observation/58ba7c44-c060-4f78-a4fe-ff7852c54212"
      }, {
        "reference": "Observation/9513d4b8-9c2e-4a88-97a4-f6b1fca79c57"
      }, {
        "reference": "Observation/d0400006-8cc6-4625-8186-37dc82a72f0e"
      }, {
        "reference": "Encounter/09e0e688-f346-4031-920c-fea5ea7ee513"
      }, {
        "reference": "Procedure/035dbe30-3cd0-47e8-8741-1f50a7d3a5ff"
      }, {
        "reference": "Condition/c6664652-3ee1-472c-a989-b664d73a8673"
      }, {
        "reference": "Coverage/02b5734b-e165-41d6-9506-96784f5bcb92"
      }, {
        "reference": "Organization/919f9755-f3c8-44dd-851d-918e1a0a9482"
      }, {
        "reference": "Practitioner/e70c86c6-ccb1-46aa-9744-d72530a12266"
      } ]
    },
    "request": {
      "method": "PUT",
      "url": "MeasureReport/995b7e2d-6c61-45fb-9c1e-f615aa8af83f"
    }
  } ]
}