{
  "resourceType": "Bundle",
  "id": "657cbdc9b4f1f0343662347a",
  "type": "transaction",
  "entry": [ {
    "fullUrl": "https://madie.cms.gov/Patient/9507a390-e7a0-4e14-8869-69fe0e7fbe77",
    "resource": {
      "resourceType": "Patient",
      "id": "9507a390-e7a0-4e14-8869-69fe0e7fbe77",
      "meta": {
        "profile": [ "http://hl7.org/fhir/us/qicore/StructureDefinition/qicore-patient" ]
      },
      "extension": [ {
        "url": "http://hl7.org/fhir/us/core/StructureDefinition/us-core-race",
        "extension": [ {
          "url": "ombCategory",
          "valueCoding": {
            "system": "urn:oid:2.16.840.1.113883.6.238",
            "code": "2106-3",
            "display": "White",
            "userSelected": true
          }
        }, {
          "url": "text",
          "valueString": "White"
        } ]
      }, {
        "url": "http://hl7.org/fhir/us/core/StructureDefinition/us-core-ethnicity",
        "extension": [ {
          "url": "ombCategory",
          "valueCoding": {
            "system": "urn:oid:2.16.840.1.113883.6.238",
            "code": "2186-5",
            "display": "Not Hispanic or Latino",
            "userSelected": true
          }
        }, {
          "url": "text",
          "valueString": "Not Hispanic or Latino"
        } ]
      } ],
      "identifier": [ {
        "type": {
          "coding": [ {
            "system": "http://terminology.hl7.org/CodeSystem/v2-0203",
            "code": "MR"
          } ]
        },
        "system": "https://bonnie-fhir.healthit.gov/",
        "value": "657cbdc9b4f1f0343662347a"
      } ],
      "name": [ {
        "family": "CoveragePass",
        "given": [ "MedicarePayer" ]
      } ],
      "gender": "female",
      "birthDate": "2008-01-01"
    },
    "request": {
      "method": "PUT",
      "url": "Patient/9507a390-e7a0-4e14-8869-69fe0e7fbe77"
    }
  }, {
    "fullUrl": "https://madie.cms.gov/Encounter/64dd9adb-f57e-4b67-98d7-b03b8911eddc",
    "resource": {
      "resourceType": "Encounter",
      "id": "64dd9adb-f57e-4b67-98d7-b03b8911eddc",
      "meta": {
        "profile": [ "http://hl7.org/fhir/us/qicore/StructureDefinition/qicore-encounter" ]
      },
      "status": "finished",
      "class": {
        "system": "http://terminology.hl7.org/CodeSystem/v3-ActCode",
        "code": "ACUTE",
        "display": "inpatient acute"
      },
      "type": [ {
        "coding": [ {
          "system": "http://snomed.info/sct",
          "version": "2024",
          "code": "32485007",
          "display": "Hospital admission (procedure)",
          "userSelected": true
        } ]
      } ],
      "subject": {
        "reference": "Patient/9507a390-e7a0-4e14-8869-69fe0e7fbe77"
      },
      "period": {
        "start": "2026-01-01T08:00:00.000+00:00",
        "end": "2026-01-02T09:15:00.000+00:00"
      }
    },
    "request": {
      "method": "PUT",
      "url": "Encounter/64dd9adb-f57e-4b67-98d7-b03b8911eddc"
    }
  }, {
    "fullUrl": "https://madie.cms.gov/Location/e40a1cf4-ef4d-4f61-b7ee-6638bcc0f79e",
    "resource": {
      "resourceType": "Location",
      "id": "e40a1cf4-ef4d-4f61-b7ee-6638bcc0f79e",
      "meta": {
        "profile": [ "http://hl7.org/fhir/us/qicore/StructureDefinition/qicore-location" ]
      },
      "identifier": [ {
        "use": "usual",
        "system": "http://exampleoflocation.com",
        "value": "B1-S.F2"
      } ],
      "name": "Medical Surgical East, first floor",
      "type": [ {
        "coding": [ {
          "system": "https://www.cdc.gov/nhsn/cdaportal/terminology/codesystem/hsloc.html",
          "code": "1028-0",
          "display": "Medical Cardiac Critical Care",
          "userSelected": true
        } ]
      } ]
    },
    "request": {
      "method": "PUT",
      "url": "Location/e40a1cf4-ef4d-4f61-b7ee-6638bcc0f79e"
    }
  }, {
    "fullUrl": "https://madie.cms.gov/MedicationRequest/c40d7c78-10f0-4708-a1d6-940f9755e40c",
    "resource": {
      "resourceType": "MedicationRequest",
      "id": "c40d7c78-10f0-4708-a1d6-940f9755e40c",
      "meta": {
        "profile": [ "http://hl7.org/fhir/us/qicore/StructureDefinition/qicore-medicationrequest" ]
      },
      "status": "completed",
      "intent": "order",
      "medicationCodeableConcept": {
        "coding": [ {
          "system": "http://www.nlm.nih.gov/research/umls/rxnorm",
          "version": "06052023",
          "code": "1007184"
        } ]
      },
      "subject": {
        "reference": "Patient/9507a390-e7a0-4e14-8869-69fe0e7fbe77"
      },
      "authoredOn": "2026-01-01T08:15:00.000+00:00",
      "requester": {
        "reference": "Practitioner/33d87640-6b2a-40b0-ab11-542478a88d5a"
      },
      "dosageInstruction": [ {
        "timing": {
          "repeat": {
            "boundsPeriod": {
              "start": "2025-01-01T08:15:00.000+00:00"
            }
          }
        }
      } ]
    },
    "request": {
      "method": "PUT",
      "url": "MedicationRequest/c40d7c78-10f0-4708-a1d6-940f9755e40c"
    }
  }, {
    "fullUrl": "https://madie.cms.gov/Coverage/8c10c26a-2c16-403d-b71b-ec7b29cdc60f",
    "resource": {
      "resourceType": "Coverage",
      "id": "8c10c26a-2c16-403d-b71b-ec7b29cdc60f",
      "meta": {
        "profile": [ "http://hl7.org/fhir/us/qicore/StructureDefinition/qicore-coverage" ]
      },
      "identifier": [ {
        "system": "http://benefitsinc.com/certificate",
        "value": "12345"
      } ],
      "status": "active",
      "type": {
        "coding": [ {
          "system": "https://nahdo.org/sopt",
          "version": "1.0.1",
          "code": "1",
          "display": "MEDICARE",
          "userSelected": true
        } ]
      },
      "subscriberId": "AB9876",
      "beneficiary": {
        "reference": "Patient/9507a390-e7a0-4e14-8869-69fe0e7fbe77"
      },
      "relationship": {
        "coding": [ {
          "system": "http://terminology.hl7.org/CodeSystem/subscriber-relationship",
          "code": "self"
        } ]
      },
      "period": {
        "start": "2026-01-01T00:00:00.000+00:00",
        "end": "2027-03-26T08:15:00.000+00:00"
      },
      "payor": [ {
        "reference": "Organization/9673be24-14d8-432f-96b1-8a73474df530"
      } ]
    },
    "request": {
      "method": "PUT",
      "url": "Coverage/8c10c26a-2c16-403d-b71b-ec7b29cdc60f"
    }
  }, {
    "fullUrl": "https://madie.cms.gov/Organization/9673be24-14d8-432f-96b1-8a73474df530",
    "resource": {
      "resourceType": "Organization",
      "id": "9673be24-14d8-432f-96b1-8a73474df530",
      "meta": {
        "profile": [ "http://hl7.org/fhir/us/qicore/StructureDefinition/qicore-organization" ]
      },
      "identifier": [ {
        "use": "temp",
        "system": "urn:oid:2.16.840.1.113883.4.4",
        "value": "21-3259825"
      } ],
      "active": true,
      "type": [ {
        "coding": [ {
          "system": "http://terminology.hl7.org/CodeSystem/organization-type",
          "code": "pay",
          "display": "Payer"
        } ]
      } ],
      "name": "Blue Cross Blue Shield of Texas",
      "telecom": [ {
        "system": "phone",
        "value": "(+1) 972-766-6900"
      } ],
      "address": [ {
        "use": "billing",
        "type": "postal",
        "line": [ "P.O. Box 660044" ],
        "city": "Dallas",
        "state": "TX",
        "postalCode": "75266-0044",
        "country": "USA"
      } ]
    },
    "request": {
      "method": "PUT",
      "url": "Organization/9673be24-14d8-432f-96b1-8a73474df530"
    }
  }, {
    "fullUrl": "https://madie.cms.gov/Practitioner/8fe17d27-00ed-4059-ae6c-0dfbe6f8c571",
    "resource": {
      "resourceType": "Practitioner",
      "id": "8fe17d27-00ed-4059-ae6c-0dfbe6f8c571",
      "meta": {
        "profile": [ "http://hl7.org/fhir/us/qicore/StructureDefinition/qicore-practitioner" ]
      },
      "identifier": [ {
        "system": "http://hl7.org/fhir/sid/us-npi",
        "value": "0723660813"
      } ],
      "name": [ {
        "family": "Evil",
        "prefix": [ "Dr" ]
      } ]
    },
    "request": {
      "method": "PUT",
      "url": "Practitioner/8fe17d27-00ed-4059-ae6c-0dfbe6f8c571"
    }
  }, {
    "fullUrl": "https://madie.cms.gov/MeasureReport/2a54320c-20d3-4567-875d-93be48a11c73",
    "resource": {
      "resourceType": "MeasureReport",
      "id": "2a54320c-20d3-4567-875d-93be48a11c73",
      "meta": {
        "profile": [ "http://hl7.org/fhir/us/cqfmeasures/StructureDefinition/test-case-cqfm" ]
      },
      "contained": [ {
        "resourceType": "Parameters",
        "id": "742eee46-9261-4cfe-be5f-951eae94ca46-parameters",
        "parameter": [ {
          "name": "subject",
          "valueString": "9507a390-e7a0-4e14-8869-69fe0e7fbe77"
        } ]
      } ],
      "extension": [ {
        "url": "http://hl7.org/fhir/StructureDefinition/cqf-inputParameters",
        "valueReference": {
          "reference": "#742eee46-9261-4cfe-be5f-951eae94ca46-parameters"
        }
      }, {
        "url": "http://hl7.org/fhir/us/cqfmeasures/StructureDefinition/cqfm-testCaseDescription",
        "valueMarkdown": "Inpatient encounter on medsurg floor, first day of MP with an order for diabetic medication with Medicare coverage"
      } ],
      "modifierExtension": [ {
        "url": "http://hl7.org/fhir/us/cqfmeasures/StructureDefinition/cqfm-isTestCase",
        "valueBoolean": true
      } ],
      "status": "complete",
      "type": "individual",
      "measure": "https://madie.cms.gov/Measure/NHSNGlycemicControlHypoglycemiaInitialPopulation",
      "period": {
        "start": "2026-01-01",
        "end": "2026-12-31"
      },
      "group": [ {
        "id": "Group_1",
        "population": [ {
          "id": "InitialPopulation_1",
          "code": {
            "coding": [ {
              "system": "http://terminology.hl7.org/CodeSystem/measure-population",
              "code": "initial-population",
              "display": "Initial Population"
            } ]
          },
          "count": 1
        } ],
        "measureScore": {
          "value": 0.0
        }
      } ],
      "evaluatedResource": [ {
        "reference": "Patient/9507a390-e7a0-4e14-8869-69fe0e7fbe77"
      }, {
        "reference": "Encounter/64dd9adb-f57e-4b67-98d7-b03b8911eddc"
      }, {
        "reference": "Location/e40a1cf4-ef4d-4f61-b7ee-6638bcc0f79e"
      }, {
        "reference": "MedicationRequest/c40d7c78-10f0-4708-a1d6-940f9755e40c"
      }, {
        "reference": "Coverage/8c10c26a-2c16-403d-b71b-ec7b29cdc60f"
      }, {
        "reference": "Organization/9673be24-14d8-432f-96b1-8a73474df530"
      }, {
        "reference": "Practitioner/8fe17d27-00ed-4059-ae6c-0dfbe6f8c571"
      } ]
    },
    "request": {
      "method": "PUT",
      "url": "MeasureReport/2a54320c-20d3-4567-875d-93be48a11c73"
    }
  } ]
}