{
  "resourceType": "Bundle",
  "id": "62fd103285b0356a7c285334",
  "type": "collection",
  "entry": [ {
    "fullUrl": "https://madie.cms.gov/Patient/c123c20a-c9c3-4acd-bead-8cc61e2ba29f",
    "resource": {
      "resourceType": "Patient",
      "id": "c123c20a-c9c3-4acd-bead-8cc61e2ba29f",
      "meta": {
        "profile": [ "http://hl7.org/fhir/us/qicore/StructureDefinition/qicore-patient" ]
      },
      "extension": [ {
        "url": "http://hl7.org/fhir/us/core/StructureDefinition/us-core-race",
        "extension": [ {
          "url": "ombCategory",
          "valueCoding": {
            "system": "urn:oid:2.16.840.1.113883.6.238",
            "code": "2028-9",
            "display": "Asian",
            "userSelected": true
          }
        }, {
          "url": "text",
          "valueString": "Asian"
        } ]
      }, {
        "url": "http://hl7.org/fhir/us/core/StructureDefinition/us-core-ethnicity",
        "extension": [ {
          "url": "ombCategory",
          "valueCoding": {
            "system": "urn:oid:2.16.840.1.113883.6.238",
            "code": "2186-5",
            "display": "Not Hispanic or Latino",
            "userSelected": true
          }
        }, {
          "url": "text",
          "valueString": "Not Hispanic or Latino"
        } ]
      } ],
      "identifier": [ {
        "type": {
          "coding": [ {
            "system": "http://terminology.hl7.org/CodeSystem/v2-0203",
            "code": "MR"
          } ]
        },
        "system": "https://bonnie-fhir.healthit.gov/",
        "value": "62fd103285b0356a7c285334"
      } ],
      "name": [ {
        "family": "DenomFail",
        "given": [ "GleasonAfter1stTxValueEqual6" ]
      } ],
      "gender": "female",
      "birthDate": "1996-09-22"
    }
  }, {
    "fullUrl": "https://madie.cms.gov/Condition/b2052446-d5fa-486c-97e0-98a7c54a70e4",
    "resource": {
      "resourceType": "Condition",
      "id": "b2052446-d5fa-486c-97e0-98a7c54a70e4",
      "meta": {
        "profile": [ "http://hl7.org/fhir/us/qicore/StructureDefinition/qicore-condition-problems-health-concerns" ]
      },
      "clinicalStatus": {
        "coding": [ {
          "system": "http://terminology.hl7.org/CodeSystem/condition-clinical",
          "code": "active",
          "display": "active",
          "userSelected": true
        } ]
      },
      "category": [ {
        "coding": [ {
          "system": "http://hl7.org/fhir/us/core/CodeSystem/condition-category",
          "code": "health-concern",
          "display": "Health Concern"
        }, {
          "system": "http://snomed.info/sct",
          "code": "439401001",
          "display": "Diagnosis"
        } ]
      } ],
      "code": {
        "coding": [ {
          "system": "http://snomed.info/sct",
          "code": "254900004",
          "display": "Carcinoma of prostate (disorder)",
          "userSelected": true
        } ]
      },
      "subject": {
        "reference": "Patient/c123c20a-c9c3-4acd-bead-8cc61e2ba29f"
      },
      "onsetPeriod": {
        "start": "2011-06-14T08:00:00.000+00:00"
      }
    }
  }, {
    "fullUrl": "https://madie.cms.gov/Procedure/f4c6acee-5aa6-4b94-a09d-0a3e30ab46ca",
    "resource": {
      "resourceType": "Procedure",
      "id": "f4c6acee-5aa6-4b94-a09d-0a3e30ab46ca",
      "meta": {
        "profile": [ "http://hl7.org/fhir/us/qicore/StructureDefinition/qicore-procedure" ]
      },
      "extension": [ {
        "url": "http://hl7.org/fhir/us/qicore/StructureDefinition/qicore-recorded",
        "valueDateTime": "2024-02-01T09:00:00.000+00:00"
      } ],
      "status": "completed",
      "code": {
        "coding": [ {
          "system": "http://snomed.info/sct",
          "code": "38915000",
          "display": "Radionuclide therapy for gland ablation (procedure)",
          "userSelected": true
        } ]
      },
      "subject": {
        "reference": "Patient/c123c20a-c9c3-4acd-bead-8cc61e2ba29f"
      },
      "performedDateTime": "2026-04-28T08:00:00.000+00:00"
    }
  }, {
    "fullUrl": "https://madie.cms.gov/Observation/1d092b8c-51a8-48f4-a7e1-a985c86535d6",
    "resource": {
      "resourceType": "Observation",
      "id": "1d092b8c-51a8-48f4-a7e1-a985c86535d6",
      "meta": {
        "profile": [ "http://hl7.org/fhir/us/qicore/StructureDefinition/qicore-observation-lab" ]
      },
      "status": "final",
      "category": [ {
        "coding": [ {
          "system": "http://terminology.hl7.org/CodeSystem/observation-category",
          "code": "laboratory",
          "display": "Laboratory"
        } ]
      } ],
      "code": {
        "coding": [ {
          "system": "http://loinc.org",
          "version": "2.72",
          "code": "10508-0",
          "display": "Prostate specific Ag [Presence] in Tissue by Immune stain",
          "userSelected": true
        } ]
      },
      "subject": {
        "reference": "Patient/c123c20a-c9c3-4acd-bead-8cc61e2ba29f"
      },
      "effectiveDateTime": "2026-02-02T08:00:00.000+00:00",
      "valueQuantity": {
        "value": 5.0,
        "system": "http://unitsofmeasure.org",
        "code": "ng/mL"
      }
    }
  }, {
    "fullUrl": "https://madie.cms.gov/Observation/5dffc3b6-a42a-4670-ad66-b13d8f78c0cd",
    "resource": {
      "resourceType": "Observation",
      "id": "5dffc3b6-a42a-4670-ad66-b13d8f78c0cd",
      "meta": {
        "profile": [ "http://hl7.org/fhir/us/qicore/StructureDefinition/qicore-observation-clinical-result" ]
      },
      "status": "final",
      "category": [ {
        "coding": [ {
          "system": "http://terminology.hl7.org/CodeSystem/observation-category",
          "code": "procedure",
          "display": "Procedure"
        } ]
      } ],
      "code": {
        "coding": [ {
          "system": "http://loinc.org",
          "code": "35266-6",
          "display": "Gleason score in Specimen Qualitative",
          "userSelected": true
        } ]
      },
      "subject": {
        "reference": "Patient/c123c20a-c9c3-4acd-bead-8cc61e2ba29f"
      },
      "effectiveDateTime": "2026-08-17T08:00:00.000+00:00",
      "valueInteger": 6
    }
  }, {
    "fullUrl": "https://madie.cms.gov/Observation/80ab1212-bc3e-4aae-84af-bcffd4729039",
    "resource": {
      "resourceType": "Observation",
      "id": "80ab1212-bc3e-4aae-84af-bcffd4729039",
      "meta": {
        "profile": [ "http://hl7.org/fhir/us/qicore/StructureDefinition/qicore-observation-clinical-result" ]
      },
      "status": "final",
      "category": [ {
        "coding": [ {
          "system": "http://terminology.hl7.org/CodeSystem/observation-category",
          "code": "procedure",
          "display": "Procedure"
        } ]
      } ],
      "code": {
        "coding": [ {
          "system": "http://snomed.info/sct",
          "code": "254292007",
          "display": "Tumor staging (tumor staging)",
          "userSelected": true
        } ]
      },
      "subject": {
        "reference": "Patient/c123c20a-c9c3-4acd-bead-8cc61e2ba29f"
      },
      "effectiveDateTime": "2013-04-27T23:59:00.000+00:00",
      "valueCodeableConcept": {
        "coding": [ {
          "system": "http://snomed.info/sct",
          "code": "1228899006",
          "display": "American Joint Committee on Cancer cT1c (qualifier value)",
          "userSelected": true
        } ]
      }
    }
  }, {
    "fullUrl": "https://madie.cms.gov/Coverage/cd3c068c-ba2f-49e2-982e-0709a1d49ac9",
    "resource": {
      "resourceType": "Coverage",
      "id": "cd3c068c-ba2f-49e2-982e-0709a1d49ac9",
      "meta": {
        "profile": [ "http://hl7.org/fhir/us/qicore/StructureDefinition/qicore-coverage" ]
      },
      "status": "active",
      "subscriberId": "123456789",
      "beneficiary": {
        "reference": "Patient/c123c20a-c9c3-4acd-bead-8cc61e2ba29f"
      },
      "relationship": {
        "coding": [ {
          "system": "http://terminology.hl7.org/CodeSystem/subscriber-relationship",
          "code": "self",
          "display": "Self",
          "userSelected": true
        } ]
      },
      "payor": [ {
        "reference": "Organization/b4f456db-113e-4521-ae9f-49651cbe69b4"
      } ]
    }
  }, {
    "fullUrl": "https://madie.cms.gov/Organization/b4f456db-113e-4521-ae9f-49651cbe69b4",
    "resource": {
      "resourceType": "Organization",
      "id": "b4f456db-113e-4521-ae9f-49651cbe69b4",
      "meta": {
        "profile": [ "http://hl7.org/fhir/us/qicore/StructureDefinition/qicore-organization" ]
      },
      "identifier": [ {
        "use": "temp",
        "system": "urn:oid:2.16.840.1.113883.4.4",
        "value": "21-3259825"
      } ],
      "active": true,
      "type": [ {
        "coding": [ {
          "system": "http://terminology.hl7.org/CodeSystem/organization-type",
          "code": "pay",
          "display": "Payer"
        } ]
      } ],
      "name": "Blue Cross Blue Shield of Texas",
      "telecom": [ {
        "system": "phone",
        "value": "(+1) 972-766-6900"
      } ],
      "address": [ {
        "use": "billing",
        "type": "postal",
        "line": [ "P.O. Box 660044" ],
        "city": "Dallas",
        "state": "TX",
        "postalCode": "75266-0044",
        "country": "USA"
      } ]
    }
  }, {
    "fullUrl": "https://madie.cms.gov/Practitioner/4781fbc9-1a45-496d-9b54-a22ab32cb8e3",
    "resource": {
      "resourceType": "Practitioner",
      "id": "4781fbc9-1a45-496d-9b54-a22ab32cb8e3",
      "meta": {
        "profile": [ "http://hl7.org/fhir/us/qicore/StructureDefinition/qicore-practitioner" ]
      },
      "identifier": [ {
        "system": "http://hl7.org/fhir/sid/us-npi",
        "value": "1234567893"
      } ],
      "name": [ {
        "family": "Evil",
        "prefix": [ "Dr" ]
      } ]
    }
  }, {
    "fullUrl": "https://madie.cms.gov/MeasureReport/07a388fd-f639-462e-8b0c-05cf6cd0a7f9",
    "resource": {
      "resourceType": "MeasureReport",
      "id": "07a388fd-f639-462e-8b0c-05cf6cd0a7f9",
      "meta": {
        "profile": [ "http://hl7.org/fhir/us/cqfmeasures/StructureDefinition/test-case-cqfm" ]
      },
      "contained": [ {
        "resourceType": "Parameters",
        "id": "e3941792-e426-4726-b05b-5355c69ff99c-parameters",
        "parameter": [ {
          "name": "subject",
          "valueString": "c123c20a-c9c3-4acd-bead-8cc61e2ba29f"
        } ]
      } ],
      "extension": [ {
        "url": "http://hl7.org/fhir/StructureDefinition/cqf-inputParameters",
        "valueReference": {
          "reference": "#e3941792-e426-4726-b05b-5355c69ff99c-parameters"
        }
      }, {
        "url": "http://hl7.org/fhir/us/cqfmeasures/StructureDefinition/cqfm-testCaseDescription",
        "valueMarkdown": "Prostate Ca Diagnosis but does not meet Gleason. Meets tumor staging. first treatment, and  PSA.  Gleason is after 1st cancer treatment.  Value = 6.\n\n"
      } ],
      "modifierExtension": [ {
        "url": "http://hl7.org/fhir/us/cqfmeasures/StructureDefinition/cqfm-isTestCase",
        "valueBoolean": true
      } ],
      "status": "complete",
      "type": "individual",
      "measure": "https://madie.cms.gov/Measure/CMS129FHIRProstCaBoneScanUse",
      "period": {
        "start": "2026-01-01",
        "end": "2026-12-31"
      },
      "group": [ {
        "id": "Group_1",
        "population": [ {
          "id": "InitialPopulation_1",
          "code": {
            "coding": [ {
              "system": "http://terminology.hl7.org/CodeSystem/measure-population",
              "code": "initial-population",
              "display": "Initial Population"
            } ]
          },
          "count": 1
        }, {
          "id": "Denominator_1",
          "code": {
            "coding": [ {
              "system": "http://terminology.hl7.org/CodeSystem/measure-population",
              "code": "denominator",
              "display": "Denominator"
            } ]
          },
          "count": 0
        }, {
          "id": "Numerator_1",
          "code": {
            "coding": [ {
              "system": "http://terminology.hl7.org/CodeSystem/measure-population",
              "code": "numerator",
              "display": "Numerator"
            } ]
          },
          "count": 0
        }, {
          "id": "DenominatorException_1",
          "code": {
            "coding": [ {
              "system": "http://terminology.hl7.org/CodeSystem/measure-population",
              "code": "denominator-exception",
              "display": "Denominator Exception"
            } ]
          },
          "count": 0
        } ],
        "measureScore": {
          "value": 1.0
        }
      } ],
      "evaluatedResource": [ {
        "reference": "Patient/c123c20a-c9c3-4acd-bead-8cc61e2ba29f"
      }, {
        "reference": "Condition/b2052446-d5fa-486c-97e0-98a7c54a70e4"
      }, {
        "reference": "Procedure/f4c6acee-5aa6-4b94-a09d-0a3e30ab46ca"
      }, {
        "reference": "Observation/1d092b8c-51a8-48f4-a7e1-a985c86535d6"
      }, {
        "reference": "Observation/5dffc3b6-a42a-4670-ad66-b13d8f78c0cd"
      }, {
        "reference": "Observation/80ab1212-bc3e-4aae-84af-bcffd4729039"
      }, {
        "reference": "Coverage/cd3c068c-ba2f-49e2-982e-0709a1d49ac9"
      }, {
        "reference": "Organization/b4f456db-113e-4521-ae9f-49651cbe69b4"
      }, {
        "reference": "Practitioner/4781fbc9-1a45-496d-9b54-a22ab32cb8e3"
      } ]
    }
  } ]
}