{
  "resourceType": "Bundle",
  "id": "64946533d09ece2c2e9bf915",
  "type": "collection",
  "entry": [ {
    "fullUrl": "https://madie.cms.gov/Patient/60fa3554-b650-43fe-b23e-604acc5e4bbf",
    "resource": {
      "resourceType": "Patient",
      "id": "60fa3554-b650-43fe-b23e-604acc5e4bbf",
      "meta": {
        "profile": [ "http://hl7.org/fhir/us/qicore/StructureDefinition/qicore-patient" ]
      },
      "extension": [ {
        "url": "http://hl7.org/fhir/us/core/StructureDefinition/us-core-race",
        "extension": [ {
          "url": "ombCategory",
          "valueCoding": {
            "system": "urn:oid:2.16.840.1.113883.6.238",
            "code": "2106-3",
            "display": "White",
            "userSelected": true
          }
        }, {
          "url": "text",
          "valueString": "White"
        } ]
      }, {
        "url": "http://hl7.org/fhir/us/core/StructureDefinition/us-core-ethnicity",
        "extension": [ {
          "url": "ombCategory",
          "valueCoding": {
            "system": "urn:oid:2.16.840.1.113883.6.238",
            "code": "2186-5",
            "display": "Not Hispanic or Latino",
            "userSelected": true
          }
        }, {
          "url": "text",
          "valueString": "Not Hispanic or Latino"
        } ]
      } ],
      "identifier": [ {
        "type": {
          "coding": [ {
            "system": "http://terminology.hl7.org/CodeSystem/v2-0203",
            "code": "MR"
          } ]
        },
        "system": "https://bonnie-fhir.healthit.gov/",
        "value": "64946533d09ece2c2e9bf915"
      } ],
      "name": [ {
        "family": "10NumFail",
        "given": [ "VLduringMPwithEncAfterUnder90days" ]
      } ],
      "gender": "female",
      "birthDate": "1991-05-09"
    }
  }, {
    "fullUrl": "https://madie.cms.gov/Condition/8f02ee16-54b2-43b4-8776-efe26279a2cc",
    "resource": {
      "resourceType": "Condition",
      "id": "8f02ee16-54b2-43b4-8776-efe26279a2cc",
      "meta": {
        "profile": [ "http://hl7.org/fhir/us/qicore/StructureDefinition/qicore-condition-problems-health-concerns" ]
      },
      "clinicalStatus": {
        "coding": [ {
          "system": "http://terminology.hl7.org/CodeSystem/condition-clinical",
          "code": "active",
          "display": "active",
          "userSelected": true
        } ]
      },
      "category": [ {
        "coding": [ {
          "system": "http://terminology.hl7.org/CodeSystem/condition-category",
          "code": "problem-list-item",
          "display": "Problem List Item"
        } ]
      } ],
      "code": {
        "coding": [ {
          "system": "http://hl7.org/fhir/sid/icd-9-cm",
          "version": "2013",
          "code": "042",
          "display": "Human immunodeficiency virus [HIV] disease",
          "userSelected": true
        }, {
          "system": "http://snomed.info/sct",
          "version": "http://snomed.info/sct/731000124108/version/20250301",
          "code": "165816005",
          "userSelected": true
        } ]
      },
      "subject": {
        "reference": "Patient/60fa3554-b650-43fe-b23e-604acc5e4bbf"
      },
      "onsetDateTime": "2022-09-08T08:00:00.000+00:00",
      "recordedDate": "2022-09-08T08:00:00.000+00:00"
    }
  }, {
    "fullUrl": "https://madie.cms.gov/Encounter/cde0f1ad-b6b2-47d3-a6f1-d412601ce417",
    "resource": {
      "resourceType": "Encounter",
      "id": "cde0f1ad-b6b2-47d3-a6f1-d412601ce417",
      "meta": {
        "profile": [ "http://hl7.org/fhir/us/qicore/StructureDefinition/qicore-encounter" ]
      },
      "status": "finished",
      "class": {
        "system": "http://terminology.hl7.org/CodeSystem/v3-ActCode",
        "code": "AMB",
        "display": "ambulatory"
      },
      "type": [ {
        "coding": [ {
          "system": "http://snomed.info/sct",
          "version": "2022-09",
          "code": "281036007",
          "display": "Follow-up consultation (procedure)",
          "userSelected": true
        } ]
      } ],
      "subject": {
        "reference": "Patient/60fa3554-b650-43fe-b23e-604acc5e4bbf"
      },
      "period": {
        "start": "2026-05-01T08:00:00.000+00:00",
        "end": "2026-05-01T08:15:00.000+00:00"
      }
    }
  }, {
    "fullUrl": "https://madie.cms.gov/Observation/09149d92-f33b-4a31-b95a-52db269163cc",
    "resource": {
      "resourceType": "Observation",
      "id": "09149d92-f33b-4a31-b95a-52db269163cc",
      "meta": {
        "profile": [ "http://hl7.org/fhir/us/qicore/StructureDefinition/qicore-observation-lab" ]
      },
      "status": "final",
      "category": [ {
        "coding": [ {
          "system": "http://terminology.hl7.org/CodeSystem/observation-category",
          "code": "laboratory",
          "display": "Laboratory"
        } ]
      }, {
        "coding": [ {
          "system": "http://terminology.hl7.org/CodeSystem/observation-category",
          "code": "survey"
        } ]
      } ],
      "code": {
        "coding": [ {
          "system": "http://loinc.org",
          "version": "2.73",
          "code": "10351-5",
          "display": "HIV 1 RNA [Units/volume] (viral load) in Serum or Plasma by Probe with amplification",
          "userSelected": true
        } ]
      },
      "subject": {
        "reference": "Patient/60fa3554-b650-43fe-b23e-604acc5e4bbf"
      },
      "issued": "2026-07-29T08:00:00.000+00:00",
      "dataAbsentReason": {
        "coding": [ {
          "system": "http://terminology.hl7.org/CodeSystem/data-absent-reason",
          "code": "unknown",
          "display": "Unknown"
        } ]
      }
    }
  }, {
    "fullUrl": "https://madie.cms.gov/Coverage/96a8b477-7c3d-4e93-941a-99596ff5f610",
    "resource": {
      "resourceType": "Coverage",
      "id": "96a8b477-7c3d-4e93-941a-99596ff5f610",
      "meta": {
        "profile": [ "http://hl7.org/fhir/us/qicore/StructureDefinition/qicore-coverage" ]
      },
      "status": "active",
      "subscriberId": "123456",
      "beneficiary": {
        "reference": "Patient/60fa3554-b650-43fe-b23e-604acc5e4bbf"
      },
      "relationship": {
        "coding": [ {
          "system": "http://terminology.hl7.org/CodeSystem/subscriber-relationship",
          "code": "self",
          "display": "Self"
        } ]
      },
      "payor": [ {
        "reference": "Organization/7c094796-6a3c-497d-ad6a-c87175baec31"
      } ]
    }
  }, {
    "fullUrl": "https://madie.cms.gov/Organization/7c094796-6a3c-497d-ad6a-c87175baec31",
    "resource": {
      "resourceType": "Organization",
      "id": "7c094796-6a3c-497d-ad6a-c87175baec31",
      "meta": {
        "profile": [ "http://hl7.org/fhir/us/qicore/StructureDefinition/qicore-organization" ]
      },
      "identifier": [ {
        "use": "temp",
        "system": "urn:oid:2.16.840.1.113883.4.4",
        "value": "21-3259825"
      } ],
      "active": true,
      "type": [ {
        "coding": [ {
          "system": "http://terminology.hl7.org/CodeSystem/organization-type",
          "code": "pay",
          "display": "Payer"
        } ]
      } ],
      "name": "Blue Cross Blue Shield of Texas",
      "telecom": [ {
        "system": "phone",
        "value": "(+1) 972-766-6900"
      } ],
      "address": [ {
        "use": "billing",
        "type": "postal",
        "line": [ "P.O. Box 660044" ],
        "city": "Dallas",
        "state": "TX",
        "postalCode": "75266-0044",
        "country": "USA"
      } ]
    }
  }, {
    "fullUrl": "https://madie.cms.gov/Practitioner/fc7cfabe-427f-4d69-8903-77d11fa7d72e",
    "resource": {
      "resourceType": "Practitioner",
      "id": "fc7cfabe-427f-4d69-8903-77d11fa7d72e",
      "meta": {
        "profile": [ "http://hl7.org/fhir/us/qicore/StructureDefinition/qicore-practitioner" ]
      },
      "identifier": [ {
        "system": "http://hl7.org/fhir/sid/us-npi",
        "value": "1689411712"
      } ],
      "name": [ {
        "family": "Evil",
        "prefix": [ "Dr" ]
      } ]
    }
  }, {
    "fullUrl": "https://madie.cms.gov/MeasureReport/2c90fe4f-9491-4267-ae17-0e5149fad34e",
    "resource": {
      "resourceType": "MeasureReport",
      "id": "2c90fe4f-9491-4267-ae17-0e5149fad34e",
      "meta": {
        "profile": [ "http://hl7.org/fhir/us/cqfmeasures/StructureDefinition/test-case-cqfm" ]
      },
      "contained": [ {
        "resourceType": "Parameters",
        "id": "b2bf9d3d-0e93-4657-87e7-4a2856bbb407-parameters",
        "parameter": [ {
          "name": "subject",
          "valueString": "60fa3554-b650-43fe-b23e-604acc5e4bbf"
        } ]
      } ],
      "extension": [ {
        "url": "http://hl7.org/fhir/StructureDefinition/cqf-inputParameters",
        "valueReference": {
          "reference": "#b2bf9d3d-0e93-4657-87e7-4a2856bbb407-parameters"
        }
      }, {
        "url": "http://hl7.org/fhir/us/cqfmeasures/StructureDefinition/cqfm-testCaseDescription",
        "valueMarkdown": "Patient has a viral load test before enc (under 90 days apart)"
      } ],
      "modifierExtension": [ {
        "url": "http://hl7.org/fhir/us/cqfmeasures/StructureDefinition/cqfm-isTestCase",
        "valueBoolean": true
      } ],
      "status": "complete",
      "type": "individual",
      "measure": "https://madie.cms.gov/Measure/CMS1157FHIRHIVRetention",
      "period": {
        "start": "2026-01-01",
        "end": "2026-12-31"
      },
      "group": [ {
        "id": "Group_1",
        "population": [ {
          "id": "InitialPopulation_1",
          "code": {
            "coding": [ {
              "system": "http://terminology.hl7.org/CodeSystem/measure-population",
              "code": "initial-population",
              "display": "Initial Population"
            } ]
          },
          "count": 1
        }, {
          "id": "Denominator_1",
          "code": {
            "coding": [ {
              "system": "http://terminology.hl7.org/CodeSystem/measure-population",
              "code": "denominator",
              "display": "Denominator"
            } ]
          },
          "count": 1
        }, {
          "id": "Numerator_1",
          "code": {
            "coding": [ {
              "system": "http://terminology.hl7.org/CodeSystem/measure-population",
              "code": "numerator",
              "display": "Numerator"
            } ]
          },
          "count": 0
        } ],
        "measureScore": {
          "value": 1.0
        }
      } ],
      "evaluatedResource": [ {
        "reference": "Patient/60fa3554-b650-43fe-b23e-604acc5e4bbf"
      }, {
        "reference": "Condition/8f02ee16-54b2-43b4-8776-efe26279a2cc"
      }, {
        "reference": "Encounter/cde0f1ad-b6b2-47d3-a6f1-d412601ce417"
      }, {
        "reference": "Observation/09149d92-f33b-4a31-b95a-52db269163cc"
      }, {
        "reference": "Coverage/96a8b477-7c3d-4e93-941a-99596ff5f610"
      }, {
        "reference": "Organization/7c094796-6a3c-497d-ad6a-c87175baec31"
      }, {
        "reference": "Practitioner/fc7cfabe-427f-4d69-8903-77d11fa7d72e"
      } ]
    }
  } ]
}