{
  "resourceType": "Bundle",
  "id": "62c880ec0111a60120dc220e",
  "type": "transaction",
  "entry": [ {
    "fullUrl": "https://madie.cms.gov/Patient/08f5e385-dbd5-4405-98ab-673d7d582069",
    "resource": {
      "resourceType": "Patient",
      "id": "08f5e385-dbd5-4405-98ab-673d7d582069",
      "meta": {
        "profile": [ "http://hl7.org/fhir/us/qicore/StructureDefinition/qicore-patient" ]
      },
      "extension": [ {
        "url": "http://hl7.org/fhir/us/core/StructureDefinition/us-core-race",
        "extension": [ {
          "url": "ombCategory",
          "valueCoding": {
            "system": "urn:oid:2.16.840.1.113883.6.238",
            "code": "1002-5",
            "display": "American Indian or Alaska Native",
            "userSelected": true
          }
        }, {
          "url": "text",
          "valueString": "American Indian or Alaska Native"
        } ]
      }, {
        "url": "http://hl7.org/fhir/us/core/StructureDefinition/us-core-ethnicity",
        "extension": [ {
          "url": "ombCategory",
          "valueCoding": {
            "system": "urn:oid:2.16.840.1.113883.6.238",
            "code": "2135-2",
            "display": "Hispanic or Latino",
            "userSelected": true
          }
        }, {
          "url": "text",
          "valueString": "Hispanic or Latino"
        } ]
      } ],
      "identifier": [ {
        "type": {
          "coding": [ {
            "system": "http://terminology.hl7.org/CodeSystem/v2-0203",
            "code": "MR"
          } ]
        },
        "system": "https://bonnie-fhir.healthit.gov/",
        "value": "62c880ec0111a60120dc220e"
      } ],
      "active": true,
      "name": [ {
        "use": "usual",
        "family": "NUMERPassPop2",
        "given": [ "RadTxwithPainAssessMultEp" ]
      } ],
      "gender": "female",
      "birthDate": "1933-05-13"
    },
    "request": {
      "method": "PUT",
      "url": "Patient/08f5e385-dbd5-4405-98ab-673d7d582069"
    }
  }, {
    "fullUrl": "https://madie.cms.gov/Observation/390731db-4e51-4150-a5a7-15a07e8a3c40",
    "resource": {
      "resourceType": "Observation",
      "id": "390731db-4e51-4150-a5a7-15a07e8a3c40",
      "meta": {
        "profile": [ "http://hl7.org/fhir/us/qicore/StructureDefinition/qicore-observation-screening-assessment" ]
      },
      "status": "final",
      "category": [ {
        "coding": [ {
          "system": "http://terminology.hl7.org/CodeSystem/observation-category",
          "code": "survey",
          "display": "Survey"
        } ],
        "text": "Survey"
      } ],
      "code": {
        "coding": [ {
          "system": "http://loinc.org",
          "code": "38208-5"
        } ]
      },
      "subject": {
        "reference": "Patient/08f5e385-dbd5-4405-98ab-673d7d582069"
      },
      "effectiveDateTime": "2026-03-05T09:00:00.000+00:00",
      "valueInteger": 5
    },
    "request": {
      "method": "PUT",
      "url": "Observation/390731db-4e51-4150-a5a7-15a07e8a3c40"
    }
  }, {
    "fullUrl": "https://madie.cms.gov/Observation/32130320-b431-4512-b95a-8794f735901a",
    "resource": {
      "resourceType": "Observation",
      "id": "32130320-b431-4512-b95a-8794f735901a",
      "meta": {
        "profile": [ "http://hl7.org/fhir/us/qicore/StructureDefinition/qicore-observation-screening-assessment" ]
      },
      "status": "final",
      "category": [ {
        "coding": [ {
          "system": "http://terminology.hl7.org/CodeSystem/observation-category",
          "code": "survey",
          "display": "Survey"
        } ],
        "text": "Survey"
      } ],
      "code": {
        "coding": [ {
          "system": "http://loinc.org",
          "code": "38221-8"
        } ]
      },
      "subject": {
        "reference": "Patient/08f5e385-dbd5-4405-98ab-673d7d582069"
      },
      "effectiveDateTime": "2026-08-30T15:00:00.000+00:00",
      "valueInteger": 5
    },
    "request": {
      "method": "PUT",
      "url": "Observation/32130320-b431-4512-b95a-8794f735901a"
    }
  }, {
    "fullUrl": "https://madie.cms.gov/Condition/2603e4bb-2e3f-47ad-8c9a-897a49830352",
    "resource": {
      "resourceType": "Condition",
      "id": "2603e4bb-2e3f-47ad-8c9a-897a49830352",
      "meta": {
        "profile": [ "http://hl7.org/fhir/us/qicore/StructureDefinition/qicore-condition-problems-health-concerns" ]
      },
      "clinicalStatus": {
        "coding": [ {
          "system": "http://terminology.hl7.org/CodeSystem/condition-clinical",
          "code": "active",
          "display": "active",
          "userSelected": true
        } ]
      },
      "verificationStatus": {
        "coding": [ {
          "system": "http://terminology.hl7.org/CodeSystem/condition-ver-status",
          "code": "confirmed",
          "display": "Confirmed"
        } ]
      },
      "category": [ {
        "coding": [ {
          "system": "http://terminology.hl7.org/CodeSystem/condition-category",
          "code": "problem-list-item",
          "display": "Problem List Item"
        } ]
      } ],
      "code": {
        "coding": [ {
          "system": "http://snomed.info/sct",
          "code": "107691000119101"
        } ]
      },
      "subject": {
        "reference": "Patient/08f5e385-dbd5-4405-98ab-673d7d582069"
      },
      "onsetDateTime": "2024-11-01T13:30:00.000+00:00"
    },
    "request": {
      "method": "PUT",
      "url": "Condition/2603e4bb-2e3f-47ad-8c9a-897a49830352"
    }
  }, {
    "fullUrl": "https://madie.cms.gov/Coverage/0b7e2898-1c90-4733-a041-cd76d85acdcb",
    "resource": {
      "resourceType": "Coverage",
      "id": "0b7e2898-1c90-4733-a041-cd76d85acdcb",
      "meta": {
        "profile": [ "http://hl7.org/fhir/us/qicore/StructureDefinition/qicore-coverage" ]
      },
      "status": "active",
      "beneficiary": {
        "reference": "Patient/08f5e385-dbd5-4405-98ab-673d7d582069"
      },
      "period": {
        "start": "1933-05-13T08:00:00.000+00:00"
      },
      "payor": [ {
        "reference": "Organization/2f2ae641-4f64-48ff-add7-fd5e87fd5e46"
      } ]
    },
    "request": {
      "method": "PUT",
      "url": "Coverage/0b7e2898-1c90-4733-a041-cd76d85acdcb"
    }
  }, {
    "fullUrl": "https://madie.cms.gov/Encounter/355cbc1c-f862-4f44-889f-880681ca8b1a",
    "resource": {
      "resourceType": "Encounter",
      "id": "355cbc1c-f862-4f44-889f-880681ca8b1a",
      "meta": {
        "profile": [ "http://hl7.org/fhir/us/qicore/StructureDefinition/qicore-encounter" ]
      },
      "status": "finished",
      "class": {
        "system": "http://terminology.hl7.org/CodeSystem/v3-ActCode",
        "code": "AMB",
        "display": "ambulatory",
        "userSelected": true
      },
      "type": [ {
        "coding": [ {
          "system": "http://www.ama-assn.org/go/cpt",
          "version": "2023",
          "code": "77427",
          "display": "Radiation treatment management, 5 treatments",
          "userSelected": true
        } ]
      } ],
      "subject": {
        "reference": "Patient/08f5e385-dbd5-4405-98ab-673d7d582069"
      },
      "period": {
        "start": "2026-03-05T08:00:00.000+00:00",
        "end": "2026-03-05T10:00:00.000+00:00"
      }
    },
    "request": {
      "method": "PUT",
      "url": "Encounter/355cbc1c-f862-4f44-889f-880681ca8b1a"
    }
  }, {
    "fullUrl": "https://madie.cms.gov/Encounter/8588a5da-4558-4733-a340-92633d23b009",
    "resource": {
      "resourceType": "Encounter",
      "id": "8588a5da-4558-4733-a340-92633d23b009",
      "meta": {
        "profile": [ "http://hl7.org/fhir/us/qicore/StructureDefinition/qicore-encounter" ]
      },
      "status": "finished",
      "class": {
        "system": "http://terminology.hl7.org/CodeSystem/v3-ActCode",
        "code": "AMB",
        "display": "ambulatory",
        "userSelected": true
      },
      "type": [ {
        "coding": [ {
          "system": "http://www.ama-assn.org/go/cpt",
          "code": "77432",
          "userSelected": true
        } ]
      } ],
      "subject": {
        "reference": "Patient/08f5e385-dbd5-4405-98ab-673d7d582069"
      },
      "period": {
        "start": "2026-08-30T08:00:00.000+00:00",
        "end": "2026-08-30T08:15:00.000+00:00"
      }
    },
    "request": {
      "method": "PUT",
      "url": "Encounter/8588a5da-4558-4733-a340-92633d23b009"
    }
  }, {
    "fullUrl": "https://madie.cms.gov/Organization/2f2ae641-4f64-48ff-add7-fd5e87fd5e46",
    "resource": {
      "resourceType": "Organization",
      "id": "2f2ae641-4f64-48ff-add7-fd5e87fd5e46",
      "meta": {
        "profile": [ "http://hl7.org/fhir/us/qicore/StructureDefinition/qicore-organization" ]
      },
      "identifier": [ {
        "use": "temp",
        "system": "urn:oid:2.16.840.1.113883.4.4",
        "value": "21-3259825"
      } ],
      "active": true,
      "type": [ {
        "coding": [ {
          "system": "http://terminology.hl7.org/CodeSystem/organization-type",
          "code": "pay",
          "display": "Payer"
        } ]
      } ],
      "name": "Blue Cross Blue Shield of Texas",
      "telecom": [ {
        "system": "phone",
        "value": "(+1) 972-766-6900"
      } ],
      "address": [ {
        "use": "billing",
        "type": "postal",
        "line": [ "P.O. Box 660044" ],
        "city": "Dallas",
        "state": "TX",
        "postalCode": "75266-0044",
        "country": "USA"
      } ]
    },
    "request": {
      "method": "PUT",
      "url": "Organization/2f2ae641-4f64-48ff-add7-fd5e87fd5e46"
    }
  }, {
    "fullUrl": "https://madie.cms.gov/Practitioner/b8bd8d15-f34c-4cca-9ba6-ea139f03e744",
    "resource": {
      "resourceType": "Practitioner",
      "id": "b8bd8d15-f34c-4cca-9ba6-ea139f03e744",
      "meta": {
        "profile": [ "http://hl7.org/fhir/us/qicore/StructureDefinition/qicore-practitioner" ]
      },
      "identifier": [ {
        "system": "http://hl7.org/fhir/sid/us-npi",
        "value": "1234567890"
      } ],
      "name": [ {
        "family": "Evil",
        "prefix": [ "Dr" ]
      } ]
    },
    "request": {
      "method": "PUT",
      "url": "Practitioner/b8bd8d15-f34c-4cca-9ba6-ea139f03e744"
    }
  }, {
    "fullUrl": "https://madie.cms.gov/MeasureReport/76c5cc0e-fbf4-4ac1-a7c2-32ecbcdafdba",
    "resource": {
      "resourceType": "MeasureReport",
      "id": "76c5cc0e-fbf4-4ac1-a7c2-32ecbcdafdba",
      "meta": {
        "profile": [ "http://hl7.org/fhir/us/cqfmeasures/StructureDefinition/test-case-cqfm" ]
      },
      "contained": [ {
        "resourceType": "Parameters",
        "id": "1cdac9d4-481c-4890-b2c0-0bcbc56b0b69-parameters",
        "parameter": [ {
          "name": "subject",
          "valueString": "08f5e385-dbd5-4405-98ab-673d7d582069"
        } ]
      } ],
      "extension": [ {
        "url": "http://hl7.org/fhir/StructureDefinition/cqf-inputParameters",
        "valueReference": {
          "reference": "#1cdac9d4-481c-4890-b2c0-0bcbc56b0b69-parameters"
        }
      }, {
        "url": "http://hl7.org/fhir/us/cqfmeasures/StructureDefinition/cqfm-testCaseDescription",
        "valueMarkdown": "Patient with cancer diagnosis that overlaps radiation treatment management during measurement period. Pain intensity assessment was performed during radiation treatment management encounter. 2 episodes of care.\n"
      } ],
      "modifierExtension": [ {
        "url": "http://hl7.org/fhir/us/cqfmeasures/StructureDefinition/cqfm-isTestCase",
        "valueBoolean": true
      } ],
      "status": "complete",
      "type": "individual",
      "measure": "https://madie.cms.gov/Measure/CMS157FHIRPainIntensityQuantified",
      "period": {
        "start": "2026-01-01",
        "end": "2026-12-31"
      },
      "group": [ {
        "id": "Group_1",
        "population": [ {
          "id": "InitialPopulation_1",
          "code": {
            "coding": [ {
              "system": "http://terminology.hl7.org/CodeSystem/measure-population",
              "code": "initial-population",
              "display": "Initial Population"
            } ]
          },
          "count": 0
        }, {
          "id": "Denominator_1",
          "code": {
            "coding": [ {
              "system": "http://terminology.hl7.org/CodeSystem/measure-population",
              "code": "denominator",
              "display": "Denominator"
            } ]
          },
          "count": 0
        }, {
          "id": "Numerator_1",
          "code": {
            "coding": [ {
              "system": "http://terminology.hl7.org/CodeSystem/measure-population",
              "code": "numerator",
              "display": "Numerator"
            } ]
          },
          "count": 0
        } ],
        "measureScore": {
          "value": 0.0
        }
      }, {
        "id": "Group_2",
        "population": [ {
          "id": "InitialPopulation_2",
          "code": {
            "coding": [ {
              "system": "http://terminology.hl7.org/CodeSystem/measure-population",
              "code": "initial-population",
              "display": "Initial Population"
            } ]
          },
          "count": 2
        }, {
          "id": "Denominator_2",
          "code": {
            "coding": [ {
              "system": "http://terminology.hl7.org/CodeSystem/measure-population",
              "code": "denominator",
              "display": "Denominator"
            } ]
          },
          "count": 2
        }, {
          "id": "Numerator_2",
          "code": {
            "coding": [ {
              "system": "http://terminology.hl7.org/CodeSystem/measure-population",
              "code": "numerator",
              "display": "Numerator"
            } ]
          },
          "count": 2
        } ],
        "measureScore": {
          "value": 0.0
        }
      } ],
      "evaluatedResource": [ {
        "reference": "Patient/08f5e385-dbd5-4405-98ab-673d7d582069"
      }, {
        "reference": "Observation/390731db-4e51-4150-a5a7-15a07e8a3c40"
      }, {
        "reference": "Observation/32130320-b431-4512-b95a-8794f735901a"
      }, {
        "reference": "Condition/2603e4bb-2e3f-47ad-8c9a-897a49830352"
      }, {
        "reference": "Coverage/0b7e2898-1c90-4733-a041-cd76d85acdcb"
      }, {
        "reference": "Encounter/355cbc1c-f862-4f44-889f-880681ca8b1a"
      }, {
        "reference": "Encounter/8588a5da-4558-4733-a340-92633d23b009"
      }, {
        "reference": "Organization/2f2ae641-4f64-48ff-add7-fd5e87fd5e46"
      }, {
        "reference": "Practitioner/b8bd8d15-f34c-4cca-9ba6-ea139f03e744"
      } ]
    },
    "request": {
      "method": "PUT",
      "url": "MeasureReport/76c5cc0e-fbf4-4ac1-a7c2-32ecbcdafdba"
    }
  } ]
}