{
  "resourceType": "Bundle",
  "id": "tests-NUMERPass-TwoNumEventsCountOnly1-bundle",
  "type": "transaction",
  "entry": [ {
    "fullUrl": "https://madie.cms.gov/MedicationAdministration/77ccf10f-9228-436a-a5f8-f85c96974c46",
    "resource": {
      "resourceType": "MedicationAdministration",
      "id": "77ccf10f-9228-436a-a5f8-f85c96974c46",
      "meta": {
        "profile": [ "http://hl7.org/fhir/us/qicore/StructureDefinition/qicore-medicationadministration" ]
      },
      "status": "completed",
      "medicationCodeableConcept": {
        "coding": [ {
          "system": "http://www.nlm.nih.gov/research/umls/rxnorm",
          "code": "1659929",
          "display": "Naloxone (opioid antagonist)"
        } ]
      },
      "subject": {
        "reference": "Patient/bef27397-e972-46e8-8e92-b8d4fd7985dc"
      },
      "effectiveDateTime": "2025-12-31T09:00:00.000+00:00",
      "dosage": {
        "route": {
          "coding": [ {
            "system": "http://snomed.info/sct",
            "code": "34206005",
            "display": "Intravenous"
          } ]
        }
      }
    },
    "request": {
      "method": "PUT",
      "url": "MedicationAdministration/77ccf10f-9228-436a-a5f8-f85c96974c46"
    }
  }, {
    "fullUrl": "https://madie.cms.gov/MedicationAdministration/7086a73c-e7fb-452d-91c9-bb8a145b72d3",
    "resource": {
      "resourceType": "MedicationAdministration",
      "id": "7086a73c-e7fb-452d-91c9-bb8a145b72d3",
      "meta": {
        "profile": [ "http://hl7.org/fhir/us/qicore/StructureDefinition/qicore-medicationadministration" ]
      },
      "status": "completed",
      "medicationCodeableConcept": {
        "coding": [ {
          "system": "http://www.nlm.nih.gov/research/umls/rxnorm",
          "code": "1010600",
          "display": "Opioids"
        } ]
      },
      "subject": {
        "reference": "Patient/bef27397-e972-46e8-8e92-b8d4fd7985dc"
      },
      "effectivePeriod": {
        "start": "2026-01-04T08:00:00.000+00:00",
        "end": "2026-01-04T08:15:00.000+00:00"
      }
    },
    "request": {
      "method": "PUT",
      "url": "MedicationAdministration/7086a73c-e7fb-452d-91c9-bb8a145b72d3"
    }
  }, {
    "fullUrl": "https://madie.cms.gov/MedicationAdministration/e09b1427-1f27-4701-853a-0975776cfad6",
    "resource": {
      "resourceType": "MedicationAdministration",
      "id": "e09b1427-1f27-4701-853a-0975776cfad6",
      "meta": {
        "profile": [ "http://hl7.org/fhir/us/qicore/StructureDefinition/qicore-medicationadministration" ]
      },
      "status": "completed",
      "medicationCodeableConcept": {
        "coding": [ {
          "system": "http://www.nlm.nih.gov/research/umls/rxnorm",
          "code": "2596175",
          "display": "Nalmefene (opioid antagonist)"
        } ]
      },
      "subject": {
        "reference": "Patient/bef27397-e972-46e8-8e92-b8d4fd7985dc"
      },
      "effectiveDateTime": "2025-12-31T09:00:00.000+00:00",
      "dosage": {
        "route": {
          "coding": [ {
            "system": "http://snomed.info/sct",
            "code": "34206005",
            "display": "Intravenous"
          } ]
        }
      }
    },
    "request": {
      "method": "PUT",
      "url": "MedicationAdministration/e09b1427-1f27-4701-853a-0975776cfad6"
    }
  }, {
    "fullUrl": "https://madie.cms.gov/MedicationAdministration/26d5f776-8c25-4a02-978a-3b5e08b9f98c",
    "resource": {
      "resourceType": "MedicationAdministration",
      "id": "26d5f776-8c25-4a02-978a-3b5e08b9f98c",
      "meta": {
        "profile": [ "http://hl7.org/fhir/us/qicore/StructureDefinition/qicore-medicationadministration" ]
      },
      "status": "completed",
      "medicationCodeableConcept": {
        "coding": [ {
          "system": "http://www.nlm.nih.gov/research/umls/rxnorm",
          "code": "1659929",
          "display": "Naloxone (opioid antagonist)"
        } ]
      },
      "subject": {
        "reference": "Patient/bef27397-e972-46e8-8e92-b8d4fd7985dc"
      },
      "effectiveDateTime": "2025-12-31T09:00:00.000+00:00",
      "dosage": {
        "route": {
          "coding": [ {
            "system": "http://snomed.info/sct",
            "code": "34206005",
            "display": "Intravenous"
          } ]
        }
      }
    },
    "request": {
      "method": "PUT",
      "url": "MedicationAdministration/26d5f776-8c25-4a02-978a-3b5e08b9f98c"
    }
  }, {
    "fullUrl": "https://madie.cms.gov/MedicationAdministration/e6dcbd40-372f-429d-b46b-3fea8171fbbc",
    "resource": {
      "resourceType": "MedicationAdministration",
      "id": "e6dcbd40-372f-429d-b46b-3fea8171fbbc",
      "meta": {
        "profile": [ "http://hl7.org/fhir/us/qicore/StructureDefinition/qicore-medicationadministration" ]
      },
      "status": "completed",
      "medicationCodeableConcept": {
        "coding": [ {
          "system": "http://www.nlm.nih.gov/research/umls/rxnorm",
          "code": "2592953",
          "display": "Nalmefene (opioid antagonist)"
        } ]
      },
      "subject": {
        "reference": "Patient/bef27397-e972-46e8-8e92-b8d4fd7985dc"
      },
      "effectiveDateTime": "2026-01-04T09:00:00.000+00:00",
      "dosage": {
        "route": {
          "coding": [ {
            "system": "http://snomed.info/sct",
            "code": "34206005",
            "display": "Intravenous"
          } ]
        }
      }
    },
    "request": {
      "method": "PUT",
      "url": "MedicationAdministration/e6dcbd40-372f-429d-b46b-3fea8171fbbc"
    }
  }, {
    "fullUrl": "https://madie.cms.gov/MedicationAdministration/b2de6e19-688d-4fee-a7d1-916e7dff5e8f",
    "resource": {
      "resourceType": "MedicationAdministration",
      "id": "b2de6e19-688d-4fee-a7d1-916e7dff5e8f",
      "meta": {
        "profile": [ "http://hl7.org/fhir/us/qicore/StructureDefinition/qicore-medicationadministration" ]
      },
      "status": "completed",
      "medicationCodeableConcept": {
        "coding": [ {
          "system": "http://www.nlm.nih.gov/research/umls/rxnorm",
          "code": "1010600",
          "display": "Opioids"
        } ]
      },
      "subject": {
        "reference": "Patient/bef27397-e972-46e8-8e92-b8d4fd7985dc"
      },
      "effectivePeriod": {
        "start": "2025-12-31T08:00:00.000+00:00",
        "end": "2025-12-31T08:15:00.000+00:00"
      }
    },
    "request": {
      "method": "PUT",
      "url": "MedicationAdministration/b2de6e19-688d-4fee-a7d1-916e7dff5e8f"
    }
  }, {
    "fullUrl": "https://madie.cms.gov/Encounter/c01cfa54-18e6-4578-b4a9-ab444cb5a3e4",
    "resource": {
      "resourceType": "Encounter",
      "id": "c01cfa54-18e6-4578-b4a9-ab444cb5a3e4",
      "meta": {
        "profile": [ "http://hl7.org/fhir/us/qicore/StructureDefinition/qicore-encounter" ]
      },
      "status": "finished",
      "class": {
        "system": "http://terminology.hl7.org/CodeSystem/v3-ActCode",
        "code": "IMP",
        "display": "inpatient encounter"
      },
      "type": [ {
        "coding": [ {
          "system": "http://snomed.info/sct",
          "code": "183452005",
          "display": "Inpatient encounter"
        } ]
      } ],
      "subject": {
        "reference": "Patient/bef27397-e972-46e8-8e92-b8d4fd7985dc"
      },
      "period": {
        "start": "2025-12-30T08:00:00.000+00:00",
        "end": "2026-01-06T00:00:00.000+00:00"
      }
    },
    "request": {
      "method": "PUT",
      "url": "Encounter/c01cfa54-18e6-4578-b4a9-ab444cb5a3e4"
    }
  }, {
    "fullUrl": "https://madie.cms.gov/Patient/bef27397-e972-46e8-8e92-b8d4fd7985dc",
    "resource": {
      "resourceType": "Patient",
      "id": "bef27397-e972-46e8-8e92-b8d4fd7985dc",
      "meta": {
        "profile": [ "http://hl7.org/fhir/us/qicore/StructureDefinition/qicore-patient" ]
      },
      "extension": [ {
        "url": "http://hl7.org/fhir/us/core/StructureDefinition/us-core-race",
        "extension": [ {
          "url": "ombCategory",
          "valueCoding": {
            "system": "urn:oid:2.16.840.1.113883.6.238",
            "code": "2106-3",
            "display": "White"
          }
        }, {
          "url": "text",
          "valueString": "White"
        } ]
      }, {
        "url": "http://hl7.org/fhir/us/core/StructureDefinition/us-core-ethnicity",
        "extension": [ {
          "url": "ombCategory",
          "valueCoding": {
            "system": "urn:oid:2.16.840.1.113883.6.238",
            "code": "2135-2",
            "display": "Hispanic or Latino"
          }
        }, {
          "url": "text",
          "valueString": "Hispanic or Latino"
        } ]
      }, {
        "url": "http://hl7.org/fhir/us/core/StructureDefinition/us-core-sex",
        "valueCode": "248153007"
      } ],
      "identifier": [ {
        "system": "http://hospital.smarthealthit.org",
        "value": "999999999"
      } ],
      "name": [ {
        "family": "Example",
        "given": [ "Patient" ]
      } ],
      "gender": "female",
      "birthDate": "1956-01-01"
    },
    "request": {
      "method": "PUT",
      "url": "Patient/bef27397-e972-46e8-8e92-b8d4fd7985dc"
    }
  }, {
    "fullUrl": "https://madie.cms.gov/MeasureReport/f74704fa-c612-44e3-b771-9ef9abc3e044",
    "resource": {
      "resourceType": "MeasureReport",
      "id": "f74704fa-c612-44e3-b771-9ef9abc3e044",
      "meta": {
        "profile": [ "http://hl7.org/fhir/us/cqfmeasures/StructureDefinition/test-case-cqfm" ]
      },
      "contained": [ {
        "resourceType": "Parameters",
        "id": "74236599-a70a-4adf-956d-c175b1b7de0c-parameters",
        "parameter": [ {
          "name": "subject",
          "valueString": "bef27397-e972-46e8-8e92-b8d4fd7985dc"
        } ]
      } ],
      "extension": [ {
        "url": "http://hl7.org/fhir/StructureDefinition/cqf-inputParameters",
        "valueReference": {
          "reference": "#74236599-a70a-4adf-956d-c175b1b7de0c-parameters"
        }
      }, {
        "url": "http://hl7.org/fhir/us/cqfmeasures/StructureDefinition/cqfm-testCaseDescription",
        "valueMarkdown": "Inpatient encounter starts in year prior to MP,  ends 1st day of MP. Opioid given twice and antagonist given w/in 24 hrs of each. Two qualifying numerators, but should only count one. One numerator passes."
      } ],
      "modifierExtension": [ {
        "url": "http://hl7.org/fhir/us/cqfmeasures/StructureDefinition/cqfm-isTestCase",
        "valueBoolean": true
      } ],
      "status": "complete",
      "type": "individual",
      "measure": "https://madie.cms.gov/Measure/CMS819FHIRHHORAE",
      "period": {
        "start": "2026-01-01",
        "end": "2026-12-31"
      },
      "group": [ {
        "id": "Group_1",
        "population": [ {
          "id": "InitialPopulation_1",
          "code": {
            "coding": [ {
              "system": "http://terminology.hl7.org/CodeSystem/measure-population",
              "code": "initial-population",
              "display": "Initial Population"
            } ]
          },
          "count": 1
        }, {
          "id": "Denominator_1",
          "code": {
            "coding": [ {
              "system": "http://terminology.hl7.org/CodeSystem/measure-population",
              "code": "denominator",
              "display": "Denominator"
            } ]
          },
          "count": 1
        }, {
          "id": "Numerator_1",
          "code": {
            "coding": [ {
              "system": "http://terminology.hl7.org/CodeSystem/measure-population",
              "code": "numerator",
              "display": "Numerator"
            } ]
          },
          "count": 1
        } ],
        "measureScore": {
          "value": 0.0
        }
      } ],
      "evaluatedResource": [ {
        "reference": "MedicationAdministration/77ccf10f-9228-436a-a5f8-f85c96974c46"
      }, {
        "reference": "MedicationAdministration/7086a73c-e7fb-452d-91c9-bb8a145b72d3"
      }, {
        "reference": "MedicationAdministration/e09b1427-1f27-4701-853a-0975776cfad6"
      }, {
        "reference": "MedicationAdministration/26d5f776-8c25-4a02-978a-3b5e08b9f98c"
      }, {
        "reference": "MedicationAdministration/e6dcbd40-372f-429d-b46b-3fea8171fbbc"
      }, {
        "reference": "MedicationAdministration/b2de6e19-688d-4fee-a7d1-916e7dff5e8f"
      }, {
        "reference": "Encounter/c01cfa54-18e6-4578-b4a9-ab444cb5a3e4"
      }, {
        "reference": "Patient/bef27397-e972-46e8-8e92-b8d4fd7985dc"
      } ]
    },
    "request": {
      "method": "PUT",
      "url": "MeasureReport/f74704fa-c612-44e3-b771-9ef9abc3e044"
    }
  } ]
}