{
  "resourceType": "Bundle",
  "id": "657cbdc9b4f1f0343662347a",
  "type": "transaction",
  "entry": [ {
    "fullUrl": "https://madie.cms.gov/Patient/ca07ad9c-9810-43f3-a3cd-90c9c028187b",
    "resource": {
      "resourceType": "Patient",
      "id": "ca07ad9c-9810-43f3-a3cd-90c9c028187b",
      "meta": {
        "profile": [ "http://hl7.org/fhir/us/qicore/StructureDefinition/qicore-patient" ]
      },
      "extension": [ {
        "url": "http://hl7.org/fhir/us/core/StructureDefinition/us-core-race",
        "extension": [ {
          "url": "ombCategory",
          "valueCoding": {
            "system": "urn:oid:2.16.840.1.113883.6.238",
            "code": "2106-3",
            "display": "White",
            "userSelected": true
          }
        }, {
          "url": "text",
          "valueString": "White"
        } ]
      }, {
        "url": "http://hl7.org/fhir/us/core/StructureDefinition/us-core-ethnicity",
        "extension": [ {
          "url": "ombCategory",
          "valueCoding": {
            "system": "urn:oid:2.16.840.1.113883.6.238",
            "code": "2186-5",
            "display": "Not Hispanic or Latino",
            "userSelected": true
          }
        }, {
          "url": "text",
          "valueString": "Not Hispanic or Latino"
        } ]
      } ],
      "identifier": [ {
        "type": {
          "coding": [ {
            "system": "http://terminology.hl7.org/CodeSystem/v2-0203",
            "code": "MR"
          } ]
        },
        "system": "https://bonnie-fhir.healthit.gov/",
        "value": "657cbdc9b4f1f0343662347a"
      } ],
      "name": [ {
        "family": "ServiceRequestPass",
        "given": [ "ServiceRequestInjection" ]
      } ],
      "gender": "female",
      "birthDate": "2008-01-01"
    },
    "request": {
      "method": "PUT",
      "url": "Patient/ca07ad9c-9810-43f3-a3cd-90c9c028187b"
    }
  }, {
    "fullUrl": "https://madie.cms.gov/Encounter/ac4d2456-efa0-4370-8ea1-43862965e9e6",
    "resource": {
      "resourceType": "Encounter",
      "id": "ac4d2456-efa0-4370-8ea1-43862965e9e6",
      "meta": {
        "profile": [ "http://hl7.org/fhir/us/qicore/StructureDefinition/qicore-encounter" ]
      },
      "status": "finished",
      "class": {
        "system": "http://terminology.hl7.org/CodeSystem/v3-ActCode",
        "code": "ACUTE",
        "display": "inpatient acute"
      },
      "type": [ {
        "coding": [ {
          "system": "http://snomed.info/sct",
          "version": "2024",
          "code": "32485007",
          "display": "Hospital admission (procedure)",
          "userSelected": true
        } ]
      } ],
      "subject": {
        "reference": "Patient/ca07ad9c-9810-43f3-a3cd-90c9c028187b"
      },
      "period": {
        "start": "2026-01-01T08:00:00.000+00:00",
        "end": "2026-01-02T09:15:00.000+00:00"
      }
    },
    "request": {
      "method": "PUT",
      "url": "Encounter/ac4d2456-efa0-4370-8ea1-43862965e9e6"
    }
  }, {
    "fullUrl": "https://madie.cms.gov/Location/444454c4-f9c1-4e74-bb56-e512b6d767ec",
    "resource": {
      "resourceType": "Location",
      "id": "444454c4-f9c1-4e74-bb56-e512b6d767ec",
      "meta": {
        "profile": [ "http://hl7.org/fhir/us/qicore/StructureDefinition/qicore-location" ]
      },
      "identifier": [ {
        "use": "usual",
        "system": "http://exampleoflocation.com",
        "value": "B1-S.F2"
      } ],
      "name": "Medical Surgical East, first floor",
      "type": [ {
        "coding": [ {
          "system": "https://www.cdc.gov/nhsn/cdaportal/terminology/codesystem/hsloc.html",
          "code": "1028-0",
          "display": "Medical Cardiac Critical Care",
          "userSelected": true
        } ]
      } ]
    },
    "request": {
      "method": "PUT",
      "url": "Location/444454c4-f9c1-4e74-bb56-e512b6d767ec"
    }
  }, {
    "fullUrl": "https://madie.cms.gov/MedicationRequest/7ea333f3-076e-4d6b-a139-a737ea584c6f",
    "resource": {
      "resourceType": "MedicationRequest",
      "id": "7ea333f3-076e-4d6b-a139-a737ea584c6f",
      "meta": {
        "profile": [ "http://hl7.org/fhir/us/qicore/StructureDefinition/qicore-medicationrequest" ]
      },
      "status": "completed",
      "intent": "order",
      "medicationCodeableConcept": {
        "coding": [ {
          "system": "http://www.nlm.nih.gov/research/umls/rxnorm",
          "version": "06052023",
          "code": "1007184"
        } ]
      },
      "subject": {
        "reference": "Patient/ca07ad9c-9810-43f3-a3cd-90c9c028187b"
      },
      "authoredOn": "2026-01-01T08:15:00.000+00:00",
      "requester": {
        "reference": "Practitioner/33d87640-6b2a-40b0-ab11-542478a88d5a"
      },
      "dosageInstruction": [ {
        "timing": {
          "repeat": {
            "boundsPeriod": {
              "start": "2025-01-01T08:15:00.000+00:00"
            }
          }
        }
      } ]
    },
    "request": {
      "method": "PUT",
      "url": "MedicationRequest/7ea333f3-076e-4d6b-a139-a737ea584c6f"
    }
  }, {
    "fullUrl": "https://madie.cms.gov/ServiceRequest/0937215b-7ca8-4bf9-a2cf-d7fc70213591",
    "resource": {
      "resourceType": "ServiceRequest",
      "id": "0937215b-7ca8-4bf9-a2cf-d7fc70213591",
      "meta": {
        "profile": [ "http://hl7.org/fhir/us/qicore/StructureDefinition/qicore-servicerequest" ]
      },
      "status": "active",
      "intent": "order",
      "doNotPerform": false,
      "code": {
        "coding": [ {
          "system": "http://www.ama-assn.org/go/cpt",
          "version": "2024",
          "code": "64450",
          "display": "Injection(s), anesthetic agent(s) and/or steroid; other peripheral nerve or branch",
          "userSelected": true
        } ]
      },
      "subject": {
        "reference": "Patient/ca07ad9c-9810-43f3-a3cd-90c9c028187b"
      },
      "authoredOn": "2026-01-01T08:00:00.000+00:00"
    },
    "request": {
      "method": "PUT",
      "url": "ServiceRequest/0937215b-7ca8-4bf9-a2cf-d7fc70213591"
    }
  }, {
    "fullUrl": "https://madie.cms.gov/Coverage/cfbd9bbd-c30e-42e1-bd22-9ca9a1bcd29c",
    "resource": {
      "resourceType": "Coverage",
      "id": "cfbd9bbd-c30e-42e1-bd22-9ca9a1bcd29c",
      "meta": {
        "profile": [ "http://hl7.org/fhir/us/qicore/StructureDefinition/qicore-coverage" ]
      },
      "identifier": [ {
        "system": "http://benefitsinc.com/certificate",
        "value": "12345"
      } ],
      "status": "active",
      "type": {
        "coding": [ {
          "system": "https://nahdo.org/sopt",
          "version": "1.0.1",
          "code": "1",
          "display": "MEDICARE",
          "userSelected": true
        } ]
      },
      "subscriberId": "AB9876",
      "beneficiary": {
        "reference": "Patient/ca07ad9c-9810-43f3-a3cd-90c9c028187b"
      },
      "relationship": {
        "coding": [ {
          "system": "http://terminology.hl7.org/CodeSystem/subscriber-relationship",
          "code": "self"
        } ]
      },
      "period": {
        "start": "2026-01-01T00:00:00.000+00:00",
        "end": "2027-03-26T08:15:00.000+00:00"
      },
      "payor": [ {
        "reference": "Organization/6d60a3db-d0ff-427f-b3e7-a93edcde4fda"
      } ]
    },
    "request": {
      "method": "PUT",
      "url": "Coverage/cfbd9bbd-c30e-42e1-bd22-9ca9a1bcd29c"
    }
  }, {
    "fullUrl": "https://madie.cms.gov/Organization/6d60a3db-d0ff-427f-b3e7-a93edcde4fda",
    "resource": {
      "resourceType": "Organization",
      "id": "6d60a3db-d0ff-427f-b3e7-a93edcde4fda",
      "meta": {
        "profile": [ "http://hl7.org/fhir/us/qicore/StructureDefinition/qicore-organization" ]
      },
      "identifier": [ {
        "use": "temp",
        "system": "urn:oid:2.16.840.1.113883.4.4",
        "value": "21-3259825"
      } ],
      "active": true,
      "type": [ {
        "coding": [ {
          "system": "http://terminology.hl7.org/CodeSystem/organization-type",
          "code": "pay",
          "display": "Payer"
        } ]
      } ],
      "name": "Blue Cross Blue Shield of Texas",
      "telecom": [ {
        "system": "phone",
        "value": "(+1) 972-766-6900"
      } ],
      "address": [ {
        "use": "billing",
        "type": "postal",
        "line": [ "P.O. Box 660044" ],
        "city": "Dallas",
        "state": "TX",
        "postalCode": "75266-0044",
        "country": "USA"
      } ]
    },
    "request": {
      "method": "PUT",
      "url": "Organization/6d60a3db-d0ff-427f-b3e7-a93edcde4fda"
    }
  }, {
    "fullUrl": "https://madie.cms.gov/Practitioner/b5b4e0e6-a598-4c58-b80c-abe5feacc77a",
    "resource": {
      "resourceType": "Practitioner",
      "id": "b5b4e0e6-a598-4c58-b80c-abe5feacc77a",
      "meta": {
        "profile": [ "http://hl7.org/fhir/us/qicore/StructureDefinition/qicore-practitioner" ]
      },
      "identifier": [ {
        "system": "http://hl7.org/fhir/sid/us-npi",
        "value": "0723660813"
      } ],
      "name": [ {
        "family": "Evil",
        "prefix": [ "Dr" ]
      } ]
    },
    "request": {
      "method": "PUT",
      "url": "Practitioner/b5b4e0e6-a598-4c58-b80c-abe5feacc77a"
    }
  }, {
    "fullUrl": "https://madie.cms.gov/MeasureReport/13071b3f-3791-4554-8b67-65bad75f9f6a",
    "resource": {
      "resourceType": "MeasureReport",
      "id": "13071b3f-3791-4554-8b67-65bad75f9f6a",
      "meta": {
        "profile": [ "http://hl7.org/fhir/us/cqfmeasures/StructureDefinition/test-case-cqfm" ]
      },
      "contained": [ {
        "resourceType": "Parameters",
        "id": "44de81d9-aa00-46e6-b98b-cc94b78092e2-parameters",
        "parameter": [ {
          "name": "subject",
          "valueString": "ca07ad9c-9810-43f3-a3cd-90c9c028187b"
        } ]
      } ],
      "extension": [ {
        "url": "http://hl7.org/fhir/StructureDefinition/cqf-inputParameters",
        "valueReference": {
          "reference": "#44de81d9-aa00-46e6-b98b-cc94b78092e2-parameters"
        }
      }, {
        "url": "http://hl7.org/fhir/us/cqfmeasures/StructureDefinition/cqfm-testCaseDescription",
        "valueMarkdown": "Inpatient encounter with diabetic medication during MP with SDE service request for injection"
      } ],
      "modifierExtension": [ {
        "url": "http://hl7.org/fhir/us/cqfmeasures/StructureDefinition/cqfm-isTestCase",
        "valueBoolean": true
      } ],
      "status": "complete",
      "type": "individual",
      "measure": "https://madie.cms.gov/Measure/NHSNGlycemicControlHypoglycemiaInitialPopulation",
      "period": {
        "start": "2026-01-01",
        "end": "2026-12-31"
      },
      "group": [ {
        "id": "Group_1",
        "population": [ {
          "id": "InitialPopulation_1",
          "code": {
            "coding": [ {
              "system": "http://terminology.hl7.org/CodeSystem/measure-population",
              "code": "initial-population",
              "display": "Initial Population"
            } ]
          },
          "count": 1
        } ],
        "measureScore": {
          "value": 0.0
        }
      } ],
      "evaluatedResource": [ {
        "reference": "Patient/ca07ad9c-9810-43f3-a3cd-90c9c028187b"
      }, {
        "reference": "Encounter/ac4d2456-efa0-4370-8ea1-43862965e9e6"
      }, {
        "reference": "Location/444454c4-f9c1-4e74-bb56-e512b6d767ec"
      }, {
        "reference": "MedicationRequest/7ea333f3-076e-4d6b-a139-a737ea584c6f"
      }, {
        "reference": "ServiceRequest/0937215b-7ca8-4bf9-a2cf-d7fc70213591"
      }, {
        "reference": "Coverage/cfbd9bbd-c30e-42e1-bd22-9ca9a1bcd29c"
      }, {
        "reference": "Organization/6d60a3db-d0ff-427f-b3e7-a93edcde4fda"
      }, {
        "reference": "Practitioner/b5b4e0e6-a598-4c58-b80c-abe5feacc77a"
      } ]
    },
    "request": {
      "method": "PUT",
      "url": "MeasureReport/13071b3f-3791-4554-8b67-65bad75f9f6a"
    }
  } ]
}