{
  "resourceType": "Bundle",
  "id": "NUMPass-70-on-Jan1-1",
  "type": "transaction",
  "entry": [ {
    "fullUrl": "https://madie.cms.gov/Patient/32157922-39aa-412c-876b-dd3c7a62a155",
    "resource": {
      "resourceType": "Patient",
      "id": "32157922-39aa-412c-876b-dd3c7a62a155",
      "meta": {
        "profile": [ "http://hl7.org/fhir/us/qicore/StructureDefinition/qicore-patient" ]
      },
      "extension": [ {
        "url": "http://hl7.org/fhir/us/core/StructureDefinition/us-core-race",
        "extension": [ {
          "url": "ombCategory",
          "valueCoding": {
            "system": "urn:oid:2.16.840.1.113883.6.238",
            "code": "2028-9",
            "display": "Asian"
          }
        }, {
          "url": "text",
          "valueString": "Asian"
        } ]
      }, {
        "url": "http://hl7.org/fhir/us/core/StructureDefinition/us-core-ethnicity",
        "extension": [ {
          "url": "ombCategory",
          "valueCoding": {
            "system": "urn:oid:2.16.840.1.113883.6.238",
            "code": "2186-5",
            "display": "Not Hispanic or Latino"
          }
        }, {
          "url": "text",
          "valueString": "Not Hispanic or Latino"
        } ]
      } ],
      "identifier": [ {
        "system": "http://hospital.smarthealthit.org",
        "value": "999999995"
      } ],
      "name": [ {
        "family": "NUMPass",
        "given": [ "NUMPass-70-on-Jan1-1" ]
      } ],
      "gender": "male",
      "birthDate": "1956-01-01"
    },
    "request": {
      "method": "PUT",
      "url": "Patient/32157922-39aa-412c-876b-dd3c7a62a155"
    }
  }, {
    "fullUrl": "https://madie.cms.gov/Encounter/1a511f1d-1634-45d5-bb7b-b235ae2e476f",
    "resource": {
      "resourceType": "Encounter",
      "id": "1a511f1d-1634-45d5-bb7b-b235ae2e476f",
      "meta": {
        "profile": [ "http://hl7.org/fhir/us/qicore/StructureDefinition/qicore-encounter" ]
      },
      "status": "finished",
      "class": {
        "system": "http://terminology.hl7.org/CodeSystem/v3-ActCode",
        "code": "AMB",
        "display": "ambulatory"
      },
      "type": [ {
        "coding": [ {
          "system": "http://snomed.info/sct",
          "code": "11429006"
        } ]
      } ],
      "subject": {
        "reference": "Patient/32157922-39aa-412c-876b-dd3c7a62a155"
      },
      "period": {
        "start": "2026-01-04T08:00:00.000+00:00",
        "end": "2026-01-04T08:00:00.000+00:00"
      }
    },
    "request": {
      "method": "PUT",
      "url": "Encounter/1a511f1d-1634-45d5-bb7b-b235ae2e476f"
    }
  }, {
    "fullUrl": "https://madie.cms.gov/Encounter/37989993-3630-45fb-ba95-586c365be10c",
    "resource": {
      "resourceType": "Encounter",
      "id": "37989993-3630-45fb-ba95-586c365be10c",
      "meta": {
        "profile": [ "http://hl7.org/fhir/us/qicore/StructureDefinition/qicore-encounter" ]
      },
      "status": "finished",
      "class": {
        "system": "http://terminology.hl7.org/CodeSystem/v3-ActCode",
        "code": "AMB",
        "display": "ambulatory"
      },
      "type": [ {
        "coding": [ {
          "system": "http://snomed.info/sct",
          "code": "108219001"
        } ]
      } ],
      "subject": {
        "reference": "Patient/32157922-39aa-412c-876b-dd3c7a62a155"
      },
      "period": {
        "start": "2026-01-01T00:00:00.000+00:00",
        "end": "2026-01-01T00:00:00.000+00:00"
      }
    },
    "request": {
      "method": "PUT",
      "url": "Encounter/37989993-3630-45fb-ba95-586c365be10c"
    }
  }, {
    "fullUrl": "https://madie.cms.gov/Condition/42e26c87-5190-41f5-aaf1-5ef83e1d1d6b",
    "resource": {
      "resourceType": "Condition",
      "id": "42e26c87-5190-41f5-aaf1-5ef83e1d1d6b",
      "meta": {
        "profile": [ "http://hl7.org/fhir/us/qicore/StructureDefinition/qicore-condition-encounter-diagnosis" ]
      },
      "clinicalStatus": {
        "coding": [ {
          "system": "http://terminology.hl7.org/CodeSystem/condition-clinical",
          "code": "active"
        } ]
      },
      "category": [ {
        "coding": [ {
          "system": "http://terminology.hl7.org/CodeSystem/condition-category",
          "code": "encounter-diagnosis",
          "display": "Encounter Diagnosis"
        } ]
      } ],
      "code": {
        "coding": [ {
          "system": "http://snomed.info/sct",
          "code": "111947009",
          "display": "Functional disorder present, condition terminal"
        } ]
      },
      "subject": {
        "reference": "Patient/32157922-39aa-412c-876b-dd3c7a62a155"
      },
      "onsetDateTime": "2026-01-01T00:00:00.000+00:00"
    },
    "request": {
      "method": "PUT",
      "url": "Condition/42e26c87-5190-41f5-aaf1-5ef83e1d1d6b"
    }
  }, {
    "fullUrl": "https://madie.cms.gov/Observation/40f21e63-af5a-49c5-bf87-b7d7d554eb3d",
    "resource": {
      "resourceType": "Observation",
      "id": "40f21e63-af5a-49c5-bf87-b7d7d554eb3d",
      "meta": {
        "profile": [ "http://hl7.org/fhir/us/core/StructureDefinition/us-core-bmi" ]
      },
      "status": "final",
      "category": [ {
        "coding": [ {
          "system": "http://terminology.hl7.org/CodeSystem/observation-category",
          "code": "vital-signs",
          "display": "Vital Signs"
        } ]
      } ],
      "code": {
        "coding": [ {
          "system": "http://loinc.org",
          "code": "39156-5",
          "display": "Body mass index (BMI) [Ratio]"
        } ]
      },
      "subject": {
        "reference": "Patient/32157922-39aa-412c-876b-dd3c7a62a155"
      },
      "effectiveDateTime": "2026-01-01T00:00:00.000+00:00",
      "issued": "2026-01-01T00:00:00.000+00:00",
      "valueQuantity": {
        "value": 23,
        "unit": "kg/m2",
        "system": "http://unitsofmeasure.org",
        "code": "kg/m2"
      }
    },
    "request": {
      "method": "PUT",
      "url": "Observation/40f21e63-af5a-49c5-bf87-b7d7d554eb3d"
    }
  }, {
    "fullUrl": "https://madie.cms.gov/MeasureReport/954391f7-7344-421e-bfd2-a7e1169048c9",
    "resource": {
      "resourceType": "MeasureReport",
      "id": "954391f7-7344-421e-bfd2-a7e1169048c9",
      "meta": {
        "profile": [ "http://hl7.org/fhir/us/cqfmeasures/StructureDefinition/test-case-cqfm" ]
      },
      "contained": [ {
        "resourceType": "Parameters",
        "id": "f3be56e6-e140-42dc-b0ca-c3c3f921a989-parameters",
        "parameter": [ {
          "name": "subject",
          "valueString": "32157922-39aa-412c-876b-dd3c7a62a155"
        } ]
      } ],
      "extension": [ {
        "url": "http://hl7.org/fhir/StructureDefinition/cqf-inputParameters",
        "valueReference": {
          "reference": "#f3be56e6-e140-42dc-b0ca-c3c3f921a989-parameters"
        }
      }, {
        "url": "http://hl7.org/fhir/us/cqfmeasures/StructureDefinition/cqfm-testCaseDescription",
        "valueMarkdown": "DENEX-limitedlifeexpectancy-diagnosis-dayoftest-2"
      } ],
      "modifierExtension": [ {
        "url": "http://hl7.org/fhir/us/cqfmeasures/StructureDefinition/cqfm-isTestCase",
        "valueBoolean": true
      } ],
      "status": "complete",
      "type": "individual",
      "measure": "https://madie.cms.gov/Measure/CMS1154ScreeningPrediabetesFHIR",
      "period": {
        "start": "2026-01-01",
        "end": "2026-12-31"
      },
      "group": [ {
        "id": "Group_1",
        "population": [ {
          "id": "InitialPopulation_1",
          "code": {
            "coding": [ {
              "system": "http://terminology.hl7.org/CodeSystem/measure-population",
              "code": "initial-population",
              "display": "Initial Population"
            } ]
          },
          "count": 1
        }, {
          "id": "Denominator_1",
          "code": {
            "coding": [ {
              "system": "http://terminology.hl7.org/CodeSystem/measure-population",
              "code": "denominator",
              "display": "Denominator"
            } ]
          },
          "count": 1
        }, {
          "id": "DenominatorExclusion_1",
          "code": {
            "coding": [ {
              "system": "http://terminology.hl7.org/CodeSystem/measure-population",
              "code": "denominator-exclusion",
              "display": "Denominator Exclusion"
            } ]
          },
          "count": 1
        }, {
          "id": "Numerator_1",
          "code": {
            "coding": [ {
              "system": "http://terminology.hl7.org/CodeSystem/measure-population",
              "code": "numerator",
              "display": "Numerator"
            } ]
          },
          "count": 0
        } ],
        "measureScore": {
          "value": 1.0
        }
      } ],
      "evaluatedResource": [ {
        "reference": "Patient/32157922-39aa-412c-876b-dd3c7a62a155"
      }, {
        "reference": "Encounter/1a511f1d-1634-45d5-bb7b-b235ae2e476f"
      }, {
        "reference": "Encounter/37989993-3630-45fb-ba95-586c365be10c"
      }, {
        "reference": "Condition/42e26c87-5190-41f5-aaf1-5ef83e1d1d6b"
      }, {
        "reference": "Observation/40f21e63-af5a-49c5-bf87-b7d7d554eb3d"
      } ]
    },
    "request": {
      "method": "PUT",
      "url": "MeasureReport/954391f7-7344-421e-bfd2-a7e1169048c9"
    }
  } ]
}