{
  "resourceType": "Bundle",
  "id": "612e6b4d02c62a011f2ed391",
  "type": "transaction",
  "entry": [ {
    "fullUrl": "https://madie.cms.gov/Patient/96744bfd-c149-412a-8578-fb3f8c91e874",
    "resource": {
      "resourceType": "Patient",
      "id": "96744bfd-c149-412a-8578-fb3f8c91e874",
      "meta": {
        "profile": [ "http://hl7.org/fhir/us/qicore/StructureDefinition/qicore-patient" ]
      },
      "text": {
        "status": "generated",
        "div": "<div xmlns=\"http://www.w3.org/1999/xhtml\"><div class=\"hapiHeaderText\">INR3_DayAFAnes2DayAFAdm <b>NUMERFAIL </b></div><table class=\"hapiPropertyTable\"><tbody><tr><td>Identifier</td><td>8bd671bd3428c0f81ecc641fa9a09fe5</td></tr><tr><td>Date of birth</td><td><span>02 January 1974</span></td></tr></tbody></table></div>"
      },
      "extension": [ {
        "url": "http://hl7.org/fhir/us/core/StructureDefinition/us-core-race",
        "extension": [ {
          "url": "ombCategory",
          "valueCoding": {
            "system": "urn:oid:2.16.840.1.113883.6.238",
            "code": "1002-5",
            "display": "American Indian or Alaska Native",
            "userSelected": true
          }
        }, {
          "url": "text",
          "valueString": "American Indian or Alaska Native"
        } ]
      }, {
        "url": "http://hl7.org/fhir/us/core/StructureDefinition/us-core-ethnicity",
        "extension": [ {
          "url": "ombCategory",
          "valueCoding": {
            "system": "urn:oid:2.16.840.1.113883.6.238",
            "code": "2135-2",
            "display": "Hispanic or Latino",
            "userSelected": true
          }
        }, {
          "url": "text",
          "valueString": "Hispanic or Latino"
        } ]
      } ],
      "identifier": [ {
        "type": {
          "coding": [ {
            "system": "http://terminology.hl7.org/CodeSystem/v2-0203",
            "code": "MR"
          } ]
        },
        "system": "https://bonnie-fhir.healthit.gov/",
        "value": "612e6b4d02c62a011f2ed391"
      } ],
      "active": true,
      "name": [ {
        "use": "usual",
        "family": "NUMERFail",
        "given": [ "INR3_DayAFAnes2DayAFAdm" ]
      } ],
      "gender": "male",
      "birthDate": "1975-01-02"
    },
    "request": {
      "method": "PUT",
      "url": "Patient/96744bfd-c149-412a-8578-fb3f8c91e874"
    }
  }, {
    "fullUrl": "https://madie.cms.gov/Encounter/3ce25676-5348-4c47-985b-e79f4d73b5a5",
    "resource": {
      "resourceType": "Encounter",
      "id": "3ce25676-5348-4c47-985b-e79f4d73b5a5",
      "meta": {
        "profile": [ "http://hl7.org/fhir/us/qicore/StructureDefinition/qicore-encounter" ]
      },
      "status": "finished",
      "class": {
        "system": "http://terminology.hl7.org/CodeSystem/v3-ActCode",
        "code": "IMP",
        "display": "inpatient encounter"
      },
      "type": [ {
        "coding": [ {
          "system": "http://snomed.info/sct",
          "code": "8715000"
        } ]
      } ],
      "subject": {
        "reference": "Patient/96744bfd-c149-412a-8578-fb3f8c91e874"
      },
      "period": {
        "start": "2026-11-01T08:00:00.000+00:00",
        "end": "2026-11-26T08:15:00.000+00:00"
      },
      "length": {
        "value": 25,
        "unit": "days"
      }
    },
    "request": {
      "method": "PUT",
      "url": "Encounter/3ce25676-5348-4c47-985b-e79f4d73b5a5"
    }
  }, {
    "fullUrl": "https://madie.cms.gov/Coverage/ccc5e8ff-a3d0-481c-a43d-7589b496b771",
    "resource": {
      "resourceType": "Coverage",
      "id": "ccc5e8ff-a3d0-481c-a43d-7589b496b771",
      "status": "active",
      "beneficiary": {
        "reference": "Patient/96744bfd-c149-412a-8578-fb3f8c91e874"
      },
      "period": {
        "start": "1975-01-02T08:00:00.000+00:00"
      },
      "payor": [ {
        "reference": "Organization/5718ac11-d777-4383-b7a3-14eb03c1fdcc"
      } ]
    },
    "request": {
      "method": "PUT",
      "url": "Coverage/ccc5e8ff-a3d0-481c-a43d-7589b496b771"
    }
  }, {
    "fullUrl": "https://madie.cms.gov/Observation/56c845e4-3a6c-4524-9593-671f1df26751",
    "resource": {
      "resourceType": "Observation",
      "id": "56c845e4-3a6c-4524-9593-671f1df26751",
      "meta": {
        "profile": [ "http://hl7.org/fhir/us/qicore/StructureDefinition/qicore-observation-lab" ]
      },
      "status": "final",
      "category": [ {
        "coding": [ {
          "system": "http://terminology.hl7.org/CodeSystem/observation-category",
          "code": "laboratory",
          "display": "Laboratory"
        } ]
      } ],
      "code": {
        "coding": [ {
          "system": "http://loinc.org",
          "code": "34714-6"
        } ]
      },
      "subject": {
        "reference": "Patient/96744bfd-c149-412a-8578-fb3f8c91e874"
      },
      "issued": "2026-11-03T11:00:00.000+00:00",
      "valueQuantity": {
        "value": 3,
        "unit": "{INR}"
      }
    },
    "request": {
      "method": "PUT",
      "url": "Observation/56c845e4-3a6c-4524-9593-671f1df26751"
    }
  }, {
    "fullUrl": "https://madie.cms.gov/Procedure/67b3fa40-2be0-482a-bde4-22a6fffbdb17",
    "resource": {
      "resourceType": "Procedure",
      "id": "67b3fa40-2be0-482a-bde4-22a6fffbdb17",
      "meta": {
        "profile": [ "http://hl7.org/fhir/us/qicore/StructureDefinition/qicore-procedure" ]
      },
      "extension": [ {
        "url": "http://hl7.org/fhir/us/qicore/StructureDefinition/qicore-recorded",
        "valueDateTime": "2013-12-04T13:35:00.000+00:00"
      } ],
      "status": "completed",
      "code": {
        "coding": [ {
          "system": "http://www.icd10data.com/icd10pcs",
          "code": "3E030FZ"
        }, {
          "system": "http://snomed.info/sct",
          "code": "18946005"
        } ]
      },
      "subject": {
        "reference": "Patient/96744bfd-c149-412a-8578-fb3f8c91e874"
      },
      "performedPeriod": {
        "start": "2026-11-02T09:00:00.000+00:00",
        "end": "2026-11-02T09:15:00.000+00:00"
      }
    },
    "request": {
      "method": "PUT",
      "url": "Procedure/67b3fa40-2be0-482a-bde4-22a6fffbdb17"
    }
  }, {
    "fullUrl": "https://madie.cms.gov/Organization/5718ac11-d777-4383-b7a3-14eb03c1fdcc",
    "resource": {
      "resourceType": "Organization",
      "id": "5718ac11-d777-4383-b7a3-14eb03c1fdcc",
      "meta": {
        "profile": [ "http://hl7.org/fhir/us/qicore/StructureDefinition/qicore-organization" ]
      },
      "identifier": [ {
        "use": "temp",
        "system": "urn:oid:2.16.840.1.113883.4.4",
        "value": "21-3259825"
      } ],
      "active": true,
      "type": [ {
        "coding": [ {
          "system": "http://terminology.hl7.org/CodeSystem/organization-type",
          "code": "pay",
          "display": "Payer"
        } ]
      } ],
      "name": "Blue Cross Blue Shield of Texas",
      "telecom": [ {
        "system": "phone",
        "value": "(+1) 972-766-6900"
      } ],
      "address": [ {
        "use": "billing",
        "type": "postal",
        "line": [ "P.O. Box 660044" ],
        "city": "Dallas",
        "state": "TX",
        "postalCode": "75266-0044",
        "country": "USA"
      } ]
    },
    "request": {
      "method": "PUT",
      "url": "Organization/5718ac11-d777-4383-b7a3-14eb03c1fdcc"
    }
  }, {
    "fullUrl": "https://madie.cms.gov/Practitioner/878d1984-7ff5-4748-9ff7-26fadec642ae",
    "resource": {
      "resourceType": "Practitioner",
      "id": "878d1984-7ff5-4748-9ff7-26fadec642ae",
      "identifier": [ {
        "system": "http://hl7.org/fhir/sid/us-npi",
        "value": "123456"
      } ],
      "name": [ {
        "family": "Evil",
        "prefix": [ "Dr" ]
      } ]
    },
    "request": {
      "method": "PUT",
      "url": "Practitioner/878d1984-7ff5-4748-9ff7-26fadec642ae"
    }
  }, {
    "fullUrl": "https://madie.cms.gov/MeasureReport/dffb74a8-5d31-4860-b997-c9712a9ff60d",
    "resource": {
      "resourceType": "MeasureReport",
      "id": "dffb74a8-5d31-4860-b997-c9712a9ff60d",
      "meta": {
        "profile": [ "http://hl7.org/fhir/us/cqfmeasures/StructureDefinition/test-case-cqfm" ]
      },
      "contained": [ {
        "resourceType": "Parameters",
        "id": "7b2e6a53-9ba4-4519-bdaf-e33dc648a1fa-parameters",
        "parameter": [ {
          "name": "subject",
          "valueString": "96744bfd-c149-412a-8578-fb3f8c91e874"
        } ]
      } ],
      "extension": [ {
        "url": "http://hl7.org/fhir/StructureDefinition/cqf-inputParameters",
        "valueReference": {
          "reference": "#7b2e6a53-9ba4-4519-bdaf-e33dc648a1fa-parameters"
        }
      }, {
        "url": "http://hl7.org/fhir/us/cqfmeasures/StructureDefinition/cqfm-testCaseDescription",
        "valueMarkdown": ">18, dx VTE, LOS<120 day,   LabResult INR=3 no decimal,  day After surgery, 2 day after Adm\n"
      } ],
      "modifierExtension": [ {
        "url": "http://hl7.org/fhir/us/cqfmeasures/StructureDefinition/cqfm-isTestCase",
        "valueBoolean": true
      } ],
      "status": "complete",
      "type": "individual",
      "measure": "https://madie.cms.gov/Measure/CMS108FHIRVTEProphylaxis",
      "period": {
        "start": "2026-01-01",
        "end": "2026-12-31"
      },
      "group": [ {
        "id": "Group_1",
        "population": [ {
          "id": "InitialPopulation_1",
          "code": {
            "coding": [ {
              "system": "http://terminology.hl7.org/CodeSystem/measure-population",
              "code": "initial-population",
              "display": "Initial Population"
            } ]
          },
          "count": 1
        }, {
          "id": "Denominator_1",
          "code": {
            "coding": [ {
              "system": "http://terminology.hl7.org/CodeSystem/measure-population",
              "code": "denominator",
              "display": "Denominator"
            } ]
          },
          "count": 1
        }, {
          "id": "DenominatorExclusion_1",
          "code": {
            "coding": [ {
              "system": "http://terminology.hl7.org/CodeSystem/measure-population",
              "code": "denominator-exclusion",
              "display": "Denominator Exclusion"
            } ]
          },
          "count": 0
        }, {
          "id": "Numerator_1",
          "code": {
            "coding": [ {
              "system": "http://terminology.hl7.org/CodeSystem/measure-population",
              "code": "numerator",
              "display": "Numerator"
            } ]
          },
          "count": 0
        } ],
        "measureScore": {
          "value": 0.0
        }
      } ],
      "evaluatedResource": [ {
        "reference": "Patient/96744bfd-c149-412a-8578-fb3f8c91e874"
      }, {
        "reference": "Encounter/3ce25676-5348-4c47-985b-e79f4d73b5a5"
      }, {
        "reference": "Coverage/ccc5e8ff-a3d0-481c-a43d-7589b496b771"
      }, {
        "reference": "Observation/56c845e4-3a6c-4524-9593-671f1df26751"
      }, {
        "reference": "Procedure/67b3fa40-2be0-482a-bde4-22a6fffbdb17"
      }, {
        "reference": "Organization/5718ac11-d777-4383-b7a3-14eb03c1fdcc"
      }, {
        "reference": "Practitioner/878d1984-7ff5-4748-9ff7-26fadec642ae"
      } ]
    },
    "request": {
      "method": "PUT",
      "url": "MeasureReport/dffb74a8-5d31-4860-b997-c9712a9ff60d"
    }
  } ]
}