{
  "resourceType": "Bundle",
  "id": "62c880ed0111a60120dc221f",
  "type": "transaction",
  "entry": [ {
    "fullUrl": "https://madie.cms.gov/Patient/2c3f5ac5-6b7f-4bb8-a4fe-8faf0553b21e",
    "resource": {
      "resourceType": "Patient",
      "id": "2c3f5ac5-6b7f-4bb8-a4fe-8faf0553b21e",
      "meta": {
        "profile": [ "http://hl7.org/fhir/us/qicore/StructureDefinition/qicore-patient" ]
      },
      "extension": [ {
        "url": "http://hl7.org/fhir/us/core/StructureDefinition/us-core-race",
        "extension": [ {
          "url": "ombCategory",
          "valueCoding": {
            "system": "urn:oid:2.16.840.1.113883.6.238",
            "code": "1002-5",
            "display": "American Indian or Alaska Native",
            "userSelected": true
          }
        }, {
          "url": "text",
          "valueString": "American Indian or Alaska Native"
        } ]
      }, {
        "url": "http://hl7.org/fhir/us/core/StructureDefinition/us-core-ethnicity",
        "extension": [ {
          "url": "ombCategory",
          "valueCoding": {
            "system": "urn:oid:2.16.840.1.113883.6.238",
            "code": "2135-2",
            "display": "Hispanic or Latino",
            "userSelected": true
          }
        }, {
          "url": "text",
          "valueString": "Hispanic or Latino"
        } ]
      } ],
      "identifier": [ {
        "type": {
          "coding": [ {
            "system": "http://terminology.hl7.org/CodeSystem/v2-0203",
            "code": "MR"
          } ]
        },
        "system": "https://bonnie-fhir.healthit.gov/",
        "value": "62c880ed0111a60120dc221f"
      } ],
      "active": true,
      "name": [ {
        "use": "usual",
        "family": "NUMERFailPop2",
        "given": [ "PainAssessPerformerNoResult" ]
      } ],
      "gender": "female",
      "birthDate": "1933-05-13"
    },
    "request": {
      "method": "PUT",
      "url": "Patient/2c3f5ac5-6b7f-4bb8-a4fe-8faf0553b21e"
    }
  }, {
    "fullUrl": "https://madie.cms.gov/Observation/20306b18-f183-40a0-9edb-36fe81cc65d9",
    "resource": {
      "resourceType": "Observation",
      "id": "20306b18-f183-40a0-9edb-36fe81cc65d9",
      "meta": {
        "profile": [ "http://hl7.org/fhir/us/qicore/StructureDefinition/qicore-observation-screening-assessment" ]
      },
      "status": "final",
      "category": [ {
        "coding": [ {
          "system": "http://terminology.hl7.org/CodeSystem/observation-category",
          "code": "survey",
          "display": "Survey"
        } ],
        "text": "Survey"
      } ],
      "code": {
        "coding": [ {
          "system": "http://loinc.org",
          "code": "38208-5"
        } ]
      },
      "subject": {
        "reference": "Patient/2c3f5ac5-6b7f-4bb8-a4fe-8faf0553b21e"
      },
      "effectiveDateTime": "2026-03-05T09:00:00.000+00:00"
    },
    "request": {
      "method": "PUT",
      "url": "Observation/20306b18-f183-40a0-9edb-36fe81cc65d9"
    }
  }, {
    "fullUrl": "https://madie.cms.gov/Observation/a0a50258-8274-4292-993e-1e2ec815d9de",
    "resource": {
      "resourceType": "Observation",
      "id": "a0a50258-8274-4292-993e-1e2ec815d9de",
      "meta": {
        "profile": [ "http://hl7.org/fhir/us/qicore/StructureDefinition/qicore-observation-screening-assessment" ]
      },
      "status": "final",
      "category": [ {
        "coding": [ {
          "system": "http://terminology.hl7.org/CodeSystem/observation-category",
          "code": "survey",
          "display": "Survey"
        } ],
        "text": "Survey"
      } ],
      "code": {
        "coding": [ {
          "system": "http://loinc.org",
          "code": "38208-5"
        } ]
      },
      "subject": {
        "reference": "Patient/2c3f5ac5-6b7f-4bb8-a4fe-8faf0553b21e"
      },
      "effectiveDateTime": "2026-08-30T15:00:00.000+00:00"
    },
    "request": {
      "method": "PUT",
      "url": "Observation/a0a50258-8274-4292-993e-1e2ec815d9de"
    }
  }, {
    "fullUrl": "https://madie.cms.gov/Condition/4dabcd87-9f5b-4299-8717-ca97748ef171",
    "resource": {
      "resourceType": "Condition",
      "id": "4dabcd87-9f5b-4299-8717-ca97748ef171",
      "meta": {
        "profile": [ "http://hl7.org/fhir/us/qicore/StructureDefinition/qicore-condition-problems-health-concerns" ]
      },
      "clinicalStatus": {
        "coding": [ {
          "system": "http://terminology.hl7.org/CodeSystem/condition-clinical",
          "code": "active",
          "display": "Active",
          "userSelected": true
        } ]
      },
      "category": [ {
        "coding": [ {
          "system": "http://terminology.hl7.org/CodeSystem/condition-category",
          "code": "problem-list-item",
          "display": "Problem List Item"
        } ]
      } ],
      "code": {
        "coding": [ {
          "system": "http://hl7.org/fhir/sid/icd-10-cm",
          "code": "C00.0"
        } ]
      },
      "subject": {
        "reference": "Patient/2c3f5ac5-6b7f-4bb8-a4fe-8faf0553b21e"
      },
      "onsetDateTime": "2024-11-01T13:30:00.000+00:00"
    },
    "request": {
      "method": "PUT",
      "url": "Condition/4dabcd87-9f5b-4299-8717-ca97748ef171"
    }
  }, {
    "fullUrl": "https://madie.cms.gov/Coverage/1ebd1d12-9d6c-4353-9eed-c0f0221b9e15",
    "resource": {
      "resourceType": "Coverage",
      "id": "1ebd1d12-9d6c-4353-9eed-c0f0221b9e15",
      "meta": {
        "profile": [ "http://hl7.org/fhir/us/qicore/StructureDefinition/qicore-coverage" ]
      },
      "status": "active",
      "beneficiary": {
        "reference": "Patient/2c3f5ac5-6b7f-4bb8-a4fe-8faf0553b21e"
      },
      "period": {
        "start": "1933-05-13T08:00:00.000+00:00"
      },
      "payor": [ {
        "reference": "Organization/6c410709-6466-4662-800a-34396ba864dc"
      } ]
    },
    "request": {
      "method": "PUT",
      "url": "Coverage/1ebd1d12-9d6c-4353-9eed-c0f0221b9e15"
    }
  }, {
    "fullUrl": "https://madie.cms.gov/Encounter/47f57d5e-4c49-4aec-b2bc-4d3bfdb5e715",
    "resource": {
      "resourceType": "Encounter",
      "id": "47f57d5e-4c49-4aec-b2bc-4d3bfdb5e715",
      "meta": {
        "profile": [ "http://hl7.org/fhir/us/qicore/StructureDefinition/qicore-encounter" ]
      },
      "status": "finished",
      "class": {
        "system": "http://terminology.hl7.org/CodeSystem/v3-ActCode",
        "code": "AMB",
        "display": "ambulatory",
        "userSelected": true
      },
      "type": [ {
        "coding": [ {
          "system": "http://www.ama-assn.org/go/cpt",
          "version": "2023",
          "code": "77427",
          "display": "Radiation treatment management, 5 treatments",
          "userSelected": true
        } ]
      } ],
      "subject": {
        "reference": "Patient/2c3f5ac5-6b7f-4bb8-a4fe-8faf0553b21e"
      },
      "period": {
        "start": "2026-03-05T08:00:00.000+00:00",
        "end": "2026-03-05T10:15:00.000+00:00"
      }
    },
    "request": {
      "method": "PUT",
      "url": "Encounter/47f57d5e-4c49-4aec-b2bc-4d3bfdb5e715"
    }
  }, {
    "fullUrl": "https://madie.cms.gov/Encounter/f3ce9a3f-dc8c-4acc-a38d-baa7eabce660",
    "resource": {
      "resourceType": "Encounter",
      "id": "f3ce9a3f-dc8c-4acc-a38d-baa7eabce660",
      "meta": {
        "profile": [ "http://hl7.org/fhir/us/qicore/StructureDefinition/qicore-encounter" ]
      },
      "status": "finished",
      "class": {
        "system": "http://terminology.hl7.org/CodeSystem/v3-ActCode",
        "code": "AMB",
        "display": "ambulatory",
        "userSelected": true
      },
      "type": [ {
        "coding": [ {
          "system": "http://www.ama-assn.org/go/cpt",
          "version": "2023",
          "code": "77427",
          "display": "Radiation treatment management, 5 treatments",
          "userSelected": true
        } ]
      } ],
      "subject": {
        "reference": "Patient/2c3f5ac5-6b7f-4bb8-a4fe-8faf0553b21e"
      },
      "period": {
        "start": "2026-08-30T14:00:00.000+00:00",
        "end": "2026-08-30T15:15:00.000+00:00"
      }
    },
    "request": {
      "method": "PUT",
      "url": "Encounter/f3ce9a3f-dc8c-4acc-a38d-baa7eabce660"
    }
  }, {
    "fullUrl": "https://madie.cms.gov/Organization/6c410709-6466-4662-800a-34396ba864dc",
    "resource": {
      "resourceType": "Organization",
      "id": "6c410709-6466-4662-800a-34396ba864dc",
      "meta": {
        "profile": [ "http://hl7.org/fhir/us/qicore/StructureDefinition/qicore-organization" ]
      },
      "identifier": [ {
        "use": "temp",
        "system": "urn:oid:2.16.840.1.113883.4.4",
        "value": "21-3259825"
      } ],
      "active": true,
      "type": [ {
        "coding": [ {
          "system": "http://terminology.hl7.org/CodeSystem/organization-type",
          "code": "pay",
          "display": "Payer"
        } ]
      } ],
      "name": "Blue Cross Blue Shield of Texas",
      "telecom": [ {
        "system": "phone",
        "value": "(+1) 972-766-6900"
      } ],
      "address": [ {
        "use": "billing",
        "type": "postal",
        "line": [ "P.O. Box 660044" ],
        "city": "Dallas",
        "state": "TX",
        "postalCode": "75266-0044",
        "country": "USA"
      } ]
    },
    "request": {
      "method": "PUT",
      "url": "Organization/6c410709-6466-4662-800a-34396ba864dc"
    }
  }, {
    "fullUrl": "https://madie.cms.gov/Practitioner/a1a32a22-e675-4167-ad86-932e054e6792",
    "resource": {
      "resourceType": "Practitioner",
      "id": "a1a32a22-e675-4167-ad86-932e054e6792",
      "meta": {
        "profile": [ "http://hl7.org/fhir/us/qicore/StructureDefinition/qicore-practitioner" ]
      },
      "identifier": [ {
        "system": "http://hl7.org/fhir/sid/us-npi",
        "value": "1234567890"
      } ],
      "name": [ {
        "family": "Evil",
        "prefix": [ "Dr" ]
      } ]
    },
    "request": {
      "method": "PUT",
      "url": "Practitioner/a1a32a22-e675-4167-ad86-932e054e6792"
    }
  }, {
    "fullUrl": "https://madie.cms.gov/MeasureReport/c0205a42-bb91-4962-a72f-4df278aae5b7",
    "resource": {
      "resourceType": "MeasureReport",
      "id": "c0205a42-bb91-4962-a72f-4df278aae5b7",
      "meta": {
        "profile": [ "http://hl7.org/fhir/us/cqfmeasures/StructureDefinition/test-case-cqfm" ]
      },
      "contained": [ {
        "resourceType": "Parameters",
        "id": "751a320e-ed7e-4f10-a6a8-c9c403c37c35-parameters",
        "parameter": [ {
          "name": "subject",
          "valueString": "2c3f5ac5-6b7f-4bb8-a4fe-8faf0553b21e"
        } ]
      } ],
      "extension": [ {
        "url": "http://hl7.org/fhir/StructureDefinition/cqf-inputParameters",
        "valueReference": {
          "reference": "#751a320e-ed7e-4f10-a6a8-c9c403c37c35-parameters"
        }
      }, {
        "url": "http://hl7.org/fhir/us/cqfmeasures/StructureDefinition/cqfm-testCaseDescription",
        "valueMarkdown": "Pain intensity assessment was performed during radiation treatment mgt. 2 episodes of care. 1st assessment has \"Performer\" instead of \"Result\". 2nd assessment no result.\n"
      } ],
      "modifierExtension": [ {
        "url": "http://hl7.org/fhir/us/cqfmeasures/StructureDefinition/cqfm-isTestCase",
        "valueBoolean": true
      } ],
      "status": "complete",
      "type": "individual",
      "measure": "https://madie.cms.gov/Measure/CMS157FHIRPainIntensityQuantified",
      "period": {
        "start": "2026-01-01",
        "end": "2026-12-31"
      },
      "group": [ {
        "id": "Group_1",
        "population": [ {
          "id": "InitialPopulation_1",
          "code": {
            "coding": [ {
              "system": "http://terminology.hl7.org/CodeSystem/measure-population",
              "code": "initial-population",
              "display": "Initial Population"
            } ]
          },
          "count": 0
        }, {
          "id": "Denominator_1",
          "code": {
            "coding": [ {
              "system": "http://terminology.hl7.org/CodeSystem/measure-population",
              "code": "denominator",
              "display": "Denominator"
            } ]
          },
          "count": 0
        }, {
          "id": "Numerator_1",
          "code": {
            "coding": [ {
              "system": "http://terminology.hl7.org/CodeSystem/measure-population",
              "code": "numerator",
              "display": "Numerator"
            } ]
          },
          "count": 0
        } ],
        "measureScore": {
          "value": 0.0
        }
      }, {
        "id": "Group_2",
        "population": [ {
          "id": "InitialPopulation_2",
          "code": {
            "coding": [ {
              "system": "http://terminology.hl7.org/CodeSystem/measure-population",
              "code": "initial-population",
              "display": "Initial Population"
            } ]
          },
          "count": 2
        }, {
          "id": "Denominator_2",
          "code": {
            "coding": [ {
              "system": "http://terminology.hl7.org/CodeSystem/measure-population",
              "code": "denominator",
              "display": "Denominator"
            } ]
          },
          "count": 2
        }, {
          "id": "Numerator_2",
          "code": {
            "coding": [ {
              "system": "http://terminology.hl7.org/CodeSystem/measure-population",
              "code": "numerator",
              "display": "Numerator"
            } ]
          },
          "count": 0
        } ],
        "measureScore": {
          "value": 0.0
        }
      } ],
      "evaluatedResource": [ {
        "reference": "Patient/2c3f5ac5-6b7f-4bb8-a4fe-8faf0553b21e"
      }, {
        "reference": "Observation/20306b18-f183-40a0-9edb-36fe81cc65d9"
      }, {
        "reference": "Observation/a0a50258-8274-4292-993e-1e2ec815d9de"
      }, {
        "reference": "Condition/4dabcd87-9f5b-4299-8717-ca97748ef171"
      }, {
        "reference": "Coverage/1ebd1d12-9d6c-4353-9eed-c0f0221b9e15"
      }, {
        "reference": "Encounter/47f57d5e-4c49-4aec-b2bc-4d3bfdb5e715"
      }, {
        "reference": "Encounter/f3ce9a3f-dc8c-4acc-a38d-baa7eabce660"
      }, {
        "reference": "Organization/6c410709-6466-4662-800a-34396ba864dc"
      }, {
        "reference": "Practitioner/a1a32a22-e675-4167-ad86-932e054e6792"
      } ]
    },
    "request": {
      "method": "PUT",
      "url": "MeasureReport/c0205a42-bb91-4962-a72f-4df278aae5b7"
    }
  } ]
}