{
  "resourceType": "Bundle",
  "id": "633c9d020968f8012250fc66",
  "type": "transaction",
  "entry": [ {
    "fullUrl": "https://madie.cms.gov/Patient/f07b7d1a-b0da-4d44-acc6-eb2a6dfa0da3",
    "resource": {
      "resourceType": "Patient",
      "id": "f07b7d1a-b0da-4d44-acc6-eb2a6dfa0da3",
      "meta": {
        "profile": [ "http://hl7.org/fhir/us/qicore/StructureDefinition/qicore-patient" ]
      },
      "text": {
        "status": "generated",
        "div": "<div xmlns=\"http://www.w3.org/1999/xhtml\"><div class=\"hapiHeaderText\">Anticoag@DC <b>NUMERPASS </b></div><table class=\"hapiPropertyTable\"><tbody><tr><td>Identifier</td><td>52c14de634122f39abfbd9ffaa41bc27</td></tr><tr><td>Date of birth</td><td><span>23 May 1954</span></td></tr></tbody></table></div>"
      },
      "extension": [ {
        "url": "http://hl7.org/fhir/us/core/StructureDefinition/us-core-race",
        "extension": [ {
          "url": "ombCategory",
          "valueCoding": {
            "system": "urn:oid:2.16.840.1.113883.6.238",
            "code": "1002-5",
            "display": "American Indian or Alaska Native",
            "userSelected": true
          }
        }, {
          "url": "text",
          "valueString": "American Indian or Alaska Native"
        } ]
      }, {
        "url": "http://hl7.org/fhir/us/core/StructureDefinition/us-core-ethnicity",
        "extension": [ {
          "url": "ombCategory",
          "valueCoding": {
            "system": "urn:oid:2.16.840.1.113883.6.238",
            "code": "2135-2",
            "display": "Hispanic or Latino",
            "userSelected": true
          }
        }, {
          "url": "text",
          "valueString": "Hispanic or Latino"
        } ]
      } ],
      "identifier": [ {
        "type": {
          "coding": [ {
            "system": "http://terminology.hl7.org/CodeSystem/v2-0203",
            "code": "MR"
          } ]
        },
        "system": "https://bonnie-fhir.healthit.gov/",
        "value": "633c9d020968f8012250fc66"
      } ],
      "active": true,
      "name": [ {
        "use": "usual",
        "family": "NUMERPass",
        "given": [ "Anticoag@DC" ]
      } ],
      "gender": "female",
      "birthDate": "1955-05-23"
    },
    "request": {
      "method": "PUT",
      "url": "Patient/f07b7d1a-b0da-4d44-acc6-eb2a6dfa0da3"
    }
  }, {
    "fullUrl": "https://madie.cms.gov/Encounter/a9a8a8a4-4ea4-4d21-ac7d-5d75cfc7f600",
    "resource": {
      "resourceType": "Encounter",
      "id": "a9a8a8a4-4ea4-4d21-ac7d-5d75cfc7f600",
      "meta": {
        "profile": [ "http://hl7.org/fhir/us/qicore/StructureDefinition/qicore-encounter" ]
      },
      "status": "finished",
      "class": {
        "system": "http://terminology.hl7.org/CodeSystem/v3-ActCode",
        "code": "IMP",
        "display": "inpatient encounter"
      },
      "type": [ {
        "coding": [ {
          "system": "http://snomed.info/sct",
          "code": "32485007"
        } ]
      } ],
      "subject": {
        "reference": "Patient/f07b7d1a-b0da-4d44-acc6-eb2a6dfa0da3"
      },
      "period": {
        "start": "2026-11-20T08:00:00.000+00:00",
        "end": "2026-11-24T08:15:00.000+00:00"
      },
      "length": {
        "value": 4,
        "unit": "days"
      },
      "reasonReference": [ {
        "reference": "Condition/dafaeb92-ab27-4ebd-950e-f33388f578d0"
      } ]
    },
    "request": {
      "method": "PUT",
      "url": "Encounter/a9a8a8a4-4ea4-4d21-ac7d-5d75cfc7f600"
    }
  }, {
    "fullUrl": "https://madie.cms.gov/claim/5ca62962b8484628b8de1ec5",
    "resource": {
      "resourceType": "Claim",
      "id": "5ca62962b8484628b8de1ec5",
      "meta": {
        "profile": [ "http://hl7.org/fhir/us/qicore/StructureDefinition/qicore-claim" ]
      },
      "status": "active",
      "type": {
        "coding": [ {
          "system": "http://terminology.hl7.org/CodeSystem/claim-type",
          "code": "institutional"
        } ]
      },
      "use": "claim",
      "patient": {
        "reference": "Patient/d170a0a8-b5ad-4303-b6df-e304dd5f92ad"
      },
      "created": "2026-12-01",
      "provider": {
        "reference": "Practitioner/da0b46ec-78c0-418b-ac71-825f361db442"
      },
      "priority": {
        "coding": [ {
          "system": "http://terminology.hl7.org/CodeSystem/processpriority",
          "code": "normal"
        } ]
      },
      "diagnosis": [ {
        "sequence": 1,
        "diagnosisCodeableConcept": {
          "coding": [ {
            "system": "http://hl7.org/fhir/sid/icd-10-cm",
            "code": "I63.00"
          } ]
        },
        "type": [ {
          "coding": [ {
            "system": "http://terminology.hl7.org/CodeSystem/ex-diagnosistype",
            "code": "principal"
          } ]
        } ]
      } ],
      "insurance": [ {
        "sequence": 1,
        "focal": true,
        "coverage": {
          "reference": "Coverage/5fa041661c76ba66d9959367"
        }
      } ],
      "item": [ {
        "sequence": 1,
        "diagnosisSequence": [ 1 ],
        "productOrService": {
          "coding": [ {
            "system": "http://terminology.hl7.org/CodeSystem/ex-USCLS",
            "code": "99555"
          } ]
        },
        "encounter": [ {
          "reference": "Encounter/a9a8a8a4-4ea4-4d21-ac7d-5d75cfc7f600"
        } ]
      } ]
    },
    "request": {
      "method": "PUT",
      "url": "Claim/5ca62962b8484628b8de1ec5"
    }
  }, {
    "fullUrl": "https://madie.cms.gov/MedicationRequest/543787e6-e0d8-413b-8453-2ab0cdaeb41f",
    "resource": {
      "resourceType": "MedicationRequest",
      "id": "543787e6-e0d8-413b-8453-2ab0cdaeb41f",
      "meta": {
        "profile": [ "http://hl7.org/fhir/us/qicore/StructureDefinition/qicore-medicationrequest" ]
      },
      "status": "completed",
      "intent": "order",
      "category": [ {
        "coding": [ {
          "system": "http://terminology.hl7.org/CodeSystem/medicationrequest-category",
          "code": "community",
          "display": "Community",
          "userSelected": true
        } ]
      } ],
      "medicationCodeableConcept": {
        "coding": [ {
          "system": "http://www.nlm.nih.gov/research/umls/rxnorm",
          "version": "2022-01",
          "code": "308351",
          "display": "2.5 ML argatroban 100 MG/ML Injection",
          "userSelected": true
        } ]
      },
      "subject": {
        "reference": "Patient/f07b7d1a-b0da-4d44-acc6-eb2a6dfa0da3"
      },
      "authoredOn": "2026-11-24T08:00:00.000+00:00",
      "requester": {
        "reference": "Practitioner/example"
      }
    },
    "request": {
      "method": "PUT",
      "url": "MedicationRequest/543787e6-e0d8-413b-8453-2ab0cdaeb41f"
    }
  }, {
    "fullUrl": "https://madie.cms.gov/Coverage/8db92c37-1222-4859-ad7e-c3f6225768f2",
    "resource": {
      "resourceType": "Coverage",
      "id": "8db92c37-1222-4859-ad7e-c3f6225768f2",
      "meta": {
        "profile": [ "http://hl7.org/fhir/us/qicore/StructureDefinition/qicore-coverage" ]
      },
      "status": "active",
      "subscriberId": "523435",
      "beneficiary": {
        "reference": "Patient/162a5913-9989-42f2-8d6a-ae460e245e4c"
      },
      "relationship": {
        "coding": [ {
          "system": "http://terminology.hl7.org/CodeSystem/subscriber-relationship",
          "code": "self"
        } ]
      },
      "payor": [ {
        "reference": "Organization/de134d28-19b2-4cb2-8558-a5066d718820"
      } ]
    },
    "request": {
      "method": "PUT",
      "url": "Coverage/8db92c37-1222-4859-ad7e-c3f6225768f2"
    }
  }, {
    "fullUrl": "https://madie.cms.gov/Procedure/d6cfb44d-eb15-4712-b301-db9ceb6bb9d5",
    "resource": {
      "resourceType": "Procedure",
      "id": "d6cfb44d-eb15-4712-b301-db9ceb6bb9d5",
      "meta": {
        "profile": [ "http://hl7.org/fhir/us/qicore/StructureDefinition/qicore-procedure" ]
      },
      "extension": [ {
        "url": "http://hl7.org/fhir/us/qicore/StructureDefinition/qicore-recorded",
        "valueDateTime": "2026-11-19T13:35:00.000+00:00"
      } ],
      "status": "completed",
      "code": {
        "coding": [ {
          "system": "http://www.cms.gov/Medicare/Coding/ICD10",
          "code": "02560ZZ"
        }, {
          "system": "http://snomed.info/sct",
          "code": "175095005"
        } ]
      },
      "subject": {
        "reference": "Patient/f07b7d1a-b0da-4d44-acc6-eb2a6dfa0da3"
      },
      "performedPeriod": {
        "start": "2026-11-20T06:00:00.000+00:00",
        "end": "2026-11-20T07:15:00.000+00:00"
      }
    },
    "request": {
      "method": "PUT",
      "url": "Procedure/d6cfb44d-eb15-4712-b301-db9ceb6bb9d5"
    }
  }, {
    "fullUrl": "https://madie.cms.gov/Condition/dafaeb92-ab27-4ebd-950e-f33388f578d0",
    "resource": {
      "resourceType": "Condition",
      "id": "dafaeb92-ab27-4ebd-950e-f33388f578d0",
      "meta": {
        "profile": [ "http://hl7.org/fhir/us/qicore/StructureDefinition/qicore-condition-problems-health-concerns" ]
      },
      "clinicalStatus": {
        "coding": [ {
          "system": "http://terminology.hl7.org/CodeSystem/condition-clinical",
          "code": "active"
        } ]
      },
      "verificationStatus": {
        "coding": [ {
          "system": "http://terminology.hl7.org/CodeSystem/condition-ver-status",
          "code": "confirmed"
        } ]
      },
      "category": [ {
        "coding": [ {
          "system": "http://terminology.hl7.org/CodeSystem/condition-category",
          "code": "encounter-diagnosis",
          "display": "Encounter Diagnosis"
        } ]
      } ],
      "code": {
        "coding": [ {
          "system": "http://snomed.info/sct",
          "version": "2021-09",
          "code": "111297002",
          "display": "Nonparalytic stroke (disorder)",
          "userSelected": true
        } ]
      },
      "subject": {
        "reference": "Patient/f07b7d1a-b0da-4d44-acc6-eb2a6dfa0da3"
      },
      "recordedDate": "2026-10-13T08:00:00.000+00:00"
    },
    "request": {
      "method": "PUT",
      "url": "Condition/dafaeb92-ab27-4ebd-950e-f33388f578d0"
    }
  }, {
    "fullUrl": "https://madie.cms.gov/Organization/de134d28-19b2-4cb2-8558-a5066d718820",
    "resource": {
      "resourceType": "Organization",
      "id": "de134d28-19b2-4cb2-8558-a5066d718820",
      "meta": {
        "profile": [ "http://hl7.org/fhir/us/qicore/StructureDefinition/qicore-organization" ]
      },
      "identifier": [ {
        "use": "temp",
        "system": "urn:oid:2.16.840.1.113883.4.4",
        "value": "21-3259825"
      } ],
      "active": true,
      "type": [ {
        "coding": [ {
          "system": "http://terminology.hl7.org/CodeSystem/organization-type",
          "code": "pay",
          "display": "Payer"
        } ]
      } ],
      "name": "Blue Cross Blue Shield of Texas",
      "telecom": [ {
        "system": "phone",
        "value": "(+1) 972-766-6900"
      } ],
      "address": [ {
        "use": "billing",
        "type": "postal",
        "line": [ "P.O. Box 660044" ],
        "city": "Dallas",
        "state": "TX",
        "postalCode": "75266-0044",
        "country": "USA"
      } ]
    },
    "request": {
      "method": "PUT",
      "url": "Organization/de134d28-19b2-4cb2-8558-a5066d718820"
    }
  }, {
    "fullUrl": "https://madie.cms.gov/Practitioner/da0b46ec-78c0-418b-ac71-825f361db442",
    "resource": {
      "resourceType": "Practitioner",
      "id": "da0b46ec-78c0-418b-ac71-825f361db442",
      "meta": {
        "profile": [ "http://hl7.org/fhir/us/qicore/StructureDefinition/qicore-practitioner" ]
      },
      "identifier": [ {
        "system": "http://hl7.org/fhir/sid/us-npi",
        "value": "9999999896"
      } ],
      "name": [ {
        "family": "Evil",
        "prefix": [ "Dr" ]
      } ]
    },
    "request": {
      "method": "PUT",
      "url": "Practitioner/da0b46ec-78c0-418b-ac71-825f361db442"
    }
  }, {
    "fullUrl": "https://madie.cms.gov/MeasureReport/b6ab035d-ce9c-416e-a66d-1da14c29ee62",
    "resource": {
      "resourceType": "MeasureReport",
      "id": "b6ab035d-ce9c-416e-a66d-1da14c29ee62",
      "meta": {
        "profile": [ "http://hl7.org/fhir/us/cqfmeasures/StructureDefinition/test-case-cqfm" ]
      },
      "contained": [ {
        "resourceType": "Parameters",
        "id": "6d7beaf4-6c95-4fe2-867d-6dde6ce4e9a5-parameters",
        "parameter": [ {
          "name": "subject",
          "valueString": "f07b7d1a-b0da-4d44-acc6-eb2a6dfa0da3"
        } ]
      } ],
      "extension": [ {
        "url": "http://hl7.org/fhir/StructureDefinition/cqf-inputParameters",
        "valueReference": {
          "reference": "#6d7beaf4-6c95-4fe2-867d-6dde6ce4e9a5-parameters"
        }
      }, {
        "url": "http://hl7.org/fhir/us/cqfmeasures/StructureDefinition/cqfm-testCaseDescription",
        "valueMarkdown": "Pt. discharged on anticoagulant, starts during OccurA\n"
      } ],
      "modifierExtension": [ {
        "url": "http://hl7.org/fhir/us/cqfmeasures/StructureDefinition/cqfm-isTestCase",
        "valueBoolean": true
      } ],
      "status": "complete",
      "type": "individual",
      "measure": "https://madie.cms.gov/Measure/CMS71FHIRSTKAnticoagAFFlutter",
      "period": {
        "start": "2026-01-01",
        "end": "2026-12-31"
      },
      "group": [ {
        "id": "Group_1",
        "population": [ {
          "id": "InitialPopulation_1",
          "code": {
            "coding": [ {
              "system": "http://terminology.hl7.org/CodeSystem/measure-population",
              "code": "initial-population",
              "display": "Initial Population"
            } ]
          },
          "count": 1
        }, {
          "id": "Denominator_1",
          "code": {
            "coding": [ {
              "system": "http://terminology.hl7.org/CodeSystem/measure-population",
              "code": "denominator",
              "display": "Denominator"
            } ]
          },
          "count": 1
        }, {
          "id": "DenominatorExclusion_1",
          "code": {
            "coding": [ {
              "system": "http://terminology.hl7.org/CodeSystem/measure-population",
              "code": "denominator-exclusion",
              "display": "Denominator Exclusion"
            } ]
          },
          "count": 0
        }, {
          "id": "Numerator_1",
          "code": {
            "coding": [ {
              "system": "http://terminology.hl7.org/CodeSystem/measure-population",
              "code": "numerator",
              "display": "Numerator"
            } ]
          },
          "count": 1
        }, {
          "id": "DenominatorException_1",
          "code": {
            "coding": [ {
              "system": "http://terminology.hl7.org/CodeSystem/measure-population",
              "code": "denominator-exception",
              "display": "Denominator Exception"
            } ]
          },
          "count": 0
        } ],
        "measureScore": {
          "value": 0.0
        }
      } ],
      "evaluatedResource": [ {
        "reference": "Patient/f07b7d1a-b0da-4d44-acc6-eb2a6dfa0da3"
      }, {
        "reference": "Encounter/a9a8a8a4-4ea4-4d21-ac7d-5d75cfc7f600"
      }, {
        "reference": "Claim/5ca62962b8484628b8de1ec5"
      }, {
        "reference": "MedicationRequest/543787e6-e0d8-413b-8453-2ab0cdaeb41f"
      }, {
        "reference": "Coverage/8db92c37-1222-4859-ad7e-c3f6225768f2"
      }, {
        "reference": "Procedure/d6cfb44d-eb15-4712-b301-db9ceb6bb9d5"
      }, {
        "reference": "Condition/dafaeb92-ab27-4ebd-950e-f33388f578d0"
      }, {
        "reference": "Organization/de134d28-19b2-4cb2-8558-a5066d718820"
      }, {
        "reference": "Practitioner/da0b46ec-78c0-418b-ac71-825f361db442"
      } ]
    },
    "request": {
      "method": "PUT",
      "url": "MeasureReport/b6ab035d-ce9c-416e-a66d-1da14c29ee62"
    }
  } ]
}