{
  "resourceType": "Bundle",
  "id": "661579e3db207d74c03b8a56",
  "type": "transaction",
  "entry": [ {
    "fullUrl": "https://madie.cms.gov/Patient/9fed66ec-d314-4a2e-a6d5-056ec2f702c2",
    "resource": {
      "resourceType": "Patient",
      "id": "9fed66ec-d314-4a2e-a6d5-056ec2f702c2",
      "meta": {
        "profile": [ "http://hl7.org/fhir/us/qicore/StructureDefinition/qicore-patient" ]
      },
      "extension": [ {
        "url": "http://hl7.org/fhir/us/core/StructureDefinition/us-core-race",
        "extension": [ {
          "url": "ombCategory",
          "valueCoding": {
            "system": "urn:oid:2.16.840.1.113883.6.238",
            "code": "2076-8",
            "display": "Native Hawaiian or Other Pacific Islander",
            "userSelected": true
          }
        }, {
          "url": "text",
          "valueString": "Native Hawaiian or Other Pacific Islander"
        } ]
      }, {
        "url": "http://hl7.org/fhir/us/core/StructureDefinition/us-core-ethnicity",
        "extension": [ {
          "url": "ombCategory",
          "valueCoding": {
            "system": "urn:oid:2.16.840.1.113883.6.238",
            "code": "2186-5",
            "display": "Not Hispanic or Latino",
            "userSelected": true
          }
        }, {
          "url": "text",
          "valueString": "Not Hispanic or Latino"
        } ]
      }, {
        "url": "http://hl7.org/fhir/us/core/StructureDefinition/us-core-sex",
        "valueCode": "248153007"
      } ],
      "identifier": [ {
        "type": {
          "coding": [ {
            "system": "http://terminology.hl7.org/CodeSystem/v2-0203",
            "code": "MR"
          } ]
        },
        "system": "https://bonnie-fhir.healthit.gov/",
        "value": "661579e3db207d74c03b8a55"
      } ],
      "name": [ {
        "family": "NUMERStrat1Pass",
        "given": [ "TimeTx61LOS481MinsObsStay" ]
      } ],
      "gender": "male",
      "birthDate": "2010-12-31"
    },
    "request": {
      "method": "PUT",
      "url": "Patient/9fed66ec-d314-4a2e-a6d5-056ec2f702c2"
    }
  }, {
    "fullUrl": "https://madie.cms.gov/Encounter/119b6e08-668b-44c2-9a32-99daa3bc637c",
    "resource": {
      "resourceType": "Encounter",
      "id": "119b6e08-668b-44c2-9a32-99daa3bc637c",
      "meta": {
        "profile": [ "http://hl7.org/fhir/us/qicore/StructureDefinition/qicore-encounter" ]
      },
      "status": "finished",
      "class": {
        "system": "http://terminology.hl7.org/CodeSystem/v3-ActCode",
        "code": "EMER",
        "display": "emergency"
      },
      "type": [ {
        "coding": [ {
          "system": "http://snomed.info/sct",
          "version": "2023-09",
          "code": "4525004",
          "display": "Emergency department patient visit (procedure)",
          "userSelected": true
        } ]
      } ],
      "subject": {
        "reference": "Patient/9fed66ec-d314-4a2e-a6d5-056ec2f702c2"
      },
      "period": {
        "start": "2027-05-01T07:00:00.000+00:00",
        "end": "2027-05-01T15:15:00.000+00:00"
      },
      "reasonReference": [ {
        "reference": "Condition/f5f15cbc-cb10-44a5-9979-993d6c222fb3"
      } ],
      "location": [ {
        "location": {
          "reference": "Location/e64ae83e-2970-491a-8adc-5ec154a88988"
        },
        "period": {
          "start": "2027-05-01T07:45:00.000+00:00",
          "end": "2027-05-01T16:15:00.000+00:00"
        }
      }, {
        "location": {
          "reference": "Location/7ca2eea4-2aba-405a-a5d2-03e0b10f8c52"
        },
        "period": {
          "start": "2027-05-01T08:46:00.000+00:00",
          "end": "2027-05-01T12:15:00.000+00:00"
        }
      } ]
    },
    "request": {
      "method": "PUT",
      "url": "Encounter/119b6e08-668b-44c2-9a32-99daa3bc637c"
    }
  }, {
    "fullUrl": "https://madie.cms.gov/Location/e64ae83e-2970-491a-8adc-5ec154a88988",
    "resource": {
      "resourceType": "Location",
      "id": "e64ae83e-2970-491a-8adc-5ec154a88988",
      "meta": {
        "profile": [ "http://hl7.org/fhir/us/qicore/StructureDefinition/qicore-location" ]
      },
      "identifier": [ {
        "use": "usual",
        "system": "http://exampleoflocation.com",
        "value": "B1-S.F1"
      } ],
      "name": "Medical Surgical East, first floor",
      "type": [ {
        "coding": [ {
          "system": "https://www.cdc.gov/nhsn/cdaportal/terminology/codesystem/hsloc.html",
          "version": "2022",
          "code": "1108-0",
          "display": "Emergency Department",
          "userSelected": true
        } ]
      } ]
    },
    "request": {
      "method": "PUT",
      "url": "Location/e64ae83e-2970-491a-8adc-5ec154a88988"
    }
  }, {
    "fullUrl": "https://madie.cms.gov/Encounter/df178ece-75c5-45c3-b8fd-d1998af7618d",
    "resource": {
      "resourceType": "Encounter",
      "id": "df178ece-75c5-45c3-b8fd-d1998af7618d",
      "meta": {
        "profile": [ "http://hl7.org/fhir/us/qicore/StructureDefinition/qicore-encounter" ]
      },
      "status": "finished",
      "class": {
        "system": "http://terminology.hl7.org/CodeSystem/v3-ActCode",
        "code": "EMER",
        "display": "emergency"
      },
      "type": [ {
        "coding": [ {
          "system": "http://snomed.info/sct",
          "code": "448951000124107",
          "display": "Admission to observation unit (procedure)",
          "userSelected": true
        } ]
      } ],
      "subject": {
        "reference": "Patient/9fed66ec-d314-4a2e-a6d5-056ec2f702c2"
      },
      "period": {
        "start": "2027-05-01T08:01:00.000+00:00",
        "end": "2027-05-01T12:59:00.000+00:00"
      }
    },
    "request": {
      "method": "PUT",
      "url": "Encounter/df178ece-75c5-45c3-b8fd-d1998af7618d"
    }
  }, {
    "fullUrl": "https://madie.cms.gov/Location/7ca2eea4-2aba-405a-a5d2-03e0b10f8c52",
    "resource": {
      "resourceType": "Location",
      "id": "7ca2eea4-2aba-405a-a5d2-03e0b10f8c52",
      "meta": {
        "profile": [ "http://hl7.org/fhir/us/qicore/StructureDefinition/qicore-location" ]
      },
      "identifier": [ {
        "use": "usual",
        "system": "http://exampleoflocation.com",
        "value": "B1-S.F2"
      } ],
      "name": "Medical Surgical East, first floor",
      "type": [ {
        "coding": [ {
          "system": "https://www.cdc.gov/nhsn/cdaportal/terminology/codesystem/hsloc.html",
          "version": "2022",
          "code": "1209-6",
          "display": "Treatment Room",
          "userSelected": true
        } ]
      } ]
    },
    "request": {
      "method": "PUT",
      "url": "Location/7ca2eea4-2aba-405a-a5d2-03e0b10f8c52"
    }
  }, {
    "fullUrl": "https://madie.cms.gov/Condition/f5f15cbc-cb10-44a5-9979-993d6c222fb3",
    "resource": {
      "resourceType": "Condition",
      "id": "f5f15cbc-cb10-44a5-9979-993d6c222fb3",
      "meta": {
        "profile": [ "http://hl7.org/fhir/us/qicore/StructureDefinition/qicore-condition-encounter-diagnosis" ]
      },
      "category": [ {
        "coding": [ {
          "system": "http://terminology.hl7.org/CodeSystem/condition-category",
          "code": "encounter-diagnosis",
          "display": "Encounter Diagnosis"
        } ]
      } ],
      "code": {
        "coding": [ {
          "system": "http://snomed.info/sct",
          "version": "2023-09",
          "code": "10660471000119109",
          "display": "Ulcer of left foot due to type 2 diabetes mellitus (disorder)",
          "userSelected": true
        } ]
      },
      "subject": {
        "reference": "Patient/9fed66ec-d314-4a2e-a6d5-056ec2f702c2"
      },
      "encounter": {
        "reference": "Encounter/119b6e08-668b-44c2-9a32-99daa3bc637c"
      },
      "recordedDate": "2027-05-01T08:00:00.000+00:00"
    },
    "request": {
      "method": "PUT",
      "url": "Condition/f5f15cbc-cb10-44a5-9979-993d6c222fb3"
    }
  }, {
    "fullUrl": "https://madie.cms.gov/Location/7a617176-c334-4461-9550-e0d62f477329",
    "resource": {
      "resourceType": "Location",
      "id": "7a617176-c334-4461-9550-e0d62f477329",
      "meta": {
        "profile": [ "http://hl7.org/fhir/us/qicore/StructureDefinition/qicore-location" ]
      },
      "identifier": [ {
        "use": "usual",
        "system": "http://exampleoflocation.com",
        "value": "B1-S.F2"
      } ],
      "name": "Medical Surgical East, first floor",
      "type": [ {
        "coding": [ {
          "system": "https://www.cdc.gov/nhsn/cdaportal/terminology/codesystem/hsloc.html",
          "version": "2022",
          "code": "1108-0",
          "display": "Emergency Department",
          "userSelected": true
        } ]
      } ]
    },
    "request": {
      "method": "PUT",
      "url": "Location/7a617176-c334-4461-9550-e0d62f477329"
    }
  }, {
    "fullUrl": "https://madie.cms.gov/Location/f8c864b4-22e3-45fc-aa51-dc526e94c213",
    "resource": {
      "resourceType": "Location",
      "id": "f8c864b4-22e3-45fc-aa51-dc526e94c213",
      "meta": {
        "profile": [ "http://hl7.org/fhir/us/qicore/StructureDefinition/qicore-location" ]
      },
      "identifier": [ {
        "use": "usual",
        "system": "http://exampleoflocation.com",
        "value": "B1-S.F2"
      } ],
      "name": "Medical Surgical East, first floor",
      "type": [ {
        "coding": [ {
          "system": "https://www.cdc.gov/nhsn/cdaportal/terminology/codesystem/hsloc.html",
          "version": "2022",
          "code": "1108-0",
          "display": "Emergency Department",
          "userSelected": true
        } ]
      } ]
    },
    "request": {
      "method": "PUT",
      "url": "Location/f8c864b4-22e3-45fc-aa51-dc526e94c213"
    }
  }, {
    "fullUrl": "https://madie.cms.gov/claim/ClaimBehavior-NotSubsAbuse",
    "resource": {
      "resourceType": "Claim",
      "id": "ClaimBehavior-NotSubsAbuse",
      "meta": {
        "profile": [ "http://hl7.org/fhir/us/qicore/StructureDefinition/qicore-claim" ]
      },
      "status": "active",
      "type": {
        "coding": [ {
          "system": "http://terminology.hl7.org/CodeSystem/claim-type",
          "code": "institutional"
        } ]
      },
      "use": "claim",
      "patient": {
        "reference": "Patient/9fed66ec-d314-4a2e-a6d5-056ec2f702c2"
      },
      "created": "2027-05-01",
      "provider": {
        "reference": "Practitioner/6d709290-1059-4490-ada2-ad945b7012c1"
      },
      "priority": {
        "coding": [ {
          "system": "http://terminology.hl7.org/CodeSystem/processpriority",
          "code": "normal"
        } ]
      },
      "diagnosis": [ {
        "sequence": 1,
        "diagnosisReference": {
          "reference": "Condition/f5f15cbc-cb10-44a5-9979-993d6c222fb3"
        },
        "type": [ {
          "coding": [ {
            "system": "http://terminology.hl7.org/CodeSystem/ex-diagnosistype",
            "code": "principal"
          } ]
        } ]
      } ],
      "insurance": [ {
        "sequence": 1,
        "focal": true,
        "coverage": {
          "reference": "Coverage/1ebca807-a880-4e66-8eaa-feb891e84b6c"
        }
      } ],
      "item": [ {
        "sequence": 1,
        "diagnosisSequence": [ 1 ],
        "productOrService": {
          "coding": [ {
            "system": "http://terminology.hl7.org/CodeSystem/ex-USCLS",
            "code": "99555"
          } ]
        },
        "encounter": [ {
          "reference": "Encounter/119b6e08-668b-44c2-9a32-99daa3bc637c"
        } ]
      } ]
    },
    "request": {
      "method": "PUT",
      "url": "Claim/ClaimBehavior-NotSubsAbuse"
    }
  }, {
    "fullUrl": "https://madie.cms.gov/Coverage/1ebca807-a880-4e66-8eaa-feb891e84b6c",
    "resource": {
      "resourceType": "Coverage",
      "id": "1ebca807-a880-4e66-8eaa-feb891e84b6c",
      "meta": {
        "profile": [ "http://hl7.org/fhir/us/qicore/StructureDefinition/qicore-coverage" ]
      },
      "identifier": [ {
        "type": {
          "coding": [ {
            "system": "http://terminology.hl7.org/CodeSystem/v2-0203",
            "code": "MB"
          } ]
        }
      } ],
      "status": "active",
      "beneficiary": {
        "reference": "Patient/9fed66ec-d314-4a2e-a6d5-056ec2f702c2"
      },
      "relationship": {
        "coding": [ {
          "system": "http://terminology.hl7.org/CodeSystem/subscriber-relationship",
          "code": "self"
        } ]
      },
      "payor": [ {
        "reference": "Organization/52d14a16-c7d8-4a2d-9417-c0a7b11cd914"
      } ]
    },
    "request": {
      "method": "PUT",
      "url": "Coverage/1ebca807-a880-4e66-8eaa-feb891e84b6c"
    }
  }, {
    "fullUrl": "https://madie.cms.gov/Organization/52d14a16-c7d8-4a2d-9417-c0a7b11cd914",
    "resource": {
      "resourceType": "Organization",
      "id": "52d14a16-c7d8-4a2d-9417-c0a7b11cd914",
      "meta": {
        "profile": [ "http://hl7.org/fhir/us/qicore/StructureDefinition/qicore-organization" ]
      },
      "identifier": [ {
        "use": "temp",
        "system": "urn:oid:2.16.840.1.113883.4.4",
        "value": "21-3259825"
      } ],
      "active": true,
      "type": [ {
        "coding": [ {
          "system": "http://terminology.hl7.org/CodeSystem/organization-type",
          "code": "pay",
          "display": "Payer"
        } ]
      } ],
      "name": "Blue Cross Blue Shield of Texas",
      "telecom": [ {
        "system": "phone",
        "value": "(+1) 972-766-6900"
      } ],
      "address": [ {
        "use": "billing",
        "type": "postal",
        "line": [ "P.O. Box 660044" ],
        "city": "Dallas",
        "state": "TX",
        "postalCode": "75266-0044",
        "country": "USA"
      } ]
    },
    "request": {
      "method": "PUT",
      "url": "Organization/52d14a16-c7d8-4a2d-9417-c0a7b11cd914"
    }
  }, {
    "fullUrl": "https://madie.cms.gov/Practitioner/6d709290-1059-4490-ada2-ad945b7012c1",
    "resource": {
      "resourceType": "Practitioner",
      "id": "6d709290-1059-4490-ada2-ad945b7012c1",
      "meta": {
        "profile": [ "http://hl7.org/fhir/us/qicore/StructureDefinition/qicore-practitioner" ]
      },
      "identifier": [ {
        "system": "http://hl7.org/fhir/sid/us-npi",
        "value": "9999999896"
      } ],
      "name": [ {
        "family": "Evil",
        "prefix": [ "Dr" ]
      } ]
    },
    "request": {
      "method": "PUT",
      "url": "Practitioner/6d709290-1059-4490-ada2-ad945b7012c1"
    }
  }, {
    "fullUrl": "https://madie.cms.gov/MeasureReport/2a4da676-810a-4e2c-a474-555fc278240a",
    "resource": {
      "resourceType": "MeasureReport",
      "id": "2a4da676-810a-4e2c-a474-555fc278240a",
      "meta": {
        "profile": [ "http://hl7.org/fhir/us/cqfmeasures/StructureDefinition/test-case-cqfm" ]
      },
      "contained": [ {
        "resourceType": "Parameters",
        "id": "d3925e96-5c30-47cf-abce-48dc9fab5ee7-parameters",
        "parameter": [ {
          "name": "subject",
          "valueString": "9fed66ec-d314-4a2e-a6d5-056ec2f702c2"
        } ]
      } ],
      "extension": [ {
        "url": "http://hl7.org/fhir/StructureDefinition/cqf-inputParameters",
        "valueReference": {
          "reference": "#d3925e96-5c30-47cf-abce-48dc9fab5ee7-parameters"
        }
      }, {
        "url": "http://hl7.org/fhir/us/cqfmeasures/StructureDefinition/cqfm-testCaseDescription",
        "valueMarkdown": "Time to ED to treatment, LOS in ED 8hr plus, with min observation stay"
      } ],
      "modifierExtension": [ {
        "url": "http://hl7.org/fhir/us/cqfmeasures/StructureDefinition/cqfm-isTestCase",
        "valueBoolean": true
      } ],
      "status": "complete",
      "type": "individual",
      "measure": "https://madie.cms.gov/Measure/CMS1244FHIRECATHOQR",
      "period": {
        "start": "2027-01-01",
        "end": "2027-12-31"
      },
      "group": [ {
        "id": "Group_1",
        "population": [ {
          "id": "InitialPopulation_1",
          "code": {
            "coding": [ {
              "system": "http://terminology.hl7.org/CodeSystem/measure-population",
              "code": "initial-population",
              "display": "Initial Population"
            } ]
          },
          "count": 1
        }, {
          "id": "Denominator_1",
          "code": {
            "coding": [ {
              "system": "http://terminology.hl7.org/CodeSystem/measure-population",
              "code": "denominator",
              "display": "Denominator"
            } ]
          },
          "count": 1
        }, {
          "id": "Numerator_1",
          "code": {
            "coding": [ {
              "system": "http://terminology.hl7.org/CodeSystem/measure-population",
              "code": "numerator",
              "display": "Numerator"
            } ]
          },
          "count": 1
        } ],
        "measureScore": {
          "value": 0.0
        },
        "stratifier": [ {
          "id": "Stratification_1_1",
          "code": [ {
            "text": "Strata-1"
          } ],
          "stratum": [ {
            "value": {
              "text": "Strata-1"
            },
            "population": [ {
              "id": "InitialPopulation_1",
              "code": {
                "coding": [ {
                  "system": "http://terminology.hl7.org/CodeSystem/measure-population",
                  "code": "initial-population",
                  "display": "Initial Population"
                } ]
              },
              "count": 1
            }, {
              "id": "Denominator_1",
              "code": {
                "coding": [ {
                  "system": "http://terminology.hl7.org/CodeSystem/measure-population",
                  "code": "denominator",
                  "display": "Denominator"
                } ]
              },
              "count": 1
            }, {
              "id": "Numerator_1",
              "code": {
                "coding": [ {
                  "system": "http://terminology.hl7.org/CodeSystem/measure-population",
                  "code": "numerator",
                  "display": "Numerator"
                } ]
              },
              "count": 1
            } ]
          } ]
        }, {
          "id": "Stratification_1_2",
          "code": [ {
            "text": "Strata-2"
          } ],
          "stratum": [ {
            "value": {
              "text": "Strata-2"
            },
            "population": [ {
              "id": "InitialPopulation_1",
              "code": {
                "coding": [ {
                  "system": "http://terminology.hl7.org/CodeSystem/measure-population",
                  "code": "initial-population",
                  "display": "Initial Population"
                } ]
              },
              "count": 0
            }, {
              "id": "Denominator_1",
              "code": {
                "coding": [ {
                  "system": "http://terminology.hl7.org/CodeSystem/measure-population",
                  "code": "denominator",
                  "display": "Denominator"
                } ]
              },
              "count": 0
            }, {
              "id": "Numerator_1",
              "code": {
                "coding": [ {
                  "system": "http://terminology.hl7.org/CodeSystem/measure-population",
                  "code": "numerator",
                  "display": "Numerator"
                } ]
              },
              "count": 0
            } ]
          } ]
        }, {
          "id": "Stratification_1_3",
          "code": [ {
            "text": "Strata-3"
          } ],
          "stratum": [ {
            "value": {
              "text": "Strata-3"
            },
            "population": [ {
              "id": "InitialPopulation_1",
              "code": {
                "coding": [ {
                  "system": "http://terminology.hl7.org/CodeSystem/measure-population",
                  "code": "initial-population",
                  "display": "Initial Population"
                } ]
              },
              "count": 0
            }, {
              "id": "Denominator_1",
              "code": {
                "coding": [ {
                  "system": "http://terminology.hl7.org/CodeSystem/measure-population",
                  "code": "denominator",
                  "display": "Denominator"
                } ]
              },
              "count": 0
            }, {
              "id": "Numerator_1",
              "code": {
                "coding": [ {
                  "system": "http://terminology.hl7.org/CodeSystem/measure-population",
                  "code": "numerator",
                  "display": "Numerator"
                } ]
              },
              "count": 0
            } ]
          } ]
        }, {
          "id": "Stratification_1_4",
          "code": [ {
            "text": "Strata-4"
          } ],
          "stratum": [ {
            "value": {
              "text": "Strata-4"
            },
            "population": [ {
              "id": "InitialPopulation_1",
              "code": {
                "coding": [ {
                  "system": "http://terminology.hl7.org/CodeSystem/measure-population",
                  "code": "initial-population",
                  "display": "Initial Population"
                } ]
              },
              "count": 0
            }, {
              "id": "Denominator_1",
              "code": {
                "coding": [ {
                  "system": "http://terminology.hl7.org/CodeSystem/measure-population",
                  "code": "denominator",
                  "display": "Denominator"
                } ]
              },
              "count": 0
            }, {
              "id": "Numerator_1",
              "code": {
                "coding": [ {
                  "system": "http://terminology.hl7.org/CodeSystem/measure-population",
                  "code": "numerator",
                  "display": "Numerator"
                } ]
              },
              "count": 0
            } ]
          } ]
        } ]
      } ],
      "evaluatedResource": [ {
        "reference": "Patient/9fed66ec-d314-4a2e-a6d5-056ec2f702c2"
      }, {
        "reference": "Encounter/119b6e08-668b-44c2-9a32-99daa3bc637c"
      }, {
        "reference": "Location/e64ae83e-2970-491a-8adc-5ec154a88988"
      }, {
        "reference": "Encounter/df178ece-75c5-45c3-b8fd-d1998af7618d"
      }, {
        "reference": "Location/7ca2eea4-2aba-405a-a5d2-03e0b10f8c52"
      }, {
        "reference": "Condition/f5f15cbc-cb10-44a5-9979-993d6c222fb3"
      }, {
        "reference": "Location/7a617176-c334-4461-9550-e0d62f477329"
      }, {
        "reference": "Location/f8c864b4-22e3-45fc-aa51-dc526e94c213"
      }, {
        "reference": "Claim/ClaimBehavior-NotSubsAbuse"
      }, {
        "reference": "Coverage/1ebca807-a880-4e66-8eaa-feb891e84b6c"
      }, {
        "reference": "Organization/52d14a16-c7d8-4a2d-9417-c0a7b11cd914"
      }, {
        "reference": "Practitioner/6d709290-1059-4490-ada2-ad945b7012c1"
      } ]
    },
    "request": {
      "method": "PUT",
      "url": "MeasureReport/2a4da676-810a-4e2c-a474-555fc278240a"
    }
  } ]
}