{
  "resourceType": "Bundle",
  "id": "612e6b3702c62a011f2ecee0",
  "type": "transaction",
  "entry": [ {
    "fullUrl": "https://madie.cms.gov/Patient/1b450176-8caa-4133-bc9a-c066969f72ce",
    "resource": {
      "resourceType": "Patient",
      "id": "1b450176-8caa-4133-bc9a-c066969f72ce",
      "meta": {
        "profile": [ "http://hl7.org/fhir/us/qicore/StructureDefinition/qicore-patient" ]
      },
      "text": {
        "status": "generated",
        "div": "<div xmlns=\"http://www.w3.org/1999/xhtml\"><div class=\"hapiHeaderText\">CMPerfRvltStartDayAFAdmEndNull <b>DENEXPASS </b></div><table class=\"hapiPropertyTable\"><tbody><tr><td>Identifier</td><td>8e120c670e34f79f329b985203cc966e</td></tr><tr><td>Date of birth</td><td><span>02 January 1974</span></td></tr></tbody></table></div>"
      },
      "extension": [ {
        "url": "http://hl7.org/fhir/us/core/StructureDefinition/us-core-race",
        "extension": [ {
          "url": "ombCategory",
          "valueCoding": {
            "system": "urn:oid:2.16.840.1.113883.6.238",
            "code": "1002-5",
            "display": "American Indian or Alaska Native",
            "userSelected": true
          }
        }, {
          "url": "text",
          "valueString": "American Indian or Alaska Native"
        } ]
      }, {
        "url": "http://hl7.org/fhir/us/core/StructureDefinition/us-core-ethnicity",
        "extension": [ {
          "url": "ombCategory",
          "valueCoding": {
            "system": "urn:oid:2.16.840.1.113883.6.238",
            "code": "2135-2",
            "display": "Hispanic or Latino",
            "userSelected": true
          }
        }, {
          "url": "text",
          "valueString": "Hispanic or Latino"
        } ]
      } ],
      "identifier": [ {
        "type": {
          "coding": [ {
            "system": "http://terminology.hl7.org/CodeSystem/v2-0203",
            "code": "MR"
          } ]
        },
        "system": "https://bonnie-fhir.healthit.gov/",
        "value": "612e6b3702c62a011f2ecee0"
      } ],
      "active": true,
      "name": [ {
        "use": "usual",
        "family": "DENEXPass",
        "given": [ "CMPerfRvltStartDayAFAdmEndNull" ]
      } ],
      "gender": "male",
      "birthDate": "1975-01-02"
    },
    "request": {
      "method": "PUT",
      "url": "Patient/1b450176-8caa-4133-bc9a-c066969f72ce"
    }
  }, {
    "fullUrl": "https://madie.cms.gov/Encounter/8d7b89ed-b5dd-4944-9bf2-d58145bf44ca",
    "resource": {
      "resourceType": "Encounter",
      "id": "8d7b89ed-b5dd-4944-9bf2-d58145bf44ca",
      "meta": {
        "profile": [ "http://hl7.org/fhir/us/qicore/StructureDefinition/qicore-encounter" ]
      },
      "status": "finished",
      "class": {
        "system": "http://terminology.hl7.org/CodeSystem/v3-ActCode",
        "code": "IMP",
        "display": "inpatient encounter"
      },
      "type": [ {
        "coding": [ {
          "system": "http://snomed.info/sct",
          "code": "8715000"
        } ]
      } ],
      "subject": {
        "reference": "Patient/1b450176-8caa-4133-bc9a-c066969f72ce"
      },
      "period": {
        "start": "2026-11-01T08:00:00.000+00:00",
        "end": "2026-11-26T08:15:00.000+00:00"
      },
      "length": {
        "value": 25.0,
        "unit": "days"
      }
    },
    "request": {
      "method": "PUT",
      "url": "Encounter/8d7b89ed-b5dd-4944-9bf2-d58145bf44ca"
    }
  }, {
    "fullUrl": "https://madie.cms.gov/Procedure/31ef8e41-c38a-4a78-8397-fe5e180cf339",
    "resource": {
      "resourceType": "Procedure",
      "id": "31ef8e41-c38a-4a78-8397-fe5e180cf339",
      "meta": {
        "profile": [ "http://hl7.org/fhir/us/qicore/StructureDefinition/qicore-procedure" ]
      },
      "extension": [ {
        "url": "http://hl7.org/fhir/us/qicore/StructureDefinition/qicore-recorded",
        "valueDateTime": "2013-11-02T13:35:00.000+00:00"
      } ],
      "status": "completed",
      "code": {
        "coding": [ {
          "system": "http://snomed.info/sct",
          "code": "133918004"
        } ]
      },
      "subject": {
        "reference": "Patient/1b450176-8caa-4133-bc9a-c066969f72ce"
      },
      "performedPeriod": {
        "start": "2026-11-02T08:00:00.000+00:00"
      }
    },
    "request": {
      "method": "PUT",
      "url": "Procedure/31ef8e41-c38a-4a78-8397-fe5e180cf339"
    }
  }, {
    "fullUrl": "https://madie.cms.gov/Coverage/b3d04793-f526-495e-8f46-96c06c767daf",
    "resource": {
      "resourceType": "Coverage",
      "id": "b3d04793-f526-495e-8f46-96c06c767daf",
      "status": "active",
      "beneficiary": {
        "reference": "Patient/1b450176-8caa-4133-bc9a-c066969f72ce"
      },
      "period": {
        "start": "1975-01-02T08:00:00.000+00:00"
      },
      "payor": [ {
        "reference": "Organization/cd406ac8-6bd3-4e38-8f76-9db1eb39d829"
      } ]
    },
    "request": {
      "method": "PUT",
      "url": "Coverage/b3d04793-f526-495e-8f46-96c06c767daf"
    }
  }, {
    "fullUrl": "https://madie.cms.gov/Organization/cd406ac8-6bd3-4e38-8f76-9db1eb39d829",
    "resource": {
      "resourceType": "Organization",
      "id": "cd406ac8-6bd3-4e38-8f76-9db1eb39d829",
      "meta": {
        "profile": [ "http://hl7.org/fhir/us/qicore/StructureDefinition/qicore-organization" ]
      },
      "identifier": [ {
        "use": "temp",
        "system": "urn:oid:2.16.840.1.113883.4.4",
        "value": "21-3259825"
      } ],
      "active": true,
      "type": [ {
        "coding": [ {
          "system": "http://terminology.hl7.org/CodeSystem/organization-type",
          "code": "pay",
          "display": "Payer"
        } ]
      } ],
      "name": "Blue Cross Blue Shield of Texas",
      "telecom": [ {
        "system": "phone",
        "value": "(+1) 972-766-6900"
      } ],
      "address": [ {
        "use": "billing",
        "type": "postal",
        "line": [ "P.O. Box 660044" ],
        "city": "Dallas",
        "state": "TX",
        "postalCode": "75266-0044",
        "country": "USA"
      } ]
    },
    "request": {
      "method": "PUT",
      "url": "Organization/cd406ac8-6bd3-4e38-8f76-9db1eb39d829"
    }
  }, {
    "fullUrl": "https://madie.cms.gov/Practitioner/b04c6e0a-3c53-4a61-9895-46a0c46002d3",
    "resource": {
      "resourceType": "Practitioner",
      "id": "b04c6e0a-3c53-4a61-9895-46a0c46002d3",
      "identifier": [ {
        "system": "http://hl7.org/fhir/sid/us-npi",
        "value": "123456"
      } ],
      "name": [ {
        "family": "Evil",
        "prefix": [ "Dr" ]
      } ]
    },
    "request": {
      "method": "PUT",
      "url": "Practitioner/b04c6e0a-3c53-4a61-9895-46a0c46002d3"
    }
  }, {
    "fullUrl": "https://madie.cms.gov/MeasureReport/c8229910-fe70-4bca-9eda-e85dff439e50",
    "resource": {
      "resourceType": "MeasureReport",
      "id": "c8229910-fe70-4bca-9eda-e85dff439e50",
      "meta": {
        "profile": [ "http://hl7.org/fhir/us/cqfmeasures/StructureDefinition/test-case-cqfm" ]
      },
      "contained": [ {
        "resourceType": "Parameters",
        "id": "b162898e-7a3f-4e3f-8d79-dd03117b5f44-parameters",
        "parameter": [ {
          "name": "subject",
          "valueString": "1b450176-8caa-4133-bc9a-c066969f72ce"
        } ]
      } ],
      "extension": [ {
        "url": "http://hl7.org/fhir/StructureDefinition/cqf-inputParameters",
        "valueReference": {
          "reference": "#b162898e-7a3f-4e3f-8d79-dd03117b5f44-parameters"
        }
      }, {
        "url": "http://hl7.org/fhir/us/cqfmeasures/StructureDefinition/cqfm-testCaseDescription",
        "valueMarkdown": "comfort measures performed relevantPeriod start 1 day after IP encounter and ends null\n"
      } ],
      "modifierExtension": [ {
        "url": "http://hl7.org/fhir/us/cqfmeasures/StructureDefinition/cqfm-isTestCase",
        "valueBoolean": true
      } ],
      "status": "complete",
      "type": "individual",
      "measure": "https://madie.cms.gov/Measure/CMS108FHIRVTEProphylaxis",
      "period": {
        "start": "2026-01-01",
        "end": "2026-12-31"
      },
      "group": [ {
        "id": "Group_1",
        "population": [ {
          "id": "InitialPopulation_1",
          "code": {
            "coding": [ {
              "system": "http://terminology.hl7.org/CodeSystem/measure-population",
              "code": "initial-population",
              "display": "Initial Population"
            } ]
          },
          "count": 1
        }, {
          "id": "Denominator_1",
          "code": {
            "coding": [ {
              "system": "http://terminology.hl7.org/CodeSystem/measure-population",
              "code": "denominator",
              "display": "Denominator"
            } ]
          },
          "count": 1
        }, {
          "id": "DenominatorExclusion_1",
          "code": {
            "coding": [ {
              "system": "http://terminology.hl7.org/CodeSystem/measure-population",
              "code": "denominator-exclusion",
              "display": "Denominator Exclusion"
            } ]
          },
          "count": 1
        }, {
          "id": "Numerator_1",
          "code": {
            "coding": [ {
              "system": "http://terminology.hl7.org/CodeSystem/measure-population",
              "code": "numerator",
              "display": "Numerator"
            } ]
          },
          "count": 0
        } ],
        "measureScore": {
          "value": 0.0
        }
      } ],
      "evaluatedResource": [ {
        "reference": "Patient/1b450176-8caa-4133-bc9a-c066969f72ce"
      }, {
        "reference": "Encounter/8d7b89ed-b5dd-4944-9bf2-d58145bf44ca"
      }, {
        "reference": "Procedure/31ef8e41-c38a-4a78-8397-fe5e180cf339"
      }, {
        "reference": "Coverage/b3d04793-f526-495e-8f46-96c06c767daf"
      }, {
        "reference": "Organization/cd406ac8-6bd3-4e38-8f76-9db1eb39d829"
      }, {
        "reference": "Practitioner/b04c6e0a-3c53-4a61-9895-46a0c46002d3"
      } ]
    },
    "request": {
      "method": "PUT",
      "url": "MeasureReport/c8229910-fe70-4bca-9eda-e85dff439e50"
    }
  } ]
}