{
  "resourceType": "Bundle",
  "id": "60f82c2e98086b570510e26f",
  "type": "transaction",
  "entry": [ {
    "fullUrl": "https://madie.cms.gov/Patient/0bc6d4d8-81a0-42a2-9efb-9efbfc3ebe2a",
    "resource": {
      "resourceType": "Patient",
      "id": "0bc6d4d8-81a0-42a2-9efb-9efbfc3ebe2a",
      "meta": {
        "profile": [ "http://hl7.org/fhir/us/qicore/StructureDefinition/qicore-patient" ]
      },
      "text": {
        "status": "generated",
        "div": "<div xmlns=\"http://www.w3.org/1999/xhtml\"><div class=\"hapiHeaderText\">ProcTPA&lt;24hrB4_EncIP <b>DENEXPASS </b></div><table class=\"hapiPropertyTable\"><tbody><tr><td>Identifier</td><td>74a7987d4786d2cb2d90aceec2d71900</td></tr><tr><td>Date of birth</td><td><span>26 September 1975</span></td></tr></tbody></table></div>"
      },
      "extension": [ {
        "url": "http://hl7.org/fhir/us/core/StructureDefinition/us-core-race",
        "extension": [ {
          "url": "ombCategory",
          "valueCoding": {
            "system": "urn:oid:2.16.840.1.113883.6.238",
            "code": "2054-5",
            "display": "Black or African American",
            "userSelected": true
          }
        }, {
          "url": "text",
          "valueString": "Black or African American"
        } ]
      }, {
        "url": "http://hl7.org/fhir/us/core/StructureDefinition/us-core-ethnicity",
        "extension": [ {
          "url": "ombCategory",
          "valueCoding": {
            "system": "urn:oid:2.16.840.1.113883.6.238",
            "code": "2186-5",
            "display": "Not Hispanic or Latino",
            "userSelected": true
          }
        }, {
          "url": "text",
          "valueString": "Not Hispanic or Latino"
        } ]
      } ],
      "identifier": [ {
        "type": {
          "coding": [ {
            "system": "http://terminology.hl7.org/CodeSystem/v2-0203",
            "code": "MR"
          } ]
        },
        "system": "https://bonnie-fhir.healthit.gov/",
        "value": "60f82c2e98086b570510e26f"
      } ],
      "active": true,
      "name": [ {
        "use": "usual",
        "family": "DENEXPass",
        "given": [ "ProcTPALT24hrB4EncIP" ]
      } ],
      "gender": "female",
      "birthDate": "1976-09-26"
    },
    "request": {
      "method": "PUT",
      "url": "Patient/0bc6d4d8-81a0-42a2-9efb-9efbfc3ebe2a"
    }
  }, {
    "fullUrl": "https://madie.cms.gov/Encounter/42d48a09-5b40-4100-8956-072bac190c69",
    "resource": {
      "resourceType": "Encounter",
      "id": "42d48a09-5b40-4100-8956-072bac190c69",
      "meta": {
        "profile": [ "http://hl7.org/fhir/us/qicore/StructureDefinition/qicore-encounter" ]
      },
      "status": "finished",
      "class": {
        "system": "http://terminology.hl7.org/CodeSystem/v3-ActCode",
        "code": "IMP",
        "display": "inpatient encounter"
      },
      "type": [ {
        "coding": [ {
          "system": "http://snomed.info/sct",
          "code": "32485007"
        } ]
      } ],
      "subject": {
        "reference": "Patient/0bc6d4d8-81a0-42a2-9efb-9efbfc3ebe2a"
      },
      "period": {
        "start": "2026-10-10T09:00:00.000+00:00",
        "end": "2026-10-12T11:15:00.000+00:00"
      },
      "length": {
        "value": 2,
        "unit": "days"
      },
      "reasonCode": [ {
        "coding": [ {
          "system": "http://snomed.info/sct",
          "code": "69245005"
        } ]
      } ],
      "reasonReference": [ {
        "reference": "Condition/ischemic-stroke-6d66"
      } ]
    },
    "request": {
      "method": "PUT",
      "url": "Encounter/42d48a09-5b40-4100-8956-072bac190c69"
    }
  }, {
    "fullUrl": "https://madie.cms.gov/Coverage/3a8e2203-28c5-40d4-b7ac-7e518b91efcd",
    "resource": {
      "resourceType": "Coverage",
      "id": "3a8e2203-28c5-40d4-b7ac-7e518b91efcd",
      "status": "active",
      "beneficiary": {
        "reference": "Patient/0bc6d4d8-81a0-42a2-9efb-9efbfc3ebe2a"
      },
      "period": {
        "start": "1976-09-26T08:00:00.000+00:00"
      },
      "payor": [ {
        "reference": "Organization/4d59ba9b-9f80-4929-b782-45ef40e798b8"
      } ]
    },
    "request": {
      "method": "PUT",
      "url": "Coverage/3a8e2203-28c5-40d4-b7ac-7e518b91efcd"
    }
  }, {
    "fullUrl": "https://madie.cms.gov/Procedure/1af3eaaf-c13e-4598-ad1b-2066cd37678e",
    "resource": {
      "resourceType": "Procedure",
      "id": "1af3eaaf-c13e-4598-ad1b-2066cd37678e",
      "meta": {
        "profile": [ "http://hl7.org/fhir/us/qicore/StructureDefinition/qicore-procedure" ]
      },
      "extension": [ {
        "url": "http://hl7.org/fhir/us/qicore/StructureDefinition/qicore-recorded",
        "valueDateTime": "2026-11-19T13:35:00.000+00:00"
      } ],
      "status": "completed",
      "code": {
        "coding": [ {
          "system": "http://snomed.info/sct",
          "code": "307521008"
        } ]
      },
      "subject": {
        "reference": "Patient/0bc6d4d8-81a0-42a2-9efb-9efbfc3ebe2a"
      },
      "encounter": {
        "reference": "Encounter/42d48a09-5b40-4100-8956-072bac190c69"
      },
      "performedPeriod": {
        "start": "2026-10-09T09:00:00.000+00:00"
      }
    },
    "request": {
      "method": "PUT",
      "url": "Procedure/1af3eaaf-c13e-4598-ad1b-2066cd37678e"
    }
  }, {
    "fullUrl": "https://madie.cms.gov/Condition/3078d399-9d9f-47a7-b850-2cd208a3d8d8",
    "resource": {
      "resourceType": "Condition",
      "id": "3078d399-9d9f-47a7-b850-2cd208a3d8d8",
      "meta": {
        "profile": [ "http://hl7.org/fhir/us/qicore/StructureDefinition/qicore-condition-encounter-diagnosis" ]
      },
      "clinicalStatus": {
        "coding": [ {
          "system": "http://terminology.hl7.org/CodeSystem/condition-clinical",
          "code": "active"
        } ]
      },
      "verificationStatus": {
        "coding": [ {
          "system": "http://terminology.hl7.org/CodeSystem/condition-ver-status",
          "code": "confirmed"
        } ]
      },
      "category": [ {
        "coding": [ {
          "system": "http://terminology.hl7.org/CodeSystem/condition-category",
          "code": "encounter-diagnosis",
          "display": "Encounter Diagnosis"
        } ]
      } ],
      "code": {
        "coding": [ {
          "system": "http://snomed.info/sct",
          "version": "2020-09",
          "code": "111297002",
          "display": "Nonparalytic stroke (disorder)",
          "userSelected": true
        } ]
      },
      "subject": {
        "reference": "Patient/0bc6d4d8-81a0-42a2-9efb-9efbfc3ebe2a"
      },
      "encounter": {
        "reference": "Encounter/42d48a09-5b40-4100-8956-072bac190c69"
      },
      "recordedDate": "2026-08-13T08:00:00.000+00:00"
    },
    "request": {
      "method": "PUT",
      "url": "Condition/3078d399-9d9f-47a7-b850-2cd208a3d8d8"
    }
  }, {
    "fullUrl": "https://madie.cms.gov/claim/5ca62962b8484628b8de1ec5",
    "resource": {
      "resourceType": "Claim",
      "id": "5ca62962b8484628b8de1ec5",
      "meta": {
        "profile": [ "http://hl7.org/fhir/us/qicore/StructureDefinition/qicore-claim" ]
      },
      "status": "active",
      "type": {
        "coding": [ {
          "system": "http://terminology.hl7.org/CodeSystem/claim-type",
          "code": "institutional"
        } ]
      },
      "use": "claim",
      "patient": {
        "reference": "Patient/0bc6d4d8-81a0-42a2-9efb-9efbfc3ebe2a"
      },
      "created": "2026-12-01",
      "provider": {
        "reference": "Practitioner/practitioner-123456"
      },
      "priority": {
        "coding": [ {
          "system": "http://terminology.hl7.org/CodeSystem/processpriority",
          "code": "normal"
        } ]
      },
      "diagnosis": [ {
        "sequence": 1,
        "diagnosisCodeableConcept": {
          "coding": [ {
            "system": "http://hl7.org/fhir/sid/icd-10-cm",
            "code": "I63.00"
          } ]
        },
        "type": [ {
          "coding": [ {
            "system": "http://terminology.hl7.org/CodeSystem/ex-diagnosistype",
            "code": "principal"
          } ]
        } ]
      } ],
      "insurance": [ {
        "sequence": 1,
        "focal": true,
        "coverage": {
          "reference": "Coverage/5fa041661c76ba66d9959367"
        }
      } ],
      "item": [ {
        "sequence": 1,
        "diagnosisSequence": [ 1 ],
        "productOrService": {
          "coding": [ {
            "system": "http://terminology.hl7.org/CodeSystem/ex-USCLS",
            "code": "99555"
          } ]
        },
        "encounter": [ {
          "reference": "Encounter/42d48a09-5b40-4100-8956-072bac190c69"
        } ]
      } ]
    },
    "request": {
      "method": "PUT",
      "url": "Claim/5ca62962b8484628b8de1ec5"
    }
  }, {
    "fullUrl": "https://madie.cms.gov/Organization/4d59ba9b-9f80-4929-b782-45ef40e798b8",
    "resource": {
      "resourceType": "Organization",
      "id": "4d59ba9b-9f80-4929-b782-45ef40e798b8",
      "meta": {
        "profile": [ "http://hl7.org/fhir/us/qicore/StructureDefinition/qicore-organization" ]
      },
      "identifier": [ {
        "use": "temp",
        "system": "urn:oid:2.16.840.1.113883.4.4",
        "value": "21-3259825"
      } ],
      "active": true,
      "type": [ {
        "coding": [ {
          "system": "http://terminology.hl7.org/CodeSystem/organization-type",
          "code": "pay",
          "display": "Payer"
        } ]
      } ],
      "name": "Blue Cross Blue Shield of Texas",
      "telecom": [ {
        "system": "phone",
        "value": "(+1) 972-766-6900"
      } ],
      "address": [ {
        "use": "billing",
        "type": "postal",
        "line": [ "P.O. Box 660044" ],
        "city": "Dallas",
        "state": "TX",
        "postalCode": "75266-0044",
        "country": "USA"
      } ]
    },
    "request": {
      "method": "PUT",
      "url": "Organization/4d59ba9b-9f80-4929-b782-45ef40e798b8"
    }
  }, {
    "fullUrl": "https://madie.cms.gov/MeasureReport/12d78fd4-65b5-43c5-b4fa-aca1a0c1a69b",
    "resource": {
      "resourceType": "MeasureReport",
      "id": "12d78fd4-65b5-43c5-b4fa-aca1a0c1a69b",
      "meta": {
        "profile": [ "http://hl7.org/fhir/us/cqfmeasures/StructureDefinition/test-case-cqfm" ]
      },
      "contained": [ {
        "resourceType": "Parameters",
        "id": "fe6850e6-af3a-4950-8797-8d82499e8717-parameters",
        "parameter": [ {
          "name": "subject",
          "valueString": "0bc6d4d8-81a0-42a2-9efb-9efbfc3ebe2a"
        } ]
      } ],
      "extension": [ {
        "url": "http://hl7.org/fhir/StructureDefinition/cqf-inputParameters",
        "valueReference": {
          "reference": "#fe6850e6-af3a-4950-8797-8d82499e8717-parameters"
        }
      }, {
        "url": "http://hl7.org/fhir/us/cqfmeasures/StructureDefinition/cqfm-testCaseDescription",
        "valueMarkdown": "Patient receives  Procedure IV or IA  24 hours and one minute before IP encounter starts\n"
      } ],
      "modifierExtension": [ {
        "url": "http://hl7.org/fhir/us/cqfmeasures/StructureDefinition/cqfm-isTestCase",
        "valueBoolean": true
      } ],
      "status": "complete",
      "type": "individual",
      "measure": "https://madie.cms.gov/Measure/CMS72FHIRSTKAntithromboticDay2",
      "period": {
        "start": "2026-01-01",
        "end": "2026-12-31"
      },
      "group": [ {
        "id": "Group_1",
        "population": [ {
          "id": "InitialPopulation_1",
          "code": {
            "coding": [ {
              "system": "http://terminology.hl7.org/CodeSystem/measure-population",
              "code": "initial-population",
              "display": "Initial Population"
            } ]
          },
          "count": 1
        }, {
          "id": "Denominator_1",
          "code": {
            "coding": [ {
              "system": "http://terminology.hl7.org/CodeSystem/measure-population",
              "code": "denominator",
              "display": "Denominator"
            } ]
          },
          "count": 1
        }, {
          "id": "DenominatorExclusion_1",
          "code": {
            "coding": [ {
              "system": "http://terminology.hl7.org/CodeSystem/measure-population",
              "code": "denominator-exclusion",
              "display": "Denominator Exclusion"
            } ]
          },
          "count": 1
        }, {
          "id": "Numerator_1",
          "code": {
            "coding": [ {
              "system": "http://terminology.hl7.org/CodeSystem/measure-population",
              "code": "numerator",
              "display": "Numerator"
            } ]
          },
          "count": 0
        }, {
          "id": "DenominatorException_1",
          "code": {
            "coding": [ {
              "system": "http://terminology.hl7.org/CodeSystem/measure-population",
              "code": "denominator-exception",
              "display": "Denominator Exception"
            } ]
          },
          "count": 0
        } ],
        "measureScore": {
          "value": 0.0
        }
      } ],
      "evaluatedResource": [ {
        "reference": "Patient/0bc6d4d8-81a0-42a2-9efb-9efbfc3ebe2a"
      }, {
        "reference": "Encounter/42d48a09-5b40-4100-8956-072bac190c69"
      }, {
        "reference": "Coverage/3a8e2203-28c5-40d4-b7ac-7e518b91efcd"
      }, {
        "reference": "Procedure/1af3eaaf-c13e-4598-ad1b-2066cd37678e"
      }, {
        "reference": "Condition/3078d399-9d9f-47a7-b850-2cd208a3d8d8"
      }, {
        "reference": "Claim/5ca62962b8484628b8de1ec5"
      }, {
        "reference": "Organization/4d59ba9b-9f80-4929-b782-45ef40e798b8"
      } ]
    },
    "request": {
      "method": "PUT",
      "url": "MeasureReport/12d78fd4-65b5-43c5-b4fa-aca1a0c1a69b"
    }
  } ]
}