{
  "resourceType": "Bundle",
  "id": "DENEXPass-DementiaStartsDuringMP",
  "type": "transaction",
  "entry": [ {
    "fullUrl": "https://madie.cms.gov/Patient/1905549a-1783-4195-95b9-b0879cb81d96",
    "resource": {
      "resourceType": "Patient",
      "id": "1905549a-1783-4195-95b9-b0879cb81d96",
      "meta": {
        "profile": [ "http://hl7.org/fhir/us/qicore/StructureDefinition/qicore-patient" ]
      },
      "extension": [ {
        "url": "http://hl7.org/fhir/us/core/StructureDefinition/us-core-race",
        "extension": [ {
          "url": "ombCategory",
          "valueCoding": {
            "system": "urn:oid:2.16.840.1.113883.6.238",
            "code": "2028-9",
            "display": "Asian"
          }
        }, {
          "url": "text",
          "valueString": "Asian"
        } ]
      }, {
        "url": "http://hl7.org/fhir/us/core/StructureDefinition/us-core-ethnicity",
        "extension": [ {
          "url": "ombCategory",
          "valueCoding": {
            "system": "urn:oid:2.16.840.1.113883.6.238",
            "code": "2135-2",
            "display": "Hispanic or Latino"
          }
        }, {
          "url": "text",
          "valueString": "Hispanic or Latino"
        } ]
      } ],
      "identifier": [ {
        "system": "http://hospital.smarthealthit.org",
        "value": "999999995"
      } ],
      "name": [ {
        "family": "DENEXPass",
        "given": [ "DementiaStartsDuringMP" ]
      } ],
      "gender": "female",
      "birthDate": "1959-12-31"
    },
    "request": {
      "method": "PUT",
      "url": "Patient/1905549a-1783-4195-95b9-b0879cb81d96"
    }
  }, {
    "fullUrl": "https://madie.cms.gov/Encounter/4ed683c1-79e5-4819-ad1a-dd5c86563ad9",
    "resource": {
      "resourceType": "Encounter",
      "id": "4ed683c1-79e5-4819-ad1a-dd5c86563ad9",
      "meta": {
        "profile": [ "http://hl7.org/fhir/us/qicore/StructureDefinition/qicore-encounter" ]
      },
      "status": "finished",
      "class": {
        "system": "http://terminology.hl7.org/CodeSystem/v3-ActCode",
        "code": "AMB",
        "display": "ambulatory"
      },
      "type": [ {
        "coding": [ {
          "system": "http://snomed.info/sct",
          "code": "3391000175108",
          "display": "Office visit for pediatric care and assessment (procedure)"
        } ]
      } ],
      "subject": {
        "reference": "Patient/1905549a-1783-4195-95b9-b0879cb81d96"
      },
      "period": {
        "start": "2026-01-01T00:00:00.000+00:00",
        "end": "2026-01-01T01:00:00.000+00:00"
      }
    },
    "request": {
      "method": "PUT",
      "url": "Encounter/4ed683c1-79e5-4819-ad1a-dd5c86563ad9"
    }
  }, {
    "fullUrl": "https://madie.cms.gov/Condition/c9384d4c-06ba-4bfa-ab3c-5873685850c2",
    "resource": {
      "resourceType": "Condition",
      "id": "c9384d4c-06ba-4bfa-ab3c-5873685850c2",
      "meta": {
        "profile": [ "http://hl7.org/fhir/us/qicore/StructureDefinition/qicore-condition-problems-health-concerns" ]
      },
      "clinicalStatus": {
        "coding": [ {
          "system": "http://terminology.hl7.org/CodeSystem/condition-clinical",
          "code": "active"
        } ]
      },
      "category": [ {
        "coding": [ {
          "system": "http://terminology.hl7.org/CodeSystem/condition-category",
          "code": "problem-list-item",
          "display": "Problem List Item"
        } ]
      } ],
      "code": {
        "coding": [ {
          "system": "http://snomed.info/sct",
          "code": "371125006",
          "display": "Labile essential hypertension (disorder)"
        } ]
      },
      "subject": {
        "reference": "Patient/1905549a-1783-4195-95b9-b0879cb81d96"
      },
      "onsetDateTime": "2026-06-30T23:59:59.000+00:00"
    },
    "request": {
      "method": "PUT",
      "url": "Condition/c9384d4c-06ba-4bfa-ab3c-5873685850c2"
    }
  }, {
    "fullUrl": "https://madie.cms.gov/MedicationRequest/6a8c76b3-b2af-48d6-abb2-dc59689c0327",
    "resource": {
      "resourceType": "MedicationRequest",
      "id": "6a8c76b3-b2af-48d6-abb2-dc59689c0327",
      "meta": {
        "profile": [ "http://hl7.org/fhir/us/qicore/StructureDefinition/qicore-medicationrequest" ]
      },
      "status": "active",
      "intent": "order",
      "doNotPerform": false,
      "medicationCodeableConcept": {
        "coding": [ {
          "system": "http://www.nlm.nih.gov/research/umls/rxnorm",
          "code": "312836",
          "display": "rivastigmine 6 MG Oral Capsule"
        } ]
      },
      "subject": {
        "reference": "Patient/1905549a-1783-4195-95b9-b0879cb81d96"
      },
      "authoredOn": "2026-12-30T00:00:00.000+00:00",
      "requester": {
        "reference": "Practitioner/example"
      },
      "dispenseRequest": {
        "expectedSupplyDuration": {
          "value": 90,
          "system": "http://unitsofmeasure.org",
          "code": "days"
        }
      }
    },
    "request": {
      "method": "PUT",
      "url": "MedicationRequest/6a8c76b3-b2af-48d6-abb2-dc59689c0327"
    }
  }, {
    "fullUrl": "https://madie.cms.gov/DeviceRequest/eaf5dd14-c35a-4bd6-9b27-c8ea526a230c",
    "resource": {
      "resourceType": "DeviceRequest",
      "id": "eaf5dd14-c35a-4bd6-9b27-c8ea526a230c",
      "meta": {
        "profile": [ "http://hl7.org/fhir/us/qicore/StructureDefinition/qicore-devicerequest" ]
      },
      "modifierExtension": [ {
        "url": "http://hl7.org/fhir/5.0/StructureDefinition/extension-DeviceRequest.doNotPerform",
        "valueBoolean": false
      } ],
      "status": "completed",
      "intent": "order",
      "codeCodeableConcept": {
        "coding": [ {
          "system": "http://snomed.info/sct",
          "code": "183240000",
          "display": "Self-propelled wheelchair (physical object)"
        } ]
      },
      "subject": {
        "reference": "Patient/1905549a-1783-4195-95b9-b0879cb81d96"
      },
      "authoredOn": "2026-11-01T23:59:00.000+00:00"
    },
    "request": {
      "method": "PUT",
      "url": "DeviceRequest/eaf5dd14-c35a-4bd6-9b27-c8ea526a230c"
    }
  }, {
    "fullUrl": "https://madie.cms.gov/MeasureReport/48b71fbe-f1ba-4c56-950a-30901e055481",
    "resource": {
      "resourceType": "MeasureReport",
      "id": "48b71fbe-f1ba-4c56-950a-30901e055481",
      "meta": {
        "profile": [ "http://hl7.org/fhir/us/cqfmeasures/StructureDefinition/test-case-cqfm" ]
      },
      "contained": [ {
        "resourceType": "Parameters",
        "id": "906862e8-4ae3-4c7b-a40e-ae84e28d595e-parameters",
        "parameter": [ {
          "name": "subject",
          "valueString": "1905549a-1783-4195-95b9-b0879cb81d96"
        } ]
      } ],
      "extension": [ {
        "url": "http://hl7.org/fhir/StructureDefinition/cqf-inputParameters",
        "valueReference": {
          "reference": "#906862e8-4ae3-4c7b-a40e-ae84e28d595e-parameters"
        }
      }, {
        "url": "http://hl7.org/fhir/us/cqfmeasures/StructureDefinition/cqfm-testCaseDescription",
        "valueMarkdown": "Dementia medication (as CodeableConcept) starts during MP"
      } ],
      "modifierExtension": [ {
        "url": "http://hl7.org/fhir/us/cqfmeasures/StructureDefinition/cqfm-isTestCase",
        "valueBoolean": true
      } ],
      "status": "complete",
      "type": "individual",
      "measure": "https://madie.cms.gov/Measure/CMS165FHIRControllingHighBP",
      "period": {
        "start": "2026-01-01",
        "end": "2026-12-31"
      },
      "group": [ {
        "id": "Group_1",
        "population": [ {
          "id": "InitialPopulation_1",
          "code": {
            "coding": [ {
              "system": "http://terminology.hl7.org/CodeSystem/measure-population",
              "code": "initial-population",
              "display": "Initial Population"
            } ]
          },
          "count": 1
        }, {
          "id": "Denominator_1",
          "code": {
            "coding": [ {
              "system": "http://terminology.hl7.org/CodeSystem/measure-population",
              "code": "denominator",
              "display": "Denominator"
            } ]
          },
          "count": 1
        }, {
          "id": "DenominatorExclusion_1",
          "code": {
            "coding": [ {
              "system": "http://terminology.hl7.org/CodeSystem/measure-population",
              "code": "denominator-exclusion",
              "display": "Denominator Exclusion"
            } ]
          },
          "count": 1
        }, {
          "id": "Numerator_1",
          "code": {
            "coding": [ {
              "system": "http://terminology.hl7.org/CodeSystem/measure-population",
              "code": "numerator",
              "display": "Numerator"
            } ]
          },
          "count": 0
        } ],
        "measureScore": {
          "value": 1.0
        }
      } ],
      "evaluatedResource": [ {
        "reference": "Patient/1905549a-1783-4195-95b9-b0879cb81d96"
      }, {
        "reference": "Encounter/4ed683c1-79e5-4819-ad1a-dd5c86563ad9"
      }, {
        "reference": "Condition/c9384d4c-06ba-4bfa-ab3c-5873685850c2"
      }, {
        "reference": "MedicationRequest/6a8c76b3-b2af-48d6-abb2-dc59689c0327"
      }, {
        "reference": "DeviceRequest/eaf5dd14-c35a-4bd6-9b27-c8ea526a230c"
      } ]
    },
    "request": {
      "method": "PUT",
      "url": "MeasureReport/48b71fbe-f1ba-4c56-950a-30901e055481"
    }
  } ]
}