{
  "resourceType": "Bundle",
  "id": "60f82c2f98086b570510e2b1",
  "type": "transaction",
  "entry": [ {
    "fullUrl": "https://madie.cms.gov/Patient/b4cd9b20-6d41-4034-907c-b24e362a0699",
    "resource": {
      "resourceType": "Patient",
      "id": "b4cd9b20-6d41-4034-907c-b24e362a0699",
      "meta": {
        "profile": [ "http://hl7.org/fhir/us/qicore/StructureDefinition/qicore-patient" ]
      },
      "text": {
        "status": "generated",
        "div": "<div xmlns=\"http://www.w3.org/1999/xhtml\"><div class=\"hapiHeaderText\">INRdurED_ED&gt;1hrNoObsBFEncDayOf <b>DENEXCEPASS </b></div><table class=\"hapiPropertyTable\"><tbody><tr><td>Identifier</td><td>97de51d393bc88ce334828a3a1df3920f5fb67d43d92265e6c726310724c3f53</td></tr><tr><td>Date of birth</td><td><span>26 September 1975</span></td></tr></tbody></table></div>"
      },
      "extension": [ {
        "url": "http://hl7.org/fhir/us/core/StructureDefinition/us-core-race",
        "extension": [ {
          "url": "ombCategory",
          "valueCoding": {
            "system": "urn:oid:2.16.840.1.113883.6.238",
            "code": "2054-5",
            "display": "Black or African American",
            "userSelected": true
          }
        }, {
          "url": "text",
          "valueString": "Black or African American"
        } ]
      }, {
        "url": "http://hl7.org/fhir/us/core/StructureDefinition/us-core-ethnicity",
        "extension": [ {
          "url": "ombCategory",
          "valueCoding": {
            "system": "urn:oid:2.16.840.1.113883.6.238",
            "code": "2186-5",
            "display": "Not Hispanic or Latino",
            "userSelected": true
          }
        }, {
          "url": "text",
          "valueString": "Not Hispanic or Latino"
        } ]
      } ],
      "identifier": [ {
        "type": {
          "coding": [ {
            "system": "http://terminology.hl7.org/CodeSystem/v2-0203",
            "code": "MR"
          } ]
        },
        "system": "https://bonnie-fhir.healthit.gov/",
        "value": "60f82c2f98086b570510e2b1"
      } ],
      "active": true,
      "name": [ {
        "use": "usual",
        "family": "DENEXCEPass",
        "given": [ "INRdurED_ED>1hrNoObsBFEncDayOf" ]
      } ],
      "gender": "female",
      "birthDate": "1976-09-26"
    },
    "request": {
      "method": "PUT",
      "url": "Patient/b4cd9b20-6d41-4034-907c-b24e362a0699"
    }
  }, {
    "fullUrl": "https://madie.cms.gov/Encounter/da5568b7-352c-4ff2-ad1b-6657b0325987",
    "resource": {
      "resourceType": "Encounter",
      "id": "da5568b7-352c-4ff2-ad1b-6657b0325987",
      "meta": {
        "profile": [ "http://hl7.org/fhir/us/qicore/StructureDefinition/qicore-encounter" ]
      },
      "status": "finished",
      "class": {
        "system": "http://terminology.hl7.org/CodeSystem/v3-ActCode",
        "code": "EMER",
        "display": "emergency",
        "userSelected": true
      },
      "type": [ {
        "coding": [ {
          "system": "http://snomed.info/sct",
          "code": "4525004"
        } ]
      } ],
      "subject": {
        "reference": "Patient/b4cd9b20-6d41-4034-907c-b24e362a0699"
      },
      "period": {
        "start": "2026-10-10T06:13:00.000+00:00",
        "end": "2026-10-10T06:30:00.000+00:00"
      },
      "length": {
        "value": 0,
        "unit": "days"
      }
    },
    "request": {
      "method": "PUT",
      "url": "Encounter/da5568b7-352c-4ff2-ad1b-6657b0325987"
    }
  }, {
    "fullUrl": "https://madie.cms.gov/Encounter/9cbf6374-a3c5-40a8-af56-dff20ba3f242",
    "resource": {
      "resourceType": "Encounter",
      "id": "9cbf6374-a3c5-40a8-af56-dff20ba3f242",
      "meta": {
        "profile": [ "http://hl7.org/fhir/us/qicore/StructureDefinition/qicore-encounter" ]
      },
      "status": "finished",
      "class": {
        "system": "http://terminology.hl7.org/CodeSystem/v3-ActCode",
        "code": "IMP",
        "display": "inpatient encounter",
        "userSelected": true
      },
      "type": [ {
        "coding": [ {
          "system": "http://snomed.info/sct",
          "code": "32485007"
        } ]
      } ],
      "subject": {
        "reference": "Patient/b4cd9b20-6d41-4034-907c-b24e362a0699"
      },
      "period": {
        "start": "2026-10-10T07:31:00.000+00:00",
        "end": "2026-10-15T11:30:00.000+00:00"
      },
      "length": {
        "value": 5,
        "unit": "days"
      },
      "reasonReference": [ {
        "reference": "Condition/6830c684-8cbc-4fe4-a4aa-961ad18cc7a0"
      } ]
    },
    "request": {
      "method": "PUT",
      "url": "Encounter/9cbf6374-a3c5-40a8-af56-dff20ba3f242"
    }
  }, {
    "fullUrl": "https://madie.cms.gov/claim/5ca62962b8484628b8de1ec5",
    "resource": {
      "resourceType": "Claim",
      "id": "5ca62962b8484628b8de1ec5",
      "meta": {
        "profile": [ "http://hl7.org/fhir/us/qicore/StructureDefinition/qicore-claim" ]
      },
      "status": "active",
      "type": {
        "coding": [ {
          "system": "http://terminology.hl7.org/CodeSystem/claim-type",
          "code": "institutional"
        } ]
      },
      "use": "claim",
      "patient": {
        "reference": "Patient/d170a0a8-b5ad-4303-b6df-e304dd5f92ad"
      },
      "created": "2026-12-01",
      "provider": {
        "reference": "Practitioner/practitioner-123456"
      },
      "priority": {
        "coding": [ {
          "system": "http://terminology.hl7.org/CodeSystem/processpriority",
          "code": "normal"
        } ]
      },
      "diagnosis": [ {
        "sequence": 1,
        "diagnosisCodeableConcept": {
          "coding": [ {
            "system": "http://hl7.org/fhir/sid/icd-10-cm",
            "code": "I63.00"
          } ]
        },
        "type": [ {
          "coding": [ {
            "system": "http://terminology.hl7.org/CodeSystem/ex-diagnosistype",
            "code": "principal"
          } ]
        } ]
      } ],
      "insurance": [ {
        "sequence": 1,
        "focal": true,
        "coverage": {
          "reference": "Coverage/5fa041661c76ba66d9959367"
        }
      } ],
      "item": [ {
        "sequence": 1,
        "diagnosisSequence": [ 1 ],
        "productOrService": {
          "coding": [ {
            "system": "http://terminology.hl7.org/CodeSystem/ex-USCLS",
            "code": "99555"
          } ]
        },
        "encounter": [ {
          "reference": "Encounter/9cbf6374-a3c5-40a8-af56-dff20ba3f242"
        } ]
      } ]
    },
    "request": {
      "method": "PUT",
      "url": "Claim/5ca62962b8484628b8de1ec5"
    }
  }, {
    "fullUrl": "https://madie.cms.gov/Observation/963c2aa7-5ba3-4ca2-a53e-f04228d21f69",
    "resource": {
      "resourceType": "Observation",
      "id": "963c2aa7-5ba3-4ca2-a53e-f04228d21f69",
      "meta": {
        "profile": [ "http://hl7.org/fhir/us/qicore/StructureDefinition/qicore-observation-lab" ]
      },
      "status": "final",
      "category": [ {
        "coding": [ {
          "system": "http://terminology.hl7.org/CodeSystem/observation-category",
          "code": "laboratory",
          "display": "Laboratory"
        } ]
      } ],
      "code": {
        "coding": [ {
          "system": "http://loinc.org",
          "code": "34714-6"
        } ]
      },
      "subject": {
        "reference": "Patient/b4cd9b20-6d41-4034-907c-b24e362a0699"
      },
      "effectivePeriod": {
        "start": "2026-10-10T06:14:00.000+00:00"
      },
      "issued": "2026-10-10T06:13:00.000+00:00",
      "valueQuantity": {
        "value": 3.6
      }
    },
    "request": {
      "method": "PUT",
      "url": "Observation/963c2aa7-5ba3-4ca2-a53e-f04228d21f69"
    }
  }, {
    "fullUrl": "https://madie.cms.gov/Coverage/d27c5f11-7b3b-4782-88f3-54fdd42ccb92",
    "resource": {
      "resourceType": "Coverage",
      "id": "d27c5f11-7b3b-4782-88f3-54fdd42ccb92",
      "status": "active",
      "subscriberId": "523435",
      "beneficiary": {
        "reference": "Patient/b4cd9b20-6d41-4034-907c-b24e362a0699"
      },
      "relationship": {
        "coding": [ {
          "system": "http://terminology.hl7.org/CodeSystem/subscriber-relationship",
          "code": "self"
        } ]
      },
      "period": {
        "start": "1976-09-26T08:00:00.000+00:00"
      },
      "payor": [ {
        "reference": "Organization/d6ac9bae-a1f4-4366-a289-ca96c17e1fe1"
      } ]
    },
    "request": {
      "method": "PUT",
      "url": "Coverage/d27c5f11-7b3b-4782-88f3-54fdd42ccb92"
    }
  }, {
    "fullUrl": "https://madie.cms.gov/Condition/6830c684-8cbc-4fe4-a4aa-961ad18cc7a0",
    "resource": {
      "resourceType": "Condition",
      "id": "6830c684-8cbc-4fe4-a4aa-961ad18cc7a0",
      "meta": {
        "profile": [ "http://hl7.org/fhir/us/qicore/StructureDefinition/qicore-condition-encounter-diagnosis" ]
      },
      "clinicalStatus": {
        "coding": [ {
          "system": "http://terminology.hl7.org/CodeSystem/condition-clinical",
          "code": "active"
        } ]
      },
      "verificationStatus": {
        "coding": [ {
          "system": "http://terminology.hl7.org/CodeSystem/condition-ver-status",
          "code": "confirmed"
        } ]
      },
      "category": [ {
        "coding": [ {
          "system": "http://terminology.hl7.org/CodeSystem/condition-category",
          "code": "encounter-diagnosis",
          "display": "Encounter Diagnosis"
        } ]
      } ],
      "code": {
        "coding": [ {
          "system": "http://snomed.info/sct",
          "version": "2020-09",
          "code": "111297002",
          "display": "Nonparalytic stroke (disorder)",
          "userSelected": true
        } ]
      },
      "subject": {
        "reference": "Patient/b4cd9b20-6d41-4034-907c-b24e362a0699"
      },
      "recordedDate": "2026-08-06T08:00:00.000+00:00"
    },
    "request": {
      "method": "PUT",
      "url": "Condition/6830c684-8cbc-4fe4-a4aa-961ad18cc7a0"
    }
  }, {
    "fullUrl": "https://madie.cms.gov/Organization/d6ac9bae-a1f4-4366-a289-ca96c17e1fe1",
    "resource": {
      "resourceType": "Organization",
      "id": "d6ac9bae-a1f4-4366-a289-ca96c17e1fe1",
      "meta": {
        "profile": [ "http://hl7.org/fhir/us/qicore/StructureDefinition/qicore-organization" ]
      },
      "identifier": [ {
        "use": "temp",
        "system": "urn:oid:2.16.840.1.113883.4.4",
        "value": "21-3259825"
      } ],
      "active": true,
      "type": [ {
        "coding": [ {
          "system": "http://terminology.hl7.org/CodeSystem/organization-type",
          "code": "pay",
          "display": "Payer"
        } ]
      } ],
      "name": "Blue Cross Blue Shield of Texas",
      "telecom": [ {
        "system": "phone",
        "value": "(+1) 972-766-6900"
      } ],
      "address": [ {
        "use": "billing",
        "type": "postal",
        "line": [ "P.O. Box 660044" ],
        "city": "Dallas",
        "state": "TX",
        "postalCode": "75266-0044",
        "country": "USA"
      } ]
    },
    "request": {
      "method": "PUT",
      "url": "Organization/d6ac9bae-a1f4-4366-a289-ca96c17e1fe1"
    }
  }, {
    "fullUrl": "https://madie.cms.gov/MeasureReport/a46d7d47-1ef7-4fd8-9d7a-a506513be473",
    "resource": {
      "resourceType": "MeasureReport",
      "id": "a46d7d47-1ef7-4fd8-9d7a-a506513be473",
      "meta": {
        "profile": [ "http://hl7.org/fhir/us/cqfmeasures/StructureDefinition/test-case-cqfm" ]
      },
      "contained": [ {
        "resourceType": "Parameters",
        "id": "f805ba66-a8a8-427e-a116-5216bfdb0262-parameters",
        "parameter": [ {
          "name": "subject",
          "valueString": "b4cd9b20-6d41-4034-907c-b24e362a0699"
        } ]
      } ],
      "extension": [ {
        "url": "http://hl7.org/fhir/StructureDefinition/cqf-inputParameters",
        "valueReference": {
          "reference": "#f805ba66-a8a8-427e-a116-5216bfdb0262-parameters"
        }
      }, {
        "url": "http://hl7.org/fhir/us/cqfmeasures/StructureDefinition/cqfm-testCaseDescription",
        "valueMarkdown": "Patient receives INR day of ED. Ed ends 61 min before IP start on the same day. No Obs. Testing Day of operator with HospitalizationWithObservation function.\n"
      } ],
      "modifierExtension": [ {
        "url": "http://hl7.org/fhir/us/cqfmeasures/StructureDefinition/cqfm-isTestCase",
        "valueBoolean": true
      } ],
      "status": "complete",
      "type": "individual",
      "measure": "https://madie.cms.gov/Measure/CMS72FHIRSTKAntithromboticDay2",
      "period": {
        "start": "2026-01-01",
        "end": "2026-12-31"
      },
      "group": [ {
        "id": "Group_1",
        "population": [ {
          "id": "InitialPopulation_1",
          "code": {
            "coding": [ {
              "system": "http://terminology.hl7.org/CodeSystem/measure-population",
              "code": "initial-population",
              "display": "Initial Population"
            } ]
          },
          "count": 1
        }, {
          "id": "Denominator_1",
          "code": {
            "coding": [ {
              "system": "http://terminology.hl7.org/CodeSystem/measure-population",
              "code": "denominator",
              "display": "Denominator"
            } ]
          },
          "count": 1
        }, {
          "id": "DenominatorExclusion_1",
          "code": {
            "coding": [ {
              "system": "http://terminology.hl7.org/CodeSystem/measure-population",
              "code": "denominator-exclusion",
              "display": "Denominator Exclusion"
            } ]
          },
          "count": 0
        }, {
          "id": "Numerator_1",
          "code": {
            "coding": [ {
              "system": "http://terminology.hl7.org/CodeSystem/measure-population",
              "code": "numerator",
              "display": "Numerator"
            } ]
          },
          "count": 0
        }, {
          "id": "DenominatorException_1",
          "code": {
            "coding": [ {
              "system": "http://terminology.hl7.org/CodeSystem/measure-population",
              "code": "denominator-exception",
              "display": "Denominator Exception"
            } ]
          },
          "count": 1
        } ],
        "measureScore": {
          "value": 0.0
        }
      } ],
      "evaluatedResource": [ {
        "reference": "Patient/b4cd9b20-6d41-4034-907c-b24e362a0699"
      }, {
        "reference": "Encounter/da5568b7-352c-4ff2-ad1b-6657b0325987"
      }, {
        "reference": "Encounter/9cbf6374-a3c5-40a8-af56-dff20ba3f242"
      }, {
        "reference": "Claim/5ca62962b8484628b8de1ec5"
      }, {
        "reference": "Observation/963c2aa7-5ba3-4ca2-a53e-f04228d21f69"
      }, {
        "reference": "Coverage/d27c5f11-7b3b-4782-88f3-54fdd42ccb92"
      }, {
        "reference": "Condition/6830c684-8cbc-4fe4-a4aa-961ad18cc7a0"
      }, {
        "reference": "Organization/d6ac9bae-a1f4-4366-a289-ca96c17e1fe1"
      } ]
    },
    "request": {
      "method": "PUT",
      "url": "MeasureReport/a46d7d47-1ef7-4fd8-9d7a-a506513be473"
    }
  } ]
}