{
  "resourceType": "Bundle",
  "id": "Patient-19-DENEXPass-HospiceDiscDurMP",
  "type": "transaction",
  "entry": [ {
    "fullUrl": "https://madie.cms.gov/Patient/b6a4b9f8-21c1-44f2-a834-72f0906b4f88",
    "resource": {
      "resourceType": "Patient",
      "id": "b6a4b9f8-21c1-44f2-a834-72f0906b4f88",
      "meta": {
        "profile": [ "http://hl7.org/fhir/us/qicore/StructureDefinition/qicore-patient" ]
      },
      "extension": [ {
        "url": "http://hl7.org/fhir/us/core/StructureDefinition/us-core-race",
        "extension": [ {
          "url": "ombCategory",
          "valueCoding": {
            "system": "urn:oid:2.16.840.1.113883.6.238",
            "code": "2028-9",
            "display": "Asian"
          }
        }, {
          "url": "text",
          "valueString": "Asian"
        } ]
      }, {
        "url": "http://hl7.org/fhir/us/core/StructureDefinition/us-core-ethnicity",
        "extension": [ {
          "url": "ombCategory",
          "valueCoding": {
            "system": "urn:oid:2.16.840.1.113883.6.238",
            "code": "2135-2",
            "display": "Hispanic or Latino"
          }
        }, {
          "url": "text",
          "valueString": "Hispanic or Latino"
        } ]
      } ],
      "identifier": [ {
        "system": "http://hospital.smarthealthit.org",
        "value": "999999995"
      } ],
      "name": [ {
        "family": "Bertha",
        "given": [ "Betty" ]
      } ],
      "gender": "female",
      "birthDate": "2007-01-01"
    },
    "request": {
      "method": "PUT",
      "url": "Patient/b6a4b9f8-21c1-44f2-a834-72f0906b4f88"
    }
  }, {
    "fullUrl": "https://madie.cms.gov/Encounter/dd8f2d74-0e8f-4dd6-840c-cf4b99a15a37",
    "resource": {
      "resourceType": "Encounter",
      "id": "dd8f2d74-0e8f-4dd6-840c-cf4b99a15a37",
      "meta": {
        "profile": [ "http://hl7.org/fhir/us/qicore/StructureDefinition/qicore-encounter" ]
      },
      "status": "finished",
      "class": {
        "system": "http://terminology.hl7.org/CodeSystem/v3-ActCode",
        "code": "AMB",
        "display": "ambulatory"
      },
      "type": [ {
        "coding": [ {
          "system": "http://snomed.info/sct",
          "code": "185460008",
          "display": "Home visit request by patient (procedure)"
        } ]
      } ],
      "subject": {
        "reference": "Patient/b6a4b9f8-21c1-44f2-a834-72f0906b4f88"
      },
      "period": {
        "start": "2026-01-01T00:00:00.000+00:00",
        "end": "2026-01-01T00:15:00.000+00:00"
      }
    },
    "request": {
      "method": "PUT",
      "url": "Encounter/dd8f2d74-0e8f-4dd6-840c-cf4b99a15a37"
    }
  }, {
    "fullUrl": "https://madie.cms.gov/Condition/d0c7518c-47e0-4020-b7e2-b01345a1a8e6",
    "resource": {
      "resourceType": "Condition",
      "id": "d0c7518c-47e0-4020-b7e2-b01345a1a8e6",
      "meta": {
        "profile": [ "http://hl7.org/fhir/us/qicore/StructureDefinition/qicore-condition-encounter-diagnosis" ]
      },
      "clinicalStatus": {
        "coding": [ {
          "system": "http://terminology.hl7.org/CodeSystem/condition-clinical",
          "code": "active"
        } ]
      },
      "category": [ {
        "coding": [ {
          "system": "http://terminology.hl7.org/CodeSystem/condition-category",
          "code": "encounter-diagnosis",
          "display": "Encounter Diagnosis"
        } ]
      } ],
      "code": {
        "coding": [ {
          "system": "http://snomed.info/sct",
          "code": "102781000119107",
          "display": "Sensory neuropathy due to type 1 diabetes mellitus (disorder)"
        } ]
      },
      "subject": {
        "reference": "Patient/b6a4b9f8-21c1-44f2-a834-72f0906b4f88"
      },
      "onsetDateTime": "2026-01-01T23:59:00.000+00:00"
    },
    "request": {
      "method": "PUT",
      "url": "Condition/d0c7518c-47e0-4020-b7e2-b01345a1a8e6"
    }
  }, {
    "fullUrl": "https://madie.cms.gov/Encounter/ee21585f-68eb-49b4-a29e-cd993db24dbe",
    "resource": {
      "resourceType": "Encounter",
      "id": "ee21585f-68eb-49b4-a29e-cd993db24dbe",
      "meta": {
        "profile": [ "http://hl7.org/fhir/us/qicore/StructureDefinition/qicore-encounter" ]
      },
      "status": "finished",
      "class": {
        "system": "http://terminology.hl7.org/CodeSystem/v3-ActCode",
        "code": "AMB",
        "display": "ambulatory"
      },
      "type": [ {
        "coding": [ {
          "system": "http://snomed.info/sct",
          "code": "32485007",
          "display": "Hospital admission (procedure)"
        } ]
      } ],
      "subject": {
        "reference": "Patient/b6a4b9f8-21c1-44f2-a834-72f0906b4f88"
      },
      "period": {
        "start": "2025-12-31T23:59:59.000+00:00",
        "end": "2026-01-01T01:00:00.000+00:00"
      },
      "hospitalization": {
        "dischargeDisposition": {
          "coding": [ {
            "system": "http://snomed.info/sct",
            "code": "428371000124100",
            "display": "Discharge to healthcare facility for hospice care (procedure)"
          } ]
        }
      }
    },
    "request": {
      "method": "PUT",
      "url": "Encounter/ee21585f-68eb-49b4-a29e-cd993db24dbe"
    }
  }, {
    "fullUrl": "https://madie.cms.gov/MeasureReport/1f69f5d9-c1c0-48fd-80a9-843a206bab83",
    "resource": {
      "resourceType": "MeasureReport",
      "id": "1f69f5d9-c1c0-48fd-80a9-843a206bab83",
      "meta": {
        "profile": [ "http://hl7.org/fhir/us/cqfmeasures/StructureDefinition/test-case-cqfm" ]
      },
      "contained": [ {
        "resourceType": "Parameters",
        "id": "377f270a-9d93-4286-a2f8-a9c53f6bb9af-parameters",
        "parameter": [ {
          "name": "subject",
          "valueString": "b6a4b9f8-21c1-44f2-a834-72f0906b4f88"
        } ]
      } ],
      "extension": [ {
        "url": "http://hl7.org/fhir/StructureDefinition/cqf-inputParameters",
        "valueReference": {
          "reference": "#377f270a-9d93-4286-a2f8-a9c53f6bb9af-parameters"
        }
      }, {
        "url": "http://hl7.org/fhir/us/cqfmeasures/StructureDefinition/cqfm-testCaseDescription",
        "valueMarkdown": "Hospice discharge during the MP"
      } ],
      "modifierExtension": [ {
        "url": "http://hl7.org/fhir/us/cqfmeasures/StructureDefinition/cqfm-isTestCase",
        "valueBoolean": true
      } ],
      "status": "complete",
      "type": "individual",
      "measure": "https://madie.cms.gov/Measure/CMS122FHIRDiabetesAssessGT9Pct",
      "period": {
        "start": "2026-01-01",
        "end": "2026-12-31"
      },
      "group": [ {
        "id": "Group_1",
        "population": [ {
          "id": "InitialPopulation_1",
          "code": {
            "coding": [ {
              "system": "http://terminology.hl7.org/CodeSystem/measure-population",
              "code": "initial-population",
              "display": "Initial Population"
            } ]
          },
          "count": 1
        }, {
          "id": "Denominator_1",
          "code": {
            "coding": [ {
              "system": "http://terminology.hl7.org/CodeSystem/measure-population",
              "code": "denominator",
              "display": "Denominator"
            } ]
          },
          "count": 1
        }, {
          "id": "DenominatorExclusion_1",
          "code": {
            "coding": [ {
              "system": "http://terminology.hl7.org/CodeSystem/measure-population",
              "code": "denominator-exclusion",
              "display": "Denominator Exclusion"
            } ]
          },
          "count": 1
        }, {
          "id": "Numerator_1",
          "code": {
            "coding": [ {
              "system": "http://terminology.hl7.org/CodeSystem/measure-population",
              "code": "numerator",
              "display": "Numerator"
            } ]
          },
          "count": 0
        } ],
        "measureScore": {
          "value": 1.0
        }
      } ],
      "evaluatedResource": [ {
        "reference": "Patient/b6a4b9f8-21c1-44f2-a834-72f0906b4f88"
      }, {
        "reference": "Encounter/dd8f2d74-0e8f-4dd6-840c-cf4b99a15a37"
      }, {
        "reference": "Condition/d0c7518c-47e0-4020-b7e2-b01345a1a8e6"
      }, {
        "reference": "Encounter/ee21585f-68eb-49b4-a29e-cd993db24dbe"
      } ]
    },
    "request": {
      "method": "PUT",
      "url": "MeasureReport/1f69f5d9-c1c0-48fd-80a9-843a206bab83"
    }
  } ]
}