{
  "resourceType": "Bundle",
  "id": "612e6b6a02c62a011f2eda61",
  "type": "transaction",
  "entry": [ {
    "fullUrl": "https://madie.cms.gov/Patient/0dae06f1-1e15-4905-ae46-86ea310c2f1f",
    "resource": {
      "resourceType": "Patient",
      "id": "0dae06f1-1e15-4905-ae46-86ea310c2f1f",
      "meta": {
        "profile": [ "http://hl7.org/fhir/us/qicore/StructureDefinition/qicore-patient" ]
      },
      "text": {
        "status": "generated",
        "div": "<div xmlns=\"http://www.w3.org/1999/xhtml\"><div class=\"hapiHeaderText\">EncEndsOnLastMinOfMP <b>IPPPASS </b></div><table class=\"hapiPropertyTable\"><tbody><tr><td>Identifier</td><td>2d02a76d3c6414633bcaff3b3573dd91</td></tr><tr><td>Date of birth</td><td><span>01 January 2003</span></td></tr></tbody></table></div>"
      },
      "extension": [ {
        "url": " http://hl7.org/fhir/us/core/StructureDefinition/us-core-sex",
        "valueCode": "248153007"
      } ],
      "identifier": [ {
        "type": {
          "coding": [ {
            "system": "http://terminology.hl7.org/CodeSystem/v2-0203",
            "code": "MR"
          } ]
        },
        "system": "https://bonnie-fhir.healthit.gov/",
        "value": "612e6b6a02c62a011f2eda61"
      } ],
      "active": true,
      "name": [ {
        "use": "usual",
        "family": "IPPPass",
        "given": [ "EncEndsOnLastMinOfMP" ]
      } ],
      "gender": "male",
      "birthDate": "2004-01-01"
    },
    "request": {
      "method": "PUT",
      "url": "Patient/0dae06f1-1e15-4905-ae46-86ea310c2f1f"
    }
  }, {
    "fullUrl": "https://madie.cms.gov/Encounter/ea3b3e52-ab75-4954-bcca-b78efe863df9",
    "resource": {
      "resourceType": "Encounter",
      "id": "ea3b3e52-ab75-4954-bcca-b78efe863df9",
      "meta": {
        "profile": [ "http://hl7.org/fhir/us/qicore/StructureDefinition/qicore-encounter" ]
      },
      "status": "finished",
      "class": {
        "system": "http://terminology.hl7.org/CodeSystem/v3-ActCode",
        "code": "IMP",
        "display": "inpatient encounter"
      },
      "type": [ {
        "coding": [ {
          "system": "http://snomed.info/sct",
          "code": "8715000"
        } ]
      } ],
      "subject": {
        "reference": "Patient/0dae06f1-1e15-4905-ae46-86ea310c2f1f"
      },
      "period": {
        "start": "2026-12-01T00:00:00.000+00:00",
        "end": "2026-12-31T23:59:00.000+00:00"
      },
      "length": {
        "value": 30,
        "unit": "days"
      }
    },
    "request": {
      "method": "PUT",
      "url": "Encounter/ea3b3e52-ab75-4954-bcca-b78efe863df9"
    }
  }, {
    "fullUrl": "https://madie.cms.gov/Coverage/5e279c0d-cdee-4a1c-a2c6-653eb3f14572",
    "resource": {
      "resourceType": "Coverage",
      "id": "5e279c0d-cdee-4a1c-a2c6-653eb3f14572",
      "meta": {
        "profile": [ "http://hl7.org/fhir/us/qicore/StructureDefinition/qicore-coverage" ]
      },
      "status": "active",
      "beneficiary": {
        "reference": "Patient/0dae06f1-1e15-4905-ae46-86ea310c2f1f"
      },
      "relationship": {
        "coding": [ {
          "system": "http://terminology.hl7.org/CodeSystem/subscriber-relationship",
          "code": "self"
        } ]
      },
      "period": {
        "start": "2004-01-01T08:00:00.000+00:00"
      },
      "payor": [ {
        "reference": "Organization/c46ac733-9598-4e61-b35a-50177c859108"
      } ]
    },
    "request": {
      "method": "PUT",
      "url": "Coverage/5e279c0d-cdee-4a1c-a2c6-653eb3f14572"
    }
  }, {
    "fullUrl": "https://madie.cms.gov/Organization/c46ac733-9598-4e61-b35a-50177c859108",
    "resource": {
      "resourceType": "Organization",
      "id": "c46ac733-9598-4e61-b35a-50177c859108",
      "meta": {
        "profile": [ "http://hl7.org/fhir/us/qicore/StructureDefinition/qicore-organization" ]
      },
      "identifier": [ {
        "use": "temp",
        "system": "urn:oid:2.16.840.1.113883.4.4",
        "value": "21-3259825"
      } ],
      "active": true,
      "type": [ {
        "coding": [ {
          "system": "http://terminology.hl7.org/CodeSystem/organization-type",
          "code": "pay",
          "display": "Payer"
        } ]
      } ],
      "name": "Blue Cross Blue Shield of Texas",
      "telecom": [ {
        "system": "phone",
        "value": "(+1) 972-766-6900"
      } ],
      "address": [ {
        "use": "billing",
        "type": "postal",
        "line": [ "P.O. Box 660044" ],
        "city": "Dallas",
        "state": "TX",
        "postalCode": "75266-0044",
        "country": "USA"
      } ]
    },
    "request": {
      "method": "PUT",
      "url": "Organization/c46ac733-9598-4e61-b35a-50177c859108"
    }
  }, {
    "fullUrl": "https://madie.cms.gov/Practitioner/3d21c591-9bf3-4930-86e7-50a3ba5cdee0",
    "resource": {
      "resourceType": "Practitioner",
      "id": "3d21c591-9bf3-4930-86e7-50a3ba5cdee0",
      "identifier": [ {
        "system": "http://hl7.org/fhir/sid/us-npi",
        "value": "123456"
      } ],
      "name": [ {
        "family": "Evil",
        "prefix": [ "Dr" ]
      } ]
    },
    "request": {
      "method": "PUT",
      "url": "Practitioner/3d21c591-9bf3-4930-86e7-50a3ba5cdee0"
    }
  }, {
    "fullUrl": "https://madie.cms.gov/MeasureReport/7d417d85-532a-4548-bdfb-20921830226b",
    "resource": {
      "resourceType": "MeasureReport",
      "id": "7d417d85-532a-4548-bdfb-20921830226b",
      "meta": {
        "profile": [ "http://hl7.org/fhir/us/cqfmeasures/StructureDefinition/test-case-cqfm" ]
      },
      "contained": [ {
        "resourceType": "Parameters",
        "id": "59406414-fa87-4d35-bb7e-5d62b7eac832-parameters",
        "parameter": [ {
          "name": "subject",
          "valueString": "0dae06f1-1e15-4905-ae46-86ea310c2f1f"
        } ]
      } ],
      "extension": [ {
        "url": "http://hl7.org/fhir/StructureDefinition/cqf-inputParameters",
        "valueReference": {
          "reference": "#59406414-fa87-4d35-bb7e-5d62b7eac832-parameters"
        }
      }, {
        "url": "http://hl7.org/fhir/us/cqfmeasures/StructureDefinition/cqfm-testCaseDescription",
        "valueMarkdown": "Patient is 18 years old with LOS < 120 days ending during MP\n"
      } ],
      "modifierExtension": [ {
        "url": "http://hl7.org/fhir/us/cqfmeasures/StructureDefinition/cqfm-isTestCase",
        "valueBoolean": true
      } ],
      "status": "complete",
      "type": "individual",
      "measure": "https://madie.cms.gov/Measure/CMS108FHIRVTEProphylaxis",
      "period": {
        "start": "2026-01-01",
        "end": "2026-12-31"
      },
      "group": [ {
        "id": "Group_1",
        "population": [ {
          "id": "InitialPopulation_1",
          "code": {
            "coding": [ {
              "system": "http://terminology.hl7.org/CodeSystem/measure-population",
              "code": "initial-population",
              "display": "Initial Population"
            } ]
          },
          "count": 1
        }, {
          "id": "Denominator_1",
          "code": {
            "coding": [ {
              "system": "http://terminology.hl7.org/CodeSystem/measure-population",
              "code": "denominator",
              "display": "Denominator"
            } ]
          },
          "count": 1
        }, {
          "id": "DenominatorExclusion_1",
          "code": {
            "coding": [ {
              "system": "http://terminology.hl7.org/CodeSystem/measure-population",
              "code": "denominator-exclusion",
              "display": "Denominator Exclusion"
            } ]
          },
          "count": 0
        }, {
          "id": "Numerator_1",
          "code": {
            "coding": [ {
              "system": "http://terminology.hl7.org/CodeSystem/measure-population",
              "code": "numerator",
              "display": "Numerator"
            } ]
          },
          "count": 0
        } ],
        "measureScore": {
          "value": 0.0
        }
      } ],
      "evaluatedResource": [ {
        "reference": "Patient/0dae06f1-1e15-4905-ae46-86ea310c2f1f"
      }, {
        "reference": "Encounter/ea3b3e52-ab75-4954-bcca-b78efe863df9"
      }, {
        "reference": "Coverage/5e279c0d-cdee-4a1c-a2c6-653eb3f14572"
      }, {
        "reference": "Organization/c46ac733-9598-4e61-b35a-50177c859108"
      }, {
        "reference": "Practitioner/3d21c591-9bf3-4930-86e7-50a3ba5cdee0"
      } ]
    },
    "request": {
      "method": "PUT",
      "url": "MeasureReport/7d417d85-532a-4548-bdfb-20921830226b"
    }
  } ]
}