{
  "resourceType": "Bundle",
  "id": "63530b4c224f3b053967124f",
  "type": "transaction",
  "entry": [ {
    "fullUrl": "https://madie.cms.gov/Patient/76aeb357-2421-49ed-af1b-6a8b772b676c",
    "resource": {
      "resourceType": "Patient",
      "id": "76aeb357-2421-49ed-af1b-6a8b772b676c",
      "meta": {
        "profile": [ "http://hl7.org/fhir/us/qicore/StructureDefinition/qicore-patient" ]
      },
      "extension": [ {
        "url": "http://hl7.org/fhir/us/core/StructureDefinition/us-core-race",
        "extension": [ {
          "url": "ombCategory",
          "valueCoding": {
            "system": "urn:oid:2.16.840.1.113883.6.238",
            "code": "1002-5",
            "display": "American Indian or Alaska Native",
            "userSelected": true
          }
        }, {
          "url": "text",
          "valueString": "American Indian or Alaska Native"
        } ]
      }, {
        "url": "http://hl7.org/fhir/us/core/StructureDefinition/us-core-ethnicity",
        "extension": [ {
          "url": "ombCategory",
          "valueCoding": {
            "system": "urn:oid:2.16.840.1.113883.6.238",
            "code": "2135-2",
            "display": "Hispanic or Latino",
            "userSelected": true
          }
        }, {
          "url": "text",
          "valueString": "Hispanic or Latino"
        } ]
      } ],
      "identifier": [ {
        "type": {
          "coding": [ {
            "system": "http://terminology.hl7.org/CodeSystem/v2-0203",
            "code": "MR"
          } ]
        },
        "system": "https://bonnie-fhir.healthit.gov/",
        "value": "63530b4c224f3b053967124f"
      } ],
      "name": [ {
        "family": "DENOMPass",
        "given": [ "LastAssPrfEDDRelvTm42WksB4DELRsltDtTime" ]
      } ],
      "gender": "female",
      "birthDate": "2001-02-01"
    },
    "request": {
      "method": "PUT",
      "url": "Patient/76aeb357-2421-49ed-af1b-6a8b772b676c"
    }
  }, {
    "fullUrl": "https://madie.cms.gov/Encounter/b4dfa7b5-d014-4aa4-900b-f7b9f55c71fd",
    "resource": {
      "resourceType": "Encounter",
      "id": "b4dfa7b5-d014-4aa4-900b-f7b9f55c71fd",
      "meta": {
        "profile": [ "http://hl7.org/fhir/us/qicore/StructureDefinition/qicore-encounter" ]
      },
      "status": "finished",
      "class": {
        "system": "http://terminology.hl7.org/CodeSystem/v3-ActCode",
        "code": "IMP",
        "display": "inpatient encounter"
      },
      "type": [ {
        "coding": [ {
          "system": "http://snomed.info/sct",
          "version": "2022-09",
          "code": "183452005",
          "display": "Emergency hospital admission (procedure)",
          "userSelected": true
        } ]
      } ],
      "subject": {
        "reference": "Patient/76aeb357-2421-49ed-af1b-6a8b772b676c"
      },
      "period": {
        "start": "2026-01-30T08:00:00.000+00:00",
        "end": "2026-02-05T08:15:00.000+00:00"
      }
    },
    "request": {
      "method": "PUT",
      "url": "Encounter/b4dfa7b5-d014-4aa4-900b-f7b9f55c71fd"
    }
  }, {
    "fullUrl": "https://madie.cms.gov/Procedure/f526e46d-9cea-46fb-ba85-b22545960440",
    "resource": {
      "resourceType": "Procedure",
      "id": "f526e46d-9cea-46fb-ba85-b22545960440",
      "meta": {
        "profile": [ "http://hl7.org/fhir/us/qicore/StructureDefinition/qicore-procedure" ]
      },
      "extension": [ {
        "url": "http://hl7.org/fhir/us/qicore/StructureDefinition/qicore-recorded",
        "valueDateTime": "2014-04-05T13:35:00.000+00:00"
      } ],
      "status": "completed",
      "code": {
        "coding": [ {
          "system": "http://snomed.info/sct",
          "version": "2022-09",
          "code": "10745001",
          "display": "Delivery of transverse presentation (procedure)",
          "userSelected": true
        } ]
      },
      "subject": {
        "reference": "Patient/76aeb357-2421-49ed-af1b-6a8b772b676c"
      },
      "performedPeriod": {
        "start": "2026-02-01T08:00:00.000+00:00",
        "end": "2026-02-05T08:15:00.000+00:00"
      }
    },
    "request": {
      "method": "PUT",
      "url": "Procedure/f526e46d-9cea-46fb-ba85-b22545960440"
    }
  }, {
    "fullUrl": "https://madie.cms.gov/Observation/bf07a552-641a-40fb-a839-f8f817bb4512",
    "resource": {
      "resourceType": "Observation",
      "id": "bf07a552-641a-40fb-a839-f8f817bb4512",
      "meta": {
        "profile": [ "http://hl7.org/fhir/us/qicore/StructureDefinition/qicore-simple-observation" ]
      },
      "status": "final",
      "category": [ {
        "coding": [ {
          "system": "http://terminology.hl7.org/CodeSystem/observation-category",
          "code": "exam",
          "display": "exam",
          "userSelected": true
        } ]
      } ],
      "code": {
        "coding": [ {
          "system": "http://loinc.org",
          "code": "93857-1",
          "display": "Date and time of obstetric delivery",
          "userSelected": true
        } ]
      },
      "subject": {
        "reference": "Patient/76aeb357-2421-49ed-af1b-6a8b772b676c"
      },
      "effectiveDateTime": "2026-02-01T08:00:00.000+00:00",
      "performer": [ {
        "reference": "Organization/example1",
        "display": "Hendricks Country Hospital"
      } ],
      "valueDateTime": "2026-02-01T08:00:00.000+00:00"
    },
    "request": {
      "method": "PUT",
      "url": "Observation/bf07a552-641a-40fb-a839-f8f817bb4512"
    }
  }, {
    "fullUrl": "https://madie.cms.gov/Observation/eada0ed9-366c-449e-94f1-de9c162366c7",
    "resource": {
      "resourceType": "Observation",
      "id": "eada0ed9-366c-449e-94f1-de9c162366c7",
      "meta": {
        "profile": [ "http://hl7.org/fhir/us/qicore/StructureDefinition/qicore-simple-observation" ]
      },
      "status": "final",
      "category": [ {
        "coding": [ {
          "system": "http://terminology.hl7.org/CodeSystem/observation-category",
          "code": "exam",
          "display": "exam",
          "userSelected": true
        } ]
      } ],
      "code": {
        "coding": [ {
          "system": "http://loinc.org",
          "code": "11778-8",
          "display": "Delivery date Estimated",
          "userSelected": true
        } ]
      },
      "subject": {
        "reference": "Patient/76aeb357-2421-49ed-af1b-6a8b772b676c"
      },
      "effectiveDateTime": "2025-04-13T08:00:00.000+00:00",
      "performer": [ {
        "reference": "Organization/example1",
        "display": "Hendricks Country Hospital"
      } ],
      "valueDateTime": "2026-02-01T08:00:00.000+00:00"
    },
    "request": {
      "method": "PUT",
      "url": "Observation/eada0ed9-366c-449e-94f1-de9c162366c7"
    }
  }, {
    "fullUrl": "https://madie.cms.gov/Coverage/b2a33f72-f4eb-4311-93ae-2fffa0506f72",
    "resource": {
      "resourceType": "Coverage",
      "id": "b2a33f72-f4eb-4311-93ae-2fffa0506f72",
      "meta": {
        "profile": [ "http://hl7.org/fhir/us/qicore/StructureDefinition/qicore-coverage" ]
      },
      "status": "active",
      "subscriberId": "523435",
      "beneficiary": {
        "reference": "Patient/76aeb357-2421-49ed-af1b-6a8b772b676c"
      },
      "relationship": {
        "coding": [ {
          "system": "http://terminology.hl7.org/CodeSystem/subscriber-relationship",
          "code": "self"
        } ]
      },
      "payor": [ {
        "reference": "Organization/103148ec-deb0-4fef-9cb8-115c43972b2f"
      } ]
    },
    "request": {
      "method": "PUT",
      "url": "Coverage/b2a33f72-f4eb-4311-93ae-2fffa0506f72"
    }
  }, {
    "fullUrl": "https://madie.cms.gov/Organization/103148ec-deb0-4fef-9cb8-115c43972b2f",
    "resource": {
      "resourceType": "Organization",
      "id": "103148ec-deb0-4fef-9cb8-115c43972b2f",
      "meta": {
        "profile": [ "http://hl7.org/fhir/us/qicore/StructureDefinition/qicore-organization" ]
      },
      "identifier": [ {
        "use": "temp",
        "system": "urn:oid:2.16.840.1.113883.4.4",
        "value": "21-3259825"
      } ],
      "active": true,
      "type": [ {
        "coding": [ {
          "system": "http://terminology.hl7.org/CodeSystem/organization-type",
          "code": "pay",
          "display": "Payer"
        } ]
      } ],
      "name": "Blue Cross Blue Shield of Texas",
      "telecom": [ {
        "system": "phone",
        "value": "(+1) 972-766-6900"
      } ],
      "address": [ {
        "use": "billing",
        "type": "postal",
        "line": [ "P.O. Box 660044" ],
        "city": "Dallas",
        "state": "TX",
        "postalCode": "75266-0044",
        "country": "USA"
      } ]
    },
    "request": {
      "method": "PUT",
      "url": "Organization/103148ec-deb0-4fef-9cb8-115c43972b2f"
    }
  }, {
    "fullUrl": "https://madie.cms.gov/Practitioner/85ec3aa1-3818-4d6e-bc9e-b33a0116b6a2",
    "resource": {
      "resourceType": "Practitioner",
      "id": "85ec3aa1-3818-4d6e-bc9e-b33a0116b6a2",
      "meta": {
        "profile": [ "http://hl7.org/fhir/us/qicore/StructureDefinition/qicore-practitioner" ]
      },
      "identifier": [ {
        "system": "http://hl7.org/fhir/sid/us-npi",
        "value": "1234567890"
      } ],
      "name": [ {
        "family": "Evil",
        "prefix": [ "Dr" ]
      } ]
    },
    "request": {
      "method": "PUT",
      "url": "Practitioner/85ec3aa1-3818-4d6e-bc9e-b33a0116b6a2"
    }
  }, {
    "fullUrl": "https://madie.cms.gov/MeasureReport/9db71505-922a-4347-91fc-cfefee43c29e",
    "resource": {
      "resourceType": "MeasureReport",
      "id": "9db71505-922a-4347-91fc-cfefee43c29e",
      "meta": {
        "profile": [ "http://hl7.org/fhir/us/cqfmeasures/StructureDefinition/test-case-cqfm" ]
      },
      "contained": [ {
        "resourceType": "Parameters",
        "id": "9ed16528-3325-44f9-b28b-bca87723feb0-parameters",
        "parameter": [ {
          "name": "subject",
          "valueString": "76aeb357-2421-49ed-af1b-6a8b772b676c"
        } ]
      } ],
      "extension": [ {
        "url": "http://hl7.org/fhir/StructureDefinition/cqf-inputParameters",
        "valueReference": {
          "reference": "#9ed16528-3325-44f9-b28b-bca87723feb0-parameters"
        }
      }, {
        "url": "http://hl7.org/fhir/us/cqfmeasures/StructureDefinition/cqfm-testCaseDescription",
        "valueMarkdown": "Last assessment Performed, Estimated Delivery Date, Relevant time, 42 weeks before Delivery Result Date/Time\n"
      } ],
      "modifierExtension": [ {
        "url": "http://hl7.org/fhir/us/cqfmeasures/StructureDefinition/cqfm-isTestCase",
        "valueBoolean": true
      } ],
      "status": "complete",
      "type": "individual",
      "measure": "https://madie.cms.gov/Measure/CMS1028FHIRPCSevereOBComps",
      "period": {
        "start": "2026-01-01",
        "end": "2026-12-31"
      },
      "group": [ {
        "id": "Group_1",
        "population": [ {
          "id": "InitialPopulation_1",
          "code": {
            "coding": [ {
              "system": "http://terminology.hl7.org/CodeSystem/measure-population",
              "code": "initial-population",
              "display": "Initial Population"
            } ]
          },
          "count": 1
        }, {
          "id": "Denominator_1",
          "code": {
            "coding": [ {
              "system": "http://terminology.hl7.org/CodeSystem/measure-population",
              "code": "denominator",
              "display": "Denominator"
            } ]
          },
          "count": 1
        }, {
          "id": "Numerator_1",
          "code": {
            "coding": [ {
              "system": "http://terminology.hl7.org/CodeSystem/measure-population",
              "code": "numerator",
              "display": "Numerator"
            } ]
          },
          "count": 0
        }, {
          "id": "NumeratorExclusion_1",
          "code": {
            "coding": [ {
              "system": "http://terminology.hl7.org/CodeSystem/measure-population",
              "code": "numerator-exclusion",
              "display": "Numerator Exclusion"
            } ]
          },
          "count": 0
        } ],
        "measureScore": {
          "value": 0.0
        }
      }, {
        "id": "Group_2",
        "population": [ {
          "id": "InitialPopulation_2",
          "code": {
            "coding": [ {
              "system": "http://terminology.hl7.org/CodeSystem/measure-population",
              "code": "initial-population",
              "display": "Initial Population"
            } ]
          },
          "count": 1
        }, {
          "id": "Denominator_2",
          "code": {
            "coding": [ {
              "system": "http://terminology.hl7.org/CodeSystem/measure-population",
              "code": "denominator",
              "display": "Denominator"
            } ]
          },
          "count": 1
        }, {
          "id": "Numerator_2",
          "code": {
            "coding": [ {
              "system": "http://terminology.hl7.org/CodeSystem/measure-population",
              "code": "numerator",
              "display": "Numerator"
            } ]
          },
          "count": 0
        }, {
          "id": "NumeratorExclusion_2",
          "code": {
            "coding": [ {
              "system": "http://terminology.hl7.org/CodeSystem/measure-population",
              "code": "numerator-exclusion",
              "display": "Numerator Exclusion"
            } ]
          },
          "count": 0
        } ],
        "measureScore": {
          "value": 0.0
        }
      } ],
      "evaluatedResource": [ {
        "reference": "Patient/76aeb357-2421-49ed-af1b-6a8b772b676c"
      }, {
        "reference": "Encounter/b4dfa7b5-d014-4aa4-900b-f7b9f55c71fd"
      }, {
        "reference": "Procedure/f526e46d-9cea-46fb-ba85-b22545960440"
      }, {
        "reference": "Observation/bf07a552-641a-40fb-a839-f8f817bb4512"
      }, {
        "reference": "Observation/eada0ed9-366c-449e-94f1-de9c162366c7"
      }, {
        "reference": "Coverage/b2a33f72-f4eb-4311-93ae-2fffa0506f72"
      }, {
        "reference": "Organization/103148ec-deb0-4fef-9cb8-115c43972b2f"
      }, {
        "reference": "Practitioner/85ec3aa1-3818-4d6e-bc9e-b33a0116b6a2"
      } ]
    },
    "request": {
      "method": "PUT",
      "url": "MeasureReport/9db71505-922a-4347-91fc-cfefee43c29e"
    }
  } ]
}