{
  "resourceType": "Bundle",
  "id": "63487c300968f801225401b9",
  "type": "transaction",
  "entry": [ {
    "fullUrl": "https://madie.cms.gov/Patient/3c38598f-548f-483a-b387-376142846a96",
    "resource": {
      "resourceType": "Patient",
      "id": "3c38598f-548f-483a-b387-376142846a96",
      "meta": {
        "profile": [ "http://hl7.org/fhir/us/qicore/StructureDefinition/qicore-patient" ]
      },
      "text": {
        "status": "generated",
        "div": "<div xmlns=\"http://www.w3.org/1999/xhtml\"><div class=\"hapiHeaderText\">AssessNoGPPretermTerm <b>DENOMFail</b></div><table class=\"hapiPropertyTable\"><tbody><tr><td>Identifier</td><td>b00b06f67015bda652373741cca10f65466d828e3a674df9528f73ec417ce0bb</td></tr><tr><td>Date of birth</td><td><span>14 February 1985</span></td></tr></tbody></table></div>"
      },
      "extension": [ {
        "url": "http://hl7.org/fhir/us/core/StructureDefinition/us-core-race",
        "extension": [ {
          "url": "ombCategory",
          "valueCoding": {
            "system": "urn:oid:2.16.840.1.113883.6.238",
            "code": "1002-5",
            "display": "American Indian or Alaska Native",
            "userSelected": true
          }
        }, {
          "url": "text",
          "valueString": "American Indian or Alaska Native"
        } ]
      }, {
        "url": "http://hl7.org/fhir/us/core/StructureDefinition/us-core-ethnicity",
        "extension": [ {
          "url": "ombCategory",
          "valueCoding": {
            "system": "urn:oid:2.16.840.1.113883.6.238",
            "code": "2135-2",
            "display": "Hispanic or Latino",
            "userSelected": true
          }
        }, {
          "url": "text",
          "valueString": "Hispanic or Latino"
        } ]
      } ],
      "identifier": [ {
        "type": {
          "coding": [ {
            "system": "http://terminology.hl7.org/CodeSystem/v2-0203",
            "code": "MR"
          } ]
        },
        "system": "https://bonnie-fhir.healthit.gov/",
        "value": "63487c300968f801225401b9"
      } ],
      "active": true,
      "name": [ {
        "use": "usual",
        "family": "DENOMFail",
        "given": [ "AssessNoGPPretermTerm" ]
      } ],
      "gender": "female",
      "birthDate": "1998-02-14"
    },
    "request": {
      "method": "PUT",
      "url": "Patient/3c38598f-548f-483a-b387-376142846a96"
    }
  }, {
    "fullUrl": "https://madie.cms.gov/Observation/a3c5de60-20cb-4a92-8088-9a0c595b8a3d",
    "resource": {
      "resourceType": "Observation",
      "id": "a3c5de60-20cb-4a92-8088-9a0c595b8a3d",
      "meta": {
        "profile": [ "http://hl7.org/fhir/us/qicore/StructureDefinition/qicore-simple-observation" ]
      },
      "status": "final",
      "category": [ {
        "coding": [ {
          "system": "http://terminology.hl7.org/CodeSystem/observation-category",
          "code": "exam",
          "display": "exam",
          "userSelected": true
        } ]
      } ],
      "code": {
        "coding": [ {
          "system": "http://loinc.org",
          "code": "11884-4"
        } ]
      },
      "subject": {
        "reference": "Patient/3c38598f-548f-483a-b387-376142846a96"
      },
      "effectiveDateTime": "2026-06-08T09:15:00.000+00:00",
      "valueQuantity": {
        "value": 38,
        "system": "http://unitsofmeasure.org",
        "code": "wk"
      }
    },
    "request": {
      "method": "PUT",
      "url": "Observation/a3c5de60-20cb-4a92-8088-9a0c595b8a3d"
    }
  }, {
    "fullUrl": "https://madie.cms.gov/Observation/ed7fd293-2c9f-407f-b048-cc256390c996",
    "resource": {
      "resourceType": "Observation",
      "id": "ed7fd293-2c9f-407f-b048-cc256390c996",
      "meta": {
        "profile": [ "http://hl7.org/fhir/us/qicore/StructureDefinition/qicore-simple-observation" ]
      },
      "status": "final",
      "category": [ {
        "coding": [ {
          "system": "http://terminology.hl7.org/CodeSystem/observation-category",
          "code": "exam",
          "display": "exam",
          "userSelected": true
        } ]
      } ],
      "code": {
        "coding": [ {
          "system": "http://loinc.org",
          "code": "93857-1"
        } ]
      },
      "subject": {
        "reference": "Patient/3c38598f-548f-483a-b387-376142846a96"
      },
      "effectiveDateTime": "2026-06-08T20:00:00.000+00:00",
      "valueDateTime": "2026-06-08T20:00:00.000+00:00"
    },
    "request": {
      "method": "PUT",
      "url": "Observation/ed7fd293-2c9f-407f-b048-cc256390c996"
    }
  }, {
    "fullUrl": "https://madie.cms.gov/Encounter/73481faa-b1cc-4f98-815b-b94087b45a5c",
    "resource": {
      "resourceType": "Encounter",
      "id": "73481faa-b1cc-4f98-815b-b94087b45a5c",
      "meta": {
        "profile": [ "http://hl7.org/fhir/us/qicore/StructureDefinition/qicore-encounter" ]
      },
      "status": "finished",
      "class": {
        "system": "http://terminology.hl7.org/CodeSystem/v3-ActCode",
        "code": "IMP",
        "display": "inpatient encounter"
      },
      "type": [ {
        "coding": [ {
          "system": "http://snomed.info/sct",
          "code": "183452005"
        } ]
      } ],
      "subject": {
        "reference": "Patient/3c38598f-548f-483a-b387-376142846a96"
      },
      "period": {
        "start": "2026-06-08T08:00:00.000+00:00",
        "end": "2026-06-10T08:15:00.000+00:00"
      },
      "length": {
        "value": 2,
        "unit": "days"
      },
      "reasonReference": [ {
        "reference": "Condition/101da010-ef09-4202-b3a6-612af209a970"
      } ]
    },
    "request": {
      "method": "PUT",
      "url": "Encounter/73481faa-b1cc-4f98-815b-b94087b45a5c"
    }
  }, {
    "fullUrl": "https://madie.cms.gov/Procedure/486b1b44-4e85-4d1a-acd8-4e9fc3e7fe79",
    "resource": {
      "resourceType": "Procedure",
      "id": "486b1b44-4e85-4d1a-acd8-4e9fc3e7fe79",
      "meta": {
        "profile": [ "http://hl7.org/fhir/us/qicore/StructureDefinition/qicore-procedure" ]
      },
      "extension": [ {
        "url": "http://hl7.org/fhir/us/qicore/StructureDefinition/qicore-recorded",
        "valueDateTime": "2014-04-05T13:35:00.000+00:00"
      } ],
      "status": "completed",
      "code": {
        "coding": [ {
          "system": "http://www.cms.gov/Medicare/Coding/ICD10",
          "code": "10D07Z3"
        } ]
      },
      "subject": {
        "reference": "Patient/3c38598f-548f-483a-b387-376142846a96"
      },
      "performedPeriod": {
        "start": "2026-06-08T08:10:00.000+00:00",
        "end": "2026-06-08T09:14:00.000+00:00"
      }
    },
    "request": {
      "method": "PUT",
      "url": "Procedure/486b1b44-4e85-4d1a-acd8-4e9fc3e7fe79"
    }
  }, {
    "fullUrl": "https://madie.cms.gov/Condition/101da010-ef09-4202-b3a6-612af209a970",
    "resource": {
      "resourceType": "Condition",
      "id": "101da010-ef09-4202-b3a6-612af209a970",
      "meta": {
        "profile": [ "http://hl7.org/fhir/us/qicore/StructureDefinition/qicore-condition-encounter-diagnosis" ]
      },
      "category": [ {
        "coding": [ {
          "system": "http://terminology.hl7.org/CodeSystem/condition-category",
          "code": "encounter-diagnosis",
          "display": "Encounter Diagnosis"
        } ]
      } ],
      "code": {
        "coding": [ {
          "system": "http://snomed.info/sct",
          "version": "2022-09",
          "code": "169826009",
          "display": "Single live birth from singleton pregnancy (finding)",
          "userSelected": true
        } ]
      },
      "subject": {
        "reference": "Patient/3c38598f-548f-483a-b387-376142846a96"
      },
      "encounter": {
        "reference": "Encounter/73481faa-b1cc-4f98-815b-b94087b45a5c"
      },
      "recordedDate": "2026-10-21T08:00:00.000+00:00"
    },
    "request": {
      "method": "PUT",
      "url": "Condition/101da010-ef09-4202-b3a6-612af209a970"
    }
  }, {
    "fullUrl": "https://madie.cms.gov/Coverage/bcc6cc26-ee86-45b4-ab46-f7f12639a0d8",
    "resource": {
      "resourceType": "Coverage",
      "id": "bcc6cc26-ee86-45b4-ab46-f7f12639a0d8",
      "meta": {
        "profile": [ "http://hl7.org/fhir/us/qicore/StructureDefinition/qicore-coverage" ]
      },
      "status": "active",
      "subscriberId": "523435",
      "beneficiary": {
        "reference": "Patient/3c38598f-548f-483a-b387-376142846a96"
      },
      "relationship": {
        "coding": [ {
          "system": "http://terminology.hl7.org/CodeSystem/subscriber-relationship",
          "code": "self"
        } ]
      },
      "payor": [ {
        "reference": "Organization/ac9fd746-fcb8-4c91-96d3-fc19a610950d"
      } ]
    },
    "request": {
      "method": "PUT",
      "url": "Coverage/bcc6cc26-ee86-45b4-ab46-f7f12639a0d8"
    }
  }, {
    "fullUrl": "https://madie.cms.gov/Organization/ac9fd746-fcb8-4c91-96d3-fc19a610950d",
    "resource": {
      "resourceType": "Organization",
      "id": "ac9fd746-fcb8-4c91-96d3-fc19a610950d",
      "meta": {
        "profile": [ "http://hl7.org/fhir/us/qicore/StructureDefinition/qicore-organization" ]
      },
      "identifier": [ {
        "use": "temp",
        "system": "urn:oid:2.16.840.1.113883.4.4",
        "value": "21-3259825"
      } ],
      "active": true,
      "type": [ {
        "coding": [ {
          "system": "http://terminology.hl7.org/CodeSystem/organization-type",
          "code": "pay",
          "display": "Payer"
        } ]
      } ],
      "name": "Blue Cross Blue Shield of Texas",
      "telecom": [ {
        "system": "phone",
        "value": "(+1) 972-766-6900"
      } ],
      "address": [ {
        "use": "billing",
        "type": "postal",
        "line": [ "P.O. Box 660044" ],
        "city": "Dallas",
        "state": "TX",
        "postalCode": "75266-0044",
        "country": "USA"
      } ]
    },
    "request": {
      "method": "PUT",
      "url": "Organization/ac9fd746-fcb8-4c91-96d3-fc19a610950d"
    }
  }, {
    "fullUrl": "https://madie.cms.gov/Practitioner/61fee04c-910d-4fb9-84a2-19433c3ccf39",
    "resource": {
      "resourceType": "Practitioner",
      "id": "61fee04c-910d-4fb9-84a2-19433c3ccf39",
      "meta": {
        "profile": [ "http://hl7.org/fhir/us/qicore/StructureDefinition/qicore-practitioner" ]
      },
      "identifier": [ {
        "system": "http://hl7.org/fhir/sid/us-npi",
        "value": "1234567890"
      } ],
      "name": [ {
        "family": "Evil",
        "prefix": [ "Dr" ]
      } ]
    },
    "request": {
      "method": "PUT",
      "url": "Practitioner/61fee04c-910d-4fb9-84a2-19433c3ccf39"
    }
  }, {
    "fullUrl": "https://madie.cms.gov/MeasureReport/7cdfa063-bec5-4b01-b798-3ee37cfe3faa",
    "resource": {
      "resourceType": "MeasureReport",
      "id": "7cdfa063-bec5-4b01-b798-3ee37cfe3faa",
      "meta": {
        "profile": [ "http://hl7.org/fhir/us/cqfmeasures/StructureDefinition/test-case-cqfm" ]
      },
      "contained": [ {
        "resourceType": "Parameters",
        "id": "1a62563d-733d-4b29-82f8-cbcac3bd8eb3-parameters",
        "parameter": [ {
          "name": "subject",
          "valueString": "3c38598f-548f-483a-b387-376142846a96"
        } ]
      } ],
      "extension": [ {
        "url": "http://hl7.org/fhir/StructureDefinition/cqf-inputParameters",
        "valueReference": {
          "reference": "#1a62563d-733d-4b29-82f8-cbcac3bd8eb3-parameters"
        }
      }, {
        "url": "http://hl7.org/fhir/us/cqfmeasures/StructureDefinition/cqfm-testCaseDescription",
        "valueMarkdown": "Passes: IP, Fails DENOM because no Parity, Gravida, Term nor Preterm information\n"
      } ],
      "modifierExtension": [ {
        "url": "http://hl7.org/fhir/us/cqfmeasures/StructureDefinition/cqfm-isTestCase",
        "valueBoolean": true
      } ],
      "status": "complete",
      "type": "individual",
      "measure": "https://madie.cms.gov/Measure/CMS0334FHIRPCCesareanBirth",
      "period": {
        "start": "2026-01-01",
        "end": "2026-12-31"
      },
      "group": [ {
        "id": "Group_1",
        "population": [ {
          "id": "InitialPopulation_1",
          "code": {
            "coding": [ {
              "system": "http://terminology.hl7.org/CodeSystem/measure-population",
              "code": "initial-population",
              "display": "Initial Population"
            } ]
          },
          "count": 1
        }, {
          "id": "Denominator_1",
          "code": {
            "coding": [ {
              "system": "http://terminology.hl7.org/CodeSystem/measure-population",
              "code": "denominator",
              "display": "Denominator"
            } ]
          },
          "count": 0
        }, {
          "id": "DenominatorExclusion_1",
          "code": {
            "coding": [ {
              "system": "http://terminology.hl7.org/CodeSystem/measure-population",
              "code": "denominator-exclusion",
              "display": "Denominator Exclusion"
            } ]
          },
          "count": 0
        }, {
          "id": "Numerator_1",
          "code": {
            "coding": [ {
              "system": "http://terminology.hl7.org/CodeSystem/measure-population",
              "code": "numerator",
              "display": "Numerator"
            } ]
          },
          "count": 0
        } ],
        "measureScore": {
          "value": 0.0
        }
      } ],
      "evaluatedResource": [ {
        "reference": "Patient/3c38598f-548f-483a-b387-376142846a96"
      }, {
        "reference": "Observation/a3c5de60-20cb-4a92-8088-9a0c595b8a3d"
      }, {
        "reference": "Observation/ed7fd293-2c9f-407f-b048-cc256390c996"
      }, {
        "reference": "Encounter/73481faa-b1cc-4f98-815b-b94087b45a5c"
      }, {
        "reference": "Procedure/486b1b44-4e85-4d1a-acd8-4e9fc3e7fe79"
      }, {
        "reference": "Condition/101da010-ef09-4202-b3a6-612af209a970"
      }, {
        "reference": "Coverage/bcc6cc26-ee86-45b4-ab46-f7f12639a0d8"
      }, {
        "reference": "Organization/ac9fd746-fcb8-4c91-96d3-fc19a610950d"
      }, {
        "reference": "Practitioner/61fee04c-910d-4fb9-84a2-19433c3ccf39"
      } ]
    },
    "request": {
      "method": "PUT",
      "url": "MeasureReport/7cdfa063-bec5-4b01-b798-3ee37cfe3faa"
    }
  } ]
}