{
  "resourceType": "Bundle",
  "id": "657cbdc9b4f1f0343662347a",
  "type": "transaction",
  "entry": [ {
    "fullUrl": "https://madie.cms.gov/Patient/2f23d669-d298-4aa1-9e00-36e334cb6f09",
    "resource": {
      "resourceType": "Patient",
      "id": "2f23d669-d298-4aa1-9e00-36e334cb6f09",
      "meta": {
        "profile": [ "http://hl7.org/fhir/us/qicore/StructureDefinition/qicore-patient" ]
      },
      "extension": [ {
        "url": "http://hl7.org/fhir/us/core/StructureDefinition/us-core-race",
        "extension": [ {
          "url": "ombCategory",
          "valueCoding": {
            "system": "urn:oid:2.16.840.1.113883.6.238",
            "code": "2106-3",
            "display": "White",
            "userSelected": true
          }
        }, {
          "url": "text",
          "valueString": "White"
        } ]
      }, {
        "url": "http://hl7.org/fhir/us/core/StructureDefinition/us-core-ethnicity",
        "extension": [ {
          "url": "ombCategory",
          "valueCoding": {
            "system": "urn:oid:2.16.840.1.113883.6.238",
            "code": "2186-5",
            "display": "Not Hispanic or Latino",
            "userSelected": true
          }
        }, {
          "url": "text",
          "valueString": "Not Hispanic or Latino"
        } ]
      } ],
      "identifier": [ {
        "type": {
          "coding": [ {
            "system": "http://terminology.hl7.org/CodeSystem/v2-0203",
            "code": "MR"
          } ]
        },
        "system": "https://bonnie-fhir.healthit.gov/",
        "value": "657cbdc9b4f1f0343662347a"
      } ],
      "name": [ {
        "family": "LocationPass",
        "given": [ "LocationICU" ]
      } ],
      "gender": "female",
      "birthDate": "2008-01-01"
    },
    "request": {
      "method": "PUT",
      "url": "Patient/2f23d669-d298-4aa1-9e00-36e334cb6f09"
    }
  }, {
    "fullUrl": "https://madie.cms.gov/Encounter/2c342b9b-d670-4344-b6a6-b0a291f913c3",
    "resource": {
      "resourceType": "Encounter",
      "id": "2c342b9b-d670-4344-b6a6-b0a291f913c3",
      "meta": {
        "profile": [ "http://hl7.org/fhir/us/qicore/StructureDefinition/qicore-encounter" ]
      },
      "status": "entered-in-error",
      "class": {
        "system": "http://terminology.hl7.org/CodeSystem/v3-ActCode",
        "code": "ACUTE",
        "display": "inpatient acute"
      },
      "type": [ {
        "coding": [ {
          "system": "http://snomed.info/sct",
          "version": "2024",
          "code": "32485007",
          "display": "Hospital admission (procedure)",
          "userSelected": true
        } ]
      } ],
      "subject": {
        "reference": "Patient/2f23d669-d298-4aa1-9e00-36e334cb6f09"
      },
      "period": {
        "start": "2026-01-01T08:00:00.000+00:00",
        "end": "2026-01-02T09:15:00.000+00:00"
      },
      "location": [ {
        "location": {
          "reference": "Location/e928ebca-17a8-4963-83aa-15583033e1e3"
        },
        "period": {
          "start": "2026-01-01T08:00:00.000+00:00",
          "end": "2026-01-01T10:01:00.000+00:00"
        }
      } ]
    },
    "request": {
      "method": "PUT",
      "url": "Encounter/2c342b9b-d670-4344-b6a6-b0a291f913c3"
    }
  }, {
    "fullUrl": "https://madie.cms.gov/Location/e928ebca-17a8-4963-83aa-15583033e1e3",
    "resource": {
      "resourceType": "Location",
      "id": "e928ebca-17a8-4963-83aa-15583033e1e3",
      "meta": {
        "profile": [ "http://hl7.org/fhir/us/qicore/StructureDefinition/qicore-location" ]
      },
      "identifier": [ {
        "use": "usual",
        "system": "http://exampleoflocation.com",
        "value": "B1-S.F2"
      } ],
      "name": "Medical Surgical East, first floor",
      "type": [ {
        "coding": [ {
          "system": "https://www.cdc.gov/nhsn/cdaportal/terminology/codesystem/hsloc.html",
          "code": "1025-6",
          "display": "Trauma Critical Care",
          "userSelected": true
        } ]
      } ]
    },
    "request": {
      "method": "PUT",
      "url": "Location/e928ebca-17a8-4963-83aa-15583033e1e3"
    }
  }, {
    "fullUrl": "https://madie.cms.gov/MedicationAdministration/777d8d33-a587-4489-84a6-613f07b1ceca",
    "resource": {
      "resourceType": "MedicationAdministration",
      "id": "777d8d33-a587-4489-84a6-613f07b1ceca",
      "meta": {
        "profile": [ "http://hl7.org/fhir/us/qicore/StructureDefinition/qicore-medicationadministration" ]
      },
      "status": "completed",
      "medicationCodeableConcept": {
        "coding": [ {
          "system": "http://www.nlm.nih.gov/research/umls/rxnorm",
          "code": "1007184",
          "display": "insulin aspart protamine, human / insulin aspart, human"
        } ]
      },
      "subject": {
        "reference": "Patient/2f23d669-d298-4aa1-9e00-36e334cb6f09"
      },
      "effectivePeriod": {
        "start": "2026-01-01T08:00:00.000+00:00",
        "end": "2026-01-01T08:15:00.000+00:00"
      }
    },
    "request": {
      "method": "PUT",
      "url": "MedicationAdministration/777d8d33-a587-4489-84a6-613f07b1ceca"
    }
  }, {
    "fullUrl": "https://madie.cms.gov/Coverage/850aa928-0178-47ca-b4a2-7e74f38bc2ca",
    "resource": {
      "resourceType": "Coverage",
      "id": "850aa928-0178-47ca-b4a2-7e74f38bc2ca",
      "meta": {
        "profile": [ "http://hl7.org/fhir/us/qicore/StructureDefinition/qicore-coverage" ]
      },
      "identifier": [ {
        "system": "http://benefitsinc.com/certificate",
        "value": "12345"
      } ],
      "status": "active",
      "type": {
        "coding": [ {
          "system": "https://nahdo.org/sopt",
          "version": "1.0.1",
          "code": "1",
          "display": "MEDICARE",
          "userSelected": true
        } ]
      },
      "subscriberId": "AB9876",
      "beneficiary": {
        "reference": "Patient/2f23d669-d298-4aa1-9e00-36e334cb6f09"
      },
      "relationship": {
        "coding": [ {
          "system": "http://terminology.hl7.org/CodeSystem/subscriber-relationship",
          "code": "self"
        } ]
      },
      "payor": [ {
        "reference": "Organization/eeaf58bd-f1d6-4bfc-8b8b-b604e42ced25"
      } ]
    },
    "request": {
      "method": "PUT",
      "url": "Coverage/850aa928-0178-47ca-b4a2-7e74f38bc2ca"
    }
  }, {
    "fullUrl": "https://madie.cms.gov/Organization/eeaf58bd-f1d6-4bfc-8b8b-b604e42ced25",
    "resource": {
      "resourceType": "Organization",
      "id": "eeaf58bd-f1d6-4bfc-8b8b-b604e42ced25",
      "meta": {
        "profile": [ "http://hl7.org/fhir/us/qicore/StructureDefinition/qicore-organization" ]
      },
      "identifier": [ {
        "use": "temp",
        "system": "urn:oid:2.16.840.1.113883.4.4",
        "value": "21-3259825"
      } ],
      "active": true,
      "type": [ {
        "coding": [ {
          "system": "http://terminology.hl7.org/CodeSystem/organization-type",
          "code": "pay",
          "display": "Payer"
        } ]
      } ],
      "name": "Blue Cross Blue Shield of Texas",
      "telecom": [ {
        "system": "phone",
        "value": "(+1) 972-766-6900"
      } ],
      "address": [ {
        "use": "billing",
        "type": "postal",
        "line": [ "P.O. Box 660044" ],
        "city": "Dallas",
        "state": "TX",
        "postalCode": "75266-0044",
        "country": "USA"
      } ]
    },
    "request": {
      "method": "PUT",
      "url": "Organization/eeaf58bd-f1d6-4bfc-8b8b-b604e42ced25"
    }
  }, {
    "fullUrl": "https://madie.cms.gov/Practitioner/b877f5db-719d-4952-af40-b847718e6cde",
    "resource": {
      "resourceType": "Practitioner",
      "id": "b877f5db-719d-4952-af40-b847718e6cde",
      "meta": {
        "profile": [ "http://hl7.org/fhir/us/qicore/StructureDefinition/qicore-practitioner" ]
      },
      "identifier": [ {
        "system": "http://hl7.org/fhir/sid/us-npi",
        "value": "0723660813"
      } ],
      "name": [ {
        "family": "Evil",
        "prefix": [ "Dr" ]
      } ]
    },
    "request": {
      "method": "PUT",
      "url": "Practitioner/b877f5db-719d-4952-af40-b847718e6cde"
    }
  }, {
    "fullUrl": "https://madie.cms.gov/MeasureReport/895c6e54-9495-48f8-8639-87c8dd53089a",
    "resource": {
      "resourceType": "MeasureReport",
      "id": "895c6e54-9495-48f8-8639-87c8dd53089a",
      "meta": {
        "profile": [ "http://hl7.org/fhir/us/cqfmeasures/StructureDefinition/test-case-cqfm" ]
      },
      "contained": [ {
        "resourceType": "Parameters",
        "id": "941da7d1-545f-42d8-b1e0-c310acd24045-parameters",
        "parameter": [ {
          "name": "subject",
          "valueString": "2f23d669-d298-4aa1-9e00-36e334cb6f09"
        } ]
      } ],
      "extension": [ {
        "url": "http://hl7.org/fhir/StructureDefinition/cqf-inputParameters",
        "valueReference": {
          "reference": "#941da7d1-545f-42d8-b1e0-c310acd24045-parameters"
        }
      }, {
        "url": "http://hl7.org/fhir/us/cqfmeasures/StructureDefinition/cqfm-testCaseDescription",
        "valueMarkdown": "Inpatient encounter in ICU with antidiabetic medication administered."
      } ],
      "modifierExtension": [ {
        "url": "http://hl7.org/fhir/us/cqfmeasures/StructureDefinition/cqfm-isTestCase",
        "valueBoolean": true
      } ],
      "status": "complete",
      "type": "individual",
      "measure": "https://madie.cms.gov/Measure/NHSNGlycemicControlHypoglycemiaInitialPopulation",
      "period": {
        "start": "2026-01-01",
        "end": "2026-12-31"
      },
      "group": [ {
        "id": "Group_1",
        "population": [ {
          "id": "InitialPopulation_1",
          "code": {
            "coding": [ {
              "system": "http://terminology.hl7.org/CodeSystem/measure-population",
              "code": "initial-population",
              "display": "Initial Population"
            } ]
          },
          "count": 1
        } ],
        "measureScore": {
          "value": 0.0
        }
      } ],
      "evaluatedResource": [ {
        "reference": "Patient/2f23d669-d298-4aa1-9e00-36e334cb6f09"
      }, {
        "reference": "Encounter/2c342b9b-d670-4344-b6a6-b0a291f913c3"
      }, {
        "reference": "Location/e928ebca-17a8-4963-83aa-15583033e1e3"
      }, {
        "reference": "MedicationAdministration/777d8d33-a587-4489-84a6-613f07b1ceca"
      }, {
        "reference": "Coverage/850aa928-0178-47ca-b4a2-7e74f38bc2ca"
      }, {
        "reference": "Organization/eeaf58bd-f1d6-4bfc-8b8b-b604e42ced25"
      }, {
        "reference": "Practitioner/b877f5db-719d-4952-af40-b847718e6cde"
      } ]
    },
    "request": {
      "method": "PUT",
      "url": "MeasureReport/895c6e54-9495-48f8-8639-87c8dd53089a"
    }
  } ]
}