{
  "resourceType": "Bundle",
  "id": "63487c2f0968f801225401a4",
  "type": "transaction",
  "entry": [ {
    "fullUrl": "https://madie.cms.gov/Patient/9ce43862-05d8-43a6-a1d6-d270f65e318e",
    "resource": {
      "resourceType": "Patient",
      "id": "9ce43862-05d8-43a6-a1d6-d270f65e318e",
      "meta": {
        "profile": [ "http://hl7.org/fhir/us/qicore/StructureDefinition/qicore-patient" ]
      },
      "text": {
        "status": "generated",
        "div": "<div xmlns=\"http://www.w3.org/1999/xhtml\"><div class=\"hapiHeaderText\">CalcEGALastIsTimeOfDelivNull<b>DENOMPass</b></div><table class=\"hapiPropertyTable\"><tbody><tr><td>Identifier</td><td>b00b06f67015bda652373741cca10f65466d828e3a674df9528f73ec417ce0bb</td></tr><tr><td>Date of birth</td><td><span>14 February 1985</span></td></tr></tbody></table></div>"
      },
      "extension": [ {
        "url": "http://hl7.org/fhir/us/core/StructureDefinition/us-core-race",
        "extension": [ {
          "url": "ombCategory",
          "valueCoding": {
            "system": "urn:oid:2.16.840.1.113883.6.238",
            "code": "1002-5",
            "display": "American Indian or Alaska Native",
            "userSelected": true
          }
        }, {
          "url": "text",
          "valueString": "American Indian or Alaska Native"
        } ]
      }, {
        "url": "http://hl7.org/fhir/us/core/StructureDefinition/us-core-ethnicity",
        "extension": [ {
          "url": "ombCategory",
          "valueCoding": {
            "system": "urn:oid:2.16.840.1.113883.6.238",
            "code": "2135-2",
            "display": "Hispanic or Latino",
            "userSelected": true
          }
        }, {
          "url": "text",
          "valueString": "Hispanic or Latino"
        } ]
      } ],
      "identifier": [ {
        "type": {
          "coding": [ {
            "system": "http://terminology.hl7.org/CodeSystem/v2-0203",
            "code": "MR"
          } ]
        },
        "system": "https://bonnie-fhir.healthit.gov/",
        "value": "63487c2f0968f801225401a4"
      } ],
      "active": true,
      "name": [ {
        "use": "usual",
        "family": "DENOMPass",
        "given": [ "CalcEGALastIsTimeOfDelivNull" ]
      } ],
      "gender": "female",
      "birthDate": "1998-02-14"
    },
    "request": {
      "method": "PUT",
      "url": "Patient/9ce43862-05d8-43a6-a1d6-d270f65e318e"
    }
  }, {
    "fullUrl": "https://madie.cms.gov/Observation/dfa9ccd7-81e8-4cfc-804c-a57ce2e6b6b9",
    "resource": {
      "resourceType": "Observation",
      "id": "dfa9ccd7-81e8-4cfc-804c-a57ce2e6b6b9",
      "meta": {
        "profile": [ "http://hl7.org/fhir/us/qicore/StructureDefinition/qicore-simple-observation" ]
      },
      "status": "final",
      "category": [ {
        "coding": [ {
          "system": "http://terminology.hl7.org/CodeSystem/observation-category",
          "code": "exam",
          "display": "exam",
          "userSelected": true
        } ]
      } ],
      "code": {
        "coding": [ {
          "system": "http://loinc.org",
          "code": "93857-1"
        } ]
      },
      "subject": {
        "reference": "Patient/9ce43862-05d8-43a6-a1d6-d270f65e318e"
      },
      "effectiveDateTime": "2026-01-15T08:00:00.000+00:00",
      "valueDateTime": "2026-01-15T08:00:00.000+00:00"
    },
    "request": {
      "method": "PUT",
      "url": "Observation/dfa9ccd7-81e8-4cfc-804c-a57ce2e6b6b9"
    }
  }, {
    "fullUrl": "https://madie.cms.gov/Observation/ac8190c9-fc8b-400b-b916-18f8fbb2c4ac",
    "resource": {
      "resourceType": "Observation",
      "id": "ac8190c9-fc8b-400b-b916-18f8fbb2c4ac",
      "meta": {
        "profile": [ "http://hl7.org/fhir/us/qicore/StructureDefinition/qicore-simple-observation" ]
      },
      "status": "final",
      "category": [ {
        "coding": [ {
          "system": "http://terminology.hl7.org/CodeSystem/observation-category",
          "code": "exam",
          "display": "exam",
          "userSelected": true
        } ]
      } ],
      "code": {
        "coding": [ {
          "system": "http://loinc.org",
          "code": "11778-8"
        } ]
      },
      "subject": {
        "reference": "Patient/9ce43862-05d8-43a6-a1d6-d270f65e318e"
      },
      "effectiveDateTime": "2026-01-15T07:00:00.000+00:00",
      "valueDateTime": "2026-02-04T08:00:00.000+00:00"
    },
    "request": {
      "method": "PUT",
      "url": "Observation/ac8190c9-fc8b-400b-b916-18f8fbb2c4ac"
    }
  }, {
    "fullUrl": "https://madie.cms.gov/Observation/043d0e54-8143-4866-957c-a99a6a67989d",
    "resource": {
      "resourceType": "Observation",
      "id": "043d0e54-8143-4866-957c-a99a6a67989d",
      "meta": {
        "profile": [ "http://hl7.org/fhir/us/qicore/StructureDefinition/qicore-simple-observation" ]
      },
      "status": "final",
      "category": [ {
        "coding": [ {
          "system": "http://terminology.hl7.org/CodeSystem/observation-category",
          "code": "exam",
          "display": "exam",
          "userSelected": true
        } ]
      } ],
      "code": {
        "coding": [ {
          "system": "http://loinc.org",
          "code": "11996-6"
        } ]
      },
      "subject": {
        "reference": "Patient/9ce43862-05d8-43a6-a1d6-d270f65e318e"
      },
      "effectiveDateTime": "2026-01-15T07:59:00.000+00:00",
      "valueInteger": 1
    },
    "request": {
      "method": "PUT",
      "url": "Observation/043d0e54-8143-4866-957c-a99a6a67989d"
    }
  }, {
    "fullUrl": "https://madie.cms.gov/Observation/d3b59e26-54b9-42cd-9f3a-f987914c8ed4",
    "resource": {
      "resourceType": "Observation",
      "id": "d3b59e26-54b9-42cd-9f3a-f987914c8ed4",
      "meta": {
        "profile": [ "http://hl7.org/fhir/us/qicore/StructureDefinition/qicore-simple-observation" ]
      },
      "status": "final",
      "category": [ {
        "coding": [ {
          "system": "http://terminology.hl7.org/CodeSystem/observation-category",
          "code": "exam",
          "display": "exam",
          "userSelected": true
        } ]
      } ],
      "code": {
        "coding": [ {
          "system": "http://loinc.org",
          "code": "93857-1"
        } ]
      },
      "subject": {
        "reference": "Patient/9ce43862-05d8-43a6-a1d6-d270f65e318e"
      }
    },
    "request": {
      "method": "PUT",
      "url": "Observation/d3b59e26-54b9-42cd-9f3a-f987914c8ed4"
    }
  }, {
    "fullUrl": "https://madie.cms.gov/Encounter/18fe1775-9a19-47e8-82ce-5ff5a6e0f954",
    "resource": {
      "resourceType": "Encounter",
      "id": "18fe1775-9a19-47e8-82ce-5ff5a6e0f954",
      "meta": {
        "profile": [ "http://hl7.org/fhir/us/qicore/StructureDefinition/qicore-encounter" ]
      },
      "status": "finished",
      "class": {
        "system": "http://terminology.hl7.org/CodeSystem/v3-ActCode",
        "code": "IMP",
        "display": "inpatient encounter"
      },
      "type": [ {
        "coding": [ {
          "system": "http://snomed.info/sct",
          "code": "183452005"
        } ]
      } ],
      "subject": {
        "reference": "Patient/9ce43862-05d8-43a6-a1d6-d270f65e318e"
      },
      "period": {
        "start": "2026-01-15T08:00:00.000+00:00",
        "end": "2026-01-20T08:15:00.000+00:00"
      },
      "reasonReference": [ {
        "reference": "Condition/2c1326a4-4014-4f2d-ac5b-470e55c78c9b"
      } ]
    },
    "request": {
      "method": "PUT",
      "url": "Encounter/18fe1775-9a19-47e8-82ce-5ff5a6e0f954"
    }
  }, {
    "fullUrl": "https://madie.cms.gov/Procedure/42ba6b78-de29-434b-b4d1-e932cf830242",
    "resource": {
      "resourceType": "Procedure",
      "id": "42ba6b78-de29-434b-b4d1-e932cf830242",
      "meta": {
        "profile": [ "http://hl7.org/fhir/us/qicore/StructureDefinition/qicore-procedure" ]
      },
      "extension": [ {
        "url": "http://hl7.org/fhir/us/qicore/StructureDefinition/qicore-recorded",
        "valueDateTime": "2014-04-05T13:35:00.000+00:00"
      } ],
      "status": "completed",
      "code": {
        "coding": [ {
          "system": "http://www.cms.gov/Medicare/Coding/ICD10",
          "code": "10D07Z3"
        } ]
      },
      "subject": {
        "reference": "Patient/9ce43862-05d8-43a6-a1d6-d270f65e318e"
      },
      "performedPeriod": {
        "start": "2026-01-15T08:10:00.000+00:00",
        "end": "2026-01-15T09:14:00.000+00:00"
      }
    },
    "request": {
      "method": "PUT",
      "url": "Procedure/42ba6b78-de29-434b-b4d1-e932cf830242"
    }
  }, {
    "fullUrl": "https://madie.cms.gov/Condition/2c1326a4-4014-4f2d-ac5b-470e55c78c9b",
    "resource": {
      "resourceType": "Condition",
      "id": "2c1326a4-4014-4f2d-ac5b-470e55c78c9b",
      "meta": {
        "profile": [ "http://hl7.org/fhir/us/qicore/StructureDefinition/qicore-condition-encounter-diagnosis" ]
      },
      "category": [ {
        "coding": [ {
          "system": "http://terminology.hl7.org/CodeSystem/condition-category",
          "code": "encounter-diagnosis",
          "display": "Encounter Diagnosis"
        } ]
      } ],
      "code": {
        "coding": [ {
          "system": "http://snomed.info/sct",
          "version": "2022-09",
          "code": "169826009",
          "display": "Single live birth from singleton pregnancy (finding)",
          "userSelected": true
        } ]
      },
      "subject": {
        "reference": "Patient/9ce43862-05d8-43a6-a1d6-d270f65e318e"
      },
      "encounter": {
        "reference": "Encounter/18fe1775-9a19-47e8-82ce-5ff5a6e0f954"
      },
      "recordedDate": "2026-10-20T08:00:00.000+00:00"
    },
    "request": {
      "method": "PUT",
      "url": "Condition/2c1326a4-4014-4f2d-ac5b-470e55c78c9b"
    }
  }, {
    "fullUrl": "https://madie.cms.gov/Coverage/dfdd08fb-341c-400f-a7e5-f487313fdc16",
    "resource": {
      "resourceType": "Coverage",
      "id": "dfdd08fb-341c-400f-a7e5-f487313fdc16",
      "meta": {
        "profile": [ "http://hl7.org/fhir/us/qicore/StructureDefinition/qicore-coverage" ]
      },
      "status": "active",
      "subscriberId": "523435",
      "beneficiary": {
        "reference": "Patient/9ce43862-05d8-43a6-a1d6-d270f65e318e"
      },
      "relationship": {
        "coding": [ {
          "system": "http://terminology.hl7.org/CodeSystem/subscriber-relationship",
          "code": "self"
        } ]
      },
      "payor": [ {
        "reference": "Organization/1fbd5cd5-af74-429a-b002-246d849e53bb"
      } ]
    },
    "request": {
      "method": "PUT",
      "url": "Coverage/dfdd08fb-341c-400f-a7e5-f487313fdc16"
    }
  }, {
    "fullUrl": "https://madie.cms.gov/Organization/1fbd5cd5-af74-429a-b002-246d849e53bb",
    "resource": {
      "resourceType": "Organization",
      "id": "1fbd5cd5-af74-429a-b002-246d849e53bb",
      "meta": {
        "profile": [ "http://hl7.org/fhir/us/qicore/StructureDefinition/qicore-organization" ]
      },
      "identifier": [ {
        "use": "temp",
        "system": "urn:oid:2.16.840.1.113883.4.4",
        "value": "21-3259825"
      } ],
      "active": true,
      "type": [ {
        "coding": [ {
          "system": "http://terminology.hl7.org/CodeSystem/organization-type",
          "code": "pay",
          "display": "Payer"
        } ]
      } ],
      "name": "Blue Cross Blue Shield of Texas",
      "telecom": [ {
        "system": "phone",
        "value": "(+1) 972-766-6900"
      } ],
      "address": [ {
        "use": "billing",
        "type": "postal",
        "line": [ "P.O. Box 660044" ],
        "city": "Dallas",
        "state": "TX",
        "postalCode": "75266-0044",
        "country": "USA"
      } ]
    },
    "request": {
      "method": "PUT",
      "url": "Organization/1fbd5cd5-af74-429a-b002-246d849e53bb"
    }
  }, {
    "fullUrl": "https://madie.cms.gov/Practitioner/8a93871d-5f9b-487f-9263-02fcbd8177a4",
    "resource": {
      "resourceType": "Practitioner",
      "id": "8a93871d-5f9b-487f-9263-02fcbd8177a4",
      "meta": {
        "profile": [ "http://hl7.org/fhir/us/qicore/StructureDefinition/qicore-practitioner" ]
      },
      "identifier": [ {
        "system": "http://hl7.org/fhir/sid/us-npi",
        "value": "1234567890"
      } ],
      "name": [ {
        "family": "Evil",
        "prefix": [ "Dr" ]
      } ]
    },
    "request": {
      "method": "PUT",
      "url": "Practitioner/8a93871d-5f9b-487f-9263-02fcbd8177a4"
    }
  }, {
    "fullUrl": "https://madie.cms.gov/MeasureReport/23a009f1-fe29-47b3-8846-006d87246262",
    "resource": {
      "resourceType": "MeasureReport",
      "id": "23a009f1-fe29-47b3-8846-006d87246262",
      "meta": {
        "profile": [ "http://hl7.org/fhir/us/cqfmeasures/StructureDefinition/test-case-cqfm" ]
      },
      "contained": [ {
        "resourceType": "Parameters",
        "id": "cb374273-ca31-414e-9520-dd1975e5012a-parameters",
        "parameter": [ {
          "name": "subject",
          "valueString": "9ce43862-05d8-43a6-a1d6-d270f65e318e"
        } ]
      } ],
      "extension": [ {
        "url": "http://hl7.org/fhir/StructureDefinition/cqf-inputParameters",
        "valueReference": {
          "reference": "#cb374273-ca31-414e-9520-dd1975e5012a-parameters"
        }
      }, {
        "url": "http://hl7.org/fhir/us/cqfmeasures/StructureDefinition/cqfm-testCaseDescription",
        "valueMarkdown": "Pt is 27 years of age,  encounter dx delivery of singleton, gravida=1authored less than 42 weeks prior to delivery,  Last Time of Delivery assessment is null, however, previous one passes.\n"
      } ],
      "modifierExtension": [ {
        "url": "http://hl7.org/fhir/us/cqfmeasures/StructureDefinition/cqfm-isTestCase",
        "valueBoolean": true
      } ],
      "status": "complete",
      "type": "individual",
      "measure": "https://madie.cms.gov/Measure/CMS0334FHIRPCCesareanBirth",
      "period": {
        "start": "2026-01-01",
        "end": "2026-12-31"
      },
      "group": [ {
        "id": "Group_1",
        "population": [ {
          "id": "InitialPopulation_1",
          "code": {
            "coding": [ {
              "system": "http://terminology.hl7.org/CodeSystem/measure-population",
              "code": "initial-population",
              "display": "Initial Population"
            } ]
          },
          "count": 1
        }, {
          "id": "Denominator_1",
          "code": {
            "coding": [ {
              "system": "http://terminology.hl7.org/CodeSystem/measure-population",
              "code": "denominator",
              "display": "Denominator"
            } ]
          },
          "count": 1
        }, {
          "id": "DenominatorExclusion_1",
          "code": {
            "coding": [ {
              "system": "http://terminology.hl7.org/CodeSystem/measure-population",
              "code": "denominator-exclusion",
              "display": "Denominator Exclusion"
            } ]
          },
          "count": 0
        }, {
          "id": "Numerator_1",
          "code": {
            "coding": [ {
              "system": "http://terminology.hl7.org/CodeSystem/measure-population",
              "code": "numerator",
              "display": "Numerator"
            } ]
          },
          "count": 0
        } ],
        "measureScore": {
          "value": 0.0
        }
      } ],
      "evaluatedResource": [ {
        "reference": "Patient/9ce43862-05d8-43a6-a1d6-d270f65e318e"
      }, {
        "reference": "Observation/dfa9ccd7-81e8-4cfc-804c-a57ce2e6b6b9"
      }, {
        "reference": "Observation/ac8190c9-fc8b-400b-b916-18f8fbb2c4ac"
      }, {
        "reference": "Observation/043d0e54-8143-4866-957c-a99a6a67989d"
      }, {
        "reference": "Observation/d3b59e26-54b9-42cd-9f3a-f987914c8ed4"
      }, {
        "reference": "Encounter/18fe1775-9a19-47e8-82ce-5ff5a6e0f954"
      }, {
        "reference": "Procedure/42ba6b78-de29-434b-b4d1-e932cf830242"
      }, {
        "reference": "Condition/2c1326a4-4014-4f2d-ac5b-470e55c78c9b"
      }, {
        "reference": "Coverage/dfdd08fb-341c-400f-a7e5-f487313fdc16"
      }, {
        "reference": "Organization/1fbd5cd5-af74-429a-b002-246d849e53bb"
      }, {
        "reference": "Practitioner/8a93871d-5f9b-487f-9263-02fcbd8177a4"
      } ]
    },
    "request": {
      "method": "PUT",
      "url": "MeasureReport/23a009f1-fe29-47b3-8846-006d87246262"
    }
  } ]
}