{
  "resourceType": "Bundle",
  "id": "633c9d030968f8012250fc9b",
  "type": "transaction",
  "entry": [ {
    "fullUrl": "https://madie.cms.gov/Patient/b1d0c606-661d-44e8-a25f-4e7ca8131f2a",
    "resource": {
      "resourceType": "Patient",
      "id": "b1d0c606-661d-44e8-a25f-4e7ca8131f2a",
      "meta": {
        "profile": [ "http://hl7.org/fhir/us/qicore/StructureDefinition/qicore-patient" ]
      },
      "text": {
        "status": "generated",
        "div": "<div xmlns=\"http://www.w3.org/1999/xhtml\"><div class=\"hapiHeaderText\">CMOdurEnc_ED&gt;1hrObs&gt;1hrBFEnc <b>DENEXPASS </b></div><table class=\"hapiPropertyTable\"><tbody><tr><td>Identifier</td><td>46dce2b3319988ed781af0093af5d517</td></tr><tr><td>Date of birth</td><td><span>18 September 1985</span></td></tr></tbody></table></div>"
      },
      "extension": [ {
        "url": "http://hl7.org/fhir/us/core/StructureDefinition/us-core-race",
        "extension": [ {
          "url": "ombCategory",
          "valueCoding": {
            "system": "urn:oid:2.16.840.1.113883.6.238",
            "code": "1002-5",
            "display": "American Indian or Alaska Native",
            "userSelected": true
          }
        }, {
          "url": "text",
          "valueString": "American Indian or Alaska Native"
        } ]
      }, {
        "url": "http://hl7.org/fhir/us/core/StructureDefinition/us-core-ethnicity",
        "extension": [ {
          "url": "ombCategory",
          "valueCoding": {
            "system": "urn:oid:2.16.840.1.113883.6.238",
            "code": "2135-2",
            "display": "Hispanic or Latino",
            "userSelected": true
          }
        }, {
          "url": "text",
          "valueString": "Hispanic or Latino"
        } ]
      } ],
      "identifier": [ {
        "type": {
          "coding": [ {
            "system": "http://terminology.hl7.org/CodeSystem/v2-0203",
            "code": "MR"
          } ]
        },
        "system": "https://bonnie-fhir.healthit.gov/",
        "value": "633c9d030968f8012250fc9b"
      } ],
      "active": true,
      "name": [ {
        "use": "usual",
        "family": "DENEXPass",
        "given": [ "CMOdurEnc_ED>1hrObs>1hrBFEnc" ]
      } ],
      "gender": "female",
      "birthDate": "1986-09-18"
    },
    "request": {
      "method": "PUT",
      "url": "Patient/b1d0c606-661d-44e8-a25f-4e7ca8131f2a"
    }
  }, {
    "fullUrl": "https://madie.cms.gov/Condition/1bb8efd1-1fa6-4c08-bbf8-4076fa373e2c",
    "resource": {
      "resourceType": "Condition",
      "id": "1bb8efd1-1fa6-4c08-bbf8-4076fa373e2c",
      "meta": {
        "profile": [ "http://hl7.org/fhir/us/qicore/StructureDefinition/qicore-condition-problems-health-concerns" ]
      },
      "clinicalStatus": {
        "coding": [ {
          "system": "http://terminology.hl7.org/CodeSystem/condition-clinical",
          "code": "inactive"
        } ]
      },
      "verificationStatus": {
        "coding": [ {
          "system": "http://terminology.hl7.org/CodeSystem/condition-ver-status",
          "code": "confirmed"
        } ]
      },
      "category": [ {
        "coding": [ {
          "system": "http://terminology.hl7.org/CodeSystem/condition-category",
          "code": "encounter-diagnosis",
          "display": "Encounter Diagnosis"
        } ]
      } ],
      "code": {
        "coding": [ {
          "system": "http://hl7.org/fhir/sid/icd-10-cm",
          "code": "I48.20"
        }, {
          "system": "http://hl7.org/fhir/sid/icd-10-cm",
          "code": "I48.0"
        }, {
          "system": "http://snomed.info/sct",
          "code": "5370000"
        } ]
      },
      "subject": {
        "reference": "Patient/b1d0c606-661d-44e8-a25f-4e7ca8131f2a"
      },
      "onsetDateTime": "2026-10-01T09:00:00.000+00:00",
      "abatementDateTime": "2026-10-12T00:15:00.000+00:00"
    },
    "request": {
      "method": "PUT",
      "url": "Condition/1bb8efd1-1fa6-4c08-bbf8-4076fa373e2c"
    }
  }, {
    "fullUrl": "https://madie.cms.gov/Encounter/cdbb78c5-9042-4384-8a33-7e7639bd30f3",
    "resource": {
      "resourceType": "Encounter",
      "id": "cdbb78c5-9042-4384-8a33-7e7639bd30f3",
      "meta": {
        "profile": [ "http://hl7.org/fhir/us/qicore/StructureDefinition/qicore-encounter" ]
      },
      "status": "finished",
      "class": {
        "system": "http://terminology.hl7.org/CodeSystem/v3-ActCode",
        "code": "EMER",
        "display": "emergency"
      },
      "type": [ {
        "coding": [ {
          "system": "http://snomed.info/sct",
          "code": "4525004"
        } ]
      } ],
      "subject": {
        "reference": "Patient/b1d0c606-661d-44e8-a25f-4e7ca8131f2a"
      },
      "period": {
        "start": "2026-10-01T07:59:00.000+00:00",
        "end": "2026-10-01T08:00:00.000+00:00"
      },
      "length": {
        "value": 0,
        "unit": "days"
      }
    },
    "request": {
      "method": "PUT",
      "url": "Encounter/cdbb78c5-9042-4384-8a33-7e7639bd30f3"
    }
  }, {
    "fullUrl": "https://madie.cms.gov/Encounter/4e092b6b-9501-40ac-aa6e-eb1317029519",
    "resource": {
      "resourceType": "Encounter",
      "id": "4e092b6b-9501-40ac-aa6e-eb1317029519",
      "meta": {
        "profile": [ "http://hl7.org/fhir/us/qicore/StructureDefinition/qicore-encounter" ]
      },
      "status": "finished",
      "class": {
        "system": "http://terminology.hl7.org/CodeSystem/v3-ActCode",
        "code": "OBSENC",
        "display": "observation encounter"
      },
      "type": [ {
        "coding": [ {
          "system": "http://snomed.info/sct",
          "code": "448851000124103"
        } ]
      } ],
      "subject": {
        "reference": "Patient/b1d0c606-661d-44e8-a25f-4e7ca8131f2a"
      },
      "period": {
        "start": "2026-10-01T09:01:00.000+00:00",
        "end": "2026-10-01T09:30:00.000+00:00"
      },
      "length": {
        "value": 0,
        "unit": "days"
      }
    },
    "request": {
      "method": "PUT",
      "url": "Encounter/4e092b6b-9501-40ac-aa6e-eb1317029519"
    }
  }, {
    "fullUrl": "https://madie.cms.gov/Encounter/a589bfe5-bb7c-4429-98a0-6d0afef48244",
    "resource": {
      "resourceType": "Encounter",
      "id": "a589bfe5-bb7c-4429-98a0-6d0afef48244",
      "meta": {
        "profile": [ "http://hl7.org/fhir/us/qicore/StructureDefinition/qicore-encounter" ]
      },
      "status": "finished",
      "class": {
        "system": "http://terminology.hl7.org/CodeSystem/v3-ActCode",
        "code": "IMP",
        "display": "inpatient encounter"
      },
      "type": [ {
        "coding": [ {
          "system": "http://snomed.info/sct",
          "code": "32485007"
        } ]
      } ],
      "subject": {
        "reference": "Patient/b1d0c606-661d-44e8-a25f-4e7ca8131f2a"
      },
      "period": {
        "start": "2026-10-01T10:31:00.000+00:00",
        "end": "2026-10-12T00:15:00.000+00:00"
      },
      "length": {
        "value": 11,
        "unit": "days"
      },
      "reasonReference": [ {
        "reference": "Condition/1bb8efd1-1fa6-4c08-bbf8-4076fa373e2c"
      } ]
    },
    "request": {
      "method": "PUT",
      "url": "Encounter/a589bfe5-bb7c-4429-98a0-6d0afef48244"
    }
  }, {
    "fullUrl": "https://madie.cms.gov/claim/5ca62962b8484628b8de1ec5",
    "resource": {
      "resourceType": "Claim",
      "id": "5ca62962b8484628b8de1ec5",
      "meta": {
        "profile": [ "http://hl7.org/fhir/us/qicore/StructureDefinition/qicore-claim" ]
      },
      "status": "active",
      "type": {
        "coding": [ {
          "system": "http://terminology.hl7.org/CodeSystem/claim-type",
          "code": "institutional"
        } ]
      },
      "use": "claim",
      "patient": {
        "reference": "Patient/d170a0a8-b5ad-4303-b6df-e304dd5f92ad"
      },
      "created": "2026-12-01",
      "provider": {
        "reference": "Practitioner/c0af68cd-a61f-47ec-8cf6-298d935c7254"
      },
      "priority": {
        "coding": [ {
          "system": "http://terminology.hl7.org/CodeSystem/processpriority",
          "code": "normal"
        } ]
      },
      "diagnosis": [ {
        "sequence": 1,
        "diagnosisCodeableConcept": {
          "coding": [ {
            "system": "http://hl7.org/fhir/sid/icd-10-cm",
            "code": "I63.00"
          } ]
        },
        "type": [ {
          "coding": [ {
            "system": "http://terminology.hl7.org/CodeSystem/ex-diagnosistype",
            "code": "principal"
          } ]
        } ]
      } ],
      "insurance": [ {
        "sequence": 1,
        "focal": true,
        "coverage": {
          "reference": "Coverage/5fa041661c76ba66d9959367"
        }
      } ],
      "item": [ {
        "sequence": 1,
        "diagnosisSequence": [ 1 ],
        "productOrService": {
          "coding": [ {
            "system": "http://terminology.hl7.org/CodeSystem/ex-USCLS",
            "code": "99555"
          } ]
        },
        "encounter": [ {
          "reference": "Encounter/a589bfe5-bb7c-4429-98a0-6d0afef48244"
        } ]
      } ]
    },
    "request": {
      "method": "PUT",
      "url": "Claim/5ca62962b8484628b8de1ec5"
    }
  }, {
    "fullUrl": "https://madie.cms.gov/ServiceRequest/79585bbb-6d73-46fd-b362-a4c714ba9c48",
    "resource": {
      "resourceType": "ServiceRequest",
      "id": "79585bbb-6d73-46fd-b362-a4c714ba9c48",
      "meta": {
        "profile": [ "http://hl7.org/fhir/us/qicore/StructureDefinition/qicore-servicerequest" ]
      },
      "status": "active",
      "intent": "order",
      "code": {
        "coding": [ {
          "system": "http://snomed.info/sct",
          "code": "133918004"
        } ]
      },
      "subject": {
        "reference": "Patient/b1d0c606-661d-44e8-a25f-4e7ca8131f2a"
      },
      "authoredOn": "2026-10-01T11:30:00.000+00:00"
    },
    "request": {
      "method": "PUT",
      "url": "ServiceRequest/79585bbb-6d73-46fd-b362-a4c714ba9c48"
    }
  }, {
    "fullUrl": "https://madie.cms.gov/Coverage/01d34692-f373-44a1-ba93-1164957ff193",
    "resource": {
      "resourceType": "Coverage",
      "id": "01d34692-f373-44a1-ba93-1164957ff193",
      "status": "active",
      "subscriberId": "523435",
      "beneficiary": {
        "reference": "Patient/b1d0c606-661d-44e8-a25f-4e7ca8131f2a"
      },
      "relationship": {
        "coding": [ {
          "system": "http://terminology.hl7.org/CodeSystem/subscriber-relationship",
          "code": "self"
        } ]
      },
      "period": {
        "start": "1986-09-18T08:00:00.000+00:00"
      },
      "payor": [ {
        "reference": "Organization/0b94d6fa-21d6-4a68-9740-c8a2942825cb"
      } ]
    },
    "request": {
      "method": "PUT",
      "url": "Coverage/01d34692-f373-44a1-ba93-1164957ff193"
    }
  }, {
    "fullUrl": "https://madie.cms.gov/Condition/0d54d0d0-92dd-4cf1-be49-ccc779f75f55",
    "resource": {
      "resourceType": "Condition",
      "id": "0d54d0d0-92dd-4cf1-be49-ccc779f75f55",
      "meta": {
        "profile": [ "http://hl7.org/fhir/us/qicore/StructureDefinition/qicore-condition-problems-health-concerns" ]
      },
      "clinicalStatus": {
        "coding": [ {
          "system": "http://terminology.hl7.org/CodeSystem/condition-clinical",
          "code": "active"
        } ]
      },
      "verificationStatus": {
        "coding": [ {
          "system": "http://terminology.hl7.org/CodeSystem/condition-ver-status",
          "code": "confirmed"
        } ]
      },
      "category": [ {
        "coding": [ {
          "system": "http://terminology.hl7.org/CodeSystem/condition-category",
          "code": "encounter-diagnosis",
          "display": "Encounter Diagnosis"
        } ]
      } ],
      "code": {
        "coding": [ {
          "system": "http://snomed.info/sct",
          "version": "2021-09",
          "code": "111297002",
          "display": "Nonparalytic stroke (disorder)",
          "userSelected": true
        } ]
      },
      "subject": {
        "reference": "Patient/b1d0c606-661d-44e8-a25f-4e7ca8131f2a"
      },
      "recordedDate": "2026-10-13T08:00:00.000+00:00"
    },
    "request": {
      "method": "PUT",
      "url": "Condition/0d54d0d0-92dd-4cf1-be49-ccc779f75f55"
    }
  }, {
    "fullUrl": "https://madie.cms.gov/Organization/0b94d6fa-21d6-4a68-9740-c8a2942825cb",
    "resource": {
      "resourceType": "Organization",
      "id": "0b94d6fa-21d6-4a68-9740-c8a2942825cb",
      "meta": {
        "profile": [ "http://hl7.org/fhir/us/qicore/StructureDefinition/qicore-organization" ]
      },
      "identifier": [ {
        "use": "temp",
        "system": "urn:oid:2.16.840.1.113883.4.4",
        "value": "21-3259825"
      } ],
      "active": true,
      "type": [ {
        "coding": [ {
          "system": "http://terminology.hl7.org/CodeSystem/organization-type",
          "code": "pay",
          "display": "Payer"
        } ]
      } ],
      "name": "Blue Cross Blue Shield of Texas",
      "telecom": [ {
        "system": "phone",
        "value": "(+1) 972-766-6900"
      } ],
      "address": [ {
        "use": "billing",
        "type": "postal",
        "line": [ "P.O. Box 660044" ],
        "city": "Dallas",
        "state": "TX",
        "postalCode": "75266-0044",
        "country": "USA"
      } ]
    },
    "request": {
      "method": "PUT",
      "url": "Organization/0b94d6fa-21d6-4a68-9740-c8a2942825cb"
    }
  }, {
    "fullUrl": "https://madie.cms.gov/Practitioner/c0af68cd-a61f-47ec-8cf6-298d935c7254",
    "resource": {
      "resourceType": "Practitioner",
      "id": "c0af68cd-a61f-47ec-8cf6-298d935c7254",
      "identifier": [ {
        "system": "http://hl7.org/fhir/sid/us-npi",
        "value": "123456"
      } ],
      "name": [ {
        "family": "Evil",
        "prefix": [ "Dr" ]
      } ]
    },
    "request": {
      "method": "PUT",
      "url": "Practitioner/c0af68cd-a61f-47ec-8cf6-298d935c7254"
    }
  }, {
    "fullUrl": "https://madie.cms.gov/MeasureReport/840a3cfe-fd57-4f63-a462-de1fefe20251",
    "resource": {
      "resourceType": "MeasureReport",
      "id": "840a3cfe-fd57-4f63-a462-de1fefe20251",
      "meta": {
        "profile": [ "http://hl7.org/fhir/us/cqfmeasures/StructureDefinition/test-case-cqfm" ]
      },
      "contained": [ {
        "resourceType": "Parameters",
        "id": "8ff3434a-5590-46c2-b2be-f206a8a86650-parameters",
        "parameter": [ {
          "name": "subject",
          "valueString": "b1d0c606-661d-44e8-a25f-4e7ca8131f2a"
        } ]
      } ],
      "extension": [ {
        "url": "http://hl7.org/fhir/StructureDefinition/cqf-inputParameters",
        "valueReference": {
          "reference": "#8ff3434a-5590-46c2-b2be-f206a8a86650-parameters"
        }
      }, {
        "url": "http://hl7.org/fhir/us/cqfmeasures/StructureDefinition/cqfm-testCaseDescription",
        "valueMarkdown": "Patient receives CMO during inpatient encounter. ED ends 61 minutes before Obs start, Obs ends 61 min before inpatient encounter start. Testing HospitalizationWithObservation function.\n"
      } ],
      "modifierExtension": [ {
        "url": "http://hl7.org/fhir/us/cqfmeasures/StructureDefinition/cqfm-isTestCase",
        "valueBoolean": true
      } ],
      "status": "complete",
      "type": "individual",
      "measure": "https://madie.cms.gov/Measure/CMS71FHIRSTKAnticoagAFFlutter",
      "period": {
        "start": "2026-01-01",
        "end": "2026-12-31"
      },
      "group": [ {
        "id": "Group_1",
        "population": [ {
          "id": "InitialPopulation_1",
          "code": {
            "coding": [ {
              "system": "http://terminology.hl7.org/CodeSystem/measure-population",
              "code": "initial-population",
              "display": "Initial Population"
            } ]
          },
          "count": 1
        }, {
          "id": "Denominator_1",
          "code": {
            "coding": [ {
              "system": "http://terminology.hl7.org/CodeSystem/measure-population",
              "code": "denominator",
              "display": "Denominator"
            } ]
          },
          "count": 1
        }, {
          "id": "DenominatorExclusion_1",
          "code": {
            "coding": [ {
              "system": "http://terminology.hl7.org/CodeSystem/measure-population",
              "code": "denominator-exclusion",
              "display": "Denominator Exclusion"
            } ]
          },
          "count": 1
        }, {
          "id": "Numerator_1",
          "code": {
            "coding": [ {
              "system": "http://terminology.hl7.org/CodeSystem/measure-population",
              "code": "numerator",
              "display": "Numerator"
            } ]
          },
          "count": 0
        }, {
          "id": "DenominatorException_1",
          "code": {
            "coding": [ {
              "system": "http://terminology.hl7.org/CodeSystem/measure-population",
              "code": "denominator-exception",
              "display": "Denominator Exception"
            } ]
          },
          "count": 0
        } ],
        "measureScore": {
          "value": 0.0
        }
      } ],
      "evaluatedResource": [ {
        "reference": "Patient/b1d0c606-661d-44e8-a25f-4e7ca8131f2a"
      }, {
        "reference": "Condition/1bb8efd1-1fa6-4c08-bbf8-4076fa373e2c"
      }, {
        "reference": "Encounter/cdbb78c5-9042-4384-8a33-7e7639bd30f3"
      }, {
        "reference": "Encounter/4e092b6b-9501-40ac-aa6e-eb1317029519"
      }, {
        "reference": "Encounter/a589bfe5-bb7c-4429-98a0-6d0afef48244"
      }, {
        "reference": "Claim/5ca62962b8484628b8de1ec5"
      }, {
        "reference": "ServiceRequest/79585bbb-6d73-46fd-b362-a4c714ba9c48"
      }, {
        "reference": "Coverage/01d34692-f373-44a1-ba93-1164957ff193"
      }, {
        "reference": "Condition/0d54d0d0-92dd-4cf1-be49-ccc779f75f55"
      }, {
        "reference": "Organization/0b94d6fa-21d6-4a68-9740-c8a2942825cb"
      }, {
        "reference": "Practitioner/c0af68cd-a61f-47ec-8cf6-298d935c7254"
      } ]
    },
    "request": {
      "method": "PUT",
      "url": "MeasureReport/840a3cfe-fd57-4f63-a462-de1fefe20251"
    }
  } ]
}