{
  "resourceType": "Bundle",
  "id": "617bfeac1289f5673c8ceffc",
  "type": "transaction",
  "entry": [ {
    "fullUrl": "https://madie.cms.gov/Patient/983dd667-8c61-4797-9b71-1fa56b2c0a0f",
    "resource": {
      "resourceType": "Patient",
      "id": "983dd667-8c61-4797-9b71-1fa56b2c0a0f",
      "meta": {
        "profile": [ "http://hl7.org/fhir/us/qicore/StructureDefinition/qicore-patient" ]
      },
      "extension": [ {
        "url": "http://hl7.org/fhir/us/core/StructureDefinition/us-core-race",
        "extension": [ {
          "url": "ombCategory",
          "valueCoding": {
            "system": "urn:oid:2.16.840.1.113883.6.238",
            "code": "2076-8",
            "display": "Native Hawaiian or Other Pacific Islander",
            "userSelected": true
          }
        }, {
          "url": "text",
          "valueString": "Native Hawaiian or Other Pacific Islander"
        } ]
      }, {
        "url": "http://hl7.org/fhir/us/core/StructureDefinition/us-core-ethnicity",
        "extension": [ {
          "url": "ombCategory",
          "valueCoding": {
            "system": "urn:oid:2.16.840.1.113883.6.238",
            "code": "2135-2",
            "display": "Hispanic or Latino",
            "userSelected": true
          }
        }, {
          "url": "text",
          "valueString": "Hispanic or Latino"
        } ]
      }, {
        "url": "http://hl7.org/fhir/us/core/StructureDefinition/us-core-sex",
        "valueCode": "248152002"
      } ],
      "identifier": [ {
        "type": {
          "coding": [ {
            "system": "http://terminology.hl7.org/CodeSystem/v2-0203",
            "code": "MR"
          } ]
        },
        "system": "https://bonnie-fhir.healthit.gov/",
        "value": "617bfeac1289f5673c8ceffc"
      } ],
      "name": [ {
        "family": "DenExcl9Pass",
        "given": [ "AdverseEventStartsDuringED" ]
      } ],
      "gender": "female",
      "birthDate": "1985-12-02"
    },
    "request": {
      "method": "PUT",
      "url": "Patient/983dd667-8c61-4797-9b71-1fa56b2c0a0f"
    }
  }, {
    "fullUrl": "https://madie.cms.gov/Encounter/18b1ad6d-ca69-4bb0-ad05-9a488e8f642f",
    "resource": {
      "resourceType": "Encounter",
      "id": "18b1ad6d-ca69-4bb0-ad05-9a488e8f642f",
      "meta": {
        "profile": [ "http://hl7.org/fhir/us/qicore/StructureDefinition/qicore-encounter" ]
      },
      "status": "finished",
      "class": {
        "system": "http://terminology.hl7.org/CodeSystem/v3-ActCode",
        "code": "EMER",
        "display": "emergency",
        "userSelected": true
      },
      "type": [ {
        "coding": [ {
          "system": "http://snomed.info/sct",
          "version": "2020-09",
          "code": "4525004",
          "display": "Emergency department patient visit (procedure)",
          "userSelected": true
        } ]
      } ],
      "subject": {
        "reference": "Patient/983dd667-8c61-4797-9b71-1fa56b2c0a0f"
      },
      "period": {
        "start": "2026-10-09T08:05:00.000+00:00",
        "end": "2026-10-10T07:15:00.000+00:00"
      },
      "reasonCode": [ {
        "coding": [ {
          "system": "http://hl7.org/fhir/sid/icd-10-cm",
          "version": "2021",
          "code": "I21.21",
          "display": "ST elevation (STEMI) myocardial infarction involving left circumflex coronary artery",
          "userSelected": true
        } ]
      } ]
    },
    "request": {
      "method": "PUT",
      "url": "Encounter/18b1ad6d-ca69-4bb0-ad05-9a488e8f642f"
    }
  }, {
    "fullUrl": "https://madie.cms.gov/AdverseEvent/0004d818-5c0e-4269-a940-d1d7ef43f80b",
    "resource": {
      "resourceType": "AdverseEvent",
      "id": "0004d818-5c0e-4269-a940-d1d7ef43f80b",
      "meta": {
        "profile": [ "http://hl7.org/fhir/us/qicore/StructureDefinition/qicore-adverseevent" ]
      },
      "actuality": "actual",
      "event": {
        "coding": [ {
          "system": "http://snomed.info/sct",
          "code": "293572000",
          "display": "Urokinase adverse reaction (disorder)",
          "userSelected": true
        } ]
      },
      "subject": {
        "reference": "Patient/983dd667-8c61-4797-9b71-1fa56b2c0a0f"
      },
      "detected": "2026-10-09T11:05:00.000+00:00"
    },
    "request": {
      "method": "PUT",
      "url": "AdverseEvent/0004d818-5c0e-4269-a940-d1d7ef43f80b"
    }
  }, {
    "fullUrl": "https://madie.cms.gov/MeasureReport/f36762a3-ec5f-4773-9c31-c1d2036ab0f7",
    "resource": {
      "resourceType": "MeasureReport",
      "id": "f36762a3-ec5f-4773-9c31-c1d2036ab0f7",
      "meta": {
        "profile": [ "http://hl7.org/fhir/us/cqfmeasures/StructureDefinition/test-case-cqfm" ]
      },
      "contained": [ {
        "resourceType": "Parameters",
        "id": "7038a7e4-d52d-402f-9b88-5a5a1f09fdf6-parameters",
        "parameter": [ {
          "name": "subject",
          "valueString": "983dd667-8c61-4797-9b71-1fa56b2c0a0f"
        } ]
      } ],
      "extension": [ {
        "url": "http://hl7.org/fhir/StructureDefinition/cqf-inputParameters",
        "valueReference": {
          "reference": "#7038a7e4-d52d-402f-9b88-5a5a1f09fdf6-parameters"
        }
      }, {
        "url": "http://hl7.org/fhir/us/cqfmeasures/StructureDefinition/cqfm-testCaseDescription",
        "valueMarkdown": "Patient has adverse event starts during ED"
      } ],
      "modifierExtension": [ {
        "url": "http://hl7.org/fhir/us/cqfmeasures/StructureDefinition/cqfm-isTestCase",
        "valueBoolean": true
      } ],
      "status": "complete",
      "type": "individual",
      "measure": "https://madie.cms.gov/Measure/CMS996FHIRAptTxforSTEMI",
      "period": {
        "start": "2026-01-01",
        "end": "2026-12-31"
      },
      "group": [ {
        "id": "Group_1",
        "population": [ {
          "id": "InitialPopulation_1",
          "code": {
            "coding": [ {
              "system": "http://terminology.hl7.org/CodeSystem/measure-population",
              "code": "initial-population",
              "display": "Initial Population"
            } ]
          },
          "count": 1
        }, {
          "id": "Denominator_1",
          "code": {
            "coding": [ {
              "system": "http://terminology.hl7.org/CodeSystem/measure-population",
              "code": "denominator",
              "display": "Denominator"
            } ]
          },
          "count": 1
        }, {
          "id": "DenominatorExclusion_1",
          "code": {
            "coding": [ {
              "system": "http://terminology.hl7.org/CodeSystem/measure-population",
              "code": "denominator-exclusion",
              "display": "Denominator Exclusion"
            } ]
          },
          "count": 1
        }, {
          "id": "Numerator_1",
          "code": {
            "coding": [ {
              "system": "http://terminology.hl7.org/CodeSystem/measure-population",
              "code": "numerator",
              "display": "Numerator"
            } ]
          },
          "count": 0
        }, {
          "id": "DenominatorException_1",
          "code": {
            "coding": [ {
              "system": "http://terminology.hl7.org/CodeSystem/measure-population",
              "code": "denominator-exception",
              "display": "Denominator Exception"
            } ]
          },
          "count": 0
        } ],
        "measureScore": {
          "value": 0.0
        }
      } ],
      "evaluatedResource": [ {
        "reference": "Patient/983dd667-8c61-4797-9b71-1fa56b2c0a0f"
      }, {
        "reference": "Encounter/18b1ad6d-ca69-4bb0-ad05-9a488e8f642f"
      }, {
        "reference": "AdverseEvent/0004d818-5c0e-4269-a940-d1d7ef43f80b"
      } ]
    },
    "request": {
      "method": "PUT",
      "url": "MeasureReport/f36762a3-ec5f-4773-9c31-c1d2036ab0f7"
    }
  } ]
}