{
  "resourceType": "Bundle",
  "id": "6359776b6aee9629c8298235",
  "type": "transaction",
  "entry": [ {
    "fullUrl": "https://madie.cms.gov/Patient/0f081f1b-4577-418b-9bc7-6b06fc23b513",
    "resource": {
      "resourceType": "Patient",
      "id": "0f081f1b-4577-418b-9bc7-6b06fc23b513",
      "meta": {
        "profile": [ "http://hl7.org/fhir/us/qicore/StructureDefinition/qicore-patient" ]
      },
      "text": {
        "status": "generated",
        "div": "<div xmlns=\"http://www.w3.org/1999/xhtml\"><div class=\"hapiHeaderText\">RISKHctRsltDtTimeEQDelStart <b>RISKFail </b></div><table class=\"hapiPropertyTable\"><tbody><tr><td>Date of birth</td><td><span>01 February 2004</span></td></tr></tbody></table></div>"
      },
      "extension": [ {
        "url": "http://hl7.org/fhir/us/core/StructureDefinition/us-core-race",
        "extension": [ {
          "url": "ombCategory",
          "valueCoding": {
            "system": "urn:oid:2.16.840.1.113883.6.238",
            "code": "1002-5",
            "display": "American Indian or Alaska Native",
            "userSelected": true
          }
        }, {
          "url": "text",
          "valueString": "American Indian or Alaska Native"
        } ]
      }, {
        "url": "http://hl7.org/fhir/us/core/StructureDefinition/us-core-ethnicity",
        "extension": [ {
          "url": "ombCategory",
          "valueCoding": {
            "system": "urn:oid:2.16.840.1.113883.6.238",
            "code": "2135-2",
            "display": "Hispanic or Latino",
            "userSelected": true
          }
        }, {
          "url": "text",
          "valueString": "Hispanic or Latino"
        } ]
      } ],
      "identifier": [ {
        "type": {
          "coding": [ {
            "system": "http://terminology.hl7.org/CodeSystem/v2-0203",
            "code": "MR"
          } ]
        },
        "system": "https://bonnie-fhir.healthit.gov/",
        "value": "6359776b6aee9629c8298235"
      } ],
      "active": true,
      "name": [ {
        "use": "usual",
        "family": "RiskFail",
        "given": [ "RISKHctRsltDtTimeEQDelStart" ]
      } ],
      "gender": "female",
      "birthDate": "2005-02-01"
    },
    "request": {
      "method": "PUT",
      "url": "Patient/0f081f1b-4577-418b-9bc7-6b06fc23b513"
    }
  }, {
    "fullUrl": "https://madie.cms.gov/Observation/f7663a2f-b26d-4c1c-aecd-dfbe9fe87304",
    "resource": {
      "resourceType": "Observation",
      "id": "f7663a2f-b26d-4c1c-aecd-dfbe9fe87304",
      "meta": {
        "profile": [ "http://hl7.org/fhir/us/qicore/StructureDefinition/qicore-simple-observation" ]
      },
      "status": "final",
      "category": [ {
        "coding": [ {
          "system": "http://terminology.hl7.org/CodeSystem/observation-category",
          "code": "exam",
          "display": "exam",
          "userSelected": true
        } ]
      } ],
      "code": {
        "coding": [ {
          "system": "http://loinc.org",
          "code": "93857-1"
        } ]
      },
      "subject": {
        "reference": "Patient/0f081f1b-4577-418b-9bc7-6b06fc23b513"
      },
      "effectiveDateTime": "2026-02-01T08:00:00.000+00:00",
      "performer": [ {
        "reference": "Organization/example1",
        "display": "Hendricks Country Hospital"
      } ],
      "valueDateTime": "2026-02-01T08:00:00.000+00:00"
    },
    "request": {
      "method": "PUT",
      "url": "Observation/f7663a2f-b26d-4c1c-aecd-dfbe9fe87304"
    }
  }, {
    "fullUrl": "https://madie.cms.gov/Condition/49de34a6-fb34-4732-9f31-02a8ac2b3ad4",
    "resource": {
      "resourceType": "Condition",
      "id": "49de34a6-fb34-4732-9f31-02a8ac2b3ad4",
      "meta": {
        "profile": [ "http://hl7.org/fhir/us/qicore/StructureDefinition/qicore-condition-encounter-diagnosis" ]
      },
      "category": [ {
        "coding": [ {
          "system": "http://terminology.hl7.org/CodeSystem/condition-category",
          "code": "encounter-diagnosis",
          "display": "Encounter Diagnosis"
        } ]
      } ],
      "code": {
        "coding": [ {
          "system": "http://hl7.org/fhir/sid/icd-10-cm",
          "version": "2023",
          "code": "Z3A.21",
          "display": "21 weeks gestation",
          "userSelected": true
        } ]
      },
      "subject": {
        "reference": "Patient/0f081f1b-4577-418b-9bc7-6b06fc23b513"
      },
      "recordedDate": "2026-10-26T08:00:00.000+00:00"
    },
    "request": {
      "method": "PUT",
      "url": "Condition/49de34a6-fb34-4732-9f31-02a8ac2b3ad4"
    }
  }, {
    "fullUrl": "https://madie.cms.gov/Encounter/837e8fa4-05fa-420d-a647-944cef0fa01d",
    "resource": {
      "resourceType": "Encounter",
      "id": "837e8fa4-05fa-420d-a647-944cef0fa01d",
      "meta": {
        "profile": [ "http://hl7.org/fhir/us/qicore/StructureDefinition/qicore-encounter" ]
      },
      "status": "finished",
      "class": {
        "system": "http://terminology.hl7.org/CodeSystem/v3-ActCode",
        "code": "IMP",
        "display": "inpatient encounter"
      },
      "type": [ {
        "coding": [ {
          "system": "http://snomed.info/sct",
          "code": "183452005"
        } ]
      } ],
      "subject": {
        "reference": "Patient/0f081f1b-4577-418b-9bc7-6b06fc23b513"
      },
      "period": {
        "start": "2026-02-01T08:00:00.000+00:00",
        "end": "2026-02-05T08:15:00.000+00:00"
      },
      "reasonReference": [ {
        "reference": "Condition/49de34a6-fb34-4732-9f31-02a8ac2b3ad4"
      } ]
    },
    "request": {
      "method": "PUT",
      "url": "Encounter/837e8fa4-05fa-420d-a647-944cef0fa01d"
    }
  }, {
    "fullUrl": "https://madie.cms.gov/Encounter/9d5a9372-6f0c-4724-86d0-551e3e21e24a",
    "resource": {
      "resourceType": "Encounter",
      "id": "9d5a9372-6f0c-4724-86d0-551e3e21e24a",
      "meta": {
        "profile": [ "http://hl7.org/fhir/us/qicore/StructureDefinition/qicore-encounter" ]
      },
      "status": "finished",
      "class": {
        "system": "http://terminology.hl7.org/CodeSystem/v3-ActCode",
        "code": "EMER",
        "display": "emergency"
      },
      "type": [ {
        "coding": [ {
          "system": "http://snomed.info/sct",
          "code": "4525004"
        } ]
      } ],
      "subject": {
        "reference": "Patient/0f081f1b-4577-418b-9bc7-6b06fc23b513"
      },
      "period": {
        "start": "2026-02-01T07:00:00.000+00:00",
        "end": "2026-02-01T07:59:00.000+00:00"
      }
    },
    "request": {
      "method": "PUT",
      "url": "Encounter/9d5a9372-6f0c-4724-86d0-551e3e21e24a"
    }
  }, {
    "fullUrl": "https://madie.cms.gov/Procedure/a074bf99-14ac-4df6-a5a3-922b5889b112",
    "resource": {
      "resourceType": "Procedure",
      "id": "a074bf99-14ac-4df6-a5a3-922b5889b112",
      "meta": {
        "profile": [ "http://hl7.org/fhir/us/qicore/StructureDefinition/qicore-procedure" ]
      },
      "extension": [ {
        "url": "http://hl7.org/fhir/us/qicore/StructureDefinition/qicore-recorded",
        "valueDateTime": "2026-02-04T13:35:00.000+00:00"
      } ],
      "status": "completed",
      "code": {
        "coding": [ {
          "system": "http://snomed.info/sct",
          "code": "10745001"
        } ]
      },
      "subject": {
        "reference": "Patient/0f081f1b-4577-418b-9bc7-6b06fc23b513"
      },
      "performedPeriod": {
        "start": "2026-02-01T08:00:00.000+00:00",
        "end": "2026-02-05T08:15:00.000+00:00"
      }
    },
    "request": {
      "method": "PUT",
      "url": "Procedure/a074bf99-14ac-4df6-a5a3-922b5889b112"
    }
  }, {
    "fullUrl": "https://madie.cms.gov/Observation/27b75d12-4c60-4c04-b776-5d6c98bd163f",
    "resource": {
      "resourceType": "Observation",
      "id": "27b75d12-4c60-4c04-b776-5d6c98bd163f",
      "meta": {
        "profile": [ "http://hl7.org/fhir/us/qicore/StructureDefinition/qicore-observation-lab" ]
      },
      "status": "final",
      "category": [ {
        "coding": [ {
          "system": "http://terminology.hl7.org/CodeSystem/observation-category",
          "code": "laboratory",
          "display": "laboratory",
          "userSelected": true
        } ]
      } ],
      "code": {
        "coding": [ {
          "system": "http://loinc.org",
          "version": "2.73",
          "code": "20570-8",
          "display": "Hematocrit [Volume Fraction] in Blood",
          "userSelected": true
        } ]
      },
      "subject": {
        "reference": "Patient/0f081f1b-4577-418b-9bc7-6b06fc23b513"
      },
      "effectiveDateTime": "2026-02-01T08:00:00.000+00:00",
      "issued": "2026-02-01T08:00:00.000+00:00",
      "valueQuantity": {
        "value": 20,
        "unit": "%"
      }
    },
    "request": {
      "method": "PUT",
      "url": "Observation/27b75d12-4c60-4c04-b776-5d6c98bd163f"
    }
  }, {
    "fullUrl": "https://madie.cms.gov/MeasureReport/9253942d-c5aa-4105-b9a2-97dcc2b845af",
    "resource": {
      "resourceType": "MeasureReport",
      "id": "9253942d-c5aa-4105-b9a2-97dcc2b845af",
      "meta": {
        "profile": [ "http://hl7.org/fhir/us/cqfmeasures/StructureDefinition/test-case-cqfm" ]
      },
      "contained": [ {
        "resourceType": "Parameters",
        "id": "a11c0f48-aeca-49de-a50f-f8e38dd047f7-parameters",
        "parameter": [ {
          "name": "subject",
          "valueString": "0f081f1b-4577-418b-9bc7-6b06fc23b513"
        } ]
      } ],
      "extension": [ {
        "url": "http://hl7.org/fhir/StructureDefinition/cqf-inputParameters",
        "valueReference": {
          "reference": "#a11c0f48-aeca-49de-a50f-f8e38dd047f7-parameters"
        }
      }, {
        "url": "http://hl7.org/fhir/us/cqfmeasures/StructureDefinition/cqfm-testCaseDescription",
        "valueMarkdown": "Patient with hematocrit result date/time = delivery date/time \n"
      } ],
      "modifierExtension": [ {
        "url": "http://hl7.org/fhir/us/cqfmeasures/StructureDefinition/cqfm-isTestCase",
        "valueBoolean": true
      } ],
      "status": "complete",
      "type": "individual",
      "measure": "https://madie.cms.gov/Measure/CMS1028FHIRPCSevereOBComps",
      "period": {
        "start": "2026-01-01",
        "end": "2026-12-31"
      },
      "group": [ {
        "id": "Group_1",
        "population": [ {
          "id": "InitialPopulation_1",
          "code": {
            "coding": [ {
              "system": "http://terminology.hl7.org/CodeSystem/measure-population",
              "code": "initial-population",
              "display": "Initial Population"
            } ]
          },
          "count": 1
        }, {
          "id": "Denominator_1",
          "code": {
            "coding": [ {
              "system": "http://terminology.hl7.org/CodeSystem/measure-population",
              "code": "denominator",
              "display": "Denominator"
            } ]
          },
          "count": 1
        }, {
          "id": "Numerator_1",
          "code": {
            "coding": [ {
              "system": "http://terminology.hl7.org/CodeSystem/measure-population",
              "code": "numerator",
              "display": "Numerator"
            } ]
          },
          "count": 0
        }, {
          "id": "NumeratorExclusion_1",
          "code": {
            "coding": [ {
              "system": "http://terminology.hl7.org/CodeSystem/measure-population",
              "code": "numerator-exclusion",
              "display": "Numerator Exclusion"
            } ]
          },
          "count": 0
        } ],
        "measureScore": {
          "value": 0.0
        }
      }, {
        "id": "Group_2",
        "population": [ {
          "id": "InitialPopulation_2",
          "code": {
            "coding": [ {
              "system": "http://terminology.hl7.org/CodeSystem/measure-population",
              "code": "initial-population",
              "display": "Initial Population"
            } ]
          },
          "count": 1
        }, {
          "id": "Denominator_2",
          "code": {
            "coding": [ {
              "system": "http://terminology.hl7.org/CodeSystem/measure-population",
              "code": "denominator",
              "display": "Denominator"
            } ]
          },
          "count": 1
        }, {
          "id": "Numerator_2",
          "code": {
            "coding": [ {
              "system": "http://terminology.hl7.org/CodeSystem/measure-population",
              "code": "numerator",
              "display": "Numerator"
            } ]
          },
          "count": 0
        }, {
          "id": "NumeratorExclusion_2",
          "code": {
            "coding": [ {
              "system": "http://terminology.hl7.org/CodeSystem/measure-population",
              "code": "numerator-exclusion",
              "display": "Numerator Exclusion"
            } ]
          },
          "count": 0
        } ],
        "measureScore": {
          "value": 0.0
        }
      } ],
      "evaluatedResource": [ {
        "reference": "Patient/0f081f1b-4577-418b-9bc7-6b06fc23b513"
      }, {
        "reference": "Observation/f7663a2f-b26d-4c1c-aecd-dfbe9fe87304"
      }, {
        "reference": "Condition/49de34a6-fb34-4732-9f31-02a8ac2b3ad4"
      }, {
        "reference": "Encounter/837e8fa4-05fa-420d-a647-944cef0fa01d"
      }, {
        "reference": "Encounter/9d5a9372-6f0c-4724-86d0-551e3e21e24a"
      }, {
        "reference": "Procedure/a074bf99-14ac-4df6-a5a3-922b5889b112"
      }, {
        "reference": "Observation/27b75d12-4c60-4c04-b776-5d6c98bd163f"
      } ]
    },
    "request": {
      "method": "PUT",
      "url": "MeasureReport/9253942d-c5aa-4105-b9a2-97dcc2b845af"
    }
  } ]
}