{
  "resourceType": "Bundle",
  "id": "IPPPass-SDECoverage",
  "type": "transaction",
  "entry": [ {
    "fullUrl": "https://madie.cms.gov/Patient/4c814ca9-da50-43e3-9e31-dbe755ee5c5e",
    "resource": {
      "resourceType": "Patient",
      "id": "4c814ca9-da50-43e3-9e31-dbe755ee5c5e",
      "meta": {
        "profile": [ "http://hl7.org/fhir/us/qicore/StructureDefinition/qicore-patient" ]
      },
      "extension": [ {
        "url": "http://hl7.org/fhir/us/core/StructureDefinition/us-core-race",
        "extension": [ {
          "url": "ombCategory",
          "valueCoding": {
            "system": "urn:oid:2.16.840.1.113883.6.238",
            "code": "2028-9",
            "display": "Asian",
            "userSelected": true
          }
        }, {
          "url": "text",
          "valueString": "Asian"
        }, {
          "url": "detailed",
          "valueCoding": {
            "system": "urn:oid:2.16.840.1.113883.6.238",
            "code": "1653-5",
            "display": "Tohono O'Odham"
          }
        } ]
      }, {
        "url": "http://hl7.org/fhir/us/core/StructureDefinition/us-core-ethnicity",
        "extension": [ {
          "url": "ombCategory",
          "valueCoding": {
            "system": "urn:oid:2.16.840.1.113883.6.238",
            "code": "2135-2",
            "display": "Hispanic or Latino",
            "userSelected": true
          }
        }, {
          "url": "text",
          "valueString": "Hispanic or Latino"
        }, {
          "url": "detailed",
          "valueCoding": {
            "system": "urn:oid:2.16.840.1.113883.6.238",
            "code": "2180-8",
            "display": "Puerto Rican"
          }
        } ]
      }, {
        "url": "http://hl7.org/fhir/us/core/StructureDefinition/us-core-sex",
        "valueCode": "248153007"
      } ],
      "identifier": [ {
        "system": "http://hospital.smarthealthit.org",
        "value": "999999995"
      } ],
      "name": [ {
        "family": "SDE",
        "given": [ "SDECoverage" ]
      } ],
      "gender": "male",
      "birthDate": "1956-01-01"
    },
    "request": {
      "method": "PUT",
      "url": "Patient/4c814ca9-da50-43e3-9e31-dbe755ee5c5e"
    }
  }, {
    "fullUrl": "https://madie.cms.gov/Encounter/e91e634e-b958-421d-a0db-eb8e3ea12767",
    "resource": {
      "resourceType": "Encounter",
      "id": "e91e634e-b958-421d-a0db-eb8e3ea12767",
      "meta": {
        "profile": [ "http://hl7.org/fhir/us/qicore/StructureDefinition/qicore-encounter" ]
      },
      "status": "finished",
      "class": {
        "system": "http://terminology.hl7.org/CodeSystem/v3-ActCode",
        "code": "AMB",
        "display": "ambulatory"
      },
      "type": [ {
        "coding": [ {
          "system": "http://snomed.info/sct",
          "code": "401267002",
          "display": "Telephone triage encounter (procedure)"
        } ]
      } ],
      "subject": {
        "reference": "Patient/4c814ca9-da50-43e3-9e31-dbe755ee5c5e"
      },
      "period": {
        "start": "2026-01-01T00:00:00.000+00:00",
        "end": "2026-01-01T01:00:00.000+00:00"
      }
    },
    "request": {
      "method": "PUT",
      "url": "Encounter/e91e634e-b958-421d-a0db-eb8e3ea12767"
    }
  }, {
    "fullUrl": "https://madie.cms.gov/Coverage/21f06d4c-94c2-4139-ad6f-3c4a5488f911",
    "resource": {
      "resourceType": "Coverage",
      "id": "21f06d4c-94c2-4139-ad6f-3c4a5488f911",
      "meta": {
        "profile": [ "http://hl7.org/fhir/us/qicore/StructureDefinition/qicore-coverage" ]
      },
      "identifier": [ {
        "system": "http://benefitsinc.com/certificate",
        "value": "12345"
      } ],
      "status": "active",
      "type": {
        "coding": [ {
          "system": "https://nahdo.org/sopt",
          "code": "59",
          "display": "Other Private Insurance"
        } ]
      },
      "policyHolder": {
        "reference": "Patient/4c814ca9-da50-43e3-9e31-dbe755ee5c5e"
      },
      "subscriber": {
        "reference": "Patient/4c814ca9-da50-43e3-9e31-dbe755ee5c5e"
      },
      "subscriberId": "12191",
      "beneficiary": {
        "reference": "Patient/4c814ca9-da50-43e3-9e31-dbe755ee5c5e"
      },
      "dependent": "0",
      "relationship": {
        "coding": [ {
          "system": "http://terminology.hl7.org/CodeSystem/subscriber-relationship",
          "code": "self"
        } ]
      },
      "period": {
        "start": "2023-01-01T06:00:00.000+00:00",
        "end": "2023-01-01T11:06:01.000+00:00"
      },
      "payor": [ {
        "reference": "Patient/4c814ca9-da50-43e3-9e31-dbe755ee5c5e"
      } ],
      "order": 9
    },
    "request": {
      "method": "PUT",
      "url": "Coverage/21f06d4c-94c2-4139-ad6f-3c4a5488f911"
    }
  }, {
    "fullUrl": "https://madie.cms.gov/Condition/073af2ed-6dff-481d-accb-5585aea1fbed",
    "resource": {
      "resourceType": "Condition",
      "id": "073af2ed-6dff-481d-accb-5585aea1fbed",
      "meta": {
        "profile": [ "http://hl7.org/fhir/us/qicore/StructureDefinition/qicore-condition-problems-health-concerns" ]
      },
      "clinicalStatus": {
        "coding": [ {
          "system": "http://terminology.hl7.org/CodeSystem/condition-clinical",
          "code": "active"
        } ]
      },
      "category": [ {
        "coding": [ {
          "system": "http://terminology.hl7.org/CodeSystem/condition-category",
          "code": "problem-list-item",
          "display": "Problem List Item"
        } ]
      } ],
      "code": {
        "coding": [ {
          "system": "http://snomed.info/sct",
          "code": "371125006",
          "display": "Labile essential hypertension (disorder)"
        } ]
      },
      "subject": {
        "reference": "Patient/4c814ca9-da50-43e3-9e31-dbe755ee5c5e"
      },
      "onsetDateTime": "2026-06-30T23:59:59.000+00:00"
    },
    "request": {
      "method": "PUT",
      "url": "Condition/073af2ed-6dff-481d-accb-5585aea1fbed"
    }
  }, {
    "fullUrl": "https://madie.cms.gov/MeasureReport/be1e7096-9087-4965-b04a-6e2804339203",
    "resource": {
      "resourceType": "MeasureReport",
      "id": "be1e7096-9087-4965-b04a-6e2804339203",
      "meta": {
        "profile": [ "http://hl7.org/fhir/us/cqfmeasures/StructureDefinition/test-case-cqfm" ]
      },
      "contained": [ {
        "resourceType": "Parameters",
        "id": "5ceb704b-9351-47aa-938d-26ddd11eadbd-parameters",
        "parameter": [ {
          "name": "subject",
          "valueString": "4c814ca9-da50-43e3-9e31-dbe755ee5c5e"
        } ]
      } ],
      "extension": [ {
        "url": "http://hl7.org/fhir/StructureDefinition/cqf-inputParameters",
        "valueReference": {
          "reference": "#5ceb704b-9351-47aa-938d-26ddd11eadbd-parameters"
        }
      }, {
        "url": "http://hl7.org/fhir/us/cqfmeasures/StructureDefinition/cqfm-testCaseDescription",
        "valueMarkdown": "For meeting SDE 100% coverage - patient gender male, sde payer coverage, ethnicity detailed, race detailed"
      } ],
      "modifierExtension": [ {
        "url": "http://hl7.org/fhir/us/cqfmeasures/StructureDefinition/cqfm-isTestCase",
        "valueBoolean": true
      } ],
      "status": "complete",
      "type": "individual",
      "measure": "https://madie.cms.gov/Measure/CMS165FHIRControllingHighBP",
      "period": {
        "start": "2026-01-01",
        "end": "2026-12-31"
      },
      "group": [ {
        "id": "Group_1",
        "population": [ {
          "id": "InitialPopulation_1",
          "code": {
            "coding": [ {
              "system": "http://terminology.hl7.org/CodeSystem/measure-population",
              "code": "initial-population",
              "display": "Initial Population"
            } ]
          },
          "count": 1
        }, {
          "id": "Denominator_1",
          "code": {
            "coding": [ {
              "system": "http://terminology.hl7.org/CodeSystem/measure-population",
              "code": "denominator",
              "display": "Denominator"
            } ]
          },
          "count": 1
        }, {
          "id": "DenominatorExclusion_1",
          "code": {
            "coding": [ {
              "system": "http://terminology.hl7.org/CodeSystem/measure-population",
              "code": "denominator-exclusion",
              "display": "Denominator Exclusion"
            } ]
          },
          "count": 0
        }, {
          "id": "Numerator_1",
          "code": {
            "coding": [ {
              "system": "http://terminology.hl7.org/CodeSystem/measure-population",
              "code": "numerator",
              "display": "Numerator"
            } ]
          },
          "count": 0
        } ],
        "measureScore": {
          "value": 1.0
        }
      } ],
      "evaluatedResource": [ {
        "reference": "Patient/4c814ca9-da50-43e3-9e31-dbe755ee5c5e"
      }, {
        "reference": "Encounter/e91e634e-b958-421d-a0db-eb8e3ea12767"
      }, {
        "reference": "Coverage/21f06d4c-94c2-4139-ad6f-3c4a5488f911"
      }, {
        "reference": "Condition/073af2ed-6dff-481d-accb-5585aea1fbed"
      } ]
    },
    "request": {
      "method": "PUT",
      "url": "MeasureReport/be1e7096-9087-4965-b04a-6e2804339203"
    }
  } ]
}