{
  "resourceType": "Bundle",
  "id": "635300f1224f3b0539671247",
  "type": "transaction",
  "entry": [ {
    "fullUrl": "https://madie.cms.gov/Patient/971a20ab-c583-4260-954f-101d4b96554d",
    "resource": {
      "resourceType": "Patient",
      "id": "971a20ab-c583-4260-954f-101d4b96554d",
      "meta": {
        "profile": [ "http://hl7.org/fhir/us/qicore/StructureDefinition/qicore-patient" ]
      },
      "extension": [ {
        "url": "http://hl7.org/fhir/us/core/StructureDefinition/us-core-race",
        "extension": [ {
          "url": "ombCategory",
          "valueCoding": {
            "system": "urn:oid:2.16.840.1.113883.6.238",
            "code": "1002-5",
            "display": "American Indian or Alaska Native",
            "userSelected": true
          }
        }, {
          "url": "text",
          "valueString": "American Indian or Alaska Native"
        } ]
      }, {
        "url": "http://hl7.org/fhir/us/core/StructureDefinition/us-core-ethnicity",
        "extension": [ {
          "url": "ombCategory",
          "valueCoding": {
            "system": "urn:oid:2.16.840.1.113883.6.238",
            "code": "2135-2",
            "display": "Hispanic or Latino",
            "userSelected": true
          }
        }, {
          "url": "text",
          "valueString": "Hispanic or Latino"
        } ]
      } ],
      "identifier": [ {
        "type": {
          "coding": [ {
            "system": "http://terminology.hl7.org/CodeSystem/v2-0203",
            "code": "MR"
          } ]
        },
        "system": "https://bonnie-fhir.healthit.gov/",
        "value": "635300f1224f3b0539671247"
      } ],
      "name": [ {
        "family": "DENOMFAIL",
        "given": [ "EDDDateOnly" ]
      } ],
      "gender": "female",
      "birthDate": "2005-02-01"
    },
    "request": {
      "method": "PUT",
      "url": "Patient/971a20ab-c583-4260-954f-101d4b96554d"
    }
  }, {
    "fullUrl": "https://madie.cms.gov/Encounter/9a553171-4f70-4a9b-b961-2365c99202c0",
    "resource": {
      "resourceType": "Encounter",
      "id": "9a553171-4f70-4a9b-b961-2365c99202c0",
      "meta": {
        "profile": [ "http://hl7.org/fhir/us/qicore/StructureDefinition/qicore-encounter" ]
      },
      "status": "finished",
      "class": {
        "system": "http://terminology.hl7.org/CodeSystem/v3-ActCode",
        "code": "IMP",
        "display": "inpatient encounter"
      },
      "type": [ {
        "coding": [ {
          "system": "http://snomed.info/sct",
          "version": "2022-09",
          "code": "183452005",
          "display": "Emergency hospital admission (procedure)",
          "userSelected": true
        } ]
      } ],
      "subject": {
        "reference": "Patient/971a20ab-c583-4260-954f-101d4b96554d"
      },
      "period": {
        "start": "2026-02-01T08:00:00.000+00:00",
        "end": "2026-02-05T08:15:00.000+00:00"
      },
      "reasonCode": [ {
        "coding": [ {
          "system": "http://snomed.info/sct",
          "code": "169826009",
          "display": "Single live birth from singleton pregnancy (finding)"
        } ]
      } ]
    },
    "request": {
      "method": "PUT",
      "url": "Encounter/9a553171-4f70-4a9b-b961-2365c99202c0"
    }
  }, {
    "fullUrl": "https://madie.cms.gov/Procedure/416e5f11-b5e8-41db-afe3-975592e0c101",
    "resource": {
      "resourceType": "Procedure",
      "id": "416e5f11-b5e8-41db-afe3-975592e0c101",
      "meta": {
        "profile": [ "http://hl7.org/fhir/us/qicore/StructureDefinition/qicore-procedure" ]
      },
      "extension": [ {
        "url": "http://hl7.org/fhir/us/qicore/StructureDefinition/qicore-recorded",
        "valueDateTime": "2014-04-05T13:35:00.000+00:00"
      } ],
      "status": "completed",
      "code": {
        "coding": [ {
          "system": "http://snomed.info/sct",
          "version": "2022-09",
          "code": "10745001",
          "display": "Delivery of transverse presentation (procedure)",
          "userSelected": true
        } ]
      },
      "subject": {
        "reference": "Patient/971a20ab-c583-4260-954f-101d4b96554d"
      },
      "performedPeriod": {
        "start": "2026-02-01T08:00:00.000+00:00",
        "end": "2026-02-05T08:15:00.000+00:00"
      }
    },
    "request": {
      "method": "PUT",
      "url": "Procedure/416e5f11-b5e8-41db-afe3-975592e0c101"
    }
  }, {
    "fullUrl": "https://madie.cms.gov/Observation/2c995a1f-8226-4b43-9fee-91761753aef7",
    "resource": {
      "resourceType": "Observation",
      "id": "2c995a1f-8226-4b43-9fee-91761753aef7",
      "meta": {
        "profile": [ "http://hl7.org/fhir/us/qicore/StructureDefinition/qicore-simple-observation" ]
      },
      "status": "final",
      "category": [ {
        "coding": [ {
          "system": "http://terminology.hl7.org/CodeSystem/observation-category",
          "code": "exam",
          "display": "exam",
          "userSelected": true
        } ]
      } ],
      "code": {
        "coding": [ {
          "system": "http://loinc.org",
          "code": "93857-1",
          "display": "Date and time of obstetric delivery",
          "userSelected": true
        } ]
      },
      "subject": {
        "reference": "Patient/971a20ab-c583-4260-954f-101d4b96554d"
      },
      "effectiveDateTime": "2026-02-01T08:00:00.000+00:00",
      "performer": [ {
        "reference": "Organization/example1",
        "display": "Hendricks Country Hospital"
      } ],
      "valueDateTime": "2026-02-01T08:00:00.000+00:00"
    },
    "request": {
      "method": "PUT",
      "url": "Observation/2c995a1f-8226-4b43-9fee-91761753aef7"
    }
  }, {
    "fullUrl": "https://madie.cms.gov/Observation/66df2bfe-d60c-465f-9662-d0ba43634bd3",
    "resource": {
      "resourceType": "Observation",
      "id": "66df2bfe-d60c-465f-9662-d0ba43634bd3",
      "meta": {
        "profile": [ "http://hl7.org/fhir/us/qicore/StructureDefinition/qicore-simple-observation" ]
      },
      "status": "final",
      "category": [ {
        "coding": [ {
          "system": "http://terminology.hl7.org/CodeSystem/observation-category",
          "code": "exam",
          "display": "exam",
          "userSelected": true
        } ]
      } ],
      "code": {
        "coding": [ {
          "system": "http://loinc.org",
          "code": "11778-8",
          "display": "Delivery date Estimated",
          "userSelected": true
        } ]
      },
      "subject": {
        "reference": "Patient/971a20ab-c583-4260-954f-101d4b96554d"
      },
      "effectiveDateTime": "2026-01-31T08:00:00.000+00:00",
      "performer": [ {
        "reference": "Organization/example1",
        "display": "Hendricks Country Hospital"
      } ]
    },
    "request": {
      "method": "PUT",
      "url": "Observation/66df2bfe-d60c-465f-9662-d0ba43634bd3"
    }
  }, {
    "fullUrl": "https://madie.cms.gov/Coverage/190817ed-df56-4941-beb9-bb5762516d88",
    "resource": {
      "resourceType": "Coverage",
      "id": "190817ed-df56-4941-beb9-bb5762516d88",
      "meta": {
        "profile": [ "http://hl7.org/fhir/us/qicore/StructureDefinition/qicore-practitioner" ]
      },
      "status": "active",
      "beneficiary": {
        "reference": "Patient/971a20ab-c583-4260-954f-101d4b96554d"
      },
      "payor": [ {
        "reference": "Organization/fb06b297-9bc3-4f8b-a773-32e97951be55"
      } ]
    },
    "request": {
      "method": "PUT",
      "url": "Coverage/190817ed-df56-4941-beb9-bb5762516d88"
    }
  }, {
    "fullUrl": "https://madie.cms.gov/Organization/fb06b297-9bc3-4f8b-a773-32e97951be55",
    "resource": {
      "resourceType": "Organization",
      "id": "fb06b297-9bc3-4f8b-a773-32e97951be55",
      "meta": {
        "profile": [ "http://hl7.org/fhir/us/qicore/StructureDefinition/qicore-organization" ]
      },
      "identifier": [ {
        "use": "temp",
        "system": "urn:oid:2.16.840.1.113883.4.4",
        "value": "21-3259825"
      } ],
      "active": true,
      "type": [ {
        "coding": [ {
          "system": "http://terminology.hl7.org/CodeSystem/organization-type",
          "code": "pay",
          "display": "Payer"
        } ]
      } ],
      "name": "Blue Cross Blue Shield of Texas",
      "telecom": [ {
        "system": "phone",
        "value": "(+1) 972-766-6900"
      } ],
      "address": [ {
        "use": "billing",
        "type": "postal",
        "line": [ "P.O. Box 660044" ],
        "city": "Dallas",
        "state": "TX",
        "postalCode": "75266-0044",
        "country": "USA"
      } ]
    },
    "request": {
      "method": "PUT",
      "url": "Organization/fb06b297-9bc3-4f8b-a773-32e97951be55"
    }
  }, {
    "fullUrl": "https://madie.cms.gov/Practitioner/867114c5-07ae-42ca-bc0a-fc3079308b47",
    "resource": {
      "resourceType": "Practitioner",
      "id": "867114c5-07ae-42ca-bc0a-fc3079308b47",
      "meta": {
        "profile": [ "http://hl7.org/fhir/us/qicore/StructureDefinition/qicore-practitioner" ]
      },
      "identifier": [ {
        "system": "http://hl7.org/fhir/sid/us-npi",
        "value": "9969598752"
      } ],
      "name": [ {
        "family": "Evil",
        "prefix": [ "Dr" ]
      } ]
    },
    "request": {
      "method": "PUT",
      "url": "Practitioner/867114c5-07ae-42ca-bc0a-fc3079308b47"
    }
  }, {
    "fullUrl": "https://madie.cms.gov/MeasureReport/d6715711-c7f5-4113-8f75-92c6b5a1cef8",
    "resource": {
      "resourceType": "MeasureReport",
      "id": "d6715711-c7f5-4113-8f75-92c6b5a1cef8",
      "meta": {
        "profile": [ "http://hl7.org/fhir/us/cqfmeasures/StructureDefinition/test-case-cqfm" ]
      },
      "contained": [ {
        "resourceType": "Parameters",
        "id": "0d4dfea3-af64-4da5-bf29-4260c6612185-parameters",
        "parameter": [ {
          "name": "subject",
          "valueString": "971a20ab-c583-4260-954f-101d4b96554d"
        } ]
      } ],
      "extension": [ {
        "url": "http://hl7.org/fhir/StructureDefinition/cqf-inputParameters",
        "valueReference": {
          "reference": "#0d4dfea3-af64-4da5-bf29-4260c6612185-parameters"
        }
      }, {
        "url": "http://hl7.org/fhir/us/cqfmeasures/StructureDefinition/cqfm-testCaseDescription",
        "valueMarkdown": "Last assessment Performed, Estimated Delivery Date, Relevant time, 24 hours 1 min before Delivery Result Date/Time.  EDD has effectiveDateTime only; fails with no result returned (\"valueDateTime\": \"2025-01-31\" removed)\n"
      } ],
      "modifierExtension": [ {
        "url": "http://hl7.org/fhir/us/cqfmeasures/StructureDefinition/cqfm-isTestCase",
        "valueBoolean": true
      } ],
      "status": "complete",
      "type": "individual",
      "measure": "https://madie.cms.gov/Measure/CMS1028FHIRPCSevereOBComps",
      "period": {
        "start": "2026-01-01",
        "end": "2026-12-31"
      },
      "group": [ {
        "id": "Group_1",
        "population": [ {
          "id": "InitialPopulation_1",
          "code": {
            "coding": [ {
              "system": "http://terminology.hl7.org/CodeSystem/measure-population",
              "code": "initial-population",
              "display": "Initial Population"
            } ]
          },
          "count": 1
        }, {
          "id": "Denominator_1",
          "code": {
            "coding": [ {
              "system": "http://terminology.hl7.org/CodeSystem/measure-population",
              "code": "denominator",
              "display": "Denominator"
            } ]
          },
          "count": 0
        }, {
          "id": "Numerator_1",
          "code": {
            "coding": [ {
              "system": "http://terminology.hl7.org/CodeSystem/measure-population",
              "code": "numerator",
              "display": "Numerator"
            } ]
          },
          "count": 0
        }, {
          "id": "NumeratorExclusion_1",
          "code": {
            "coding": [ {
              "system": "http://terminology.hl7.org/CodeSystem/measure-population",
              "code": "numerator-exclusion",
              "display": "Numerator Exclusion"
            } ]
          },
          "count": 0
        } ],
        "measureScore": {
          "value": 0.0
        }
      }, {
        "id": "Group_2",
        "population": [ {
          "id": "InitialPopulation_2",
          "code": {
            "coding": [ {
              "system": "http://terminology.hl7.org/CodeSystem/measure-population",
              "code": "initial-population",
              "display": "Initial Population"
            } ]
          },
          "count": 1
        }, {
          "id": "Denominator_2",
          "code": {
            "coding": [ {
              "system": "http://terminology.hl7.org/CodeSystem/measure-population",
              "code": "denominator",
              "display": "Denominator"
            } ]
          },
          "count": 0
        }, {
          "id": "Numerator_2",
          "code": {
            "coding": [ {
              "system": "http://terminology.hl7.org/CodeSystem/measure-population",
              "code": "numerator",
              "display": "Numerator"
            } ]
          },
          "count": 0
        }, {
          "id": "NumeratorExclusion_2",
          "code": {
            "coding": [ {
              "system": "http://terminology.hl7.org/CodeSystem/measure-population",
              "code": "numerator-exclusion",
              "display": "Numerator Exclusion"
            } ]
          },
          "count": 0
        } ],
        "measureScore": {
          "value": 0.0
        }
      } ],
      "evaluatedResource": [ {
        "reference": "Patient/971a20ab-c583-4260-954f-101d4b96554d"
      }, {
        "reference": "Encounter/9a553171-4f70-4a9b-b961-2365c99202c0"
      }, {
        "reference": "Procedure/416e5f11-b5e8-41db-afe3-975592e0c101"
      }, {
        "reference": "Observation/2c995a1f-8226-4b43-9fee-91761753aef7"
      }, {
        "reference": "Observation/66df2bfe-d60c-465f-9662-d0ba43634bd3"
      }, {
        "reference": "Coverage/190817ed-df56-4941-beb9-bb5762516d88"
      }, {
        "reference": "Organization/fb06b297-9bc3-4f8b-a773-32e97951be55"
      }, {
        "reference": "Practitioner/867114c5-07ae-42ca-bc0a-fc3079308b47"
      } ]
    },
    "request": {
      "method": "PUT",
      "url": "MeasureReport/d6715711-c7f5-4113-8f75-92c6b5a1cef8"
    }
  } ]
}