{
  "resourceType": "Bundle",
  "id": "60f82c2e98086b570510e26b",
  "type": "transaction",
  "entry": [ {
    "fullUrl": "https://madie.cms.gov/Patient/e0bae301-79a4-48b0-a174-5eb1bd6cf19e",
    "resource": {
      "resourceType": "Patient",
      "id": "e0bae301-79a4-48b0-a174-5eb1bd6cf19e",
      "meta": {
        "profile": [ "http://hl7.org/fhir/us/qicore/StructureDefinition/qicore-patient" ]
      },
      "text": {
        "status": "generated",
        "div": "<div xmlns=\"http://www.w3.org/1999/xhtml\"><div class=\"hapiHeaderText\">MedTPA&lt;24hrB4ED_EDET=EncST <b>DENEXPASS </b></div><table class=\"hapiPropertyTable\"><tbody><tr><td>Identifier</td><td>2a5c51c4bb000beac98349a46ff02c15</td></tr><tr><td>Date of birth</td><td><span>26 September 1975</span></td></tr></tbody></table></div>"
      },
      "extension": [ {
        "url": "http://hl7.org/fhir/us/core/StructureDefinition/us-core-race",
        "extension": [ {
          "url": "ombCategory",
          "valueCoding": {
            "system": "urn:oid:2.16.840.1.113883.6.238",
            "code": "2054-5",
            "display": "Black or African American",
            "userSelected": true
          }
        }, {
          "url": "text",
          "valueString": "Black or African American"
        } ]
      }, {
        "url": "http://hl7.org/fhir/us/core/StructureDefinition/us-core-ethnicity",
        "extension": [ {
          "url": "ombCategory",
          "valueCoding": {
            "system": "urn:oid:2.16.840.1.113883.6.238",
            "code": "2186-5",
            "display": "Not Hispanic or Latino",
            "userSelected": true
          }
        }, {
          "url": "text",
          "valueString": "Not Hispanic or Latino"
        } ]
      } ],
      "identifier": [ {
        "type": {
          "coding": [ {
            "system": "http://terminology.hl7.org/CodeSystem/v2-0203",
            "code": "MR"
          } ]
        },
        "system": "https://bonnie-fhir.healthit.gov/",
        "value": "60f82c2e98086b570510e26b"
      } ],
      "active": true,
      "name": [ {
        "use": "usual",
        "family": "DENEXPass",
        "given": [ "MedTPA<24hrB4EDEDETEQEncST" ]
      } ],
      "gender": "female",
      "birthDate": "1976-09-26"
    },
    "request": {
      "method": "PUT",
      "url": "Patient/e0bae301-79a4-48b0-a174-5eb1bd6cf19e"
    }
  }, {
    "fullUrl": "https://madie.cms.gov/Encounter/6ae911f9-5ece-440e-88a9-eb8fad4f3011",
    "resource": {
      "resourceType": "Encounter",
      "id": "6ae911f9-5ece-440e-88a9-eb8fad4f3011",
      "meta": {
        "profile": [ "http://hl7.org/fhir/us/qicore/StructureDefinition/qicore-encounter" ]
      },
      "status": "finished",
      "class": {
        "system": "http://terminology.hl7.org/CodeSystem/v3-ActCode",
        "code": "EMER",
        "display": "emergency"
      },
      "type": [ {
        "coding": [ {
          "system": "http://snomed.info/sct",
          "code": "4525004"
        } ]
      } ],
      "subject": {
        "reference": "Patient/e0bae301-79a4-48b0-a174-5eb1bd6cf19e"
      },
      "period": {
        "start": "2026-10-10T06:00:00.000+00:00",
        "end": "2026-10-10T07:01:00.000+00:00"
      },
      "length": {
        "value": 0,
        "unit": "days"
      }
    },
    "request": {
      "method": "PUT",
      "url": "Encounter/6ae911f9-5ece-440e-88a9-eb8fad4f3011"
    }
  }, {
    "fullUrl": "https://madie.cms.gov/Encounter/ce2452d3-4503-491c-ab5a-e4cfddbf48fe",
    "resource": {
      "resourceType": "Encounter",
      "id": "ce2452d3-4503-491c-ab5a-e4cfddbf48fe",
      "meta": {
        "profile": [ "http://hl7.org/fhir/us/qicore/StructureDefinition/qicore-encounter" ]
      },
      "status": "finished",
      "class": {
        "system": "http://terminology.hl7.org/CodeSystem/v3-ActCode",
        "code": "IMP",
        "display": "inpatient encounter"
      },
      "type": [ {
        "coding": [ {
          "system": "http://snomed.info/sct",
          "code": "32485007"
        } ]
      } ],
      "subject": {
        "reference": "Patient/e0bae301-79a4-48b0-a174-5eb1bd6cf19e"
      },
      "period": {
        "start": "2026-10-10T07:01:00.000+00:00",
        "end": "2026-10-12T11:15:00.000+00:00"
      },
      "length": {
        "value": 2,
        "unit": "days"
      },
      "reasonReference": [ {
        "reference": "Condition/a7686619-6b97-49e1-b654-c47f35ee6753"
      } ]
    },
    "request": {
      "method": "PUT",
      "url": "Encounter/ce2452d3-4503-491c-ab5a-e4cfddbf48fe"
    }
  }, {
    "fullUrl": "https://madie.cms.gov/MedicationAdministration/88a885fc-0e94-420d-829b-da5a7234a641",
    "resource": {
      "resourceType": "MedicationAdministration",
      "id": "88a885fc-0e94-420d-829b-da5a7234a641",
      "meta": {
        "profile": [ "http://hl7.org/fhir/us/qicore/StructureDefinition/qicore-medicationadministration" ]
      },
      "status": "completed",
      "medicationCodeableConcept": {
        "coding": [ {
          "system": "http://www.nlm.nih.gov/research/umls/rxnorm",
          "code": "1804799"
        } ]
      },
      "subject": {
        "reference": "Patient/e0bae301-79a4-48b0-a174-5eb1bd6cf19e"
      },
      "effectivePeriod": {
        "start": "2026-10-09T06:01:00.000+00:00"
      }
    },
    "request": {
      "method": "PUT",
      "url": "MedicationAdministration/88a885fc-0e94-420d-829b-da5a7234a641"
    }
  }, {
    "fullUrl": "https://madie.cms.gov/Coverage/aaa0a940-7e3b-4ca0-822e-9d3381ae2562",
    "resource": {
      "resourceType": "Coverage",
      "id": "aaa0a940-7e3b-4ca0-822e-9d3381ae2562",
      "status": "active",
      "beneficiary": {
        "reference": "Patient/e0bae301-79a4-48b0-a174-5eb1bd6cf19e"
      },
      "period": {
        "start": "1976-09-26T08:00:00.000+00:00"
      },
      "payor": [ {
        "reference": "Organization/730a9f26-01ca-4ea3-abd5-2eb03de907bc"
      } ]
    },
    "request": {
      "method": "PUT",
      "url": "Coverage/aaa0a940-7e3b-4ca0-822e-9d3381ae2562"
    }
  }, {
    "fullUrl": "https://madie.cms.gov/Condition/a7686619-6b97-49e1-b654-c47f35ee6753",
    "resource": {
      "resourceType": "Condition",
      "id": "a7686619-6b97-49e1-b654-c47f35ee6753",
      "meta": {
        "profile": [ "http://hl7.org/fhir/us/qicore/StructureDefinition/qicore-condition-encounter-diagnosis" ]
      },
      "clinicalStatus": {
        "coding": [ {
          "system": "http://terminology.hl7.org/CodeSystem/condition-clinical",
          "code": "active"
        } ]
      },
      "verificationStatus": {
        "coding": [ {
          "system": "http://terminology.hl7.org/CodeSystem/condition-ver-status",
          "code": "confirmed"
        } ]
      },
      "category": [ {
        "coding": [ {
          "system": "http://terminology.hl7.org/CodeSystem/condition-category",
          "code": "encounter-diagnosis",
          "display": "Encounter Diagnosis"
        } ]
      } ],
      "code": {
        "coding": [ {
          "system": "http://snomed.info/sct",
          "version": "2020-09",
          "code": "111297002",
          "display": "Nonparalytic stroke (disorder)",
          "userSelected": true
        } ]
      },
      "subject": {
        "reference": "Patient/e0bae301-79a4-48b0-a174-5eb1bd6cf19e"
      },
      "encounter": {
        "reference": "Encounter/ce2452d3-4503-491c-ab5a-e4cfddbf48fe"
      },
      "recordedDate": "2026-08-13T08:00:00.000+00:00"
    },
    "request": {
      "method": "PUT",
      "url": "Condition/a7686619-6b97-49e1-b654-c47f35ee6753"
    }
  }, {
    "fullUrl": "https://madie.cms.gov/claim/5ca62962b8484628b8de1ec5",
    "resource": {
      "resourceType": "Claim",
      "id": "5ca62962b8484628b8de1ec5",
      "meta": {
        "profile": [ "http://hl7.org/fhir/us/qicore/StructureDefinition/qicore-claim" ]
      },
      "status": "active",
      "type": {
        "coding": [ {
          "system": "http://terminology.hl7.org/CodeSystem/claim-type",
          "code": "institutional"
        } ]
      },
      "use": "claim",
      "patient": {
        "reference": "Patient/e0bae301-79a4-48b0-a174-5eb1bd6cf19e"
      },
      "created": "2026-12-01",
      "provider": {
        "reference": "Practitioner/practitioner-123456"
      },
      "priority": {
        "coding": [ {
          "system": "http://terminology.hl7.org/CodeSystem/processpriority",
          "code": "normal"
        } ]
      },
      "diagnosis": [ {
        "sequence": 1,
        "diagnosisCodeableConcept": {
          "coding": [ {
            "system": "http://hl7.org/fhir/sid/icd-10-cm",
            "code": "I63.00"
          } ]
        },
        "type": [ {
          "coding": [ {
            "system": "http://terminology.hl7.org/CodeSystem/ex-diagnosistype",
            "code": "principal"
          } ]
        } ]
      } ],
      "insurance": [ {
        "sequence": 1,
        "focal": true,
        "coverage": {
          "reference": "Coverage/5fa041661c76ba66d9959367"
        }
      } ],
      "item": [ {
        "sequence": 1,
        "diagnosisSequence": [ 1 ],
        "productOrService": {
          "coding": [ {
            "system": "http://terminology.hl7.org/CodeSystem/ex-USCLS",
            "code": "99555"
          } ]
        },
        "encounter": [ {
          "reference": "Encounter/ce2452d3-4503-491c-ab5a-e4cfddbf48fe"
        } ]
      } ]
    },
    "request": {
      "method": "PUT",
      "url": "Claim/5ca62962b8484628b8de1ec5"
    }
  }, {
    "fullUrl": "https://madie.cms.gov/Organization/730a9f26-01ca-4ea3-abd5-2eb03de907bc",
    "resource": {
      "resourceType": "Organization",
      "id": "730a9f26-01ca-4ea3-abd5-2eb03de907bc",
      "meta": {
        "profile": [ "http://hl7.org/fhir/us/qicore/StructureDefinition/qicore-organization" ]
      },
      "identifier": [ {
        "use": "temp",
        "system": "urn:oid:2.16.840.1.113883.4.4",
        "value": "21-3259825"
      } ],
      "active": true,
      "type": [ {
        "coding": [ {
          "system": "http://terminology.hl7.org/CodeSystem/organization-type",
          "code": "pay",
          "display": "Payer"
        } ]
      } ],
      "name": "Blue Cross Blue Shield of Texas",
      "telecom": [ {
        "system": "phone",
        "value": "(+1) 972-766-6900"
      } ],
      "address": [ {
        "use": "billing",
        "type": "postal",
        "line": [ "P.O. Box 660044" ],
        "city": "Dallas",
        "state": "TX",
        "postalCode": "75266-0044",
        "country": "USA"
      } ]
    },
    "request": {
      "method": "PUT",
      "url": "Organization/730a9f26-01ca-4ea3-abd5-2eb03de907bc"
    }
  }, {
    "fullUrl": "https://madie.cms.gov/MeasureReport/6eb50d21-007e-4df7-87b9-778dd517586d",
    "resource": {
      "resourceType": "MeasureReport",
      "id": "6eb50d21-007e-4df7-87b9-778dd517586d",
      "meta": {
        "profile": [ "http://hl7.org/fhir/us/cqfmeasures/StructureDefinition/test-case-cqfm" ]
      },
      "contained": [ {
        "resourceType": "Parameters",
        "id": "6cfcb6a0-767f-49f0-91ea-a681a5c074f2-parameters",
        "parameter": [ {
          "name": "subject",
          "valueString": "e0bae301-79a4-48b0-a174-5eb1bd6cf19e"
        } ]
      } ],
      "extension": [ {
        "url": "http://hl7.org/fhir/StructureDefinition/cqf-inputParameters",
        "valueReference": {
          "reference": "#6cfcb6a0-767f-49f0-91ea-a681a5c074f2-parameters"
        }
      }, {
        "url": "http://hl7.org/fhir/us/cqfmeasures/StructureDefinition/cqfm-testCaseDescription",
        "valueMarkdown": "Patient receives TPA 23 hours and 59 minutes before ED Visit, ED ends on enc start time.\n"
      } ],
      "modifierExtension": [ {
        "url": "http://hl7.org/fhir/us/cqfmeasures/StructureDefinition/cqfm-isTestCase",
        "valueBoolean": true
      } ],
      "status": "complete",
      "type": "individual",
      "measure": "https://madie.cms.gov/Measure/CMS72FHIRSTKAntithromboticDay2",
      "period": {
        "start": "2026-01-01",
        "end": "2026-12-31"
      },
      "group": [ {
        "id": "Group_1",
        "population": [ {
          "id": "InitialPopulation_1",
          "code": {
            "coding": [ {
              "system": "http://terminology.hl7.org/CodeSystem/measure-population",
              "code": "initial-population",
              "display": "Initial Population"
            } ]
          },
          "count": 1
        }, {
          "id": "Denominator_1",
          "code": {
            "coding": [ {
              "system": "http://terminology.hl7.org/CodeSystem/measure-population",
              "code": "denominator",
              "display": "Denominator"
            } ]
          },
          "count": 1
        }, {
          "id": "DenominatorExclusion_1",
          "code": {
            "coding": [ {
              "system": "http://terminology.hl7.org/CodeSystem/measure-population",
              "code": "denominator-exclusion",
              "display": "Denominator Exclusion"
            } ]
          },
          "count": 1
        }, {
          "id": "Numerator_1",
          "code": {
            "coding": [ {
              "system": "http://terminology.hl7.org/CodeSystem/measure-population",
              "code": "numerator",
              "display": "Numerator"
            } ]
          },
          "count": 0
        }, {
          "id": "DenominatorException_1",
          "code": {
            "coding": [ {
              "system": "http://terminology.hl7.org/CodeSystem/measure-population",
              "code": "denominator-exception",
              "display": "Denominator Exception"
            } ]
          },
          "count": 0
        } ],
        "measureScore": {
          "value": 0.0
        }
      } ],
      "evaluatedResource": [ {
        "reference": "Patient/e0bae301-79a4-48b0-a174-5eb1bd6cf19e"
      }, {
        "reference": "Encounter/6ae911f9-5ece-440e-88a9-eb8fad4f3011"
      }, {
        "reference": "Encounter/ce2452d3-4503-491c-ab5a-e4cfddbf48fe"
      }, {
        "reference": "MedicationAdministration/88a885fc-0e94-420d-829b-da5a7234a641"
      }, {
        "reference": "Coverage/aaa0a940-7e3b-4ca0-822e-9d3381ae2562"
      }, {
        "reference": "Condition/a7686619-6b97-49e1-b654-c47f35ee6753"
      }, {
        "reference": "Claim/5ca62962b8484628b8de1ec5"
      }, {
        "reference": "Organization/730a9f26-01ca-4ea3-abd5-2eb03de907bc"
      } ]
    },
    "request": {
      "method": "PUT",
      "url": "MeasureReport/6eb50d21-007e-4df7-87b9-778dd517586d"
    }
  } ]
}