{
  "resourceType": "Bundle",
  "id": "6109650598086b538055a104",
  "type": "transaction",
  "entry": [ {
    "fullUrl": "https://madie.cms.gov/Patient/126b75b3-33c7-4a11-a022-380caa526676",
    "resource": {
      "resourceType": "Patient",
      "id": "126b75b3-33c7-4a11-a022-380caa526676",
      "meta": {
        "profile": [ "http://hl7.org/fhir/us/qicore/StructureDefinition/qicore-patient" ]
      },
      "text": {
        "status": "generated",
        "div": "<div xmlns=\"http://www.w3.org/1999/xhtml\"><div class=\"hapiHeaderText\">EncNoMDD <b>IPPFAIL </b></div><table class=\"hapiPropertyTable\"><tbody><tr><td>Identifier</td><td>dff6b3557f4efbb68b5a08f138a69ac6cd872b3d18ad0c346f101eaac06ae9f9</td></tr><tr><td>Date of birth</td><td><span>21 December 2004</span></td></tr></tbody></table></div>"
      },
      "extension": [ {
        "url": "http://hl7.org/fhir/us/core/StructureDefinition/us-core-race",
        "extension": [ {
          "url": "ombCategory",
          "valueCoding": {
            "system": "urn:oid:2.16.840.1.113883.6.238",
            "code": "1002-5",
            "display": "American Indian or Alaska Native",
            "userSelected": true
          }
        }, {
          "url": "text",
          "valueString": "American Indian or Alaska Native"
        } ]
      }, {
        "url": "http://hl7.org/fhir/us/core/StructureDefinition/us-core-ethnicity",
        "extension": [ {
          "url": "ombCategory",
          "valueCoding": {
            "system": "urn:oid:2.16.840.1.113883.6.238",
            "code": "2135-2",
            "display": "Hispanic or Latino",
            "userSelected": true
          }
        }, {
          "url": "text",
          "valueString": "Hispanic or Latino"
        } ]
      } ],
      "identifier": [ {
        "type": {
          "coding": [ {
            "system": "http://terminology.hl7.org/CodeSystem/v2-0203",
            "code": "MR"
          } ]
        },
        "system": "https://bonnie-fhir.healthit.gov/",
        "value": "6109650598086b538055a104"
      } ],
      "active": true,
      "name": [ {
        "use": "usual",
        "family": "IPFail",
        "given": [ "EncWNoDx" ]
      } ],
      "gender": "other",
      "birthDate": "2016-02-11"
    },
    "request": {
      "method": "PUT",
      "url": "Patient/126b75b3-33c7-4a11-a022-380caa526676"
    }
  }, {
    "fullUrl": "https://madie.cms.gov/Encounter/5e09caf4-31e6-4320-a4db-212efbb194de",
    "resource": {
      "resourceType": "Encounter",
      "id": "5e09caf4-31e6-4320-a4db-212efbb194de",
      "meta": {
        "profile": [ "http://hl7.org/fhir/us/qicore/StructureDefinition/qicore-encounter" ]
      },
      "status": "finished",
      "class": {
        "system": "http://terminology.hl7.org/CodeSystem/v3-ActCode",
        "code": "AMB",
        "display": "ambulatory",
        "userSelected": true
      },
      "type": [ {
        "coding": [ {
          "system": "http://snomed.info/sct",
          "code": "3391000175108",
          "userSelected": true
        } ]
      } ],
      "subject": {
        "reference": "Patient/126b75b3-33c7-4a11-a022-380caa526676"
      },
      "period": {
        "start": "2026-01-21T09:30:00.000+00:00",
        "end": "2026-01-21T10:05:00.000+00:00"
      }
    },
    "request": {
      "method": "PUT",
      "url": "Encounter/5e09caf4-31e6-4320-a4db-212efbb194de"
    }
  }, {
    "fullUrl": "https://madie.cms.gov/Coverage/e60027b0-f611-4452-bfd1-f009b381968d",
    "resource": {
      "resourceType": "Coverage",
      "id": "e60027b0-f611-4452-bfd1-f009b381968d",
      "meta": {
        "profile": [ "http://hl7.org/fhir/us/qicore/StructureDefinition/qicore-coverage" ]
      },
      "identifier": [ {
        "system": "http://benefitsinc.com/certificate",
        "value": "12345"
      } ],
      "status": "active",
      "type": {
        "coding": [ {
          "system": "https://nahdo.org/sopt",
          "code": "2",
          "userSelected": true
        } ]
      },
      "beneficiary": {
        "reference": "Patient/126b75b3-33c7-4a11-a022-380caa526676"
      },
      "period": {
        "start": "2026-01-01T08:00:00.000+00:00",
        "end": "2026-03-29T08:15:00.000+00:00"
      },
      "payor": [ {
        "reference": "Organization/feb68049-3ef6-4e31-b41d-7b73ac180018"
      } ]
    },
    "request": {
      "method": "PUT",
      "url": "Coverage/e60027b0-f611-4452-bfd1-f009b381968d"
    }
  }, {
    "fullUrl": "https://madie.cms.gov/Organization/feb68049-3ef6-4e31-b41d-7b73ac180018",
    "resource": {
      "resourceType": "Organization",
      "id": "feb68049-3ef6-4e31-b41d-7b73ac180018",
      "meta": {
        "profile": [ "http://hl7.org/fhir/us/qicore/StructureDefinition/qicore-organization" ]
      },
      "identifier": [ {
        "use": "temp",
        "system": "urn:oid:2.16.840.1.113883.4.4",
        "value": "21-3259825"
      } ],
      "active": true,
      "type": [ {
        "coding": [ {
          "system": "http://terminology.hl7.org/CodeSystem/organization-type",
          "code": "pay",
          "display": "Payer"
        } ]
      } ],
      "name": "Blue Cross Blue Shield of Texas",
      "telecom": [ {
        "system": "phone",
        "value": "(+1) 972-766-6900"
      } ],
      "address": [ {
        "use": "billing",
        "type": "postal",
        "line": [ "P.O. Box 660044" ],
        "city": "Dallas",
        "state": "TX",
        "postalCode": "75266-0044",
        "country": "USA"
      } ]
    },
    "request": {
      "method": "PUT",
      "url": "Organization/feb68049-3ef6-4e31-b41d-7b73ac180018"
    }
  }, {
    "fullUrl": "https://madie.cms.gov/Practitioner/908fbcb2-2189-4153-a158-ab7e9df5e75f",
    "resource": {
      "resourceType": "Practitioner",
      "id": "908fbcb2-2189-4153-a158-ab7e9df5e75f",
      "meta": {
        "profile": [ "http://hl7.org/fhir/us/qicore/StructureDefinition/qicore-practitioner" ]
      },
      "identifier": [ {
        "system": "http://hl7.org/fhir/sid/us-npi",
        "value": "123456"
      } ],
      "name": [ {
        "family": "Evil",
        "prefix": [ "Dr" ]
      } ]
    },
    "request": {
      "method": "PUT",
      "url": "Practitioner/908fbcb2-2189-4153-a158-ab7e9df5e75f"
    }
  }, {
    "fullUrl": "https://madie.cms.gov/MeasureReport/a3eee5e0-77fa-4802-bad6-9cdbb838b938",
    "resource": {
      "resourceType": "MeasureReport",
      "id": "a3eee5e0-77fa-4802-bad6-9cdbb838b938",
      "meta": {
        "profile": [ "http://hl7.org/fhir/us/cqfmeasures/StructureDefinition/test-case-cqfm" ]
      },
      "contained": [ {
        "resourceType": "Parameters",
        "id": "bdacb3be-8247-4bfa-ab50-d2eda3f8da4e-parameters",
        "parameter": [ {
          "name": "subject",
          "valueString": "126b75b3-33c7-4a11-a022-380caa526676"
        } ]
      } ],
      "extension": [ {
        "url": "http://hl7.org/fhir/StructureDefinition/cqf-inputParameters",
        "valueReference": {
          "reference": "#bdacb3be-8247-4bfa-ab50-d2eda3f8da4e-parameters"
        }
      }, {
        "url": "http://hl7.org/fhir/us/cqfmeasures/StructureDefinition/cqfm-testCaseDescription",
        "valueMarkdown": "Patient with Office Visit during measurement period, but with no diagnosis of MDD to test Invalid Data"
      } ],
      "modifierExtension": [ {
        "url": "http://hl7.org/fhir/us/cqfmeasures/StructureDefinition/cqfm-isTestCase",
        "valueBoolean": true
      } ],
      "status": "complete",
      "type": "individual",
      "measure": "https://madie.cms.gov/Measure/CMS177FHIRChildMDDSuicideAssmt",
      "period": {
        "start": "2026-01-01",
        "end": "2026-12-31"
      },
      "group": [ {
        "id": "Group_1",
        "population": [ {
          "id": "InitialPopulation_1",
          "code": {
            "coding": [ {
              "system": "http://terminology.hl7.org/CodeSystem/measure-population",
              "code": "initial-population",
              "display": "Initial Population"
            } ]
          },
          "count": 0
        }, {
          "id": "Denominator_1",
          "code": {
            "coding": [ {
              "system": "http://terminology.hl7.org/CodeSystem/measure-population",
              "code": "denominator",
              "display": "Denominator"
            } ]
          },
          "count": 0
        }, {
          "id": "Numerator_1",
          "code": {
            "coding": [ {
              "system": "http://terminology.hl7.org/CodeSystem/measure-population",
              "code": "numerator",
              "display": "Numerator"
            } ]
          },
          "count": 0
        } ],
        "measureScore": {
          "value": 0.0
        }
      } ],
      "evaluatedResource": [ {
        "reference": "Patient/126b75b3-33c7-4a11-a022-380caa526676"
      }, {
        "reference": "Encounter/5e09caf4-31e6-4320-a4db-212efbb194de"
      }, {
        "reference": "Coverage/e60027b0-f611-4452-bfd1-f009b381968d"
      }, {
        "reference": "Organization/feb68049-3ef6-4e31-b41d-7b73ac180018"
      }, {
        "reference": "Practitioner/908fbcb2-2189-4153-a158-ab7e9df5e75f"
      } ]
    },
    "request": {
      "method": "PUT",
      "url": "MeasureReport/a3eee5e0-77fa-4802-bad6-9cdbb838b938"
    }
  } ]
}