{
  "resourceType": "Bundle",
  "id": "63487c2d0968f80122540165",
  "type": "transaction",
  "entry": [ {
    "fullUrl": "https://madie.cms.gov/Patient/d819c502-0f8e-43a3-a9c3-639c8cc24a49",
    "resource": {
      "resourceType": "Patient",
      "id": "d819c502-0f8e-43a3-a9c3-639c8cc24a49",
      "meta": {
        "profile": [ "http://hl7.org/fhir/us/qicore/StructureDefinition/qicore-patient" ]
      },
      "text": {
        "status": "generated",
        "div": "<div xmlns=\"http://www.w3.org/1999/xhtml\"><div class=\"hapiHeaderText\">2AssessPreTerm<b>DENOMPass</b></div><table class=\"hapiPropertyTable\"><tbody><tr><td>Identifier</td><td>64127fc9d7fd126eace3c4b20a012fe3796c9abd90c573be4c372bf5eb0ed0f9</td></tr><tr><td>Date of birth</td><td><span>14 February 1985</span></td></tr></tbody></table></div>"
      },
      "extension": [ {
        "url": "http://hl7.org/fhir/us/core/StructureDefinition/us-core-race",
        "extension": [ {
          "url": "ombCategory",
          "valueCoding": {
            "system": "urn:oid:2.16.840.1.113883.6.238",
            "code": "1002-5",
            "display": "American Indian or Alaska Native",
            "userSelected": true
          }
        }, {
          "url": "text",
          "valueString": "American Indian or Alaska Native"
        } ]
      }, {
        "url": "http://hl7.org/fhir/us/core/StructureDefinition/us-core-ethnicity",
        "extension": [ {
          "url": "ombCategory",
          "valueCoding": {
            "system": "urn:oid:2.16.840.1.113883.6.238",
            "code": "2135-2",
            "display": "Hispanic or Latino",
            "userSelected": true
          }
        }, {
          "url": "text",
          "valueString": "Hispanic or Latino"
        } ]
      } ],
      "identifier": [ {
        "type": {
          "coding": [ {
            "system": "http://terminology.hl7.org/CodeSystem/v2-0203",
            "code": "MR"
          } ]
        },
        "system": "https://bonnie-fhir.healthit.gov/",
        "value": "63487c2d0968f80122540165"
      } ],
      "active": true,
      "name": [ {
        "use": "usual",
        "family": "DENOMPass",
        "given": [ "2AssessPreTerm" ]
      } ],
      "gender": "female",
      "birthDate": "1998-02-14"
    },
    "request": {
      "method": "PUT",
      "url": "Patient/d819c502-0f8e-43a3-a9c3-639c8cc24a49"
    }
  }, {
    "fullUrl": "https://madie.cms.gov/Observation/9fed0b27-9896-49b0-aa7c-e5e3f8b2eff3",
    "resource": {
      "resourceType": "Observation",
      "id": "9fed0b27-9896-49b0-aa7c-e5e3f8b2eff3",
      "meta": {
        "profile": [ "http://hl7.org/fhir/us/qicore/StructureDefinition/qicore-simple-observation" ]
      },
      "status": "final",
      "category": [ {
        "coding": [ {
          "system": "http://terminology.hl7.org/CodeSystem/observation-category",
          "code": "exam",
          "display": "exam",
          "userSelected": true
        } ]
      } ],
      "code": {
        "coding": [ {
          "system": "http://loinc.org",
          "code": "11639-2"
        } ]
      },
      "subject": {
        "reference": "Patient/d819c502-0f8e-43a3-a9c3-639c8cc24a49"
      },
      "effectiveDateTime": "2025-08-19T21:15:00.000+00:00",
      "performer": [ {
        "reference": "Organization/example1",
        "display": "Hendricks Country Hospital"
      } ],
      "valueInteger": 0
    },
    "request": {
      "method": "PUT",
      "url": "Observation/9fed0b27-9896-49b0-aa7c-e5e3f8b2eff3"
    }
  }, {
    "fullUrl": "https://madie.cms.gov/Observation/d149ca83-459d-40b7-9d65-c8a695b0559e",
    "resource": {
      "resourceType": "Observation",
      "id": "d149ca83-459d-40b7-9d65-c8a695b0559e",
      "meta": {
        "profile": [ "http://hl7.org/fhir/us/qicore/StructureDefinition/qicore-simple-observation" ]
      },
      "status": "final",
      "category": [ {
        "coding": [ {
          "system": "http://terminology.hl7.org/CodeSystem/observation-category",
          "code": "exam",
          "display": "exam",
          "userSelected": true
        } ]
      } ],
      "code": {
        "coding": [ {
          "system": "http://loinc.org",
          "code": "11637-6"
        } ]
      },
      "subject": {
        "reference": "Patient/d819c502-0f8e-43a3-a9c3-639c8cc24a49"
      },
      "effectiveDateTime": "2025-08-19T21:15:00.000+00:00",
      "performer": [ {
        "reference": "Organization/example1",
        "display": "Hendricks Country Hospital"
      } ],
      "valueInteger": 0
    },
    "request": {
      "method": "PUT",
      "url": "Observation/d149ca83-459d-40b7-9d65-c8a695b0559e"
    }
  }, {
    "fullUrl": "https://madie.cms.gov/Observation/d80560a9-12d0-4c6a-8bf6-5dadedc4fb53",
    "resource": {
      "resourceType": "Observation",
      "id": "d80560a9-12d0-4c6a-8bf6-5dadedc4fb53",
      "meta": {
        "profile": [ "http://hl7.org/fhir/us/qicore/StructureDefinition/qicore-simple-observation" ]
      },
      "status": "final",
      "category": [ {
        "coding": [ {
          "system": "http://terminology.hl7.org/CodeSystem/observation-category",
          "code": "exam",
          "display": "exam",
          "userSelected": true
        } ]
      } ],
      "code": {
        "coding": [ {
          "system": "http://loinc.org",
          "code": "11637-6"
        } ]
      },
      "subject": {
        "reference": "Patient/d819c502-0f8e-43a3-a9c3-639c8cc24a49"
      },
      "effectiveDateTime": "2025-08-19T21:14:00.000+00:00",
      "performer": [ {
        "reference": "Organization/example1",
        "display": "Hendricks Country Hospital"
      } ],
      "valueInteger": 1
    },
    "request": {
      "method": "PUT",
      "url": "Observation/d80560a9-12d0-4c6a-8bf6-5dadedc4fb53"
    }
  }, {
    "fullUrl": "https://madie.cms.gov/Observation/c6316774-1497-4efa-8251-ec3c56f8bb3f",
    "resource": {
      "resourceType": "Observation",
      "id": "c6316774-1497-4efa-8251-ec3c56f8bb3f",
      "meta": {
        "profile": [ "http://hl7.org/fhir/us/qicore/StructureDefinition/qicore-simple-observation" ]
      },
      "status": "final",
      "category": [ {
        "coding": [ {
          "system": "http://terminology.hl7.org/CodeSystem/observation-category",
          "code": "exam",
          "display": "exam",
          "userSelected": true
        } ]
      } ],
      "code": {
        "coding": [ {
          "system": "http://loinc.org",
          "code": "11884-4"
        } ]
      },
      "subject": {
        "reference": "Patient/d819c502-0f8e-43a3-a9c3-639c8cc24a49"
      },
      "effectiveDateTime": "2026-06-08T21:15:00.000+00:00",
      "performer": [ {
        "reference": "Organization/example1",
        "display": "Hendricks Country Hospital"
      } ],
      "valueQuantity": {
        "value": 37,
        "system": "http://unitsofmeasure.org",
        "code": "wk"
      }
    },
    "request": {
      "method": "PUT",
      "url": "Observation/c6316774-1497-4efa-8251-ec3c56f8bb3f"
    }
  }, {
    "fullUrl": "https://madie.cms.gov/Observation/d0df06ab-cc70-4ba8-9247-3aa957887f56",
    "resource": {
      "resourceType": "Observation",
      "id": "d0df06ab-cc70-4ba8-9247-3aa957887f56",
      "meta": {
        "profile": [ "http://hl7.org/fhir/us/qicore/StructureDefinition/qicore-simple-observation" ]
      },
      "status": "final",
      "category": [ {
        "coding": [ {
          "system": "http://terminology.hl7.org/CodeSystem/observation-category",
          "code": "exam",
          "display": "exam",
          "userSelected": true
        } ]
      } ],
      "code": {
        "coding": [ {
          "system": "http://loinc.org",
          "code": "93857-1"
        } ]
      },
      "subject": {
        "reference": "Patient/d819c502-0f8e-43a3-a9c3-639c8cc24a49"
      },
      "effectiveDateTime": "2026-06-08T21:15:00.000+00:00",
      "performer": [ {
        "reference": "Organization/example1",
        "display": "Hendricks Country Hospital"
      } ],
      "valueDateTime": "2026-06-08T21:15:00.000+00:00"
    },
    "request": {
      "method": "PUT",
      "url": "Observation/d0df06ab-cc70-4ba8-9247-3aa957887f56"
    }
  }, {
    "fullUrl": "https://madie.cms.gov/Encounter/6fd2bff3-18a6-4a2b-b686-cf26e8f83ecc",
    "resource": {
      "resourceType": "Encounter",
      "id": "6fd2bff3-18a6-4a2b-b686-cf26e8f83ecc",
      "meta": {
        "profile": [ "http://hl7.org/fhir/us/qicore/StructureDefinition/qicore-encounter" ]
      },
      "status": "finished",
      "class": {
        "system": "http://terminology.hl7.org/CodeSystem/v3-ActCode",
        "code": "IMP",
        "display": "inpatient encounter"
      },
      "type": [ {
        "coding": [ {
          "system": "http://snomed.info/sct",
          "code": "8715000"
        } ]
      } ],
      "subject": {
        "reference": "Patient/d819c502-0f8e-43a3-a9c3-639c8cc24a49"
      },
      "period": {
        "start": "2026-06-08T08:00:00.000+00:00",
        "end": "2026-06-10T08:15:00.000+00:00"
      },
      "length": {
        "value": 2,
        "unit": "days"
      },
      "reasonCode": [ {
        "coding": [ {
          "system": "http://snomed.info/sct",
          "code": "169826009",
          "display": "Single live birth from singleton pregnancy (finding)"
        } ]
      } ]
    },
    "request": {
      "method": "PUT",
      "url": "Encounter/6fd2bff3-18a6-4a2b-b686-cf26e8f83ecc"
    }
  }, {
    "fullUrl": "https://madie.cms.gov/Procedure/4b9ab8b3-5d10-4f0a-b228-0efdba0f8b4a",
    "resource": {
      "resourceType": "Procedure",
      "id": "4b9ab8b3-5d10-4f0a-b228-0efdba0f8b4a",
      "meta": {
        "profile": [ "http://hl7.org/fhir/us/qicore/StructureDefinition/qicore-procedure" ]
      },
      "extension": [ {
        "url": "http://hl7.org/fhir/us/qicore/StructureDefinition/qicore-recorded",
        "valueDateTime": "2014-04-05T13:35:00.000+00:00"
      } ],
      "status": "completed",
      "code": {
        "coding": [ {
          "system": "http://www.cms.gov/Medicare/Coding/ICD10",
          "code": "10D00Z0"
        } ]
      },
      "subject": {
        "reference": "Patient/d819c502-0f8e-43a3-a9c3-639c8cc24a49"
      },
      "performedPeriod": {
        "start": "2026-06-08T20:00:00.000+00:00",
        "end": "2026-06-08T21:15:00.000+00:00"
      }
    },
    "request": {
      "method": "PUT",
      "url": "Procedure/4b9ab8b3-5d10-4f0a-b228-0efdba0f8b4a"
    }
  }, {
    "fullUrl": "https://madie.cms.gov/Condition/73e04207-19de-48df-aeb7-ee558cb6c7a0",
    "resource": {
      "resourceType": "Condition",
      "id": "73e04207-19de-48df-aeb7-ee558cb6c7a0",
      "meta": {
        "profile": [ "http://hl7.org/fhir/us/qicore/StructureDefinition/qicore-condition" ]
      },
      "category": [ {
        "coding": [ {
          "system": "http://terminology.hl7.org/CodeSystem/condition-category",
          "code": "encounter-diagnosis",
          "display": "Encounter Diagnosis"
        } ]
      } ],
      "code": {
        "coding": [ {
          "system": "http://snomed.info/sct",
          "version": "2022-09",
          "code": "169826009",
          "display": "Single live birth (finding)",
          "userSelected": true
        } ]
      },
      "subject": {
        "reference": "Patient/d819c502-0f8e-43a3-a9c3-639c8cc24a49"
      },
      "recordedDate": "2026-10-20T08:00:00.000+00:00"
    },
    "request": {
      "method": "PUT",
      "url": "Condition/73e04207-19de-48df-aeb7-ee558cb6c7a0"
    }
  }, {
    "fullUrl": "https://madie.cms.gov/Coverage/2348e551-e3da-4d94-85a0-27148cabc1f7",
    "resource": {
      "resourceType": "Coverage",
      "id": "2348e551-e3da-4d94-85a0-27148cabc1f7",
      "meta": {
        "profile": [ "http://hl7.org/fhir/us/qicore/StructureDefinition/qicore-coverage" ]
      },
      "status": "active",
      "subscriberId": "523435",
      "beneficiary": {
        "reference": "Patient/d819c502-0f8e-43a3-a9c3-639c8cc24a49"
      },
      "relationship": {
        "coding": [ {
          "system": "http://terminology.hl7.org/CodeSystem/subscriber-relationship",
          "code": "self"
        } ]
      },
      "payor": [ {
        "reference": "Organization/f6c822b5-dde3-4b08-8397-3e20f0e2ca20"
      } ]
    },
    "request": {
      "method": "PUT",
      "url": "Coverage/2348e551-e3da-4d94-85a0-27148cabc1f7"
    }
  }, {
    "fullUrl": "https://madie.cms.gov/Organization/f6c822b5-dde3-4b08-8397-3e20f0e2ca20",
    "resource": {
      "resourceType": "Organization",
      "id": "f6c822b5-dde3-4b08-8397-3e20f0e2ca20",
      "meta": {
        "profile": [ "http://hl7.org/fhir/us/qicore/StructureDefinition/qicore-organization" ]
      },
      "identifier": [ {
        "use": "temp",
        "system": "urn:oid:2.16.840.1.113883.4.4",
        "value": "21-3259825"
      } ],
      "active": true,
      "type": [ {
        "coding": [ {
          "system": "http://terminology.hl7.org/CodeSystem/organization-type",
          "code": "pay",
          "display": "Payer"
        } ]
      } ],
      "name": "Blue Cross Blue Shield of Texas",
      "telecom": [ {
        "system": "phone",
        "value": "(+1) 972-766-6900"
      } ],
      "address": [ {
        "use": "billing",
        "type": "postal",
        "line": [ "P.O. Box 660044" ],
        "city": "Dallas",
        "state": "TX",
        "postalCode": "75266-0044",
        "country": "USA"
      } ]
    },
    "request": {
      "method": "PUT",
      "url": "Organization/f6c822b5-dde3-4b08-8397-3e20f0e2ca20"
    }
  }, {
    "fullUrl": "https://madie.cms.gov/Practitioner/f492219f-ee13-4675-847a-ca050eb44f3f",
    "resource": {
      "resourceType": "Practitioner",
      "id": "f492219f-ee13-4675-847a-ca050eb44f3f",
      "meta": {
        "profile": [ "http://hl7.org/fhir/us/qicore/StructureDefinition/qicore-practitioner" ]
      },
      "identifier": [ {
        "system": "http://hl7.org/fhir/sid/us-npi",
        "value": "1234567890"
      } ],
      "name": [ {
        "family": "Evil",
        "prefix": [ "Dr" ]
      } ]
    },
    "request": {
      "method": "PUT",
      "url": "Practitioner/f492219f-ee13-4675-847a-ca050eb44f3f"
    }
  }, {
    "fullUrl": "https://madie.cms.gov/MeasureReport/8a94141a-867c-48b9-b9d1-ca28347ecf94",
    "resource": {
      "resourceType": "MeasureReport",
      "id": "8a94141a-867c-48b9-b9d1-ca28347ecf94",
      "meta": {
        "profile": [ "http://hl7.org/fhir/us/cqfmeasures/StructureDefinition/test-case-cqfm" ]
      },
      "contained": [ {
        "resourceType": "Parameters",
        "id": "2692e313-d19f-4716-b67c-11039d5d75f8-parameters",
        "parameter": [ {
          "name": "subject",
          "valueString": "d819c502-0f8e-43a3-a9c3-639c8cc24a49"
        } ]
      } ],
      "extension": [ {
        "url": "http://hl7.org/fhir/StructureDefinition/cqf-inputParameters",
        "valueReference": {
          "reference": "#2692e313-d19f-4716-b67c-11039d5d75f8-parameters"
        }
      }, {
        "url": "http://hl7.org/fhir/us/cqfmeasures/StructureDefinition/cqfm-testCaseDescription",
        "valueMarkdown": "2 assessments of PreTermBirths.  One relevant start time is 42 weeks before delivery, other is 42 weeks and 1 minute.  Denom is met as LAST is applied and the one meets.."
      } ],
      "modifierExtension": [ {
        "url": "http://hl7.org/fhir/us/cqfmeasures/StructureDefinition/cqfm-isTestCase",
        "valueBoolean": true
      } ],
      "status": "complete",
      "type": "individual",
      "measure": "https://madie.cms.gov/Measure/CMS0334FHIRPCCesareanBirth",
      "period": {
        "start": "2026-01-01",
        "end": "2026-12-31"
      },
      "group": [ {
        "id": "Group_1",
        "population": [ {
          "id": "InitialPopulation_1",
          "code": {
            "coding": [ {
              "system": "http://terminology.hl7.org/CodeSystem/measure-population",
              "code": "initial-population",
              "display": "Initial Population"
            } ]
          },
          "count": 1
        }, {
          "id": "Denominator_1",
          "code": {
            "coding": [ {
              "system": "http://terminology.hl7.org/CodeSystem/measure-population",
              "code": "denominator",
              "display": "Denominator"
            } ]
          },
          "count": 1
        }, {
          "id": "DenominatorExclusion_1",
          "code": {
            "coding": [ {
              "system": "http://terminology.hl7.org/CodeSystem/measure-population",
              "code": "denominator-exclusion",
              "display": "Denominator Exclusion"
            } ]
          },
          "count": 0
        }, {
          "id": "Numerator_1",
          "code": {
            "coding": [ {
              "system": "http://terminology.hl7.org/CodeSystem/measure-population",
              "code": "numerator",
              "display": "Numerator"
            } ]
          },
          "count": 1
        } ],
        "measureScore": {
          "value": 0.0
        }
      } ],
      "evaluatedResource": [ {
        "reference": "Patient/d819c502-0f8e-43a3-a9c3-639c8cc24a49"
      }, {
        "reference": "Observation/9fed0b27-9896-49b0-aa7c-e5e3f8b2eff3"
      }, {
        "reference": "Observation/d149ca83-459d-40b7-9d65-c8a695b0559e"
      }, {
        "reference": "Observation/d80560a9-12d0-4c6a-8bf6-5dadedc4fb53"
      }, {
        "reference": "Observation/c6316774-1497-4efa-8251-ec3c56f8bb3f"
      }, {
        "reference": "Observation/d0df06ab-cc70-4ba8-9247-3aa957887f56"
      }, {
        "reference": "Encounter/6fd2bff3-18a6-4a2b-b686-cf26e8f83ecc"
      }, {
        "reference": "Procedure/4b9ab8b3-5d10-4f0a-b228-0efdba0f8b4a"
      }, {
        "reference": "Condition/73e04207-19de-48df-aeb7-ee558cb6c7a0"
      }, {
        "reference": "Coverage/2348e551-e3da-4d94-85a0-27148cabc1f7"
      }, {
        "reference": "Organization/f6c822b5-dde3-4b08-8397-3e20f0e2ca20"
      }, {
        "reference": "Practitioner/f492219f-ee13-4675-847a-ca050eb44f3f"
      } ]
    },
    "request": {
      "method": "PUT",
      "url": "MeasureReport/8a94141a-867c-48b9-b9d1-ca28347ecf94"
    }
  } ]
}