{
  "resourceType": "Bundle",
  "id": "612e6f1402c62a011f2f0ad8",
  "type": "transaction",
  "entry": [ {
    "fullUrl": "https://madie.cms.gov/Patient/e0aacb7e-5624-492a-b744-dd75659d8400",
    "resource": {
      "resourceType": "Patient",
      "id": "e0aacb7e-5624-492a-b744-dd75659d8400",
      "meta": {
        "profile": [ "http://hl7.org/fhir/us/qicore/StructureDefinition/qicore-patient" ]
      },
      "text": {
        "status": "generated",
        "div": "<div xmlns=\"http://www.w3.org/1999/xhtml\"><div class=\"hapiHeaderText\">EncDxObstetrics <b>IPFAIL </b></div><table class=\"hapiPropertyTable\"><tbody><tr><td>Identifier</td><td>73dfd43c47660281c0a5408728e85897</td></tr><tr><td>Date of birth</td><td><span>03 March 1974</span></td></tr></tbody></table></div>"
      },
      "extension": [ {
        "url": "http://hl7.org/fhir/us/core/StructureDefinition/us-core-race",
        "extension": [ {
          "url": "ombCategory",
          "valueCoding": {
            "system": "urn:oid:2.16.840.1.113883.6.238",
            "code": "1002-5",
            "display": "American Indian or Alaska Native",
            "userSelected": true
          }
        }, {
          "url": "text",
          "valueString": "American Indian or Alaska Native"
        } ]
      }, {
        "url": "http://hl7.org/fhir/us/core/StructureDefinition/us-core-ethnicity",
        "extension": [ {
          "url": "ombCategory",
          "valueCoding": {
            "system": "urn:oid:2.16.840.1.113883.6.238",
            "code": "2186-5",
            "display": "Not Hispanic or Latino",
            "userSelected": true
          }
        }, {
          "url": "text",
          "valueString": "Not Hispanic or Latino"
        } ]
      } ],
      "identifier": [ {
        "type": {
          "coding": [ {
            "system": "http://terminology.hl7.org/CodeSystem/v2-0203",
            "code": "MR"
          } ]
        },
        "system": "https://bonnie-fhir.healthit.gov/",
        "value": "612e6f1402c62a011f2f0ad8"
      } ],
      "active": true,
      "name": [ {
        "use": "usual",
        "family": "IPFail",
        "given": [ "EncDxObstetrics" ]
      } ],
      "gender": "female",
      "birthDate": "1975-03-03"
    },
    "request": {
      "method": "PUT",
      "url": "Patient/e0aacb7e-5624-492a-b744-dd75659d8400"
    }
  }, {
    "fullUrl": "https://madie.cms.gov/Encounter/caa6d90e-b73a-498f-adc5-ec5eb7103ad8",
    "resource": {
      "resourceType": "Encounter",
      "id": "caa6d90e-b73a-498f-adc5-ec5eb7103ad8",
      "meta": {
        "profile": [ "http://hl7.org/fhir/us/qicore/StructureDefinition/qicore-encounter" ]
      },
      "status": "finished",
      "class": {
        "system": "http://terminology.hl7.org/CodeSystem/v3-ActCode",
        "code": "IMP",
        "display": "inpatient encounter"
      },
      "type": [ {
        "coding": [ {
          "system": "http://snomed.info/sct",
          "code": "8715000"
        } ]
      } ],
      "subject": {
        "reference": "Patient/e0aacb7e-5624-492a-b744-dd75659d8400"
      },
      "period": {
        "start": "2026-12-04T08:00:00.000+00:00",
        "end": "2026-12-30T08:15:00.000+00:00"
      },
      "length": {
        "value": 26,
        "unit": "days"
      },
      "reasonReference": [ {
        "reference": "Condition/3036da5e-35fb-4855-945c-50aff564d2b5"
      } ],
      "location": [ {
        "location": {
          "reference": "Location/8b1cd2c5-c30d-4ff5-bd96-e4170786da9e"
        },
        "period": {
          "start": "2026-12-06T08:00:00.000+00:00",
          "end": "2026-12-08T08:15:00.000+00:00"
        }
      } ]
    },
    "request": {
      "method": "PUT",
      "url": "Encounter/caa6d90e-b73a-498f-adc5-ec5eb7103ad8"
    }
  }, {
    "fullUrl": "https://madie.cms.gov/Coverage/9fd13e8f-01ca-4dc2-b149-a752b5baaae0",
    "resource": {
      "resourceType": "Coverage",
      "id": "9fd13e8f-01ca-4dc2-b149-a752b5baaae0",
      "status": "active",
      "beneficiary": {
        "reference": "Patient/e0aacb7e-5624-492a-b744-dd75659d8400"
      },
      "period": {
        "start": "1975-03-03T08:00:00.000+00:00"
      },
      "payor": [ {
        "reference": "Organization/35c06f9b-4e01-4bc9-9de6-f160b39e339f"
      } ]
    },
    "request": {
      "method": "PUT",
      "url": "Coverage/9fd13e8f-01ca-4dc2-b149-a752b5baaae0"
    }
  }, {
    "fullUrl": "https://madie.cms.gov/Condition/3036da5e-35fb-4855-945c-50aff564d2b5",
    "resource": {
      "resourceType": "Condition",
      "id": "3036da5e-35fb-4855-945c-50aff564d2b5",
      "meta": {
        "profile": [ "http://hl7.org/fhir/us/qicore/StructureDefinition/qicore-condition-encounter-diagnosis" ]
      },
      "category": [ {
        "coding": [ {
          "system": "http://terminology.hl7.org/CodeSystem/condition-category",
          "code": "encounter-diagnosis",
          "display": "Encounter Diagnosis"
        } ]
      } ],
      "code": {
        "coding": [ {
          "system": "http://snomed.info/sct",
          "code": "13943000",
          "display": "Failed attempted abortion complicated by embolism (disorder)",
          "userSelected": true
        } ]
      },
      "subject": {
        "reference": "Patient/e0aacb7e-5624-492a-b744-dd75659d8400"
      },
      "recordedDate": "2026-09-09T08:00:00.000+00:00"
    },
    "request": {
      "method": "PUT",
      "url": "Condition/3036da5e-35fb-4855-945c-50aff564d2b5"
    }
  }, {
    "fullUrl": "https://madie.cms.gov/Location/8b1cd2c5-c30d-4ff5-bd96-e4170786da9e",
    "resource": {
      "resourceType": "Location",
      "id": "8b1cd2c5-c30d-4ff5-bd96-e4170786da9e",
      "meta": {
        "profile": [ "http://hl7.org/fhir/us/qicore/StructureDefinition/qicore-location" ]
      },
      "identifier": [ {
        "use": "usual",
        "system": "http://exampleoflocation.com",
        "value": "B1-S.F2"
      } ],
      "name": "Medical Surgical East, first floor",
      "type": [ {
        "coding": [ {
          "system": "https://www.cdc.gov/nhsn/cdaportal/terminology/codesystem/hsloc.html",
          "code": "1025-6",
          "display": "Trauma Critical Care",
          "userSelected": true
        } ]
      } ]
    },
    "request": {
      "method": "PUT",
      "url": "Location/8b1cd2c5-c30d-4ff5-bd96-e4170786da9e"
    }
  }, {
    "fullUrl": "https://madie.cms.gov/Organization/35c06f9b-4e01-4bc9-9de6-f160b39e339f",
    "resource": {
      "resourceType": "Organization",
      "id": "35c06f9b-4e01-4bc9-9de6-f160b39e339f",
      "meta": {
        "profile": [ "http://hl7.org/fhir/us/qicore/StructureDefinition/qicore-organization" ]
      },
      "identifier": [ {
        "use": "temp",
        "system": "urn:oid:2.16.840.1.113883.4.4",
        "value": "21-3259825"
      } ],
      "active": true,
      "type": [ {
        "coding": [ {
          "system": "http://terminology.hl7.org/CodeSystem/organization-type",
          "code": "pay",
          "display": "Payer"
        } ]
      } ],
      "name": "Blue Cross Blue Shield of Texas",
      "telecom": [ {
        "system": "phone",
        "value": "(+1) 972-766-6900"
      } ],
      "address": [ {
        "use": "billing",
        "type": "postal",
        "line": [ "P.O. Box 660044" ],
        "city": "Dallas",
        "state": "TX",
        "postalCode": "75266-0044",
        "country": "USA"
      } ]
    },
    "request": {
      "method": "PUT",
      "url": "Organization/35c06f9b-4e01-4bc9-9de6-f160b39e339f"
    }
  }, {
    "fullUrl": "https://madie.cms.gov/Practitioner/832d77d4-4da6-40c4-9bb9-02d30bc4fe72",
    "resource": {
      "resourceType": "Practitioner",
      "id": "832d77d4-4da6-40c4-9bb9-02d30bc4fe72",
      "identifier": [ {
        "system": "http://hl7.org/fhir/sid/us-npi",
        "value": "123456"
      } ],
      "name": [ {
        "family": "Evil",
        "prefix": [ "Dr" ]
      } ]
    },
    "request": {
      "method": "PUT",
      "url": "Practitioner/832d77d4-4da6-40c4-9bb9-02d30bc4fe72"
    }
  }, {
    "fullUrl": "https://madie.cms.gov/MeasureReport/c77d9c6a-3bd9-4dc3-b0de-dfed2a233fd1",
    "resource": {
      "resourceType": "MeasureReport",
      "id": "c77d9c6a-3bd9-4dc3-b0de-dfed2a233fd1",
      "meta": {
        "profile": [ "http://hl7.org/fhir/us/cqfmeasures/StructureDefinition/test-case-cqfm" ]
      },
      "contained": [ {
        "resourceType": "Parameters",
        "id": "dc9b4503-5727-4bda-b2b3-279c2c02e6f9-parameters",
        "parameter": [ {
          "name": "subject",
          "valueString": "e0aacb7e-5624-492a-b744-dd75659d8400"
        } ]
      } ],
      "extension": [ {
        "url": "http://hl7.org/fhir/StructureDefinition/cqf-inputParameters",
        "valueReference": {
          "reference": "#dc9b4503-5727-4bda-b2b3-279c2c02e6f9-parameters"
        }
      }, {
        "url": "http://hl7.org/fhir/us/cqfmeasures/StructureDefinition/cqfm-testCaseDescription",
        "valueMarkdown": "Encounter  Inpt Dx of Obstetrics VTE\n"
      } ],
      "modifierExtension": [ {
        "url": "http://hl7.org/fhir/us/cqfmeasures/StructureDefinition/cqfm-isTestCase",
        "valueBoolean": true
      } ],
      "status": "complete",
      "type": "individual",
      "measure": "https://madie.cms.gov/Measure/CMS190FHIRVTEProphylaxisICU",
      "period": {
        "start": "2026-01-01",
        "end": "2026-12-31"
      },
      "group": [ {
        "id": "Group_1",
        "population": [ {
          "id": "InitialPopulation_1",
          "code": {
            "coding": [ {
              "system": "http://terminology.hl7.org/CodeSystem/measure-population",
              "code": "initial-population",
              "display": "Initial Population"
            } ]
          },
          "count": 0
        }, {
          "id": "Denominator_1",
          "code": {
            "coding": [ {
              "system": "http://terminology.hl7.org/CodeSystem/measure-population",
              "code": "denominator",
              "display": "Denominator"
            } ]
          },
          "count": 0
        }, {
          "id": "DenominatorExclusion_1",
          "code": {
            "coding": [ {
              "system": "http://terminology.hl7.org/CodeSystem/measure-population",
              "code": "denominator-exclusion",
              "display": "Denominator Exclusion"
            } ]
          },
          "count": 0
        }, {
          "id": "Numerator_1",
          "code": {
            "coding": [ {
              "system": "http://terminology.hl7.org/CodeSystem/measure-population",
              "code": "numerator",
              "display": "Numerator"
            } ]
          },
          "count": 0
        }, {
          "id": "DenominatorException_1",
          "code": {
            "coding": [ {
              "system": "http://terminology.hl7.org/CodeSystem/measure-population",
              "code": "denominator-exception",
              "display": "Denominator Exception"
            } ]
          },
          "count": 0
        } ],
        "measureScore": {
          "value": 0.0
        }
      } ],
      "evaluatedResource": [ {
        "reference": "Patient/e0aacb7e-5624-492a-b744-dd75659d8400"
      }, {
        "reference": "Encounter/caa6d90e-b73a-498f-adc5-ec5eb7103ad8"
      }, {
        "reference": "Coverage/9fd13e8f-01ca-4dc2-b149-a752b5baaae0"
      }, {
        "reference": "Condition/3036da5e-35fb-4855-945c-50aff564d2b5"
      }, {
        "reference": "Location/8b1cd2c5-c30d-4ff5-bd96-e4170786da9e"
      }, {
        "reference": "Organization/35c06f9b-4e01-4bc9-9de6-f160b39e339f"
      }, {
        "reference": "Practitioner/832d77d4-4da6-40c4-9bb9-02d30bc4fe72"
      } ]
    },
    "request": {
      "method": "PUT",
      "url": "MeasureReport/c77d9c6a-3bd9-4dc3-b0de-dfed2a233fd1"
    }
  } ]
}