{
  "resourceType": "Bundle",
  "id": "60f82c3098086b570510e2e0",
  "type": "transaction",
  "entry": [ {
    "fullUrl": "https://madie.cms.gov/Patient/91c80186-6eab-4021-b80d-03aa63b6eaa0",
    "resource": {
      "resourceType": "Patient",
      "id": "91c80186-6eab-4021-b80d-03aa63b6eaa0",
      "meta": {
        "profile": [ "http://hl7.org/fhir/us/qicore/StructureDefinition/qicore-patient" ]
      },
      "text": {
        "status": "generated",
        "div": "<div xmlns=\"http://www.w3.org/1999/xhtml\"><div class=\"hapiHeaderText\">CMP_DayOf_RelvDat_1minAftIPStart_EDEndLT1hrB4Obs_ObsEndLT1hrB4IP <b>DENEXPASS </b></div><table class=\"hapiPropertyTable\"><tbody><tr><td>Date of birth</td><td><span>01 January 1980</span></td></tr></tbody></table></div>"
      },
      "extension": [ {
        "url": "http://hl7.org/fhir/us/core/StructureDefinition/us-core-race",
        "extension": [ {
          "url": "ombCategory",
          "valueCoding": {
            "system": "urn:oid:2.16.840.1.113883.6.238",
            "code": "2106-3",
            "display": "White",
            "userSelected": true
          }
        }, {
          "url": "text",
          "valueString": "White"
        } ]
      }, {
        "url": "http://hl7.org/fhir/us/core/StructureDefinition/us-core-ethnicity",
        "extension": [ {
          "url": "ombCategory",
          "valueCoding": {
            "system": "urn:oid:2.16.840.1.113883.6.238",
            "code": "2186-5",
            "display": "Not Hispanic or Latino",
            "userSelected": true
          }
        }, {
          "url": "text",
          "valueString": "Not Hispanic or Latino"
        } ]
      } ],
      "identifier": [ {
        "type": {
          "coding": [ {
            "system": "http://terminology.hl7.org/CodeSystem/v2-0203",
            "code": "MR"
          } ]
        },
        "system": "https://bonnie-fhir.healthit.gov/",
        "value": "60f82c3098086b570510e2e0"
      } ],
      "active": true,
      "name": [ {
        "use": "usual",
        "family": "DENEXPass",
        "given": [ "CMPDayOfRelvDat1minAftIPStartEDEndLT1hrB4ObsObsEndLT1hrB4IP" ]
      } ],
      "gender": "female",
      "birthDate": "1981-01-01"
    },
    "request": {
      "method": "PUT",
      "url": "Patient/91c80186-6eab-4021-b80d-03aa63b6eaa0"
    }
  }, {
    "fullUrl": "https://madie.cms.gov/Encounter/85bcae41-8d2f-4598-9d68-7a51ab37886b",
    "resource": {
      "resourceType": "Encounter",
      "id": "85bcae41-8d2f-4598-9d68-7a51ab37886b",
      "meta": {
        "profile": [ "http://hl7.org/fhir/us/qicore/StructureDefinition/qicore-encounter" ]
      },
      "status": "finished",
      "class": {
        "system": "http://terminology.hl7.org/CodeSystem/v3-ActCode",
        "code": "EMER",
        "display": "emergency",
        "userSelected": true
      },
      "type": [ {
        "coding": [ {
          "system": "http://snomed.info/sct",
          "code": "4525004"
        } ]
      } ],
      "subject": {
        "reference": "Patient/91c80186-6eab-4021-b80d-03aa63b6eaa0"
      },
      "period": {
        "start": "2026-11-18T07:00:00.000+00:00",
        "end": "2026-11-18T08:01:00.000+00:00"
      },
      "diagnosis": [ {
        "condition": {
          "reference": "Condition/1d315db6-1ace-4172-9c49-83058ebb8107"
        },
        "use": {
          "coding": [ {
            "system": "http://snomed.info/sct",
            "code": "111297002",
            "display": "Nonparalytic stroke (disorder)"
          } ]
        },
        "rank": 1
      } ]
    },
    "request": {
      "method": "PUT",
      "url": "Encounter/85bcae41-8d2f-4598-9d68-7a51ab37886b"
    }
  }, {
    "fullUrl": "https://madie.cms.gov/Encounter/bf4c9fa2-801d-4af2-bb93-aa2504348958",
    "resource": {
      "resourceType": "Encounter",
      "id": "bf4c9fa2-801d-4af2-bb93-aa2504348958",
      "meta": {
        "profile": [ "http://hl7.org/fhir/us/qicore/StructureDefinition/qicore-encounter" ]
      },
      "status": "finished",
      "class": {
        "system": "http://terminology.hl7.org/CodeSystem/v3-ActCode",
        "code": "OBSENC",
        "display": "observation encounter",
        "userSelected": true
      },
      "type": [ {
        "coding": [ {
          "system": "http://snomed.info/sct",
          "code": "448951000124107"
        } ]
      } ],
      "subject": {
        "reference": "Patient/91c80186-6eab-4021-b80d-03aa63b6eaa0"
      },
      "period": {
        "start": "2026-11-18T09:00:00.000+00:00",
        "end": "2026-11-18T10:01:00.000+00:00"
      }
    },
    "request": {
      "method": "PUT",
      "url": "Encounter/bf4c9fa2-801d-4af2-bb93-aa2504348958"
    }
  }, {
    "fullUrl": "https://madie.cms.gov/Encounter/7df752c4-fed2-41b2-9f5c-32d58c6ea8df",
    "resource": {
      "resourceType": "Encounter",
      "id": "7df752c4-fed2-41b2-9f5c-32d58c6ea8df",
      "meta": {
        "profile": [ "http://hl7.org/fhir/us/qicore/StructureDefinition/qicore-encounter" ]
      },
      "status": "finished",
      "class": {
        "system": "http://terminology.hl7.org/CodeSystem/v3-ActCode",
        "code": "IMP",
        "display": "inpatient encounter",
        "userSelected": true
      },
      "type": [ {
        "coding": [ {
          "system": "http://snomed.info/sct",
          "code": "183452005"
        } ]
      } ],
      "subject": {
        "reference": "Patient/91c80186-6eab-4021-b80d-03aa63b6eaa0"
      },
      "period": {
        "start": "2026-11-18T11:00:00.000+00:00",
        "end": "2026-11-20T08:15:00.000+00:00"
      },
      "reasonReference": [ {
        "reference": "Condition/ischemic-stroke-8aa"
      } ]
    },
    "request": {
      "method": "PUT",
      "url": "Encounter/7df752c4-fed2-41b2-9f5c-32d58c6ea8df"
    }
  }, {
    "fullUrl": "https://madie.cms.gov/claim/5ca62962b8484628b8de1ec5",
    "resource": {
      "resourceType": "Claim",
      "id": "5ca62962b8484628b8de1ec5",
      "meta": {
        "profile": [ "http://hl7.org/fhir/us/qicore/StructureDefinition/qicore-claim" ]
      },
      "status": "active",
      "type": {
        "coding": [ {
          "system": "http://terminology.hl7.org/CodeSystem/claim-type",
          "code": "institutional"
        } ]
      },
      "use": "claim",
      "patient": {
        "reference": "Patient/91c80186-6eab-4021-b80d-03aa63b6eaa0"
      },
      "created": "2026-12-01",
      "provider": {
        "reference": "Practitioner/practitioner-123456"
      },
      "priority": {
        "coding": [ {
          "system": "http://terminology.hl7.org/CodeSystem/processpriority",
          "code": "normal"
        } ]
      },
      "diagnosis": [ {
        "sequence": 1,
        "diagnosisCodeableConcept": {
          "coding": [ {
            "system": "http://hl7.org/fhir/sid/icd-10-cm",
            "code": "I63.00"
          } ]
        },
        "type": [ {
          "coding": [ {
            "system": "http://terminology.hl7.org/CodeSystem/ex-diagnosistype",
            "code": "principal"
          } ]
        } ]
      } ],
      "insurance": [ {
        "sequence": 1,
        "focal": true,
        "coverage": {
          "reference": "Coverage/d4b5bccb-1182-4585-80f6-61c47ce8a3f3"
        }
      } ],
      "item": [ {
        "sequence": 1,
        "diagnosisSequence": [ 1 ],
        "productOrService": {
          "coding": [ {
            "system": "http://terminology.hl7.org/CodeSystem/ex-USCLS",
            "code": "99555"
          } ]
        },
        "encounter": [ {
          "reference": "Encounter/7df752c4-fed2-41b2-9f5c-32d58c6ea8df"
        } ]
      } ]
    },
    "request": {
      "method": "PUT",
      "url": "Claim/5ca62962b8484628b8de1ec5"
    }
  }, {
    "fullUrl": "https://madie.cms.gov/Procedure/79ff81f3-e274-474a-a42b-69ac7015d52a",
    "resource": {
      "resourceType": "Procedure",
      "id": "79ff81f3-e274-474a-a42b-69ac7015d52a",
      "meta": {
        "profile": [ "http://hl7.org/fhir/us/qicore/StructureDefinition/qicore-procedure" ]
      },
      "extension": [ {
        "url": "http://hl7.org/fhir/us/qicore/StructureDefinition/qicore-recorded",
        "valueDateTime": "2026-11-18T11:01:00.000+00:00"
      } ],
      "status": "completed",
      "code": {
        "coding": [ {
          "system": "http://snomed.info/sct",
          "code": "133918004"
        } ]
      },
      "subject": {
        "reference": "Patient/91c80186-6eab-4021-b80d-03aa63b6eaa0"
      },
      "performedDateTime": "2026-11-18T11:01:00.000+00:00"
    },
    "request": {
      "method": "PUT",
      "url": "Procedure/79ff81f3-e274-474a-a42b-69ac7015d52a"
    }
  }, {
    "fullUrl": "https://madie.cms.gov/Condition/1d315db6-1ace-4172-9c49-83058ebb8107",
    "resource": {
      "resourceType": "Condition",
      "id": "1d315db6-1ace-4172-9c49-83058ebb8107",
      "meta": {
        "profile": [ "http://hl7.org/fhir/us/qicore/StructureDefinition/qicore-condition-encounter-diagnosis" ]
      },
      "clinicalStatus": {
        "coding": [ {
          "system": "http://terminology.hl7.org/CodeSystem/condition-clinical",
          "code": "active"
        } ]
      },
      "verificationStatus": {
        "coding": [ {
          "system": "http://terminology.hl7.org/CodeSystem/condition-ver-status",
          "code": "confirmed"
        } ]
      },
      "category": [ {
        "coding": [ {
          "system": "http://terminology.hl7.org/CodeSystem/condition-category",
          "code": "encounter-diagnosis",
          "display": "Encounter Diagnosis"
        } ]
      } ],
      "code": {
        "coding": [ {
          "system": "http://snomed.info/sct",
          "version": "2020-09",
          "code": "111297002",
          "display": "Nonparalytic stroke (disorder)",
          "userSelected": true
        } ]
      },
      "subject": {
        "reference": "Patient/91c80186-6eab-4021-b80d-03aa63b6eaa0"
      },
      "recordedDate": "2026-08-13T08:00:00.000+00:00"
    },
    "request": {
      "method": "PUT",
      "url": "Condition/1d315db6-1ace-4172-9c49-83058ebb8107"
    }
  }, {
    "fullUrl": "https://madie.cms.gov/Coverage/d4b5bccb-1182-4585-80f6-61c47ce8a3f3",
    "resource": {
      "resourceType": "Coverage",
      "id": "d4b5bccb-1182-4585-80f6-61c47ce8a3f3",
      "meta": {
        "profile": [ "http://hl7.org/fhir/us/qicore/StructureDefinition/qicore-coverage" ]
      },
      "status": "active",
      "beneficiary": {
        "reference": "Patient/91c80186-6eab-4021-b80d-03aa63b6eaa0"
      },
      "payor": [ {
        "reference": "Organization/2bff9a0e-a18c-4abe-8bd7-b80b390229ef"
      } ]
    },
    "request": {
      "method": "PUT",
      "url": "Coverage/d4b5bccb-1182-4585-80f6-61c47ce8a3f3"
    }
  }, {
    "fullUrl": "https://madie.cms.gov/Organization/2bff9a0e-a18c-4abe-8bd7-b80b390229ef",
    "resource": {
      "resourceType": "Organization",
      "id": "2bff9a0e-a18c-4abe-8bd7-b80b390229ef",
      "meta": {
        "profile": [ "http://hl7.org/fhir/us/qicore/StructureDefinition/qicore-organization" ]
      },
      "identifier": [ {
        "use": "temp",
        "system": "urn:oid:2.16.840.1.113883.4.4",
        "value": "21-3259825"
      } ],
      "active": true,
      "type": [ {
        "coding": [ {
          "system": "http://terminology.hl7.org/CodeSystem/organization-type",
          "code": "pay",
          "display": "Payer"
        } ]
      } ],
      "name": "Blue Cross Blue Shield of Texas",
      "telecom": [ {
        "system": "phone",
        "value": "(+1) 972-766-6900"
      } ],
      "address": [ {
        "use": "billing",
        "type": "postal",
        "line": [ "P.O. Box 660044" ],
        "city": "Dallas",
        "state": "TX",
        "postalCode": "75266-0044",
        "country": "USA"
      } ]
    },
    "request": {
      "method": "PUT",
      "url": "Organization/2bff9a0e-a18c-4abe-8bd7-b80b390229ef"
    }
  }, {
    "fullUrl": "https://madie.cms.gov/MeasureReport/68429b44-656c-4874-bcba-5b8577172a5e",
    "resource": {
      "resourceType": "MeasureReport",
      "id": "68429b44-656c-4874-bcba-5b8577172a5e",
      "meta": {
        "profile": [ "http://hl7.org/fhir/us/cqfmeasures/StructureDefinition/test-case-cqfm" ]
      },
      "contained": [ {
        "resourceType": "Parameters",
        "id": "2610d7b6-1633-4186-9373-6f3fa1612ac9-parameters",
        "parameter": [ {
          "name": "subject",
          "valueString": "91c80186-6eab-4021-b80d-03aa63b6eaa0"
        } ]
      } ],
      "extension": [ {
        "url": "http://hl7.org/fhir/StructureDefinition/cqf-inputParameters",
        "valueReference": {
          "reference": "#2610d7b6-1633-4186-9373-6f3fa1612ac9-parameters"
        }
      }, {
        "url": "http://hl7.org/fhir/us/cqfmeasures/StructureDefinition/cqfm-testCaseDescription",
        "valueMarkdown": "Patient receives comfort measures performed on the day of hospital arrival, 1 min after IP start. ED ends less than 1 hour before Obs Start, Obs ends less than 1 hour before IP start.\n"
      } ],
      "modifierExtension": [ {
        "url": "http://hl7.org/fhir/us/cqfmeasures/StructureDefinition/cqfm-isTestCase",
        "valueBoolean": true
      } ],
      "status": "complete",
      "type": "individual",
      "measure": "https://madie.cms.gov/Measure/CMS72FHIRSTKAntithromboticDay2",
      "period": {
        "start": "2026-01-01",
        "end": "2026-12-31"
      },
      "group": [ {
        "id": "Group_1",
        "population": [ {
          "id": "InitialPopulation_1",
          "code": {
            "coding": [ {
              "system": "http://terminology.hl7.org/CodeSystem/measure-population",
              "code": "initial-population",
              "display": "Initial Population"
            } ]
          },
          "count": 1
        }, {
          "id": "Denominator_1",
          "code": {
            "coding": [ {
              "system": "http://terminology.hl7.org/CodeSystem/measure-population",
              "code": "denominator",
              "display": "Denominator"
            } ]
          },
          "count": 1
        }, {
          "id": "DenominatorExclusion_1",
          "code": {
            "coding": [ {
              "system": "http://terminology.hl7.org/CodeSystem/measure-population",
              "code": "denominator-exclusion",
              "display": "Denominator Exclusion"
            } ]
          },
          "count": 1
        }, {
          "id": "Numerator_1",
          "code": {
            "coding": [ {
              "system": "http://terminology.hl7.org/CodeSystem/measure-population",
              "code": "numerator",
              "display": "Numerator"
            } ]
          },
          "count": 0
        }, {
          "id": "DenominatorException_1",
          "code": {
            "coding": [ {
              "system": "http://terminology.hl7.org/CodeSystem/measure-population",
              "code": "denominator-exception",
              "display": "Denominator Exception"
            } ]
          },
          "count": 0
        } ],
        "measureScore": {
          "value": 0.0
        }
      } ],
      "evaluatedResource": [ {
        "reference": "Patient/91c80186-6eab-4021-b80d-03aa63b6eaa0"
      }, {
        "reference": "Encounter/85bcae41-8d2f-4598-9d68-7a51ab37886b"
      }, {
        "reference": "Encounter/bf4c9fa2-801d-4af2-bb93-aa2504348958"
      }, {
        "reference": "Encounter/7df752c4-fed2-41b2-9f5c-32d58c6ea8df"
      }, {
        "reference": "Claim/5ca62962b8484628b8de1ec5"
      }, {
        "reference": "Procedure/79ff81f3-e274-474a-a42b-69ac7015d52a"
      }, {
        "reference": "Condition/1d315db6-1ace-4172-9c49-83058ebb8107"
      }, {
        "reference": "Coverage/d4b5bccb-1182-4585-80f6-61c47ce8a3f3"
      }, {
        "reference": "Organization/2bff9a0e-a18c-4abe-8bd7-b80b390229ef"
      } ]
    },
    "request": {
      "method": "PUT",
      "url": "MeasureReport/68429b44-656c-4874-bcba-5b8577172a5e"
    }
  } ]
}