{
  "resourceType": "Bundle",
  "id": "DENEXPass-HIVCondtionEncDiagnosis",
  "type": "transaction",
  "entry": [ {
    "fullUrl": "https://madie.cms.gov/Patient/04f9410f-7991-4e50-b90e-881dd837d0e8",
    "resource": {
      "resourceType": "Patient",
      "id": "04f9410f-7991-4e50-b90e-881dd837d0e8",
      "meta": {
        "profile": [ "http://hl7.org/fhir/us/qicore/StructureDefinition/qicore-patient" ]
      },
      "extension": [ {
        "url": "http://hl7.org/fhir/us/core/StructureDefinition/us-core-race",
        "extension": [ {
          "url": "ombCategory",
          "valueCoding": {
            "system": "urn:oid:2.16.840.1.113883.6.238",
            "code": "2028-9",
            "display": "Asian"
          }
        }, {
          "url": "text",
          "valueString": "Asian"
        } ]
      }, {
        "url": "http://hl7.org/fhir/us/core/StructureDefinition/us-core-ethnicity",
        "extension": [ {
          "url": "ombCategory",
          "valueCoding": {
            "system": "urn:oid:2.16.840.1.113883.6.238",
            "code": "2135-2",
            "display": "Hispanic or Latino"
          }
        }, {
          "url": "text",
          "valueString": "Hispanic or Latino"
        } ]
      } ],
      "identifier": [ {
        "system": "http://hospital.smarthealthit.org",
        "value": "999999995"
      } ],
      "name": [ {
        "family": "Bertha",
        "given": [ "Betty" ]
      } ],
      "gender": "female",
      "birthDate": "2024-01-01"
    },
    "request": {
      "method": "PUT",
      "url": "Patient/04f9410f-7991-4e50-b90e-881dd837d0e8"
    }
  }, {
    "fullUrl": "https://madie.cms.gov/Encounter/51f95c7d-0e3d-412a-a6ae-0201b660155e",
    "resource": {
      "resourceType": "Encounter",
      "id": "51f95c7d-0e3d-412a-a6ae-0201b660155e",
      "meta": {
        "profile": [ "http://hl7.org/fhir/us/qicore/StructureDefinition/qicore-encounter" ]
      },
      "status": "finished",
      "class": {
        "system": "http://terminology.hl7.org/CodeSystem/v3-ActCode",
        "code": "AMB",
        "display": "ambulatory"
      },
      "type": [ {
        "coding": [ {
          "system": "http://snomed.info/sct",
          "code": "185317003",
          "display": "Telephone encounter (procedure)"
        } ]
      } ],
      "subject": {
        "reference": "Patient/04f9410f-7991-4e50-b90e-881dd837d0e8"
      },
      "period": {
        "start": "2026-01-01T01:00:00.000+00:00",
        "end": "2026-01-01T01:15:00.000+00:00"
      }
    },
    "request": {
      "method": "PUT",
      "url": "Encounter/51f95c7d-0e3d-412a-a6ae-0201b660155e"
    }
  }, {
    "fullUrl": "https://madie.cms.gov/Condition/0a955154-79f1-4d8d-9da1-6d2cbd4bb9c2",
    "resource": {
      "resourceType": "Condition",
      "id": "0a955154-79f1-4d8d-9da1-6d2cbd4bb9c2",
      "meta": {
        "profile": [ "http://hl7.org/fhir/us/qicore/StructureDefinition/qicore-condition-encounter-diagnosis" ]
      },
      "clinicalStatus": {
        "coding": [ {
          "system": "http://terminology.hl7.org/CodeSystem/condition-clinical",
          "code": "active"
        } ]
      },
      "category": [ {
        "coding": [ {
          "system": "http://terminology.hl7.org/CodeSystem/condition-category",
          "code": "encounter-diagnosis",
          "display": "Encounter Diagnosis"
        } ]
      } ],
      "code": {
        "coding": [ {
          "system": "http://snomed.info/sct",
          "code": "235726002",
          "display": "Human immunodeficiency virus enteropathy (disorder)"
        } ]
      },
      "subject": {
        "reference": "Patient/04f9410f-7991-4e50-b90e-881dd837d0e8"
      },
      "onsetDateTime": "2025-01-02T00:00:00.000+00:00"
    },
    "request": {
      "method": "PUT",
      "url": "Condition/0a955154-79f1-4d8d-9da1-6d2cbd4bb9c2"
    }
  }, {
    "fullUrl": "https://madie.cms.gov/Immunization/831e6f88-13c0-4d24-b6ec-8ef55faafad9",
    "resource": {
      "resourceType": "Immunization",
      "id": "831e6f88-13c0-4d24-b6ec-8ef55faafad9",
      "meta": {
        "profile": [ "http://hl7.org/fhir/us/qicore/StructureDefinition/qicore-immunization" ]
      },
      "status": "completed",
      "vaccineCode": {
        "coding": [ {
          "system": "http://hl7.org/fhir/sid/cvx",
          "code": "146",
          "display": "DTaP,IPV,Hib,HepB"
        } ]
      },
      "patient": {
        "reference": "Patient/04f9410f-7991-4e50-b90e-881dd837d0e8"
      },
      "occurrenceDateTime": "2025-01-02T00:00:00.000+00:00",
      "recorded": "2025-01-02T00:00:00.000+00:00",
      "primarySource": true
    },
    "request": {
      "method": "PUT",
      "url": "Immunization/831e6f88-13c0-4d24-b6ec-8ef55faafad9"
    }
  }, {
    "fullUrl": "https://madie.cms.gov/Immunization/0583de21-9112-4ed4-9452-2469055b395f",
    "resource": {
      "resourceType": "Immunization",
      "id": "0583de21-9112-4ed4-9452-2469055b395f",
      "meta": {
        "profile": [ "http://hl7.org/fhir/us/qicore/StructureDefinition/qicore-immunization" ]
      },
      "status": "completed",
      "vaccineCode": {
        "coding": [ {
          "system": "http://hl7.org/fhir/sid/cvx",
          "code": "146",
          "display": "DTaP,IPV,Hib,HepB"
        } ]
      },
      "patient": {
        "reference": "Patient/04f9410f-7991-4e50-b90e-881dd837d0e8"
      },
      "occurrenceDateTime": "2025-01-05T00:00:00.000+00:00",
      "recorded": "2025-01-02T00:00:00.000+00:00",
      "primarySource": true
    },
    "request": {
      "method": "PUT",
      "url": "Immunization/0583de21-9112-4ed4-9452-2469055b395f"
    }
  }, {
    "fullUrl": "https://madie.cms.gov/Immunization/7d982869-4fab-4176-9944-75fd734ef410",
    "resource": {
      "resourceType": "Immunization",
      "id": "7d982869-4fab-4176-9944-75fd734ef410",
      "meta": {
        "profile": [ "http://hl7.org/fhir/us/qicore/StructureDefinition/qicore-immunization" ]
      },
      "status": "completed",
      "vaccineCode": {
        "coding": [ {
          "system": "http://hl7.org/fhir/sid/cvx",
          "code": "146",
          "display": "DTaP,IPV,Hib,HepB"
        } ]
      },
      "patient": {
        "reference": "Patient/04f9410f-7991-4e50-b90e-881dd837d0e8"
      },
      "occurrenceDateTime": "2025-01-07T00:00:00.000+00:00",
      "recorded": "2025-01-02T00:00:00.000+00:00",
      "primarySource": true
    },
    "request": {
      "method": "PUT",
      "url": "Immunization/7d982869-4fab-4176-9944-75fd734ef410"
    }
  }, {
    "fullUrl": "https://madie.cms.gov/Immunization/75965d2b-942a-45f6-8570-0dc293c7aaf5",
    "resource": {
      "resourceType": "Immunization",
      "id": "75965d2b-942a-45f6-8570-0dc293c7aaf5",
      "meta": {
        "profile": [ "http://hl7.org/fhir/us/qicore/StructureDefinition/qicore-immunization" ]
      },
      "status": "completed",
      "vaccineCode": {
        "coding": [ {
          "system": "http://hl7.org/fhir/sid/cvx",
          "code": "146",
          "display": "DTaP,IPV,Hib,HepB"
        } ]
      },
      "patient": {
        "reference": "Patient/04f9410f-7991-4e50-b90e-881dd837d0e8"
      },
      "occurrenceDateTime": "2025-01-10T00:00:00.000+00:00",
      "recorded": "2025-01-02T00:00:00.000+00:00",
      "primarySource": true
    },
    "request": {
      "method": "PUT",
      "url": "Immunization/75965d2b-942a-45f6-8570-0dc293c7aaf5"
    }
  }, {
    "fullUrl": "https://madie.cms.gov/Immunization/01cde1e1-4987-471b-95fa-aef35fea7be4",
    "resource": {
      "resourceType": "Immunization",
      "id": "01cde1e1-4987-471b-95fa-aef35fea7be4",
      "meta": {
        "profile": [ "http://hl7.org/fhir/us/qicore/StructureDefinition/qicore-immunization" ]
      },
      "status": "completed",
      "vaccineCode": {
        "coding": [ {
          "system": "http://hl7.org/fhir/sid/cvx",
          "code": "146",
          "display": "DTaP,IPV,Hib,HepB"
        } ]
      },
      "patient": {
        "reference": "Patient/04f9410f-7991-4e50-b90e-881dd837d0e8"
      },
      "occurrenceDateTime": "2025-01-02T00:00:00.000+00:00",
      "recorded": "2025-01-02T00:00:00.000+00:00",
      "primarySource": true
    },
    "request": {
      "method": "PUT",
      "url": "Immunization/01cde1e1-4987-471b-95fa-aef35fea7be4"
    }
  }, {
    "fullUrl": "https://madie.cms.gov/Immunization/f7689fe5-67cb-412f-a790-2370879ffc83",
    "resource": {
      "resourceType": "Immunization",
      "id": "f7689fe5-67cb-412f-a790-2370879ffc83",
      "meta": {
        "profile": [ "http://hl7.org/fhir/us/qicore/StructureDefinition/qicore-immunization" ]
      },
      "status": "completed",
      "vaccineCode": {
        "coding": [ {
          "system": "http://hl7.org/fhir/sid/cvx",
          "code": "146",
          "display": "DTaP,IPV,Hib,HepB"
        } ]
      },
      "patient": {
        "reference": "Patient/04f9410f-7991-4e50-b90e-881dd837d0e8"
      },
      "occurrenceDateTime": "2025-01-06T00:00:00.000+00:00",
      "recorded": "2025-01-02T00:00:00.000+00:00",
      "primarySource": true
    },
    "request": {
      "method": "PUT",
      "url": "Immunization/f7689fe5-67cb-412f-a790-2370879ffc83"
    }
  }, {
    "fullUrl": "https://madie.cms.gov/Immunization/6932a2b4-dfff-43f9-800b-545aaf4e2976",
    "resource": {
      "resourceType": "Immunization",
      "id": "6932a2b4-dfff-43f9-800b-545aaf4e2976",
      "meta": {
        "profile": [ "http://hl7.org/fhir/us/qicore/StructureDefinition/qicore-immunization" ]
      },
      "status": "completed",
      "vaccineCode": {
        "coding": [ {
          "system": "http://hl7.org/fhir/sid/cvx",
          "code": "146",
          "display": "DTaP,IPV,Hib,HepB"
        } ]
      },
      "patient": {
        "reference": "Patient/04f9410f-7991-4e50-b90e-881dd837d0e8"
      },
      "occurrenceDateTime": "2025-01-09T00:00:00.000+00:00",
      "recorded": "2025-01-02T00:00:00.000+00:00",
      "primarySource": true
    },
    "request": {
      "method": "PUT",
      "url": "Immunization/6932a2b4-dfff-43f9-800b-545aaf4e2976"
    }
  }, {
    "fullUrl": "https://madie.cms.gov/Immunization/db032586-abe9-44d2-a2ee-ed3a385be422",
    "resource": {
      "resourceType": "Immunization",
      "id": "db032586-abe9-44d2-a2ee-ed3a385be422",
      "meta": {
        "profile": [ "http://hl7.org/fhir/us/qicore/StructureDefinition/qicore-immunization" ]
      },
      "status": "completed",
      "vaccineCode": {
        "coding": [ {
          "system": "http://hl7.org/fhir/sid/cvx",
          "code": "94",
          "display": "measles, mumps, rubella, and varicella virus vaccine"
        } ]
      },
      "patient": {
        "reference": "Patient/04f9410f-7991-4e50-b90e-881dd837d0e8"
      },
      "occurrenceDateTime": "2025-01-02T00:00:00.000+00:00",
      "recorded": "2025-01-02T00:00:00.000+00:00",
      "primarySource": true
    },
    "request": {
      "method": "PUT",
      "url": "Immunization/db032586-abe9-44d2-a2ee-ed3a385be422"
    }
  }, {
    "fullUrl": "https://madie.cms.gov/Immunization/e9457e3b-57c6-466d-8d07-f2861e57c620",
    "resource": {
      "resourceType": "Immunization",
      "id": "e9457e3b-57c6-466d-8d07-f2861e57c620",
      "meta": {
        "profile": [ "http://hl7.org/fhir/us/qicore/StructureDefinition/qicore-immunization" ]
      },
      "status": "completed",
      "vaccineCode": {
        "coding": [ {
          "system": "http://hl7.org/fhir/sid/cvx",
          "code": "49",
          "display": "Haemophilus influenzae type b vaccine, PRP-OMP conjugate"
        } ]
      },
      "patient": {
        "reference": "Patient/04f9410f-7991-4e50-b90e-881dd837d0e8"
      },
      "occurrenceDateTime": "2025-01-02T00:00:00.000+00:00",
      "recorded": "2025-01-02T00:00:00.000+00:00",
      "primarySource": true
    },
    "request": {
      "method": "PUT",
      "url": "Immunization/e9457e3b-57c6-466d-8d07-f2861e57c620"
    }
  }, {
    "fullUrl": "https://madie.cms.gov/Immunization/0789abc3-47e8-4681-ab35-4d6ebe85c2b0",
    "resource": {
      "resourceType": "Immunization",
      "id": "0789abc3-47e8-4681-ab35-4d6ebe85c2b0",
      "meta": {
        "profile": [ "http://hl7.org/fhir/us/qicore/StructureDefinition/qicore-immunization" ]
      },
      "status": "completed",
      "vaccineCode": {
        "coding": [ {
          "system": "http://hl7.org/fhir/sid/cvx",
          "code": "49",
          "display": "Haemophilus influenzae type b vaccine, PRP-OMP conjugate"
        } ]
      },
      "patient": {
        "reference": "Patient/04f9410f-7991-4e50-b90e-881dd837d0e8"
      },
      "occurrenceDateTime": "2025-01-02T00:00:00.000+00:00",
      "recorded": "2025-01-02T00:00:00.000+00:00",
      "primarySource": true
    },
    "request": {
      "method": "PUT",
      "url": "Immunization/0789abc3-47e8-4681-ab35-4d6ebe85c2b0"
    }
  }, {
    "fullUrl": "https://madie.cms.gov/Immunization/676d845e-2c6b-4ece-b57a-b838cf0fe956",
    "resource": {
      "resourceType": "Immunization",
      "id": "676d845e-2c6b-4ece-b57a-b838cf0fe956",
      "meta": {
        "profile": [ "http://hl7.org/fhir/us/qicore/StructureDefinition/qicore-immunization" ]
      },
      "status": "completed",
      "vaccineCode": {
        "coding": [ {
          "system": "http://hl7.org/fhir/sid/cvx",
          "code": "49",
          "display": "Haemophilus influenzae type b vaccine, PRP-OMP conjugate"
        } ]
      },
      "patient": {
        "reference": "Patient/04f9410f-7991-4e50-b90e-881dd837d0e8"
      },
      "occurrenceDateTime": "2025-01-02T00:00:00.000+00:00",
      "recorded": "2025-01-02T00:00:00.000+00:00",
      "primarySource": true
    },
    "request": {
      "method": "PUT",
      "url": "Immunization/676d845e-2c6b-4ece-b57a-b838cf0fe956"
    }
  }, {
    "fullUrl": "https://madie.cms.gov/Immunization/a4a8e443-e1ad-4ac5-83cf-e980bacddb3d",
    "resource": {
      "resourceType": "Immunization",
      "id": "a4a8e443-e1ad-4ac5-83cf-e980bacddb3d",
      "meta": {
        "profile": [ "http://hl7.org/fhir/us/qicore/StructureDefinition/qicore-immunization" ]
      },
      "status": "completed",
      "vaccineCode": {
        "coding": [ {
          "system": "http://hl7.org/fhir/sid/cvx",
          "code": "51",
          "display": "Haemophilus influenzae type b conjugate and Hepatitis B vaccine"
        } ]
      },
      "patient": {
        "reference": "Patient/04f9410f-7991-4e50-b90e-881dd837d0e8"
      },
      "occurrenceDateTime": "2025-01-02T00:00:00.000+00:00",
      "recorded": "2025-01-02T00:00:00.000+00:00",
      "primarySource": true
    },
    "request": {
      "method": "PUT",
      "url": "Immunization/a4a8e443-e1ad-4ac5-83cf-e980bacddb3d"
    }
  }, {
    "fullUrl": "https://madie.cms.gov/Immunization/2b744dcb-83e1-4445-bc72-c441d4e53140",
    "resource": {
      "resourceType": "Immunization",
      "id": "2b744dcb-83e1-4445-bc72-c441d4e53140",
      "meta": {
        "profile": [ "http://hl7.org/fhir/us/qicore/StructureDefinition/qicore-immunization" ]
      },
      "status": "completed",
      "vaccineCode": {
        "coding": [ {
          "system": "http://hl7.org/fhir/sid/cvx",
          "code": "51",
          "display": "Haemophilus influenzae type b conjugate and Hepatitis B vaccine"
        } ]
      },
      "patient": {
        "reference": "Patient/04f9410f-7991-4e50-b90e-881dd837d0e8"
      },
      "occurrenceDateTime": "2025-01-10T00:00:00.000+00:00",
      "recorded": "2025-01-02T00:00:00.000+00:00",
      "primarySource": true
    },
    "request": {
      "method": "PUT",
      "url": "Immunization/2b744dcb-83e1-4445-bc72-c441d4e53140"
    }
  }, {
    "fullUrl": "https://madie.cms.gov/Immunization/9df71e57-88fc-4e3b-a572-64b0e0249b5a",
    "resource": {
      "resourceType": "Immunization",
      "id": "9df71e57-88fc-4e3b-a572-64b0e0249b5a",
      "meta": {
        "profile": [ "http://hl7.org/fhir/us/qicore/StructureDefinition/qicore-immunization" ]
      },
      "status": "completed",
      "vaccineCode": {
        "coding": [ {
          "system": "http://hl7.org/fhir/sid/cvx",
          "code": "51",
          "display": "Haemophilus influenzae type b conjugate and Hepatitis B vaccine"
        } ]
      },
      "patient": {
        "reference": "Patient/04f9410f-7991-4e50-b90e-881dd837d0e8"
      },
      "occurrenceDateTime": "2025-01-12T00:00:00.000+00:00",
      "recorded": "2025-01-02T00:00:00.000+00:00",
      "primarySource": true
    },
    "request": {
      "method": "PUT",
      "url": "Immunization/9df71e57-88fc-4e3b-a572-64b0e0249b5a"
    }
  }, {
    "fullUrl": "https://madie.cms.gov/Immunization/96f935df-076c-4221-b433-6afb16fd06f4",
    "resource": {
      "resourceType": "Immunization",
      "id": "96f935df-076c-4221-b433-6afb16fd06f4",
      "meta": {
        "profile": [ "http://hl7.org/fhir/us/qicore/StructureDefinition/qicore-immunization" ]
      },
      "status": "completed",
      "vaccineCode": {
        "coding": [ {
          "system": "http://hl7.org/fhir/sid/cvx",
          "code": "94",
          "display": "measles, mumps, rubella, and varicella virus vaccine"
        } ]
      },
      "patient": {
        "reference": "Patient/04f9410f-7991-4e50-b90e-881dd837d0e8"
      },
      "occurrenceDateTime": "2025-01-02T00:00:00.000+00:00",
      "recorded": "2025-01-02T00:00:00.000+00:00",
      "primarySource": true
    },
    "request": {
      "method": "PUT",
      "url": "Immunization/96f935df-076c-4221-b433-6afb16fd06f4"
    }
  }, {
    "fullUrl": "https://madie.cms.gov/Immunization/b25eb79e-6f0e-4a81-8963-e95e88ab2253",
    "resource": {
      "resourceType": "Immunization",
      "id": "b25eb79e-6f0e-4a81-8963-e95e88ab2253",
      "meta": {
        "profile": [ "http://hl7.org/fhir/us/qicore/StructureDefinition/qicore-immunization" ]
      },
      "status": "completed",
      "vaccineCode": {
        "coding": [ {
          "system": "http://hl7.org/fhir/sid/cvx",
          "code": "215",
          "display": "Pneumococcal conjugate vaccine 15-valent (PCV15), polysaccharide CRM197 conjugate, adjuvant, preservative free"
        } ]
      },
      "patient": {
        "reference": "Patient/04f9410f-7991-4e50-b90e-881dd837d0e8"
      },
      "occurrenceDateTime": "2025-01-12T00:00:00.000+00:00",
      "recorded": "2025-01-02T00:00:00.000+00:00",
      "primarySource": true
    },
    "request": {
      "method": "PUT",
      "url": "Immunization/b25eb79e-6f0e-4a81-8963-e95e88ab2253"
    }
  }, {
    "fullUrl": "https://madie.cms.gov/Immunization/8f6dcd81-95c8-4a7a-85d0-f449ea263546",
    "resource": {
      "resourceType": "Immunization",
      "id": "8f6dcd81-95c8-4a7a-85d0-f449ea263546",
      "meta": {
        "profile": [ "http://hl7.org/fhir/us/qicore/StructureDefinition/qicore-immunization" ]
      },
      "status": "completed",
      "vaccineCode": {
        "coding": [ {
          "system": "http://hl7.org/fhir/sid/cvx",
          "code": "215",
          "display": "Pneumococcal conjugate vaccine 15-valent (PCV15), polysaccharide CRM197 conjugate, adjuvant, preservative free"
        } ]
      },
      "patient": {
        "reference": "Patient/04f9410f-7991-4e50-b90e-881dd837d0e8"
      },
      "occurrenceDateTime": "2025-01-14T00:00:00.000+00:00",
      "recorded": "2025-01-02T00:00:00.000+00:00",
      "primarySource": true
    },
    "request": {
      "method": "PUT",
      "url": "Immunization/8f6dcd81-95c8-4a7a-85d0-f449ea263546"
    }
  }, {
    "fullUrl": "https://madie.cms.gov/Immunization/70389e24-03e4-4591-8049-2e70edc0f3d4",
    "resource": {
      "resourceType": "Immunization",
      "id": "70389e24-03e4-4591-8049-2e70edc0f3d4",
      "meta": {
        "profile": [ "http://hl7.org/fhir/us/qicore/StructureDefinition/qicore-immunization" ]
      },
      "status": "completed",
      "vaccineCode": {
        "coding": [ {
          "system": "http://hl7.org/fhir/sid/cvx",
          "code": "215",
          "display": "Pneumococcal conjugate vaccine 15-valent (PCV15), polysaccharide CRM197 conjugate, adjuvant, preservative free"
        } ]
      },
      "patient": {
        "reference": "Patient/04f9410f-7991-4e50-b90e-881dd837d0e8"
      },
      "occurrenceDateTime": "2025-01-20T00:00:00.000+00:00",
      "recorded": "2025-01-02T00:00:00.000+00:00",
      "primarySource": true
    },
    "request": {
      "method": "PUT",
      "url": "Immunization/70389e24-03e4-4591-8049-2e70edc0f3d4"
    }
  }, {
    "fullUrl": "https://madie.cms.gov/Immunization/2135c22f-b260-4c45-91b3-bc22879e1eab",
    "resource": {
      "resourceType": "Immunization",
      "id": "2135c22f-b260-4c45-91b3-bc22879e1eab",
      "meta": {
        "profile": [ "http://hl7.org/fhir/us/qicore/StructureDefinition/qicore-immunization" ]
      },
      "status": "completed",
      "vaccineCode": {
        "coding": [ {
          "system": "http://hl7.org/fhir/sid/cvx",
          "code": "215",
          "display": "Pneumococcal conjugate vaccine 15-valent (PCV15), polysaccharide CRM197 conjugate, adjuvant, preservative free"
        } ]
      },
      "patient": {
        "reference": "Patient/04f9410f-7991-4e50-b90e-881dd837d0e8"
      },
      "occurrenceDateTime": "2025-01-22T00:00:00.000+00:00",
      "recorded": "2025-01-02T00:00:00.000+00:00",
      "primarySource": true
    },
    "request": {
      "method": "PUT",
      "url": "Immunization/2135c22f-b260-4c45-91b3-bc22879e1eab"
    }
  }, {
    "fullUrl": "https://madie.cms.gov/Immunization/9135181d-2c8a-41b8-bd03-c18d87c9a7fb",
    "resource": {
      "resourceType": "Immunization",
      "id": "9135181d-2c8a-41b8-bd03-c18d87c9a7fb",
      "meta": {
        "profile": [ "http://hl7.org/fhir/us/qicore/StructureDefinition/qicore-immunization" ]
      },
      "status": "completed",
      "vaccineCode": {
        "coding": [ {
          "system": "http://hl7.org/fhir/sid/cvx",
          "code": "85",
          "display": "hepatitis A vaccine, unspecified formulation"
        } ]
      },
      "patient": {
        "reference": "Patient/04f9410f-7991-4e50-b90e-881dd837d0e8"
      },
      "occurrenceDateTime": "2025-01-02T00:00:00.000+00:00",
      "recorded": "2025-01-02T00:00:00.000+00:00",
      "primarySource": true
    },
    "request": {
      "method": "PUT",
      "url": "Immunization/9135181d-2c8a-41b8-bd03-c18d87c9a7fb"
    }
  }, {
    "fullUrl": "https://madie.cms.gov/Immunization/e4258ede-3b31-4a67-b6a4-ae2384a7b3d6",
    "resource": {
      "resourceType": "Immunization",
      "id": "e4258ede-3b31-4a67-b6a4-ae2384a7b3d6",
      "meta": {
        "profile": [ "http://hl7.org/fhir/us/qicore/StructureDefinition/qicore-immunization" ]
      },
      "status": "completed",
      "vaccineCode": {
        "coding": [ {
          "system": "http://hl7.org/fhir/sid/cvx",
          "code": "119",
          "display": "rotavirus, live, monovalent vaccine"
        } ]
      },
      "patient": {
        "reference": "Patient/04f9410f-7991-4e50-b90e-881dd837d0e8"
      },
      "occurrenceDateTime": "2025-01-02T00:00:00.000+00:00",
      "recorded": "2025-01-02T00:00:00.000+00:00",
      "primarySource": true
    },
    "request": {
      "method": "PUT",
      "url": "Immunization/e4258ede-3b31-4a67-b6a4-ae2384a7b3d6"
    }
  }, {
    "fullUrl": "https://madie.cms.gov/Immunization/2a246175-19c5-4658-8ed3-7f0ab57edb03",
    "resource": {
      "resourceType": "Immunization",
      "id": "2a246175-19c5-4658-8ed3-7f0ab57edb03",
      "meta": {
        "profile": [ "http://hl7.org/fhir/us/qicore/StructureDefinition/qicore-immunization" ]
      },
      "status": "completed",
      "vaccineCode": {
        "coding": [ {
          "system": "http://hl7.org/fhir/sid/cvx",
          "code": "119",
          "display": "rotavirus, live, monovalent vaccine"
        } ]
      },
      "patient": {
        "reference": "Patient/04f9410f-7991-4e50-b90e-881dd837d0e8"
      },
      "occurrenceDateTime": "2025-01-07T00:00:00.000+00:00",
      "recorded": "2025-01-02T00:00:00.000+00:00",
      "primarySource": true
    },
    "request": {
      "method": "PUT",
      "url": "Immunization/2a246175-19c5-4658-8ed3-7f0ab57edb03"
    }
  }, {
    "fullUrl": "https://madie.cms.gov/Immunization/a203620f-c7eb-42b3-88ad-8150cc1550ac",
    "resource": {
      "resourceType": "Immunization",
      "id": "a203620f-c7eb-42b3-88ad-8150cc1550ac",
      "meta": {
        "profile": [ "http://hl7.org/fhir/us/qicore/StructureDefinition/qicore-immunization" ]
      },
      "status": "completed",
      "vaccineCode": {
        "coding": [ {
          "system": "http://hl7.org/fhir/sid/cvx",
          "code": "153",
          "display": "Influenza, injectable, MDCK, preservative free"
        } ]
      },
      "patient": {
        "reference": "Patient/04f9410f-7991-4e50-b90e-881dd837d0e8"
      },
      "occurrenceDateTime": "2025-01-02T00:00:00.000+00:00",
      "recorded": "2025-01-02T00:00:00.000+00:00",
      "primarySource": true
    },
    "request": {
      "method": "PUT",
      "url": "Immunization/a203620f-c7eb-42b3-88ad-8150cc1550ac"
    }
  }, {
    "fullUrl": "https://madie.cms.gov/Immunization/d0a2bb97-6a54-4f34-91ea-64fd566b630a",
    "resource": {
      "resourceType": "Immunization",
      "id": "d0a2bb97-6a54-4f34-91ea-64fd566b630a",
      "meta": {
        "profile": [ "http://hl7.org/fhir/us/qicore/StructureDefinition/qicore-immunization" ]
      },
      "status": "completed",
      "vaccineCode": {
        "coding": [ {
          "system": "http://hl7.org/fhir/sid/cvx",
          "code": "153",
          "display": "Influenza, injectable, MDCK, preservative free"
        } ]
      },
      "patient": {
        "reference": "Patient/04f9410f-7991-4e50-b90e-881dd837d0e8"
      },
      "occurrenceDateTime": "2025-01-10T00:00:00.000+00:00",
      "recorded": "2025-01-02T00:00:00.000+00:00",
      "primarySource": true
    },
    "request": {
      "method": "PUT",
      "url": "Immunization/d0a2bb97-6a54-4f34-91ea-64fd566b630a"
    }
  }, {
    "fullUrl": "https://madie.cms.gov/MeasureReport/d92800a5-62ec-4dc6-b6ef-4c1515020cce",
    "resource": {
      "resourceType": "MeasureReport",
      "id": "d92800a5-62ec-4dc6-b6ef-4c1515020cce",
      "meta": {
        "profile": [ "http://hl7.org/fhir/us/cqfmeasures/StructureDefinition/test-case-cqfm" ]
      },
      "contained": [ {
        "resourceType": "Parameters",
        "id": "195d8f01-8786-4fe3-8abb-337c215cee26-parameters",
        "parameter": [ {
          "name": "subject",
          "valueString": "c96d4c6a-b9ee-4fdf-8e32-e8071dfcc4f9"
        } ]
      } ],
      "extension": [ {
        "url": "http://hl7.org/fhir/StructureDefinition/cqf-inputParameters",
        "valueReference": {
          "reference": "#195d8f01-8786-4fe3-8abb-337c215cee26-parameters"
        }
      }, {
        "url": "http://hl7.org/fhir/us/cqfmeasures/StructureDefinition/cqfm-testCaseDescription",
        "valueMarkdown": "Patient has HIV"
      } ],
      "modifierExtension": [ {
        "url": "http://hl7.org/fhir/us/cqfmeasures/StructureDefinition/cqfm-isTestCase",
        "valueBoolean": true
      } ],
      "status": "complete",
      "type": "individual",
      "measure": "https://madie.cms.gov/Measure/ChildhoodImmunizationStatusFHIR",
      "period": {
        "start": "2026-01-01",
        "end": "2026-12-31"
      },
      "group": [ {
        "id": "Group_1",
        "population": [ {
          "id": "InitialPopulation_1",
          "code": {
            "coding": [ {
              "system": "http://terminology.hl7.org/CodeSystem/measure-population",
              "code": "initial-population",
              "display": "Initial Population"
            } ]
          },
          "count": 1
        }, {
          "id": "Denominator_1",
          "code": {
            "coding": [ {
              "system": "http://terminology.hl7.org/CodeSystem/measure-population",
              "code": "denominator",
              "display": "Denominator"
            } ]
          },
          "count": 1
        }, {
          "id": "DenominatorExclusion_1",
          "code": {
            "coding": [ {
              "system": "http://terminology.hl7.org/CodeSystem/measure-population",
              "code": "denominator-exclusion",
              "display": "Denominator Exclusion"
            } ]
          },
          "count": 1
        }, {
          "id": "Numerator_1",
          "code": {
            "coding": [ {
              "system": "http://terminology.hl7.org/CodeSystem/measure-population",
              "code": "numerator",
              "display": "Numerator"
            } ]
          },
          "count": 0
        } ],
        "measureScore": {
          "value": 1
        }
      } ],
      "evaluatedResource": [ {
        "reference": "Patient/04f9410f-7991-4e50-b90e-881dd837d0e8"
      }, {
        "reference": "Encounter/51f95c7d-0e3d-412a-a6ae-0201b660155e"
      }, {
        "reference": "Condition/0a955154-79f1-4d8d-9da1-6d2cbd4bb9c2"
      }, {
        "reference": "Immunization/831e6f88-13c0-4d24-b6ec-8ef55faafad9"
      }, {
        "reference": "Immunization/0583de21-9112-4ed4-9452-2469055b395f"
      }, {
        "reference": "Immunization/7d982869-4fab-4176-9944-75fd734ef410"
      }, {
        "reference": "Immunization/75965d2b-942a-45f6-8570-0dc293c7aaf5"
      }, {
        "reference": "Immunization/01cde1e1-4987-471b-95fa-aef35fea7be4"
      }, {
        "reference": "Immunization/f7689fe5-67cb-412f-a790-2370879ffc83"
      }, {
        "reference": "Immunization/6932a2b4-dfff-43f9-800b-545aaf4e2976"
      }, {
        "reference": "Immunization/db032586-abe9-44d2-a2ee-ed3a385be422"
      }, {
        "reference": "Immunization/e9457e3b-57c6-466d-8d07-f2861e57c620"
      }, {
        "reference": "Immunization/0789abc3-47e8-4681-ab35-4d6ebe85c2b0"
      }, {
        "reference": "Immunization/676d845e-2c6b-4ece-b57a-b838cf0fe956"
      }, {
        "reference": "Immunization/a4a8e443-e1ad-4ac5-83cf-e980bacddb3d"
      }, {
        "reference": "Immunization/2b744dcb-83e1-4445-bc72-c441d4e53140"
      }, {
        "reference": "Immunization/9df71e57-88fc-4e3b-a572-64b0e0249b5a"
      }, {
        "reference": "Immunization/96f935df-076c-4221-b433-6afb16fd06f4"
      }, {
        "reference": "Immunization/b25eb79e-6f0e-4a81-8963-e95e88ab2253"
      }, {
        "reference": "Immunization/8f6dcd81-95c8-4a7a-85d0-f449ea263546"
      }, {
        "reference": "Immunization/70389e24-03e4-4591-8049-2e70edc0f3d4"
      }, {
        "reference": "Immunization/2135c22f-b260-4c45-91b3-bc22879e1eab"
      }, {
        "reference": "Immunization/9135181d-2c8a-41b8-bd03-c18d87c9a7fb"
      }, {
        "reference": "Immunization/e4258ede-3b31-4a67-b6a4-ae2384a7b3d6"
      }, {
        "reference": "Immunization/2a246175-19c5-4658-8ed3-7f0ab57edb03"
      }, {
        "reference": "Immunization/a203620f-c7eb-42b3-88ad-8150cc1550ac"
      }, {
        "reference": "Immunization/d0a2bb97-6a54-4f34-91ea-64fd566b630a"
      } ]
    },
    "request": {
      "method": "PUT",
      "url": "MeasureReport/d92800a5-62ec-4dc6-b6ef-4c1515020cce"
    }
  }, {
    "fullUrl": "https://madie.cms.gov/MeasureReport/1c7b7f6d-e7f9-4390-b31a-5a9da54b7938",
    "resource": {
      "resourceType": "MeasureReport",
      "id": "1c7b7f6d-e7f9-4390-b31a-5a9da54b7938",
      "meta": {
        "profile": [ "http://hl7.org/fhir/us/cqfmeasures/StructureDefinition/test-case-cqfm" ]
      },
      "contained": [ {
        "resourceType": "Parameters",
        "id": "cd56229e-9301-4a4b-babb-35adc4c149df-parameters",
        "parameter": [ {
          "name": "subject",
          "valueString": "04f9410f-7991-4e50-b90e-881dd837d0e8"
        } ]
      } ],
      "extension": [ {
        "url": "http://hl7.org/fhir/StructureDefinition/cqf-inputParameters",
        "valueReference": {
          "reference": "#cd56229e-9301-4a4b-babb-35adc4c149df-parameters"
        }
      }, {
        "url": "http://hl7.org/fhir/us/cqfmeasures/StructureDefinition/cqfm-testCaseDescription",
        "valueMarkdown": "Patient has HIV. Testing for condition encounter diagnosis to meet 100% coverage."
      } ],
      "modifierExtension": [ {
        "url": "http://hl7.org/fhir/us/cqfmeasures/StructureDefinition/cqfm-isTestCase",
        "valueBoolean": true
      } ],
      "status": "complete",
      "type": "individual",
      "measure": "https://madie.cms.gov/Measure/CMS117FHIRChildImmunStatus",
      "period": {
        "start": "2026-01-01",
        "end": "2026-12-31"
      },
      "group": [ {
        "id": "Group_1",
        "population": [ {
          "id": "InitialPopulation_1",
          "code": {
            "coding": [ {
              "system": "http://terminology.hl7.org/CodeSystem/measure-population",
              "code": "initial-population",
              "display": "Initial Population"
            } ]
          },
          "count": 1
        }, {
          "id": "Denominator_1",
          "code": {
            "coding": [ {
              "system": "http://terminology.hl7.org/CodeSystem/measure-population",
              "code": "denominator",
              "display": "Denominator"
            } ]
          },
          "count": 1
        }, {
          "id": "DenominatorExclusion_1",
          "code": {
            "coding": [ {
              "system": "http://terminology.hl7.org/CodeSystem/measure-population",
              "code": "denominator-exclusion",
              "display": "Denominator Exclusion"
            } ]
          },
          "count": 1
        }, {
          "id": "Numerator_1",
          "code": {
            "coding": [ {
              "system": "http://terminology.hl7.org/CodeSystem/measure-population",
              "code": "numerator",
              "display": "Numerator"
            } ]
          },
          "count": 0
        } ],
        "measureScore": {
          "value": 1.0
        }
      } ],
      "evaluatedResource": [ {
        "reference": "Patient/04f9410f-7991-4e50-b90e-881dd837d0e8"
      }, {
        "reference": "Encounter/51f95c7d-0e3d-412a-a6ae-0201b660155e"
      }, {
        "reference": "Condition/0a955154-79f1-4d8d-9da1-6d2cbd4bb9c2"
      }, {
        "reference": "Immunization/831e6f88-13c0-4d24-b6ec-8ef55faafad9"
      }, {
        "reference": "Immunization/0583de21-9112-4ed4-9452-2469055b395f"
      }, {
        "reference": "Immunization/7d982869-4fab-4176-9944-75fd734ef410"
      }, {
        "reference": "Immunization/75965d2b-942a-45f6-8570-0dc293c7aaf5"
      }, {
        "reference": "Immunization/01cde1e1-4987-471b-95fa-aef35fea7be4"
      }, {
        "reference": "Immunization/f7689fe5-67cb-412f-a790-2370879ffc83"
      }, {
        "reference": "Immunization/6932a2b4-dfff-43f9-800b-545aaf4e2976"
      }, {
        "reference": "Immunization/db032586-abe9-44d2-a2ee-ed3a385be422"
      }, {
        "reference": "Immunization/e9457e3b-57c6-466d-8d07-f2861e57c620"
      }, {
        "reference": "Immunization/0789abc3-47e8-4681-ab35-4d6ebe85c2b0"
      }, {
        "reference": "Immunization/676d845e-2c6b-4ece-b57a-b838cf0fe956"
      }, {
        "reference": "Immunization/a4a8e443-e1ad-4ac5-83cf-e980bacddb3d"
      }, {
        "reference": "Immunization/2b744dcb-83e1-4445-bc72-c441d4e53140"
      }, {
        "reference": "Immunization/9df71e57-88fc-4e3b-a572-64b0e0249b5a"
      }, {
        "reference": "Immunization/96f935df-076c-4221-b433-6afb16fd06f4"
      }, {
        "reference": "Immunization/b25eb79e-6f0e-4a81-8963-e95e88ab2253"
      }, {
        "reference": "Immunization/8f6dcd81-95c8-4a7a-85d0-f449ea263546"
      }, {
        "reference": "Immunization/70389e24-03e4-4591-8049-2e70edc0f3d4"
      }, {
        "reference": "Immunization/2135c22f-b260-4c45-91b3-bc22879e1eab"
      }, {
        "reference": "Immunization/9135181d-2c8a-41b8-bd03-c18d87c9a7fb"
      }, {
        "reference": "Immunization/e4258ede-3b31-4a67-b6a4-ae2384a7b3d6"
      }, {
        "reference": "Immunization/2a246175-19c5-4658-8ed3-7f0ab57edb03"
      }, {
        "reference": "Immunization/a203620f-c7eb-42b3-88ad-8150cc1550ac"
      }, {
        "reference": "Immunization/d0a2bb97-6a54-4f34-91ea-64fd566b630a"
      }, {
        "reference": "MeasureReport/d92800a5-62ec-4dc6-b6ef-4c1515020cce"
      } ]
    },
    "request": {
      "method": "PUT",
      "url": "MeasureReport/1c7b7f6d-e7f9-4390-b31a-5a9da54b7938"
    }
  } ]
}