{
  "resourceType": "Bundle",
  "id": "612e6adf02c62a011f2eb8ab",
  "type": "transaction",
  "entry": [ {
    "fullUrl": "https://madie.cms.gov/Patient/9b925e9e-1c3a-4e98-b156-0583323e2d6e",
    "resource": {
      "resourceType": "Patient",
      "id": "9b925e9e-1c3a-4e98-b156-0583323e2d6e",
      "meta": {
        "profile": [ "http://hl7.org/fhir/us/qicore/StructureDefinition/qicore-patient" ]
      },
      "text": {
        "status": "generated",
        "div": "<div xmlns=\"http://www.w3.org/1999/xhtml\"><div class=\"hapiHeaderText\">CMODuringObs_ObsLT1hrBFAdm <b>DENEXPASS </b></div><table class=\"hapiPropertyTable\"><tbody><tr><td>Identifier</td><td>79af097064c6371feea556bf7ba54a281c2e37b325b6be388a0f5af53c958415</td></tr><tr><td>Date of birth</td><td><span>02 January 1974</span></td></tr></tbody></table></div>"
      },
      "extension": [ {
        "url": "http://hl7.org/fhir/us/core/StructureDefinition/us-core-race",
        "extension": [ {
          "url": "ombCategory",
          "valueCoding": {
            "system": "urn:oid:2.16.840.1.113883.6.238",
            "code": "1002-5",
            "display": "American Indian or Alaska Native",
            "userSelected": true
          }
        }, {
          "url": "text",
          "valueString": "American Indian or Alaska Native"
        } ]
      }, {
        "url": "http://hl7.org/fhir/us/core/StructureDefinition/us-core-ethnicity",
        "extension": [ {
          "url": "ombCategory",
          "valueCoding": {
            "system": "urn:oid:2.16.840.1.113883.6.238",
            "code": "2135-2",
            "display": "Hispanic or Latino",
            "userSelected": true
          }
        }, {
          "url": "text",
          "valueString": "Hispanic or Latino"
        } ]
      } ],
      "identifier": [ {
        "type": {
          "coding": [ {
            "system": "http://terminology.hl7.org/CodeSystem/v2-0203",
            "code": "MR"
          } ]
        },
        "system": "https://bonnie-fhir.healthit.gov/",
        "value": "612e6adf02c62a011f2eb8ab"
      } ],
      "active": true,
      "name": [ {
        "use": "usual",
        "family": "DENEXPass",
        "given": [ "CMODuringObsObsLT1hrBFAdm" ]
      } ],
      "gender": "male",
      "birthDate": "1975-01-02"
    },
    "request": {
      "method": "PUT",
      "url": "Patient/9b925e9e-1c3a-4e98-b156-0583323e2d6e"
    }
  }, {
    "fullUrl": "https://madie.cms.gov/Encounter/4e7dfab8-0983-43b1-8158-85aefc4a45f1",
    "resource": {
      "resourceType": "Encounter",
      "id": "4e7dfab8-0983-43b1-8158-85aefc4a45f1",
      "meta": {
        "profile": [ "http://hl7.org/fhir/us/qicore/StructureDefinition/qicore-encounter" ]
      },
      "status": "finished",
      "class": {
        "system": "http://terminology.hl7.org/CodeSystem/v3-ActCode",
        "code": "EMER",
        "display": "emergency"
      },
      "type": [ {
        "coding": [ {
          "system": "http://snomed.info/sct",
          "code": "4525004"
        } ]
      } ],
      "subject": {
        "reference": "Patient/9b925e9e-1c3a-4e98-b156-0583323e2d6e"
      },
      "period": {
        "start": "2026-10-30T08:00:00.000+00:00",
        "end": "2026-11-01T07:15:00.000+00:00"
      },
      "length": {
        "value": 2,
        "unit": "days"
      }
    },
    "request": {
      "method": "PUT",
      "url": "Encounter/4e7dfab8-0983-43b1-8158-85aefc4a45f1"
    }
  }, {
    "fullUrl": "https://madie.cms.gov/Encounter/9f8bf8df-563e-4193-be26-54d76af37e1a",
    "resource": {
      "resourceType": "Encounter",
      "id": "9f8bf8df-563e-4193-be26-54d76af37e1a",
      "meta": {
        "profile": [ "http://hl7.org/fhir/us/qicore/StructureDefinition/qicore-encounter" ]
      },
      "status": "finished",
      "class": {
        "system": "http://terminology.hl7.org/CodeSystem/v3-ActCode",
        "code": "IMP",
        "display": "inpatient encounter"
      },
      "type": [ {
        "coding": [ {
          "system": "http://snomed.info/sct",
          "code": "8715000"
        } ]
      } ],
      "subject": {
        "reference": "Patient/9b925e9e-1c3a-4e98-b156-0583323e2d6e"
      },
      "period": {
        "start": "2026-11-01T10:00:00.000+00:00",
        "end": "2026-11-26T08:15:00.000+00:00"
      },
      "length": {
        "value": 25,
        "unit": "days"
      }
    },
    "request": {
      "method": "PUT",
      "url": "Encounter/9f8bf8df-563e-4193-be26-54d76af37e1a"
    }
  }, {
    "fullUrl": "https://madie.cms.gov/Encounter/aa1ba10c-20a5-4407-a370-4feda01352b1",
    "resource": {
      "resourceType": "Encounter",
      "id": "aa1ba10c-20a5-4407-a370-4feda01352b1",
      "meta": {
        "profile": [ "http://hl7.org/fhir/us/qicore/StructureDefinition/qicore-encounter" ]
      },
      "status": "finished",
      "class": {
        "system": "http://terminology.hl7.org/CodeSystem/v3-ActCode",
        "code": "OBSENC",
        "display": "observation encounter"
      },
      "type": [ {
        "coding": [ {
          "system": "http://snomed.info/sct",
          "code": "448951000124107"
        } ]
      } ],
      "subject": {
        "reference": "Patient/9b925e9e-1c3a-4e98-b156-0583323e2d6e"
      },
      "period": {
        "start": "2026-11-01T07:15:00.000+00:00",
        "end": "2026-11-01T09:15:00.000+00:00"
      }
    },
    "request": {
      "method": "PUT",
      "url": "Encounter/aa1ba10c-20a5-4407-a370-4feda01352b1"
    }
  }, {
    "fullUrl": "https://madie.cms.gov/ServiceRequest/ef5a9e24-963d-4373-afc9-f923cbc00bb0",
    "resource": {
      "resourceType": "ServiceRequest",
      "id": "ef5a9e24-963d-4373-afc9-f923cbc00bb0",
      "meta": {
        "profile": [ "http://hl7.org/fhir/us/qicore/StructureDefinition/qicore-servicerequest" ]
      },
      "status": "completed",
      "intent": "order",
      "doNotPerform": false,
      "code": {
        "coding": [ {
          "system": "http://snomed.info/sct",
          "code": "133918004"
        } ]
      },
      "subject": {
        "reference": "Patient/9b925e9e-1c3a-4e98-b156-0583323e2d6e"
      },
      "authoredOn": "2026-11-01T08:00:00.000+00:00"
    },
    "request": {
      "method": "PUT",
      "url": "ServiceRequest/ef5a9e24-963d-4373-afc9-f923cbc00bb0"
    }
  }, {
    "fullUrl": "https://madie.cms.gov/Coverage/dcee5124-7d49-424b-b22e-7f741d0e8ad0",
    "resource": {
      "resourceType": "Coverage",
      "id": "dcee5124-7d49-424b-b22e-7f741d0e8ad0",
      "status": "active",
      "beneficiary": {
        "reference": "Patient/9b925e9e-1c3a-4e98-b156-0583323e2d6e"
      },
      "period": {
        "start": "1975-01-02T08:00:00.000+00:00"
      },
      "payor": [ {
        "reference": "Organization/b44c0863-3d32-4e35-a50d-64c3451ca3a4"
      } ]
    },
    "request": {
      "method": "PUT",
      "url": "Coverage/dcee5124-7d49-424b-b22e-7f741d0e8ad0"
    }
  }, {
    "fullUrl": "https://madie.cms.gov/Organization/b44c0863-3d32-4e35-a50d-64c3451ca3a4",
    "resource": {
      "resourceType": "Organization",
      "id": "b44c0863-3d32-4e35-a50d-64c3451ca3a4",
      "meta": {
        "profile": [ "http://hl7.org/fhir/us/qicore/StructureDefinition/qicore-organization" ]
      },
      "identifier": [ {
        "use": "temp",
        "system": "urn:oid:2.16.840.1.113883.4.4",
        "value": "21-3259825"
      } ],
      "active": true,
      "type": [ {
        "coding": [ {
          "system": "http://terminology.hl7.org/CodeSystem/organization-type",
          "code": "pay",
          "display": "Payer"
        } ]
      } ],
      "name": "Blue Cross Blue Shield of Texas",
      "telecom": [ {
        "system": "phone",
        "value": "(+1) 972-766-6900"
      } ],
      "address": [ {
        "use": "billing",
        "type": "postal",
        "line": [ "P.O. Box 660044" ],
        "city": "Dallas",
        "state": "TX",
        "postalCode": "75266-0044",
        "country": "USA"
      } ]
    },
    "request": {
      "method": "PUT",
      "url": "Organization/b44c0863-3d32-4e35-a50d-64c3451ca3a4"
    }
  }, {
    "fullUrl": "https://madie.cms.gov/Practitioner/8bb3b6d2-f238-4c16-859a-c06efbc1990e",
    "resource": {
      "resourceType": "Practitioner",
      "id": "8bb3b6d2-f238-4c16-859a-c06efbc1990e",
      "identifier": [ {
        "system": "http://hl7.org/fhir/sid/us-npi",
        "value": "123456"
      } ],
      "name": [ {
        "family": "Evil",
        "prefix": [ "Dr" ]
      } ]
    },
    "request": {
      "method": "PUT",
      "url": "Practitioner/8bb3b6d2-f238-4c16-859a-c06efbc1990e"
    }
  }, {
    "fullUrl": "https://madie.cms.gov/MeasureReport/535eb5e6-a598-4523-a4b9-094f4b241f58",
    "resource": {
      "resourceType": "MeasureReport",
      "id": "535eb5e6-a598-4523-a4b9-094f4b241f58",
      "meta": {
        "profile": [ "http://hl7.org/fhir/us/cqfmeasures/StructureDefinition/test-case-cqfm" ]
      },
      "contained": [ {
        "resourceType": "Parameters",
        "id": "4b8f7a2b-1f9c-48a2-b928-2516877c3984-parameters",
        "parameter": [ {
          "name": "subject",
          "valueString": "9b925e9e-1c3a-4e98-b156-0583323e2d6e"
        } ]
      } ],
      "extension": [ {
        "url": "http://hl7.org/fhir/StructureDefinition/cqf-inputParameters",
        "valueReference": {
          "reference": "#4b8f7a2b-1f9c-48a2-b928-2516877c3984-parameters"
        }
      }, {
        "url": "http://hl7.org/fhir/us/cqfmeasures/StructureDefinition/cqfm-testCaseDescription",
        "valueMarkdown": "CMO occurs in Observation that OB ends <1 hour before Adm. But this case pass because it is on the same day as adm date\n"
      } ],
      "modifierExtension": [ {
        "url": "http://hl7.org/fhir/us/cqfmeasures/StructureDefinition/cqfm-isTestCase",
        "valueBoolean": true
      } ],
      "status": "complete",
      "type": "individual",
      "measure": "https://madie.cms.gov/Measure/CMS108FHIRVTEProphylaxis",
      "period": {
        "start": "2026-01-01",
        "end": "2026-12-31"
      },
      "group": [ {
        "id": "Group_1",
        "population": [ {
          "id": "InitialPopulation_1",
          "code": {
            "coding": [ {
              "system": "http://terminology.hl7.org/CodeSystem/measure-population",
              "code": "initial-population",
              "display": "Initial Population"
            } ]
          },
          "count": 1
        }, {
          "id": "Denominator_1",
          "code": {
            "coding": [ {
              "system": "http://terminology.hl7.org/CodeSystem/measure-population",
              "code": "denominator",
              "display": "Denominator"
            } ]
          },
          "count": 1
        }, {
          "id": "DenominatorExclusion_1",
          "code": {
            "coding": [ {
              "system": "http://terminology.hl7.org/CodeSystem/measure-population",
              "code": "denominator-exclusion",
              "display": "Denominator Exclusion"
            } ]
          },
          "count": 1
        }, {
          "id": "Numerator_1",
          "code": {
            "coding": [ {
              "system": "http://terminology.hl7.org/CodeSystem/measure-population",
              "code": "numerator",
              "display": "Numerator"
            } ]
          },
          "count": 0
        } ],
        "measureScore": {
          "value": 0.0
        }
      } ],
      "evaluatedResource": [ {
        "reference": "Patient/9b925e9e-1c3a-4e98-b156-0583323e2d6e"
      }, {
        "reference": "Encounter/4e7dfab8-0983-43b1-8158-85aefc4a45f1"
      }, {
        "reference": "Encounter/9f8bf8df-563e-4193-be26-54d76af37e1a"
      }, {
        "reference": "Encounter/aa1ba10c-20a5-4407-a370-4feda01352b1"
      }, {
        "reference": "ServiceRequest/ef5a9e24-963d-4373-afc9-f923cbc00bb0"
      }, {
        "reference": "Coverage/dcee5124-7d49-424b-b22e-7f741d0e8ad0"
      }, {
        "reference": "Organization/b44c0863-3d32-4e35-a50d-64c3451ca3a4"
      }, {
        "reference": "Practitioner/8bb3b6d2-f238-4c16-859a-c06efbc1990e"
      } ]
    },
    "request": {
      "method": "PUT",
      "url": "MeasureReport/535eb5e6-a598-4523-a4b9-094f4b241f58"
    }
  } ]
}