{
  "resourceType": "Bundle",
  "id": "62fa573ff4a8c3cd9f45539e",
  "type": "transaction",
  "entry": [ {
    "fullUrl": "https://madie.cms.gov/Patient/94f26954-f280-4596-8bd3-e77ca79c1f41",
    "resource": {
      "resourceType": "Patient",
      "id": "94f26954-f280-4596-8bd3-e77ca79c1f41",
      "meta": {
        "profile": [ "http://hl7.org/fhir/us/qicore/StructureDefinition/qicore-patient" ]
      },
      "extension": [ {
        "url": "http://hl7.org/fhir/us/core/StructureDefinition/us-core-race",
        "extension": [ {
          "url": "ombCategory",
          "valueCoding": {
            "system": "urn:oid:2.16.840.1.113883.6.238",
            "code": "2028-9",
            "display": "Asian",
            "userSelected": true
          }
        }, {
          "url": "text",
          "valueString": "Asian"
        } ]
      }, {
        "url": "http://hl7.org/fhir/us/core/StructureDefinition/us-core-ethnicity",
        "extension": [ {
          "url": "ombCategory",
          "valueCoding": {
            "system": "urn:oid:2.16.840.1.113883.6.238",
            "code": "2186-5",
            "display": "Not Hispanic or Latino",
            "userSelected": true
          }
        }, {
          "url": "text",
          "valueString": "Not Hispanic or Latino"
        } ]
      } ],
      "identifier": [ {
        "type": {
          "coding": [ {
            "system": "http://terminology.hl7.org/CodeSystem/v2-0203",
            "code": "MR"
          } ]
        },
        "system": "https://bonnie-fhir.healthit.gov/",
        "value": "62fa573ff4a8c3cd9f45539e"
      } ],
      "name": [ {
        "family": "NUMERPass",
        "given": [ "EstimatedGlomerularWithOverlappingUCandUALabs" ]
      } ],
      "gender": "male",
      "birthDate": "2006-12-01"
    },
    "request": {
      "method": "PUT",
      "url": "Patient/94f26954-f280-4596-8bd3-e77ca79c1f41"
    }
  }, {
    "fullUrl": "https://madie.cms.gov/Condition/bfd5d0ca-c106-4f59-9ec7-d844e374b510",
    "resource": {
      "resourceType": "Condition",
      "id": "bfd5d0ca-c106-4f59-9ec7-d844e374b510",
      "meta": {
        "profile": [ "http://hl7.org/fhir/us/qicore/StructureDefinition/qicore-condition-problems-health-concerns" ]
      },
      "clinicalStatus": {
        "coding": [ {
          "system": "http://terminology.hl7.org/CodeSystem/condition-clinical",
          "code": "active",
          "display": "active",
          "userSelected": true
        } ]
      },
      "category": [ {
        "coding": [ {
          "system": "http://terminology.hl7.org/CodeSystem/condition-category",
          "code": "problem-list-item",
          "display": "Problem List Item",
          "userSelected": true
        } ]
      } ],
      "code": {
        "coding": [ {
          "system": "http://snomed.info/sct",
          "version": "2021-09",
          "code": "102781000119107",
          "display": "Sensory neuropathy due to type 1 diabetes mellitus (disorder)",
          "userSelected": true
        } ]
      },
      "subject": {
        "reference": "Patient/94f26954-f280-4596-8bd3-e77ca79c1f41"
      },
      "onsetDateTime": "2025-12-15T08:00:00.000+00:00"
    },
    "request": {
      "method": "PUT",
      "url": "Condition/bfd5d0ca-c106-4f59-9ec7-d844e374b510"
    }
  }, {
    "fullUrl": "https://madie.cms.gov/Encounter/eb438a35-ffe2-4719-8d69-949656e337ee",
    "resource": {
      "resourceType": "Encounter",
      "id": "eb438a35-ffe2-4719-8d69-949656e337ee",
      "meta": {
        "profile": [ "http://hl7.org/fhir/us/qicore/StructureDefinition/qicore-encounter" ]
      },
      "status": "finished",
      "class": {
        "system": "http://terminology.hl7.org/CodeSystem/v3-ActCode",
        "code": "AMB",
        "display": "ambulatory",
        "userSelected": true
      },
      "type": [ {
        "coding": [ {
          "system": "http://snomed.info/sct",
          "version": "2021-09",
          "code": "185463005",
          "display": "Visit out of hours (procedure)",
          "userSelected": true
        } ]
      } ],
      "subject": {
        "reference": "Patient/94f26954-f280-4596-8bd3-e77ca79c1f41"
      },
      "period": {
        "start": "2026-08-15T08:00:00.000+00:00",
        "end": "2026-08-15T08:15:00.000+00:00"
      }
    },
    "request": {
      "method": "PUT",
      "url": "Encounter/eb438a35-ffe2-4719-8d69-949656e337ee"
    }
  }, {
    "fullUrl": "https://madie.cms.gov/Observation/0f973004-fbb6-4ea7-b66c-0a34339f2184",
    "resource": {
      "resourceType": "Observation",
      "id": "0f973004-fbb6-4ea7-b66c-0a34339f2184",
      "meta": {
        "profile": [ "http://hl7.org/fhir/us/qicore/StructureDefinition/qicore-observation-lab" ]
      },
      "status": "final",
      "category": [ {
        "coding": [ {
          "system": "http://terminology.hl7.org/CodeSystem/observation-category",
          "code": "laboratory",
          "display": "Laboratory",
          "userSelected": true
        } ]
      } ],
      "code": {
        "coding": [ {
          "system": "http://loinc.org",
          "version": "2.71",
          "code": "48642-3",
          "display": "Glomerular filtration rate [Volume Rate/Area] in Serum, Plasma or Blood by Creatinine-based formula (MDRD)/1.73 sq M among non black population",
          "userSelected": true
        } ]
      },
      "subject": {
        "reference": "Patient/94f26954-f280-4596-8bd3-e77ca79c1f41"
      },
      "effectiveDateTime": "2026-08-15T08:00:00.000+00:00",
      "valueBoolean": true
    },
    "request": {
      "method": "PUT",
      "url": "Observation/0f973004-fbb6-4ea7-b66c-0a34339f2184"
    }
  }, {
    "fullUrl": "https://madie.cms.gov/Observation/e77e8a81-f447-4481-a2a8-3a721db38a6a",
    "resource": {
      "resourceType": "Observation",
      "id": "e77e8a81-f447-4481-a2a8-3a721db38a6a",
      "meta": {
        "profile": [ "http://hl7.org/fhir/us/qicore/StructureDefinition/qicore-observation-lab" ]
      },
      "status": "final",
      "category": [ {
        "coding": [ {
          "system": "http://terminology.hl7.org/CodeSystem/observation-category",
          "code": "laboratory",
          "display": "Laboratory"
        } ],
        "text": "Laboratory"
      } ],
      "code": {
        "coding": [ {
          "system": "http://loinc.org",
          "version": "2.72",
          "code": "13705-9",
          "display": "Albumin/Creatinine [Mass Ratio] in 24 hour Urine",
          "userSelected": true
        } ]
      },
      "subject": {
        "reference": "Patient/94f26954-f280-4596-8bd3-e77ca79c1f41"
      },
      "effectiveDateTime": "2026-08-15T08:00:00.000+00:00",
      "valueQuantity": {
        "value": 129,
        "unit": "mg/dL",
        "system": "http://unitsofmeasure.org",
        "code": "mg/dL"
      }
    },
    "request": {
      "method": "PUT",
      "url": "Observation/e77e8a81-f447-4481-a2a8-3a721db38a6a"
    }
  }, {
    "fullUrl": "https://madie.cms.gov/MeasureReport/302d827a-e064-4c1a-96b0-12583cefaf21",
    "resource": {
      "resourceType": "MeasureReport",
      "id": "302d827a-e064-4c1a-96b0-12583cefaf21",
      "meta": {
        "profile": [ "http://hl7.org/fhir/us/cqfmeasures/StructureDefinition/test-case-cqfm" ]
      },
      "contained": [ {
        "resourceType": "Parameters",
        "id": "861ca9be-d6f7-4cb7-baf4-d2e7024310cf-parameters",
        "parameter": [ {
          "name": "subject",
          "valueString": "94f26954-f280-4596-8bd3-e77ca79c1f41"
        } ]
      } ],
      "extension": [ {
        "url": "http://hl7.org/fhir/StructureDefinition/cqf-inputParameters",
        "valueReference": {
          "reference": "#861ca9be-d6f7-4cb7-baf4-d2e7024310cf-parameters"
        }
      }, {
        "url": "http://hl7.org/fhir/us/cqfmeasures/StructureDefinition/cqfm-testCaseDescription",
        "valueMarkdown": "This patient is 50 yo with a qualifying encounter during the MP and active diabetes starting before the MP. Patient has Estimated Glomerular Filtration Rate performed with overlapping urine albumin and urine creatinine labs. Numerator test."
      } ],
      "modifierExtension": [ {
        "url": "http://hl7.org/fhir/us/cqfmeasures/StructureDefinition/cqfm-isTestCase",
        "valueBoolean": true
      } ],
      "status": "complete",
      "type": "individual",
      "measure": "https://madie.cms.gov/Measure/CMS951FHIRKidneyHealthEval",
      "period": {
        "start": "2026-01-01",
        "end": "2026-12-31"
      },
      "group": [ {
        "id": "Group_1",
        "population": [ {
          "id": "InitialPopulation_1",
          "code": {
            "coding": [ {
              "system": "http://terminology.hl7.org/CodeSystem/measure-population",
              "code": "initial-population",
              "display": "Initial Population"
            } ]
          },
          "count": 1
        }, {
          "id": "Denominator_1",
          "code": {
            "coding": [ {
              "system": "http://terminology.hl7.org/CodeSystem/measure-population",
              "code": "denominator",
              "display": "Denominator"
            } ]
          },
          "count": 1
        }, {
          "id": "DenominatorExclusion_1",
          "code": {
            "coding": [ {
              "system": "http://terminology.hl7.org/CodeSystem/measure-population",
              "code": "denominator-exclusion",
              "display": "Denominator Exclusion"
            } ]
          },
          "count": 0
        }, {
          "id": "Numerator_1",
          "code": {
            "coding": [ {
              "system": "http://terminology.hl7.org/CodeSystem/measure-population",
              "code": "numerator",
              "display": "Numerator"
            } ]
          },
          "count": 1
        } ],
        "measureScore": {
          "value": 1.0
        }
      } ],
      "evaluatedResource": [ {
        "reference": "Patient/94f26954-f280-4596-8bd3-e77ca79c1f41"
      }, {
        "reference": "Condition/bfd5d0ca-c106-4f59-9ec7-d844e374b510"
      }, {
        "reference": "Encounter/eb438a35-ffe2-4719-8d69-949656e337ee"
      }, {
        "reference": "Observation/0f973004-fbb6-4ea7-b66c-0a34339f2184"
      }, {
        "reference": "Observation/e77e8a81-f447-4481-a2a8-3a721db38a6a"
      } ]
    },
    "request": {
      "method": "PUT",
      "url": "MeasureReport/302d827a-e064-4c1a-96b0-12583cefaf21"
    }
  } ]
}