{
  "resourceType": "Bundle",
  "id": "612e6e8002c62a011f2ee9d4",
  "type": "transaction",
  "entry": [ {
    "fullUrl": "https://madie.cms.gov/Patient/fc59a209-22d4-4881-aa12-9a19fd91c083",
    "resource": {
      "resourceType": "Patient",
      "id": "fc59a209-22d4-4881-aa12-9a19fd91c083",
      "meta": {
        "profile": [ "http://hl7.org/fhir/us/qicore/StructureDefinition/qicore-patient" ]
      },
      "text": {
        "status": "generated",
        "div": "<div xmlns=\"http://www.w3.org/1999/xhtml\"><div class=\"hapiHeaderText\">CMOPerfOnAnesEndRvlntDT <b>DENEXPASS </b></div><table class=\"hapiPropertyTable\"><tbody><tr><td>Identifier</td><td>9d8ab3fcb5edc14843f80cd97de46a5e</td></tr><tr><td>Date of birth</td><td><span>16 July 1974</span></td></tr></tbody></table></div>"
      },
      "extension": [ {
        "url": "http://hl7.org/fhir/us/core/StructureDefinition/us-core-race",
        "extension": [ {
          "url": "ombCategory",
          "valueCoding": {
            "system": "urn:oid:2.16.840.1.113883.6.238",
            "code": "1002-5",
            "display": "American Indian or Alaska Native",
            "userSelected": true
          }
        }, {
          "url": "text",
          "valueString": "American Indian or Alaska Native"
        } ]
      }, {
        "url": "http://hl7.org/fhir/us/core/StructureDefinition/us-core-ethnicity",
        "extension": [ {
          "url": "ombCategory",
          "valueCoding": {
            "system": "urn:oid:2.16.840.1.113883.6.238",
            "code": "2135-2",
            "display": "Hispanic or Latino",
            "userSelected": true
          }
        }, {
          "url": "text",
          "valueString": "Hispanic or Latino"
        } ]
      } ],
      "identifier": [ {
        "type": {
          "coding": [ {
            "system": "http://terminology.hl7.org/CodeSystem/v2-0203",
            "code": "MR"
          } ]
        },
        "system": "https://bonnie-fhir.healthit.gov/",
        "value": "612e6e8002c62a011f2ee9d4"
      } ],
      "active": true,
      "name": [ {
        "use": "usual",
        "family": "DENEXPass",
        "given": [ "CMOPerfOnAnesEndRvlntDT" ]
      } ],
      "gender": "female",
      "birthDate": "1975-07-16"
    },
    "request": {
      "method": "PUT",
      "url": "Patient/fc59a209-22d4-4881-aa12-9a19fd91c083"
    }
  }, {
    "fullUrl": "https://madie.cms.gov/Encounter/33309537-202f-432b-bc18-4af99c9bf5a5",
    "resource": {
      "resourceType": "Encounter",
      "id": "33309537-202f-432b-bc18-4af99c9bf5a5",
      "meta": {
        "profile": [ "http://hl7.org/fhir/us/qicore/StructureDefinition/qicore-encounter" ]
      },
      "status": "finished",
      "class": {
        "system": "http://terminology.hl7.org/CodeSystem/v3-ActCode",
        "code": "IMP",
        "display": "inpatient encounter"
      },
      "type": [ {
        "coding": [ {
          "system": "http://snomed.info/sct",
          "code": "8715000"
        } ]
      } ],
      "subject": {
        "reference": "Patient/fc59a209-22d4-4881-aa12-9a19fd91c083"
      },
      "period": {
        "start": "2026-12-04T08:00:00.000+00:00",
        "end": "2026-12-30T08:15:00.000+00:00"
      },
      "length": {
        "value": 26.0,
        "unit": "days"
      },
      "location": [ {
        "location": {
          "reference": "Location/1bfa7aa0-4bcf-49ac-8422-0b95eefe2d51"
        },
        "period": {
          "start": "2026-12-06T08:00:00.000+00:00",
          "end": "2026-12-08T08:15:00.000+00:00"
        }
      } ]
    },
    "request": {
      "method": "PUT",
      "url": "Encounter/33309537-202f-432b-bc18-4af99c9bf5a5"
    }
  }, {
    "fullUrl": "https://madie.cms.gov/Procedure/16db2f11-de9b-4f60-9ebd-d2eab99e102a",
    "resource": {
      "resourceType": "Procedure",
      "id": "16db2f11-de9b-4f60-9ebd-d2eab99e102a",
      "meta": {
        "profile": [ "http://hl7.org/fhir/us/qicore/StructureDefinition/qicore-procedure" ]
      },
      "extension": [ {
        "url": "http://hl7.org/fhir/us/qicore/StructureDefinition/qicore-recorded",
        "valueDateTime": "2013-11-02T13:35:00.000+00:00"
      } ],
      "status": "completed",
      "code": {
        "coding": [ {
          "system": "http://snomed.info/sct",
          "code": "133918004"
        } ]
      },
      "subject": {
        "reference": "Patient/fc59a209-22d4-4881-aa12-9a19fd91c083"
      },
      "performedDateTime": "2026-12-07T11:15:00.000+00:00"
    },
    "request": {
      "method": "PUT",
      "url": "Procedure/16db2f11-de9b-4f60-9ebd-d2eab99e102a"
    }
  }, {
    "fullUrl": "https://madie.cms.gov/Coverage/ba6586b9-aaa8-493e-8439-d4854006f420",
    "resource": {
      "resourceType": "Coverage",
      "id": "ba6586b9-aaa8-493e-8439-d4854006f420",
      "status": "active",
      "beneficiary": {
        "reference": "Patient/fc59a209-22d4-4881-aa12-9a19fd91c083"
      },
      "period": {
        "start": "1975-03-03T08:00:00.000+00:00"
      },
      "payor": [ {
        "reference": "Organization/891dc964-4cb3-4d8e-aae5-71767d37a141"
      } ]
    },
    "request": {
      "method": "PUT",
      "url": "Coverage/ba6586b9-aaa8-493e-8439-d4854006f420"
    }
  }, {
    "fullUrl": "https://madie.cms.gov/Procedure/a0926728-1e16-4316-b09a-19a9a2b5f7ed",
    "resource": {
      "resourceType": "Procedure",
      "id": "a0926728-1e16-4316-b09a-19a9a2b5f7ed",
      "status": "completed",
      "code": {
        "coding": [ {
          "system": "http://snomed.info/sct",
          "code": "18946005"
        } ]
      },
      "subject": {
        "reference": "Patient/fc59a209-22d4-4881-aa12-9a19fd91c083"
      },
      "performedPeriod": {
        "start": "2026-12-06T11:00:00.000+00:00",
        "end": "2026-12-07T11:15:00.000+00:00"
      }
    },
    "request": {
      "method": "PUT",
      "url": "Procedure/a0926728-1e16-4316-b09a-19a9a2b5f7ed"
    }
  }, {
    "fullUrl": "https://madie.cms.gov/Location/1bfa7aa0-4bcf-49ac-8422-0b95eefe2d51",
    "resource": {
      "resourceType": "Location",
      "id": "1bfa7aa0-4bcf-49ac-8422-0b95eefe2d51",
      "meta": {
        "profile": [ "http://hl7.org/fhir/us/qicore/StructureDefinition/qicore-location" ]
      },
      "identifier": [ {
        "use": "usual",
        "system": "http://exampleoflocation.com",
        "value": "B1-S.F2"
      } ],
      "name": "Medical Surgical East, first floor",
      "type": [ {
        "coding": [ {
          "system": "https://www.cdc.gov/nhsn/cdaportal/terminology/codesystem/hsloc.html",
          "code": "1025-6",
          "display": "Trauma Critical Care",
          "userSelected": true
        } ]
      } ]
    },
    "request": {
      "method": "PUT",
      "url": "Location/1bfa7aa0-4bcf-49ac-8422-0b95eefe2d51"
    }
  }, {
    "fullUrl": "https://madie.cms.gov/Organization/891dc964-4cb3-4d8e-aae5-71767d37a141",
    "resource": {
      "resourceType": "Organization",
      "id": "891dc964-4cb3-4d8e-aae5-71767d37a141",
      "meta": {
        "profile": [ "http://hl7.org/fhir/us/qicore/StructureDefinition/qicore-organization" ]
      },
      "identifier": [ {
        "use": "temp",
        "system": "urn:oid:2.16.840.1.113883.4.4",
        "value": "21-3259825"
      } ],
      "active": true,
      "type": [ {
        "coding": [ {
          "system": "http://terminology.hl7.org/CodeSystem/organization-type",
          "code": "pay",
          "display": "Payer"
        } ]
      } ],
      "name": "Blue Cross Blue Shield of Texas",
      "telecom": [ {
        "system": "phone",
        "value": "(+1) 972-766-6900"
      } ],
      "address": [ {
        "use": "billing",
        "type": "postal",
        "line": [ "P.O. Box 660044" ],
        "city": "Dallas",
        "state": "TX",
        "postalCode": "75266-0044",
        "country": "USA"
      } ]
    },
    "request": {
      "method": "PUT",
      "url": "Organization/891dc964-4cb3-4d8e-aae5-71767d37a141"
    }
  }, {
    "fullUrl": "https://madie.cms.gov/Practitioner/9f2334f8-d09d-4dc7-9e64-31365640b194",
    "resource": {
      "resourceType": "Practitioner",
      "id": "9f2334f8-d09d-4dc7-9e64-31365640b194",
      "identifier": [ {
        "system": "http://hl7.org/fhir/sid/us-npi",
        "value": "123456"
      } ],
      "name": [ {
        "family": "Evil",
        "prefix": [ "Dr" ]
      } ]
    },
    "request": {
      "method": "PUT",
      "url": "Practitioner/9f2334f8-d09d-4dc7-9e64-31365640b194"
    }
  }, {
    "fullUrl": "https://madie.cms.gov/MeasureReport/becc15ca-c3a9-48d4-a3dd-c100c44fc791",
    "resource": {
      "resourceType": "MeasureReport",
      "id": "becc15ca-c3a9-48d4-a3dd-c100c44fc791",
      "meta": {
        "profile": [ "http://hl7.org/fhir/us/cqfmeasures/StructureDefinition/test-case-cqfm" ]
      },
      "contained": [ {
        "resourceType": "Parameters",
        "id": "61c81171-cab3-44b3-976e-f322f20f771c-parameters",
        "parameter": [ {
          "name": "subject",
          "valueString": "fc59a209-22d4-4881-aa12-9a19fd91c083"
        } ]
      } ],
      "extension": [ {
        "url": "http://hl7.org/fhir/StructureDefinition/cqf-inputParameters",
        "valueReference": {
          "reference": "#61c81171-cab3-44b3-976e-f322f20f771c-parameters"
        }
      }, {
        "url": "http://hl7.org/fhir/us/cqfmeasures/StructureDefinition/cqfm-testCaseDescription",
        "valueMarkdown": "comfort measures starts concurrent with end of neuraxial anesthesia\n"
      } ],
      "modifierExtension": [ {
        "url": "http://hl7.org/fhir/us/cqfmeasures/StructureDefinition/cqfm-isTestCase",
        "valueBoolean": true
      } ],
      "status": "complete",
      "type": "individual",
      "measure": "https://madie.cms.gov/Measure/CMS190FHIRVTEProphylaxisICU",
      "period": {
        "start": "2026-01-01",
        "end": "2026-12-31"
      },
      "group": [ {
        "id": "Group_1",
        "population": [ {
          "id": "InitialPopulation_1",
          "code": {
            "coding": [ {
              "system": "http://terminology.hl7.org/CodeSystem/measure-population",
              "code": "initial-population",
              "display": "Initial Population"
            } ]
          },
          "count": 1
        }, {
          "id": "Denominator_1",
          "code": {
            "coding": [ {
              "system": "http://terminology.hl7.org/CodeSystem/measure-population",
              "code": "denominator",
              "display": "Denominator"
            } ]
          },
          "count": 1
        }, {
          "id": "DenominatorExclusion_1",
          "code": {
            "coding": [ {
              "system": "http://terminology.hl7.org/CodeSystem/measure-population",
              "code": "denominator-exclusion",
              "display": "Denominator Exclusion"
            } ]
          },
          "count": 1
        }, {
          "id": "Numerator_1",
          "code": {
            "coding": [ {
              "system": "http://terminology.hl7.org/CodeSystem/measure-population",
              "code": "numerator",
              "display": "Numerator"
            } ]
          },
          "count": 0
        }, {
          "id": "DenominatorException_1",
          "code": {
            "coding": [ {
              "system": "http://terminology.hl7.org/CodeSystem/measure-population",
              "code": "denominator-exception",
              "display": "Denominator Exception"
            } ]
          },
          "count": 0
        } ],
        "measureScore": {
          "value": 0.0
        }
      } ],
      "evaluatedResource": [ {
        "reference": "Patient/fc59a209-22d4-4881-aa12-9a19fd91c083"
      }, {
        "reference": "Encounter/33309537-202f-432b-bc18-4af99c9bf5a5"
      }, {
        "reference": "Procedure/16db2f11-de9b-4f60-9ebd-d2eab99e102a"
      }, {
        "reference": "Coverage/ba6586b9-aaa8-493e-8439-d4854006f420"
      }, {
        "reference": "Procedure/a0926728-1e16-4316-b09a-19a9a2b5f7ed"
      }, {
        "reference": "Location/1bfa7aa0-4bcf-49ac-8422-0b95eefe2d51"
      }, {
        "reference": "Organization/891dc964-4cb3-4d8e-aae5-71767d37a141"
      }, {
        "reference": "Practitioner/9f2334f8-d09d-4dc7-9e64-31365640b194"
      } ]
    },
    "request": {
      "method": "PUT",
      "url": "MeasureReport/becc15ca-c3a9-48d4-a3dd-c100c44fc791"
    }
  } ]
}