{
  "resourceType": "Bundle",
  "id": "6419dda89c0269a68225bb44",
  "type": "transaction",
  "entry": [ {
    "fullUrl": "https://madie.cms.gov/Patient/d767d545-4fa1-499f-98ef-099563ffc20a",
    "resource": {
      "resourceType": "Patient",
      "id": "d767d545-4fa1-499f-98ef-099563ffc20a",
      "meta": {
        "profile": [ "http://hl7.org/fhir/us/qicore/StructureDefinition/qicore-patient" ]
      },
      "extension": [ {
        "url": "http://hl7.org/fhir/us/core/StructureDefinition/us-core-race",
        "extension": [ {
          "url": "ombCategory",
          "valueCoding": {
            "system": "urn:oid:2.16.840.1.113883.6.238",
            "code": "1002-5",
            "display": "American Indian or Alaska Native",
            "userSelected": true
          }
        }, {
          "url": "text",
          "valueString": "American Indian or Alaska Native"
        } ]
      }, {
        "url": "http://hl7.org/fhir/us/core/StructureDefinition/us-core-ethnicity",
        "extension": [ {
          "url": "ombCategory",
          "valueCoding": {
            "system": "urn:oid:2.16.840.1.113883.6.238",
            "code": "2186-5",
            "display": "Not Hispanic or Latino",
            "userSelected": true
          }
        }, {
          "url": "text",
          "valueString": "Not Hispanic or Latino"
        } ]
      }, {
        "url": "http://hl7.org/fhir/us/core/StructureDefinition/us-core-sex",
        "valueCode": "248152002"
      } ],
      "identifier": [ {
        "type": {
          "coding": [ {
            "system": "http://terminology.hl7.org/CodeSystem/v2-0203",
            "code": "MR"
          } ]
        },
        "system": "https://bonnie-fhir.healthit.gov/",
        "value": "6419dda89c0269a68225bb44"
      } ],
      "name": [ {
        "family": "4NumFail",
        "given": [ "PCI91MinEDStartRelevantPeriod" ]
      } ],
      "gender": "female",
      "birthDate": "1985-12-02"
    },
    "request": {
      "method": "PUT",
      "url": "Patient/d767d545-4fa1-499f-98ef-099563ffc20a"
    }
  }, {
    "fullUrl": "https://madie.cms.gov/Encounter/9087e3d3-b70f-40d6-a4e9-da34a1cb91e4",
    "resource": {
      "resourceType": "Encounter",
      "id": "9087e3d3-b70f-40d6-a4e9-da34a1cb91e4",
      "meta": {
        "profile": [ "http://hl7.org/fhir/us/qicore/StructureDefinition/qicore-encounter" ]
      },
      "status": "finished",
      "class": {
        "system": "http://terminology.hl7.org/CodeSystem/v3-ActCode",
        "code": "EMER",
        "display": "emergency",
        "userSelected": true
      },
      "type": [ {
        "coding": [ {
          "system": "http://snomed.info/sct",
          "version": "2020-09",
          "code": "4525004",
          "display": "Emergency department patient visit (procedure)",
          "userSelected": true
        } ]
      } ],
      "subject": {
        "reference": "Patient/d767d545-4fa1-499f-98ef-099563ffc20a"
      },
      "period": {
        "start": "2026-10-09T08:05:00.000+00:00",
        "end": "2026-10-10T07:15:00.000+00:00"
      },
      "reasonCode": [ {
        "coding": [ {
          "system": "http://hl7.org/fhir/sid/icd-10-cm",
          "version": "2021",
          "code": "I22.9",
          "display": "Subsequent ST elevation (STEMI) myocardial infarction of unspecified site",
          "userSelected": true
        } ]
      } ],
      "reasonReference": [ {
        "reference": "Condition/9874dd4b-5dbd-498e-9640-a9faa4f43456"
      } ]
    },
    "request": {
      "method": "PUT",
      "url": "Encounter/9087e3d3-b70f-40d6-a4e9-da34a1cb91e4"
    }
  }, {
    "fullUrl": "https://madie.cms.gov/Condition/9874dd4b-5dbd-498e-9640-a9faa4f43456",
    "resource": {
      "resourceType": "Condition",
      "id": "9874dd4b-5dbd-498e-9640-a9faa4f43456",
      "meta": {
        "profile": [ "http://hl7.org/fhir/us/qicore/StructureDefinition/qicore-condition-encounter-diagnosis" ]
      },
      "clinicalStatus": {
        "coding": [ {
          "system": "http://terminology.hl7.org/CodeSystem/condition-clinical",
          "code": "active",
          "display": "active",
          "userSelected": true
        } ]
      },
      "verificationStatus": {
        "coding": [ {
          "system": "http://terminology.hl7.org/CodeSystem/condition-ver-status",
          "code": "confirmed",
          "display": "Confirmed",
          "userSelected": true
        } ]
      },
      "category": [ {
        "coding": [ {
          "system": "http://terminology.hl7.org/CodeSystem/condition-category",
          "code": "encounter-diagnosis",
          "display": "Encounter Diagnosis",
          "userSelected": true
        } ]
      } ],
      "code": {
        "coding": [ {
          "system": "http://snomed.info/sct",
          "version": "2020-09",
          "code": "401303003",
          "display": "Acute ST segment elevation myocardial infarction (disorder)",
          "userSelected": true
        } ]
      },
      "subject": {
        "reference": "Patient/d767d545-4fa1-499f-98ef-099563ffc20a"
      },
      "onsetDateTime": "2026-10-09T08:15:00.000+00:00"
    },
    "request": {
      "method": "PUT",
      "url": "Condition/9874dd4b-5dbd-498e-9640-a9faa4f43456"
    }
  }, {
    "fullUrl": "https://madie.cms.gov/Procedure/35e16112-61db-4a42-87d4-60a42d679cde",
    "resource": {
      "resourceType": "Procedure",
      "id": "35e16112-61db-4a42-87d4-60a42d679cde",
      "meta": {
        "profile": [ "http://hl7.org/fhir/us/qicore/StructureDefinition/qicore-procedure" ]
      },
      "extension": [ {
        "url": "http://hl7.org/fhir/us/qicore/StructureDefinition/qicore-recorded",
        "valueDateTime": "2026-10-09T12:15:00.000+00:00"
      } ],
      "status": "completed",
      "category": {
        "coding": [ {
          "system": "http://snomed.info/sct",
          "code": "387713003",
          "display": "Surgical procedure",
          "userSelected": true
        } ]
      },
      "code": {
        "coding": [ {
          "system": "http://www.icd10data.com/icd10pcs",
          "version": "2021",
          "code": "0270346",
          "display": "Dilation of Coronary Artery, One Artery, Bifurcation, with Drug-eluting Intraluminal Device, Percutaneous Approach",
          "userSelected": true
        } ]
      },
      "subject": {
        "reference": "Patient/d767d545-4fa1-499f-98ef-099563ffc20a"
      },
      "performedPeriod": {
        "start": "2026-10-09T09:36:00.000+00:00",
        "end": "2026-10-09T12:15:00.000+00:00"
      }
    },
    "request": {
      "method": "PUT",
      "url": "Procedure/35e16112-61db-4a42-87d4-60a42d679cde"
    }
  }, {
    "fullUrl": "https://madie.cms.gov/Coverage/664251c9-2cf9-4225-867c-8870ac93a5be",
    "resource": {
      "resourceType": "Coverage",
      "id": "664251c9-2cf9-4225-867c-8870ac93a5be",
      "meta": {
        "profile": [ "http://hl7.org/fhir/us/qicore/StructureDefinition/qicore-coverage" ]
      },
      "identifier": [ {
        "type": {
          "coding": [ {
            "system": "http://terminology.hl7.org/CodeSystem/v2-0203",
            "code": "MB"
          } ]
        }
      } ],
      "status": "active",
      "beneficiary": {
        "reference": "Patient/d767d545-4fa1-499f-98ef-099563ffc20a"
      },
      "relationship": {
        "coding": [ {
          "system": "http://terminology.hl7.org/CodeSystem/subscriber-relationship",
          "code": "self"
        } ]
      },
      "payor": [ {
        "reference": "Organization/6407d87d-9c23-4532-bc4b-208b8e1f3fd3"
      } ]
    },
    "request": {
      "method": "PUT",
      "url": "Coverage/664251c9-2cf9-4225-867c-8870ac93a5be"
    }
  }, {
    "fullUrl": "https://madie.cms.gov/Organization/6407d87d-9c23-4532-bc4b-208b8e1f3fd3",
    "resource": {
      "resourceType": "Organization",
      "id": "6407d87d-9c23-4532-bc4b-208b8e1f3fd3",
      "meta": {
        "profile": [ "http://hl7.org/fhir/us/qicore/StructureDefinition/qicore-organization" ]
      },
      "identifier": [ {
        "use": "temp",
        "system": "urn:oid:2.16.840.1.113883.4.4",
        "value": "21-3259825"
      } ],
      "active": true,
      "type": [ {
        "coding": [ {
          "system": "http://terminology.hl7.org/CodeSystem/organization-type",
          "code": "pay",
          "display": "Payer"
        } ]
      } ],
      "name": "Blue Cross Blue Shield of Texas",
      "telecom": [ {
        "system": "phone",
        "value": "(+1) 972-766-6900"
      } ],
      "address": [ {
        "use": "billing",
        "type": "postal",
        "line": [ "P.O. Box 660044" ],
        "city": "Dallas",
        "state": "TX",
        "postalCode": "75266-0044",
        "country": "USA"
      } ]
    },
    "request": {
      "method": "PUT",
      "url": "Organization/6407d87d-9c23-4532-bc4b-208b8e1f3fd3"
    }
  }, {
    "fullUrl": "https://madie.cms.gov/Practitioner/4af5d2cb-c1d2-4c9f-9a12-206b039253d9",
    "resource": {
      "resourceType": "Practitioner",
      "id": "4af5d2cb-c1d2-4c9f-9a12-206b039253d9",
      "meta": {
        "profile": [ "http://hl7.org/fhir/us/qicore/StructureDefinition/qicore-practitioner" ]
      },
      "identifier": [ {
        "system": "http://hl7.org/fhir/sid/us-npi",
        "value": "9999999896"
      } ],
      "name": [ {
        "family": "Evil",
        "prefix": [ "Dr" ]
      } ]
    },
    "request": {
      "method": "PUT",
      "url": "Practitioner/4af5d2cb-c1d2-4c9f-9a12-206b039253d9"
    }
  }, {
    "fullUrl": "https://madie.cms.gov/MeasureReport/0215a9b7-756d-4111-b17a-1a2ee972d698",
    "resource": {
      "resourceType": "MeasureReport",
      "id": "0215a9b7-756d-4111-b17a-1a2ee972d698",
      "meta": {
        "profile": [ "http://hl7.org/fhir/us/cqfmeasures/StructureDefinition/test-case-cqfm" ]
      },
      "contained": [ {
        "resourceType": "Parameters",
        "id": "020d110b-0122-461e-ae3e-d7d872f85707-parameters",
        "parameter": [ {
          "name": "subject",
          "valueString": "d767d545-4fa1-499f-98ef-099563ffc20a"
        } ]
      } ],
      "extension": [ {
        "url": "http://hl7.org/fhir/StructureDefinition/cqf-inputParameters",
        "valueReference": {
          "reference": "#020d110b-0122-461e-ae3e-d7d872f85707-parameters"
        }
      }, {
        "url": "http://hl7.org/fhir/us/cqfmeasures/StructureDefinition/cqfm-testCaseDescription",
        "valueMarkdown": "PCI 91 minutes of ED start"
      } ],
      "modifierExtension": [ {
        "url": "http://hl7.org/fhir/us/cqfmeasures/StructureDefinition/cqfm-isTestCase",
        "valueBoolean": true
      } ],
      "status": "complete",
      "type": "individual",
      "measure": "https://madie.cms.gov/Measure/CMS996FHIRAptTxforSTEMI",
      "period": {
        "start": "2026-01-01",
        "end": "2026-12-31"
      },
      "group": [ {
        "id": "Group_1",
        "population": [ {
          "id": "InitialPopulation_1",
          "code": {
            "coding": [ {
              "system": "http://terminology.hl7.org/CodeSystem/measure-population",
              "code": "initial-population",
              "display": "Initial Population"
            } ]
          },
          "count": 1
        }, {
          "id": "Denominator_1",
          "code": {
            "coding": [ {
              "system": "http://terminology.hl7.org/CodeSystem/measure-population",
              "code": "denominator",
              "display": "Denominator"
            } ]
          },
          "count": 1
        }, {
          "id": "DenominatorExclusion_1",
          "code": {
            "coding": [ {
              "system": "http://terminology.hl7.org/CodeSystem/measure-population",
              "code": "denominator-exclusion",
              "display": "Denominator Exclusion"
            } ]
          },
          "count": 0
        }, {
          "id": "Numerator_1",
          "code": {
            "coding": [ {
              "system": "http://terminology.hl7.org/CodeSystem/measure-population",
              "code": "numerator",
              "display": "Numerator"
            } ]
          },
          "count": 0
        }, {
          "id": "DenominatorException_1",
          "code": {
            "coding": [ {
              "system": "http://terminology.hl7.org/CodeSystem/measure-population",
              "code": "denominator-exception",
              "display": "Denominator Exception"
            } ]
          },
          "count": 0
        } ],
        "measureScore": {
          "value": 0.0
        }
      } ],
      "evaluatedResource": [ {
        "reference": "Patient/d767d545-4fa1-499f-98ef-099563ffc20a"
      }, {
        "reference": "Encounter/9087e3d3-b70f-40d6-a4e9-da34a1cb91e4"
      }, {
        "reference": "Condition/9874dd4b-5dbd-498e-9640-a9faa4f43456"
      }, {
        "reference": "Procedure/35e16112-61db-4a42-87d4-60a42d679cde"
      }, {
        "reference": "Coverage/664251c9-2cf9-4225-867c-8870ac93a5be"
      }, {
        "reference": "Organization/6407d87d-9c23-4532-bc4b-208b8e1f3fd3"
      }, {
        "reference": "Practitioner/4af5d2cb-c1d2-4c9f-9a12-206b039253d9"
      } ]
    },
    "request": {
      "method": "PUT",
      "url": "MeasureReport/0215a9b7-756d-4111-b17a-1a2ee972d698"
    }
  } ]
}