{
  "resourceType": "Bundle",
  "id": "62c880ed0111a60120dc2216",
  "type": "transaction",
  "entry": [ {
    "fullUrl": "https://madie.cms.gov/Patient/233d84af-d725-4682-8253-d6c4e02da0d5",
    "resource": {
      "resourceType": "Patient",
      "id": "233d84af-d725-4682-8253-d6c4e02da0d5",
      "meta": {
        "profile": [ "http://hl7.org/fhir/us/qicore/StructureDefinition/qicore-patient" ]
      },
      "extension": [ {
        "url": "http://hl7.org/fhir/us/core/StructureDefinition/us-core-race",
        "extension": [ {
          "url": "ombCategory",
          "valueCoding": {
            "system": "urn:oid:2.16.840.1.113883.6.238",
            "code": "1002-5",
            "display": "American Indian or Alaska Native"
          }
        }, {
          "url": "text",
          "valueString": "American Indian or Alaska Native"
        } ]
      }, {
        "url": "http://hl7.org/fhir/us/core/StructureDefinition/us-core-ethnicity",
        "extension": [ {
          "url": "ombCategory",
          "valueCoding": {
            "system": "urn:oid:2.16.840.1.113883.6.238",
            "code": "2135-2",
            "display": "Hispanic or Latino"
          }
        }, {
          "url": "text",
          "valueString": "Hispanic or Latino"
        } ]
      } ],
      "identifier": [ {
        "type": {
          "coding": [ {
            "system": "http://terminology.hl7.org/CodeSystem/v2-0203",
            "code": "MR"
          } ]
        },
        "system": "https://bonnie-fhir.healthit.gov/",
        "value": "62c880ed0111a60120dc2216"
      } ],
      "active": true,
      "name": [ {
        "use": "usual",
        "family": "NUMERPassPop1",
        "given": [ "MultChemoEnc1PainAssess1" ]
      } ],
      "gender": "female",
      "birthDate": "1938-06-14"
    },
    "request": {
      "method": "PUT",
      "url": "Patient/233d84af-d725-4682-8253-d6c4e02da0d5"
    }
  }, {
    "fullUrl": "https://madie.cms.gov/Observation/808525ae-7104-4b9b-a067-f56eb65558ed",
    "resource": {
      "resourceType": "Observation",
      "id": "808525ae-7104-4b9b-a067-f56eb65558ed",
      "meta": {
        "profile": [ "http://hl7.org/fhir/us/qicore/StructureDefinition/qicore-observation-screening-assessment" ]
      },
      "status": "final",
      "category": [ {
        "coding": [ {
          "system": "http://terminology.hl7.org/CodeSystem/observation-category",
          "code": "survey",
          "display": "Survey"
        } ],
        "text": "Survey"
      } ],
      "code": {
        "coding": [ {
          "system": "http://loinc.org",
          "code": "38208-5",
          "display": "Pain severity - Reported"
        } ],
        "text": "Pain severity - Reported"
      },
      "subject": {
        "reference": "Patient/233d84af-d725-4682-8253-d6c4e02da0d5"
      },
      "effectiveDateTime": "2026-06-23T11:15:00.000+00:00",
      "valueInteger": 5
    },
    "request": {
      "method": "PUT",
      "url": "Observation/808525ae-7104-4b9b-a067-f56eb65558ed"
    }
  }, {
    "fullUrl": "https://madie.cms.gov/Condition/9e3644a9-edba-4705-b121-4a589f6cb46f",
    "resource": {
      "resourceType": "Condition",
      "id": "9e3644a9-edba-4705-b121-4a589f6cb46f",
      "meta": {
        "profile": [ "http://hl7.org/fhir/us/qicore/StructureDefinition/qicore-condition-problems-health-concerns" ]
      },
      "clinicalStatus": {
        "coding": [ {
          "system": "http://terminology.hl7.org/CodeSystem/condition-clinical",
          "code": "active",
          "display": "active"
        } ]
      },
      "verificationStatus": {
        "coding": [ {
          "system": "http://terminology.hl7.org/CodeSystem/condition-ver-status",
          "code": "confirmed",
          "display": "Confirmed"
        } ]
      },
      "category": [ {
        "coding": [ {
          "system": "http://terminology.hl7.org/CodeSystem/condition-category",
          "code": "problem-list-item",
          "display": "Problem List Item"
        } ]
      } ],
      "code": {
        "coding": [ {
          "system": "http://hl7.org/fhir/sid/icd-10-cm",
          "code": "C18.6"
        } ]
      },
      "subject": {
        "reference": "Patient/233d84af-d725-4682-8253-d6c4e02da0d5"
      },
      "onsetDateTime": "2021-02-21T13:30:00.000+00:00"
    },
    "request": {
      "method": "PUT",
      "url": "Condition/9e3644a9-edba-4705-b121-4a589f6cb46f"
    }
  }, {
    "fullUrl": "https://madie.cms.gov/Encounter/7d7be74d-803e-4908-841d-f8f8de56c198",
    "resource": {
      "resourceType": "Encounter",
      "id": "7d7be74d-803e-4908-841d-f8f8de56c198",
      "meta": {
        "profile": [ "http://hl7.org/fhir/us/qicore/StructureDefinition/qicore-encounter" ]
      },
      "status": "finished",
      "class": {
        "system": "http://terminology.hl7.org/CodeSystem/v3-ActCode",
        "code": "AMB",
        "display": "ambulatory",
        "userSelected": true
      },
      "type": [ {
        "coding": [ {
          "system": "http://www.ama-assn.org/go/cpt",
          "code": "99202"
        } ]
      } ],
      "subject": {
        "reference": "Patient/233d84af-d725-4682-8253-d6c4e02da0d5"
      },
      "period": {
        "start": "2026-06-23T10:00:00.000+00:00",
        "end": "2026-06-23T12:00:00.000+00:00"
      }
    },
    "request": {
      "method": "PUT",
      "url": "Encounter/7d7be74d-803e-4908-841d-f8f8de56c198"
    }
  }, {
    "fullUrl": "https://madie.cms.gov/Coverage/b11a6538-c2e0-4cd9-8a5a-9caef6291d66",
    "resource": {
      "resourceType": "Coverage",
      "id": "b11a6538-c2e0-4cd9-8a5a-9caef6291d66",
      "meta": {
        "profile": [ "http://hl7.org/fhir/us/qicore/StructureDefinition/qicore-coverage" ]
      },
      "status": "active",
      "beneficiary": {
        "reference": "Patient/233d84af-d725-4682-8253-d6c4e02da0d5"
      },
      "period": {
        "start": "1938-05-13T08:00:00.000+00:00"
      },
      "payor": [ {
        "reference": "Organization/be8c1e5d-5dc7-470c-9871-f9c090610e50"
      } ]
    },
    "request": {
      "method": "PUT",
      "url": "Coverage/b11a6538-c2e0-4cd9-8a5a-9caef6291d66"
    }
  }, {
    "fullUrl": "https://madie.cms.gov/Procedure/36b0c5b2-14e4-4317-930a-a29cc1644632",
    "resource": {
      "resourceType": "Procedure",
      "id": "36b0c5b2-14e4-4317-930a-a29cc1644632",
      "meta": {
        "profile": [ "http://hl7.org/fhir/us/qicore/StructureDefinition/qicore-procedure" ]
      },
      "extension": [ {
        "url": "http://hl7.org/fhir/us/qicore/StructureDefinition/qicore-recorded",
        "valueDateTime": "2026-05-24T14:55:00.000+00:00"
      } ],
      "status": "completed",
      "code": {
        "coding": [ {
          "system": "http://www.ama-assn.org/go/cpt",
          "code": "96409"
        } ]
      },
      "subject": {
        "reference": "Patient/233d84af-d725-4682-8253-d6c4e02da0d5"
      },
      "performedPeriod": {
        "start": "2026-05-24T11:30:00.000+00:00",
        "end": "2026-05-24T11:30:00.000+00:00"
      }
    },
    "request": {
      "method": "PUT",
      "url": "Procedure/36b0c5b2-14e4-4317-930a-a29cc1644632"
    }
  }, {
    "fullUrl": "https://madie.cms.gov/Procedure/da879853-4b73-4a50-a6c8-ac9f5259d522",
    "resource": {
      "resourceType": "Procedure",
      "id": "da879853-4b73-4a50-a6c8-ac9f5259d522",
      "meta": {
        "profile": [ "http://hl7.org/fhir/us/qicore/StructureDefinition/qicore-procedure" ]
      },
      "extension": [ {
        "url": "http://hl7.org/fhir/us/qicore/StructureDefinition/qicore-recorded",
        "valueDateTime": "2026-06-23T12:35:00.000+00:00"
      } ],
      "status": "completed",
      "code": {
        "coding": [ {
          "system": "http://www.ama-assn.org/go/cpt",
          "code": "96409"
        } ]
      },
      "subject": {
        "reference": "Patient/233d84af-d725-4682-8253-d6c4e02da0d5"
      },
      "performedPeriod": {
        "start": "2026-06-23T11:30:00.000+00:00",
        "end": "2026-06-23T11:30:00.000+00:00"
      }
    },
    "request": {
      "method": "PUT",
      "url": "Procedure/da879853-4b73-4a50-a6c8-ac9f5259d522"
    }
  }, {
    "fullUrl": "https://madie.cms.gov/Procedure/68bce33b-41dd-48bd-a6c4-5077369be6e0",
    "resource": {
      "resourceType": "Procedure",
      "id": "68bce33b-41dd-48bd-a6c4-5077369be6e0",
      "meta": {
        "profile": [ "http://hl7.org/fhir/us/qicore/StructureDefinition/qicore-procedure" ]
      },
      "extension": [ {
        "url": "http://hl7.org/fhir/us/qicore/StructureDefinition/qicore-recorded",
        "valueDateTime": "2026-06-23T12:35:00.000+00:00"
      } ],
      "status": "completed",
      "code": {
        "coding": [ {
          "system": "http://www.ama-assn.org/go/cpt",
          "code": "96409"
        } ]
      },
      "subject": {
        "reference": "Patient/233d84af-d725-4682-8253-d6c4e02da0d5"
      },
      "performedPeriod": {
        "start": "2026-06-23T12:30:00.000+00:00",
        "end": "2026-06-23T12:30:00.000+00:00"
      }
    },
    "request": {
      "method": "PUT",
      "url": "Procedure/68bce33b-41dd-48bd-a6c4-5077369be6e0"
    }
  }, {
    "fullUrl": "https://madie.cms.gov/Procedure/0d01e5c6-1ebb-4710-a173-6fbcaa54a078",
    "resource": {
      "resourceType": "Procedure",
      "id": "0d01e5c6-1ebb-4710-a173-6fbcaa54a078",
      "meta": {
        "profile": [ "http://hl7.org/fhir/us/qicore/StructureDefinition/qicore-procedure" ]
      },
      "extension": [ {
        "url": "http://hl7.org/fhir/us/qicore/StructureDefinition/qicore-recorded",
        "valueDateTime": "2026-07-23T12:35:00.000+00:00"
      } ],
      "status": "completed",
      "code": {
        "coding": [ {
          "system": "http://www.ama-assn.org/go/cpt",
          "code": "51720"
        } ]
      },
      "subject": {
        "reference": "Patient/233d84af-d725-4682-8253-d6c4e02da0d5"
      },
      "performedPeriod": {
        "start": "2026-07-23T12:45:00.000+00:00",
        "end": "2026-07-23T13:45:00.000+00:00"
      }
    },
    "request": {
      "method": "PUT",
      "url": "Procedure/0d01e5c6-1ebb-4710-a173-6fbcaa54a078"
    }
  }, {
    "fullUrl": "https://madie.cms.gov/Organization/be8c1e5d-5dc7-470c-9871-f9c090610e50",
    "resource": {
      "resourceType": "Organization",
      "id": "be8c1e5d-5dc7-470c-9871-f9c090610e50",
      "meta": {
        "profile": [ "http://hl7.org/fhir/us/qicore/StructureDefinition/qicore-organization" ]
      },
      "identifier": [ {
        "use": "temp",
        "system": "urn:oid:2.16.840.1.113883.4.4",
        "value": "21-3259825"
      } ],
      "active": true,
      "type": [ {
        "coding": [ {
          "system": "http://terminology.hl7.org/CodeSystem/organization-type",
          "code": "pay",
          "display": "Payer"
        } ]
      } ],
      "name": "Blue Cross Blue Shield of Texas",
      "telecom": [ {
        "system": "phone",
        "value": "(+1) 972-766-6900"
      } ],
      "address": [ {
        "use": "billing",
        "type": "postal",
        "line": [ "P.O. Box 660044" ],
        "city": "Dallas",
        "state": "TX",
        "postalCode": "75266-0044",
        "country": "USA"
      } ]
    },
    "request": {
      "method": "PUT",
      "url": "Organization/be8c1e5d-5dc7-470c-9871-f9c090610e50"
    }
  }, {
    "fullUrl": "https://madie.cms.gov/Practitioner/80cc6cf2-c0de-4b5e-9527-fdc1e0549bdb",
    "resource": {
      "resourceType": "Practitioner",
      "id": "80cc6cf2-c0de-4b5e-9527-fdc1e0549bdb",
      "meta": {
        "profile": [ "http://hl7.org/fhir/us/qicore/StructureDefinition/qicore-practitioner" ]
      },
      "identifier": [ {
        "system": "http://hl7.org/fhir/sid/us-npi",
        "value": "1234567890"
      } ],
      "name": [ {
        "family": "Evil",
        "prefix": [ "Dr" ]
      } ]
    },
    "request": {
      "method": "PUT",
      "url": "Practitioner/80cc6cf2-c0de-4b5e-9527-fdc1e0549bdb"
    }
  }, {
    "fullUrl": "https://madie.cms.gov/MeasureReport/8ebccd0b-cee9-43d9-b663-9d228417615d",
    "resource": {
      "resourceType": "MeasureReport",
      "id": "8ebccd0b-cee9-43d9-b663-9d228417615d",
      "meta": {
        "profile": [ "http://hl7.org/fhir/us/cqfmeasures/StructureDefinition/test-case-cqfm" ]
      },
      "contained": [ {
        "resourceType": "Parameters",
        "id": "bdf800fe-7293-47c3-bfcc-2d9543e9c061-parameters",
        "parameter": [ {
          "name": "subject",
          "valueString": "233d84af-d725-4682-8253-d6c4e02da0d5"
        } ]
      } ],
      "extension": [ {
        "url": "http://hl7.org/fhir/StructureDefinition/cqf-inputParameters",
        "valueReference": {
          "reference": "#bdf800fe-7293-47c3-bfcc-2d9543e9c061-parameters"
        }
      }, {
        "url": "http://hl7.org/fhir/us/cqfmeasures/StructureDefinition/cqfm-testCaseDescription",
        "valueMarkdown": "Patient with cancer diagnosis overlaps the office visit during measurement period. Multiple chemotherapy administrations within 30 days prior and after office visit, and pain intensity assessment was performed during an office visit.  \n"
      } ],
      "modifierExtension": [ {
        "url": "http://hl7.org/fhir/us/cqfmeasures/StructureDefinition/cqfm-isTestCase",
        "valueBoolean": true
      } ],
      "status": "complete",
      "type": "individual",
      "measure": "https://madie.cms.gov/Measure/CMS157FHIRPainIntensityQuantified",
      "period": {
        "start": "2026-01-01",
        "end": "2026-12-31"
      },
      "group": [ {
        "id": "Group_1",
        "population": [ {
          "id": "InitialPopulation_1",
          "code": {
            "coding": [ {
              "system": "http://terminology.hl7.org/CodeSystem/measure-population",
              "code": "initial-population",
              "display": "Initial Population"
            } ]
          },
          "count": 1
        }, {
          "id": "Denominator_1",
          "code": {
            "coding": [ {
              "system": "http://terminology.hl7.org/CodeSystem/measure-population",
              "code": "denominator",
              "display": "Denominator"
            } ]
          },
          "count": 1
        }, {
          "id": "Numerator_1",
          "code": {
            "coding": [ {
              "system": "http://terminology.hl7.org/CodeSystem/measure-population",
              "code": "numerator",
              "display": "Numerator"
            } ]
          },
          "count": 1
        } ],
        "measureScore": {
          "value": 0.0
        }
      }, {
        "id": "Group_2",
        "population": [ {
          "id": "InitialPopulation_2",
          "code": {
            "coding": [ {
              "system": "http://terminology.hl7.org/CodeSystem/measure-population",
              "code": "initial-population",
              "display": "Initial Population"
            } ]
          },
          "count": 0
        }, {
          "id": "Denominator_2",
          "code": {
            "coding": [ {
              "system": "http://terminology.hl7.org/CodeSystem/measure-population",
              "code": "denominator",
              "display": "Denominator"
            } ]
          },
          "count": 0
        }, {
          "id": "Numerator_2",
          "code": {
            "coding": [ {
              "system": "http://terminology.hl7.org/CodeSystem/measure-population",
              "code": "numerator",
              "display": "Numerator"
            } ]
          },
          "count": 0
        } ],
        "measureScore": {
          "value": 0.0
        }
      } ],
      "evaluatedResource": [ {
        "reference": "Patient/233d84af-d725-4682-8253-d6c4e02da0d5"
      }, {
        "reference": "Observation/808525ae-7104-4b9b-a067-f56eb65558ed"
      }, {
        "reference": "Condition/9e3644a9-edba-4705-b121-4a589f6cb46f"
      }, {
        "reference": "Encounter/7d7be74d-803e-4908-841d-f8f8de56c198"
      }, {
        "reference": "Coverage/b11a6538-c2e0-4cd9-8a5a-9caef6291d66"
      }, {
        "reference": "Procedure/36b0c5b2-14e4-4317-930a-a29cc1644632"
      }, {
        "reference": "Procedure/da879853-4b73-4a50-a6c8-ac9f5259d522"
      }, {
        "reference": "Procedure/68bce33b-41dd-48bd-a6c4-5077369be6e0"
      }, {
        "reference": "Procedure/0d01e5c6-1ebb-4710-a173-6fbcaa54a078"
      }, {
        "reference": "Organization/be8c1e5d-5dc7-470c-9871-f9c090610e50"
      }, {
        "reference": "Practitioner/80cc6cf2-c0de-4b5e-9527-fdc1e0549bdb"
      } ]
    },
    "request": {
      "method": "PUT",
      "url": "MeasureReport/8ebccd0b-cee9-43d9-b663-9d228417615d"
    }
  } ]
}