{
  "resourceType": "Bundle",
  "id": "63487c2e0968f80122540167",
  "type": "transaction",
  "entry": [ {
    "fullUrl": "https://madie.cms.gov/Patient/f448b52e-d9bf-4989-88c9-20b8a8d9907e",
    "resource": {
      "resourceType": "Patient",
      "id": "f448b52e-d9bf-4989-88c9-20b8a8d9907e",
      "meta": {
        "profile": [ "http://hl7.org/fhir/us/qicore/StructureDefinition/qicore-patient" ]
      },
      "text": {
        "status": "generated",
        "div": "<div xmlns=\"http://www.w3.org/1999/xhtml\"><div class=\"hapiHeaderText\">AssessP0RelDtTimeEQTimeOfDeliv <b>DENOMFail</b></div><table class=\"hapiPropertyTable\"><tbody><tr><td>Identifier</td><td>3ea719415f2f0fb521730d958474147ea3705811d2881f35f880c69e959fdbb1</td></tr><tr><td>Date of birth</td><td><span>14 February 1985</span></td></tr></tbody></table></div>"
      },
      "extension": [ {
        "url": "http://hl7.org/fhir/us/core/StructureDefinition/us-core-race",
        "extension": [ {
          "url": "ombCategory",
          "valueCoding": {
            "system": "urn:oid:2.16.840.1.113883.6.238",
            "code": "1002-5",
            "display": "American Indian or Alaska Native",
            "userSelected": true
          }
        }, {
          "url": "text",
          "valueString": "American Indian or Alaska Native"
        } ]
      }, {
        "url": "http://hl7.org/fhir/us/core/StructureDefinition/us-core-ethnicity",
        "extension": [ {
          "url": "ombCategory",
          "valueCoding": {
            "system": "urn:oid:2.16.840.1.113883.6.238",
            "code": "2135-2",
            "display": "Hispanic or Latino",
            "userSelected": true
          }
        }, {
          "url": "text",
          "valueString": "Hispanic or Latino"
        } ]
      } ],
      "identifier": [ {
        "type": {
          "coding": [ {
            "system": "http://terminology.hl7.org/CodeSystem/v2-0203",
            "code": "MR"
          } ]
        },
        "system": "https://bonnie-fhir.healthit.gov/",
        "value": "63487c2e0968f80122540167"
      } ],
      "active": true,
      "name": [ {
        "use": "usual",
        "family": "DENOMFail",
        "given": [ "AssessP0RelDtTimeEQTimeOfDeliv" ]
      } ],
      "gender": "female",
      "birthDate": "1998-02-14"
    },
    "request": {
      "method": "PUT",
      "url": "Patient/f448b52e-d9bf-4989-88c9-20b8a8d9907e"
    }
  }, {
    "fullUrl": "https://madie.cms.gov/Observation/1e71e459-c0e0-4ddb-9887-69827e15d612",
    "resource": {
      "resourceType": "Observation",
      "id": "1e71e459-c0e0-4ddb-9887-69827e15d612",
      "meta": {
        "profile": [ "http://hl7.org/fhir/us/qicore/StructureDefinition/qicore-simple-observation" ]
      },
      "status": "final",
      "category": [ {
        "coding": [ {
          "system": "http://terminology.hl7.org/CodeSystem/observation-category",
          "code": "exam",
          "display": "exam",
          "userSelected": true
        } ]
      } ],
      "code": {
        "coding": [ {
          "system": "http://loinc.org",
          "code": "11977-6"
        } ]
      },
      "subject": {
        "reference": "Patient/f448b52e-d9bf-4989-88c9-20b8a8d9907e"
      },
      "effectiveDateTime": "2026-06-08T20:00:00.000+00:00",
      "valueInteger": 0
    },
    "request": {
      "method": "PUT",
      "url": "Observation/1e71e459-c0e0-4ddb-9887-69827e15d612"
    }
  }, {
    "fullUrl": "https://madie.cms.gov/Observation/006099d8-d229-464d-8f52-f88026601add",
    "resource": {
      "resourceType": "Observation",
      "id": "006099d8-d229-464d-8f52-f88026601add",
      "meta": {
        "profile": [ "http://hl7.org/fhir/us/qicore/StructureDefinition/qicore-simple-observation" ]
      },
      "status": "final",
      "category": [ {
        "coding": [ {
          "system": "http://terminology.hl7.org/CodeSystem/observation-category",
          "code": "exam",
          "display": "exam",
          "userSelected": true
        } ]
      } ],
      "code": {
        "coding": [ {
          "system": "http://loinc.org",
          "code": "11884-4"
        } ]
      },
      "subject": {
        "reference": "Patient/f448b52e-d9bf-4989-88c9-20b8a8d9907e"
      },
      "effectiveDateTime": "2026-06-08T20:00:00.000+00:00",
      "valueQuantity": {
        "value": 37,
        "system": "http://unitsofmeasure.org",
        "code": "wk"
      }
    },
    "request": {
      "method": "PUT",
      "url": "Observation/006099d8-d229-464d-8f52-f88026601add"
    }
  }, {
    "fullUrl": "https://madie.cms.gov/Observation/a3c7ddd4-2c5a-4a71-969c-53f723a4bcfc",
    "resource": {
      "resourceType": "Observation",
      "id": "a3c7ddd4-2c5a-4a71-969c-53f723a4bcfc",
      "meta": {
        "profile": [ "http://hl7.org/fhir/us/qicore/StructureDefinition/qicore-simple-observation" ]
      },
      "status": "final",
      "category": [ {
        "coding": [ {
          "system": "http://terminology.hl7.org/CodeSystem/observation-category",
          "code": "exam",
          "display": "exam",
          "userSelected": true
        } ]
      } ],
      "code": {
        "coding": [ {
          "system": "http://loinc.org",
          "code": "93857-1"
        } ]
      },
      "subject": {
        "reference": "Patient/f448b52e-d9bf-4989-88c9-20b8a8d9907e"
      },
      "effectiveDateTime": "2026-06-08T20:00:00.000+00:00",
      "valueDateTime": "2026-06-08T20:00:00.000+00:00"
    },
    "request": {
      "method": "PUT",
      "url": "Observation/a3c7ddd4-2c5a-4a71-969c-53f723a4bcfc"
    }
  }, {
    "fullUrl": "https://madie.cms.gov/Encounter/9f9526dd-f91b-46fb-96e6-4e693a1366c8",
    "resource": {
      "resourceType": "Encounter",
      "id": "9f9526dd-f91b-46fb-96e6-4e693a1366c8",
      "meta": {
        "profile": [ "http://hl7.org/fhir/us/qicore/StructureDefinition/qicore-encounter" ]
      },
      "status": "finished",
      "class": {
        "system": "http://terminology.hl7.org/CodeSystem/v3-ActCode",
        "code": "IMP",
        "display": "inpatient encounter"
      },
      "type": [ {
        "coding": [ {
          "system": "http://snomed.info/sct",
          "code": "8715000"
        } ]
      } ],
      "subject": {
        "reference": "Patient/f448b52e-d9bf-4989-88c9-20b8a8d9907e"
      },
      "period": {
        "start": "2026-06-08T08:00:00.000+00:00",
        "end": "2026-06-10T08:15:00.000+00:00"
      },
      "length": {
        "value": 2,
        "unit": "days"
      },
      "reasonReference": [ {
        "reference": "Condition/35a69654-5c32-4e55-a27d-62666a9df98b"
      } ]
    },
    "request": {
      "method": "PUT",
      "url": "Encounter/9f9526dd-f91b-46fb-96e6-4e693a1366c8"
    }
  }, {
    "fullUrl": "https://madie.cms.gov/Procedure/3d4634da-55e1-4a57-8ee3-520b75d0e53b",
    "resource": {
      "resourceType": "Procedure",
      "id": "3d4634da-55e1-4a57-8ee3-520b75d0e53b",
      "meta": {
        "profile": [ "http://hl7.org/fhir/us/qicore/StructureDefinition/qicore-procedure" ]
      },
      "extension": [ {
        "url": "http://hl7.org/fhir/us/qicore/StructureDefinition/qicore-recorded",
        "valueDateTime": "2014-04-05T13:35:00.000+00:00"
      } ],
      "status": "completed",
      "code": {
        "coding": [ {
          "system": "http://www.cms.gov/Medicare/Coding/ICD10",
          "code": "10D00Z0"
        }, {
          "system": "http://snomed.info/sct",
          "code": "4504004"
        } ]
      },
      "subject": {
        "reference": "Patient/f448b52e-d9bf-4989-88c9-20b8a8d9907e"
      },
      "performedPeriod": {
        "start": "2026-06-08T20:00:00.000+00:00",
        "end": "2026-06-08T20:15:00.000+00:00"
      }
    },
    "request": {
      "method": "PUT",
      "url": "Procedure/3d4634da-55e1-4a57-8ee3-520b75d0e53b"
    }
  }, {
    "fullUrl": "https://madie.cms.gov/Condition/35a69654-5c32-4e55-a27d-62666a9df98b",
    "resource": {
      "resourceType": "Condition",
      "id": "35a69654-5c32-4e55-a27d-62666a9df98b",
      "meta": {
        "profile": [ "http://hl7.org/fhir/us/qicore/StructureDefinition/qicore-condition-encounter-diagnosis" ]
      },
      "category": [ {
        "coding": [ {
          "system": "http://terminology.hl7.org/CodeSystem/condition-category",
          "code": "encounter-diagnosis",
          "display": "Encounter Diagnosis"
        } ]
      } ],
      "code": {
        "coding": [ {
          "system": "http://snomed.info/sct",
          "version": "2022-09",
          "code": "169826009",
          "display": "Single live birth from singleton pregnancy (finding)",
          "userSelected": true
        } ]
      },
      "subject": {
        "reference": "Patient/f448b52e-d9bf-4989-88c9-20b8a8d9907e"
      },
      "encounter": {
        "reference": "Encounter/9f9526dd-f91b-46fb-96e6-4e693a1366c8"
      },
      "recordedDate": "2026-10-21T08:00:00.000+00:00"
    },
    "request": {
      "method": "PUT",
      "url": "Condition/35a69654-5c32-4e55-a27d-62666a9df98b"
    }
  }, {
    "fullUrl": "https://madie.cms.gov/Coverage/07121056-a160-4aae-abd3-05aaa1aad2fd",
    "resource": {
      "resourceType": "Coverage",
      "id": "07121056-a160-4aae-abd3-05aaa1aad2fd",
      "meta": {
        "profile": [ "http://hl7.org/fhir/us/qicore/StructureDefinition/qicore-coverage" ]
      },
      "status": "active",
      "subscriberId": "523435",
      "beneficiary": {
        "reference": "Patient/f448b52e-d9bf-4989-88c9-20b8a8d9907e"
      },
      "relationship": {
        "coding": [ {
          "system": "http://terminology.hl7.org/CodeSystem/subscriber-relationship",
          "code": "self"
        } ]
      },
      "payor": [ {
        "reference": "Organization/e1ede95c-a91d-42ac-a651-0bf5a5e23232"
      } ]
    },
    "request": {
      "method": "PUT",
      "url": "Coverage/07121056-a160-4aae-abd3-05aaa1aad2fd"
    }
  }, {
    "fullUrl": "https://madie.cms.gov/Organization/e1ede95c-a91d-42ac-a651-0bf5a5e23232",
    "resource": {
      "resourceType": "Organization",
      "id": "e1ede95c-a91d-42ac-a651-0bf5a5e23232",
      "meta": {
        "profile": [ "http://hl7.org/fhir/us/qicore/StructureDefinition/qicore-organization" ]
      },
      "identifier": [ {
        "use": "temp",
        "system": "urn:oid:2.16.840.1.113883.4.4",
        "value": "21-3259825"
      } ],
      "active": true,
      "type": [ {
        "coding": [ {
          "system": "http://terminology.hl7.org/CodeSystem/organization-type",
          "code": "pay",
          "display": "Payer"
        } ]
      } ],
      "name": "Blue Cross Blue Shield of Texas",
      "telecom": [ {
        "system": "phone",
        "value": "(+1) 972-766-6900"
      } ],
      "address": [ {
        "use": "billing",
        "type": "postal",
        "line": [ "P.O. Box 660044" ],
        "city": "Dallas",
        "state": "TX",
        "postalCode": "75266-0044",
        "country": "USA"
      } ]
    },
    "request": {
      "method": "PUT",
      "url": "Organization/e1ede95c-a91d-42ac-a651-0bf5a5e23232"
    }
  }, {
    "fullUrl": "https://madie.cms.gov/Practitioner/b25c17d9-cb5c-416b-acb9-dae3ef40f636",
    "resource": {
      "resourceType": "Practitioner",
      "id": "b25c17d9-cb5c-416b-acb9-dae3ef40f636",
      "meta": {
        "profile": [ "http://hl7.org/fhir/us/qicore/StructureDefinition/qicore-practitioner" ]
      },
      "identifier": [ {
        "system": "http://hl7.org/fhir/sid/us-npi",
        "value": "1234567890"
      } ],
      "name": [ {
        "family": "Evil",
        "prefix": [ "Dr" ]
      } ]
    },
    "request": {
      "method": "PUT",
      "url": "Practitioner/b25c17d9-cb5c-416b-acb9-dae3ef40f636"
    }
  }, {
    "fullUrl": "https://madie.cms.gov/MeasureReport/492a0ef3-337f-44fb-b3d0-c2be6c4f9da5",
    "resource": {
      "resourceType": "MeasureReport",
      "id": "492a0ef3-337f-44fb-b3d0-c2be6c4f9da5",
      "meta": {
        "profile": [ "http://hl7.org/fhir/us/cqfmeasures/StructureDefinition/test-case-cqfm" ]
      },
      "contained": [ {
        "resourceType": "Parameters",
        "id": "f884ec2c-d86a-4af2-86dd-6458aa3e9a5e-parameters",
        "parameter": [ {
          "name": "subject",
          "valueString": "f448b52e-d9bf-4989-88c9-20b8a8d9907e"
        } ]
      } ],
      "extension": [ {
        "url": "http://hl7.org/fhir/StructureDefinition/cqf-inputParameters",
        "valueReference": {
          "reference": "#f884ec2c-d86a-4af2-86dd-6458aa3e9a5e-parameters"
        }
      }, {
        "url": "http://hl7.org/fhir/us/cqfmeasures/StructureDefinition/cqfm-testCaseDescription",
        "valueMarkdown": "Parity=0, relative date/time same date and time as delivery date/time.\n"
      } ],
      "modifierExtension": [ {
        "url": "http://hl7.org/fhir/us/cqfmeasures/StructureDefinition/cqfm-isTestCase",
        "valueBoolean": true
      } ],
      "status": "complete",
      "type": "individual",
      "measure": "https://madie.cms.gov/Measure/CMS0334FHIRPCCesareanBirth",
      "period": {
        "start": "2026-01-01",
        "end": "2026-12-31"
      },
      "group": [ {
        "id": "Group_1",
        "population": [ {
          "id": "InitialPopulation_1",
          "code": {
            "coding": [ {
              "system": "http://terminology.hl7.org/CodeSystem/measure-population",
              "code": "initial-population",
              "display": "Initial Population"
            } ]
          },
          "count": 1
        }, {
          "id": "Denominator_1",
          "code": {
            "coding": [ {
              "system": "http://terminology.hl7.org/CodeSystem/measure-population",
              "code": "denominator",
              "display": "Denominator"
            } ]
          },
          "count": 0
        }, {
          "id": "DenominatorExclusion_1",
          "code": {
            "coding": [ {
              "system": "http://terminology.hl7.org/CodeSystem/measure-population",
              "code": "denominator-exclusion",
              "display": "Denominator Exclusion"
            } ]
          },
          "count": 0
        }, {
          "id": "Numerator_1",
          "code": {
            "coding": [ {
              "system": "http://terminology.hl7.org/CodeSystem/measure-population",
              "code": "numerator",
              "display": "Numerator"
            } ]
          },
          "count": 0
        } ],
        "measureScore": {
          "value": 0.0
        }
      } ],
      "evaluatedResource": [ {
        "reference": "Patient/f448b52e-d9bf-4989-88c9-20b8a8d9907e"
      }, {
        "reference": "Observation/1e71e459-c0e0-4ddb-9887-69827e15d612"
      }, {
        "reference": "Observation/006099d8-d229-464d-8f52-f88026601add"
      }, {
        "reference": "Observation/a3c7ddd4-2c5a-4a71-969c-53f723a4bcfc"
      }, {
        "reference": "Encounter/9f9526dd-f91b-46fb-96e6-4e693a1366c8"
      }, {
        "reference": "Procedure/3d4634da-55e1-4a57-8ee3-520b75d0e53b"
      }, {
        "reference": "Condition/35a69654-5c32-4e55-a27d-62666a9df98b"
      }, {
        "reference": "Coverage/07121056-a160-4aae-abd3-05aaa1aad2fd"
      }, {
        "reference": "Organization/e1ede95c-a91d-42ac-a651-0bf5a5e23232"
      }, {
        "reference": "Practitioner/b25c17d9-cb5c-416b-acb9-dae3ef40f636"
      } ]
    },
    "request": {
      "method": "PUT",
      "url": "MeasureReport/492a0ef3-337f-44fb-b3d0-c2be6c4f9da5"
    }
  } ]
}