{
  "resourceType": "Bundle",
  "id": "633b3f9f0968f80122503cdc",
  "type": "transaction",
  "entry": [ {
    "fullUrl": "https://madie.cms.gov/Patient/8abe1112-e249-430d-b1a8-a230f2c2262c",
    "resource": {
      "resourceType": "Patient",
      "id": "8abe1112-e249-430d-b1a8-a230f2c2262c",
      "meta": {
        "profile": [ "http://hl7.org/fhir/us/qicore/StructureDefinition/qicore-patient" ]
      },
      "text": {
        "status": "generated",
        "div": "<div xmlns=\"http://www.w3.org/1999/xhtml\"><div class=\"hapiHeaderText\">EGARelvTm24Hr01MinB4LastTmDELRsltDtTime<b>DENOMFAIL</b></div><table class=\"hapiPropertyTable\"><tbody><tr><td>Date of birth</td><td><span>01 February 2004</span></td></tr></tbody></table></div>"
      },
      "extension": [ {
        "url": "http://hl7.org/fhir/us/core/StructureDefinition/us-core-race",
        "extension": [ {
          "url": "ombCategory",
          "valueCoding": {
            "system": "urn:oid:2.16.840.1.113883.6.238",
            "code": "1002-5",
            "display": "American Indian or Alaska Native",
            "userSelected": true
          }
        }, {
          "url": "text",
          "valueString": "American Indian or Alaska Native"
        } ]
      }, {
        "url": "http://hl7.org/fhir/us/core/StructureDefinition/us-core-ethnicity",
        "extension": [ {
          "url": "ombCategory",
          "valueCoding": {
            "system": "urn:oid:2.16.840.1.113883.6.238",
            "code": "2135-2",
            "display": "Hispanic or Latino",
            "userSelected": true
          }
        }, {
          "url": "text",
          "valueString": "Hispanic or Latino"
        } ]
      } ],
      "identifier": [ {
        "type": {
          "coding": [ {
            "system": "http://terminology.hl7.org/CodeSystem/v2-0203",
            "code": "MR"
          } ]
        },
        "system": "https://bonnie-fhir.healthit.gov/",
        "value": "633b3f9f0968f80122503cdc"
      } ],
      "active": true,
      "name": [ {
        "use": "usual",
        "family": "DENOMFail",
        "given": [ "EGARelvTm24Hr01MinB4LastTmDELRsltDtTime" ]
      } ],
      "gender": "female",
      "birthDate": "2005-02-01"
    },
    "request": {
      "method": "PUT",
      "url": "Patient/8abe1112-e249-430d-b1a8-a230f2c2262c"
    }
  }, {
    "fullUrl": "https://madie.cms.gov/Observation/e0460e82-9940-4015-a351-2e298450ce87",
    "resource": {
      "resourceType": "Observation",
      "id": "e0460e82-9940-4015-a351-2e298450ce87",
      "meta": {
        "profile": [ "http://hl7.org/fhir/us/qicore/StructureDefinition/qicore-simple-observation" ]
      },
      "status": "final",
      "category": [ {
        "coding": [ {
          "system": "http://terminology.hl7.org/CodeSystem/observation-category",
          "code": "exam",
          "display": "exam",
          "userSelected": true
        } ]
      } ],
      "code": {
        "coding": [ {
          "system": "http://loinc.org",
          "code": "93857-1"
        } ]
      },
      "subject": {
        "reference": "Patient/8abe1112-e249-430d-b1a8-a230f2c2262c"
      },
      "effectiveDateTime": "2026-02-01T08:00:00.000+00:00",
      "performer": [ {
        "reference": "Organization/example1",
        "display": "Hendricks Country Hospital"
      } ],
      "valueDateTime": "2026-02-01T08:00:00.000+00:00"
    },
    "request": {
      "method": "PUT",
      "url": "Observation/e0460e82-9940-4015-a351-2e298450ce87"
    }
  }, {
    "fullUrl": "https://madie.cms.gov/Observation/3ddcca99-5a84-48cd-a5b9-b6e211ce932e",
    "resource": {
      "resourceType": "Observation",
      "id": "3ddcca99-5a84-48cd-a5b9-b6e211ce932e",
      "meta": {
        "profile": [ "http://hl7.org/fhir/us/qicore/StructureDefinition/qicore-simple-observation" ]
      },
      "status": "final",
      "category": [ {
        "coding": [ {
          "system": "http://terminology.hl7.org/CodeSystem/observation-category",
          "code": "exam",
          "display": "exam",
          "userSelected": true
        } ]
      } ],
      "code": {
        "coding": [ {
          "system": "http://loinc.org",
          "code": "11884-4"
        } ]
      },
      "subject": {
        "reference": "Patient/8abe1112-e249-430d-b1a8-a230f2c2262c"
      },
      "effectiveDateTime": "2026-01-31T07:59:00.000+00:00",
      "performer": [ {
        "reference": "Organization/example1",
        "display": "Hendricks Country Hospital"
      } ],
      "valueQuantity": {
        "value": 20,
        "unit": "wk"
      }
    },
    "request": {
      "method": "PUT",
      "url": "Observation/3ddcca99-5a84-48cd-a5b9-b6e211ce932e"
    }
  }, {
    "fullUrl": "https://madie.cms.gov/Encounter/9033aac2-32e6-40aa-8c22-34715ff5d05b",
    "resource": {
      "resourceType": "Encounter",
      "id": "9033aac2-32e6-40aa-8c22-34715ff5d05b",
      "meta": {
        "profile": [ "http://hl7.org/fhir/us/qicore/StructureDefinition/qicore-encounter" ]
      },
      "status": "finished",
      "class": {
        "system": "http://terminology.hl7.org/CodeSystem/v3-ActCode",
        "code": "IMP",
        "display": "inpatient encounter"
      },
      "type": [ {
        "coding": [ {
          "system": "http://snomed.info/sct",
          "code": "183452005"
        } ]
      } ],
      "subject": {
        "reference": "Patient/8abe1112-e249-430d-b1a8-a230f2c2262c"
      },
      "period": {
        "start": "2026-02-01T08:00:00.000+00:00",
        "end": "2026-02-05T08:15:00.000+00:00"
      },
      "reasonCode": [ {
        "coding": [ {
          "system": "http://snomed.info/sct",
          "code": "169826009",
          "display": "Single live birth from singleton pregnancy (finding)"
        } ]
      } ]
    },
    "request": {
      "method": "PUT",
      "url": "Encounter/9033aac2-32e6-40aa-8c22-34715ff5d05b"
    }
  }, {
    "fullUrl": "https://madie.cms.gov/Coverage/cb4437db-55a1-4432-80fb-4bffacf2b66c",
    "resource": {
      "resourceType": "Coverage",
      "id": "cb4437db-55a1-4432-80fb-4bffacf2b66c",
      "status": "active",
      "subscriberId": "523435",
      "beneficiary": {
        "reference": "Patient/8abe1112-e249-430d-b1a8-a230f2c2262c"
      },
      "relationship": {
        "coding": [ {
          "system": "http://terminology.hl7.org/CodeSystem/subscriber-relationship",
          "code": "self"
        } ]
      },
      "period": {
        "start": "2005-02-01T08:00:00.000+00:00"
      },
      "payor": [ {
        "reference": "Organization/7bcf0065-a68e-4d99-808d-4bb44d80f1c1"
      } ]
    },
    "request": {
      "method": "PUT",
      "url": "Coverage/cb4437db-55a1-4432-80fb-4bffacf2b66c"
    }
  }, {
    "fullUrl": "https://madie.cms.gov/Procedure/355f1032-e3da-4553-bd98-e02e6aece5f8",
    "resource": {
      "resourceType": "Procedure",
      "id": "355f1032-e3da-4553-bd98-e02e6aece5f8",
      "meta": {
        "profile": [ "http://hl7.org/fhir/us/qicore/StructureDefinition/qicore-procedure" ]
      },
      "extension": [ {
        "url": "http://hl7.org/fhir/us/qicore/StructureDefinition/qicore-recorded",
        "valueDateTime": "2014-04-05T13:35:00.000+00:00"
      } ],
      "status": "completed",
      "code": {
        "coding": [ {
          "system": "http://snomed.info/sct",
          "code": "10745001"
        } ]
      },
      "subject": {
        "reference": "Patient/8abe1112-e249-430d-b1a8-a230f2c2262c"
      },
      "performedPeriod": {
        "start": "2026-02-01T08:00:00.000+00:00",
        "end": "2026-02-05T08:15:00.000+00:00"
      }
    },
    "request": {
      "method": "PUT",
      "url": "Procedure/355f1032-e3da-4553-bd98-e02e6aece5f8"
    }
  }, {
    "fullUrl": "https://madie.cms.gov/Organization/7bcf0065-a68e-4d99-808d-4bb44d80f1c1",
    "resource": {
      "resourceType": "Organization",
      "id": "7bcf0065-a68e-4d99-808d-4bb44d80f1c1",
      "meta": {
        "profile": [ "http://hl7.org/fhir/us/qicore/StructureDefinition/qicore-organization" ]
      },
      "identifier": [ {
        "use": "temp",
        "system": "urn:oid:2.16.840.1.113883.4.4",
        "value": "21-3259825"
      } ],
      "active": true,
      "type": [ {
        "coding": [ {
          "system": "http://terminology.hl7.org/CodeSystem/organization-type",
          "code": "pay",
          "display": "Payer"
        } ]
      } ],
      "name": "Blue Cross Blue Shield of Texas",
      "telecom": [ {
        "system": "phone",
        "value": "(+1) 972-766-6900"
      } ],
      "address": [ {
        "use": "billing",
        "type": "postal",
        "line": [ "P.O. Box 660044" ],
        "city": "Dallas",
        "state": "TX",
        "postalCode": "75266-0044",
        "country": "USA"
      } ]
    },
    "request": {
      "method": "PUT",
      "url": "Organization/7bcf0065-a68e-4d99-808d-4bb44d80f1c1"
    }
  }, {
    "fullUrl": "https://madie.cms.gov/Practitioner/7b57f08b-6f41-42ca-bb0e-0e6ff81f4ac9",
    "resource": {
      "resourceType": "Practitioner",
      "id": "7b57f08b-6f41-42ca-bb0e-0e6ff81f4ac9",
      "meta": {
        "profile": [ "http://hl7.org/fhir/us/qicore/StructureDefinition/qicore-practitioner" ]
      },
      "identifier": [ {
        "system": "http://hl7.org/fhir/sid/us-npi",
        "value": "1234567890"
      } ],
      "name": [ {
        "family": "Evil",
        "prefix": [ "Dr" ]
      } ]
    },
    "request": {
      "method": "PUT",
      "url": "Practitioner/7b57f08b-6f41-42ca-bb0e-0e6ff81f4ac9"
    }
  }, {
    "fullUrl": "https://madie.cms.gov/MeasureReport/19d3a0ac-fcb2-43c4-9e97-09c8413b3542",
    "resource": {
      "resourceType": "MeasureReport",
      "id": "19d3a0ac-fcb2-43c4-9e97-09c8413b3542",
      "meta": {
        "profile": [ "http://hl7.org/fhir/us/cqfmeasures/StructureDefinition/test-case-cqfm" ]
      },
      "contained": [ {
        "resourceType": "Parameters",
        "id": "d7000fed-1585-4649-97ee-9c9f17dfc4b4-parameters",
        "parameter": [ {
          "name": "subject",
          "valueString": "8abe1112-e249-430d-b1a8-a230f2c2262c"
        } ]
      } ],
      "extension": [ {
        "url": "http://hl7.org/fhir/StructureDefinition/cqf-inputParameters",
        "valueReference": {
          "reference": "#d7000fed-1585-4649-97ee-9c9f17dfc4b4-parameters"
        }
      }, {
        "url": "http://hl7.org/fhir/us/cqfmeasures/StructureDefinition/cqfm-testCaseDescription",
        "valueMarkdown": "Estimated Gestational Age Relevant Date Time is 24 hours 1 minute before Time of Delivery (result)\n"
      } ],
      "modifierExtension": [ {
        "url": "http://hl7.org/fhir/us/cqfmeasures/StructureDefinition/cqfm-isTestCase",
        "valueBoolean": true
      } ],
      "status": "complete",
      "type": "individual",
      "measure": "https://madie.cms.gov/Measure/CMS1028FHIRPCSevereOBComps",
      "period": {
        "start": "2026-01-01",
        "end": "2026-12-31"
      },
      "group": [ {
        "id": "Group_1",
        "population": [ {
          "id": "InitialPopulation_1",
          "code": {
            "coding": [ {
              "system": "http://terminology.hl7.org/CodeSystem/measure-population",
              "code": "initial-population",
              "display": "Initial Population"
            } ]
          },
          "count": 1
        }, {
          "id": "Denominator_1",
          "code": {
            "coding": [ {
              "system": "http://terminology.hl7.org/CodeSystem/measure-population",
              "code": "denominator",
              "display": "Denominator"
            } ]
          },
          "count": 0
        }, {
          "id": "Numerator_1",
          "code": {
            "coding": [ {
              "system": "http://terminology.hl7.org/CodeSystem/measure-population",
              "code": "numerator",
              "display": "Numerator"
            } ]
          },
          "count": 0
        }, {
          "id": "NumeratorExclusion_1",
          "code": {
            "coding": [ {
              "system": "http://terminology.hl7.org/CodeSystem/measure-population",
              "code": "numerator-exclusion",
              "display": "Numerator Exclusion"
            } ]
          },
          "count": 0
        } ],
        "measureScore": {
          "value": 0.0
        }
      }, {
        "id": "Group_2",
        "population": [ {
          "id": "InitialPopulation_2",
          "code": {
            "coding": [ {
              "system": "http://terminology.hl7.org/CodeSystem/measure-population",
              "code": "initial-population",
              "display": "Initial Population"
            } ]
          },
          "count": 1
        }, {
          "id": "Denominator_2",
          "code": {
            "coding": [ {
              "system": "http://terminology.hl7.org/CodeSystem/measure-population",
              "code": "denominator",
              "display": "Denominator"
            } ]
          },
          "count": 0
        }, {
          "id": "Numerator_2",
          "code": {
            "coding": [ {
              "system": "http://terminology.hl7.org/CodeSystem/measure-population",
              "code": "numerator",
              "display": "Numerator"
            } ]
          },
          "count": 0
        }, {
          "id": "NumeratorExclusion_2",
          "code": {
            "coding": [ {
              "system": "http://terminology.hl7.org/CodeSystem/measure-population",
              "code": "numerator-exclusion",
              "display": "Numerator Exclusion"
            } ]
          },
          "count": 0
        } ],
        "measureScore": {
          "value": 0.0
        }
      } ],
      "evaluatedResource": [ {
        "reference": "Patient/8abe1112-e249-430d-b1a8-a230f2c2262c"
      }, {
        "reference": "Observation/e0460e82-9940-4015-a351-2e298450ce87"
      }, {
        "reference": "Observation/3ddcca99-5a84-48cd-a5b9-b6e211ce932e"
      }, {
        "reference": "Encounter/9033aac2-32e6-40aa-8c22-34715ff5d05b"
      }, {
        "reference": "Coverage/cb4437db-55a1-4432-80fb-4bffacf2b66c"
      }, {
        "reference": "Procedure/355f1032-e3da-4553-bd98-e02e6aece5f8"
      }, {
        "reference": "Organization/7bcf0065-a68e-4d99-808d-4bb44d80f1c1"
      }, {
        "reference": "Practitioner/7b57f08b-6f41-42ca-bb0e-0e6ff81f4ac9"
      } ]
    },
    "request": {
      "method": "PUT",
      "url": "MeasureReport/19d3a0ac-fcb2-43c4-9e97-09c8413b3542"
    }
  } ]
}