{
  "resourceType": "Bundle",
  "id": "64270cbea7ffa60ebe02488f",
  "type": "collection",
  "entry": [ {
    "fullUrl": "https://madie.cms.gov/Patient/de56e9db-49b7-4f1a-a1ae-2649b1bb52b9",
    "resource": {
      "resourceType": "Patient",
      "id": "de56e9db-49b7-4f1a-a1ae-2649b1bb52b9",
      "meta": {
        "profile": [ "http://hl7.org/fhir/us/qicore/StructureDefinition/qicore-patient" ]
      },
      "extension": [ {
        "url": "http://hl7.org/fhir/us/core/StructureDefinition/us-core-race",
        "extension": [ {
          "url": "ombCategory",
          "valueCoding": {
            "system": "urn:oid:2.16.840.1.113883.6.238",
            "code": "2106-3",
            "display": "White",
            "userSelected": true
          }
        }, {
          "url": "text",
          "valueString": "White"
        } ]
      }, {
        "url": "http://hl7.org/fhir/us/core/StructureDefinition/us-core-ethnicity",
        "extension": [ {
          "url": "ombCategory",
          "valueCoding": {
            "system": "urn:oid:2.16.840.1.113883.6.238",
            "code": "2135-2",
            "display": "Hispanic or Latino",
            "userSelected": true
          }
        }, {
          "url": "text",
          "valueString": "Hispanic or Latino"
        } ]
      } ],
      "identifier": [ {
        "type": {
          "coding": [ {
            "system": "http://terminology.hl7.org/CodeSystem/v2-0203",
            "code": "MR"
          } ]
        },
        "system": "https://goodhealth.healthit.gov/",
        "value": "64270cbea7ffa60ebe02488f"
      } ],
      "name": [ {
        "family": "IPPass",
        "given": [ "EncClassInpatient" ]
      } ],
      "gender": "male",
      "birthDate": "1969-03-02"
    }
  }, {
    "fullUrl": "https://madie.cms.gov/Condition/c1edfd79-26bf-427d-808d-79795b659094",
    "resource": {
      "resourceType": "Condition",
      "id": "c1edfd79-26bf-427d-808d-79795b659094",
      "meta": {
        "profile": [ "http://hl7.org/fhir/us/qicore/StructureDefinition/qicore-condition-problems-health-concerns" ]
      },
      "clinicalStatus": {
        "coding": [ {
          "system": "http://terminology.hl7.org/CodeSystem/condition-clinical",
          "code": "active",
          "display": "Active",
          "userSelected": true
        } ]
      },
      "verificationStatus": {
        "coding": [ {
          "system": "http://terminology.hl7.org/CodeSystem/condition-ver-status",
          "code": "confirmed",
          "display": "Confirmed",
          "userSelected": true
        } ]
      },
      "category": [ {
        "coding": [ {
          "system": "http://terminology.hl7.org/CodeSystem/condition-category",
          "code": "encounter-diagnosis",
          "display": "Encounter Diagnosis",
          "userSelected": true
        } ]
      }, {
        "coding": [ {
          "system": "http://terminology.hl7.org/CodeSystem/condition-category",
          "code": "problem-list-item",
          "display": "Problem List Item"
        } ]
      } ],
      "code": {
        "coding": [ {
          "system": "http://snomed.info/sct",
          "version": "http://snomed.info/sct/731000124108/version/20250301",
          "code": "10532003",
          "display": "Primary degenerative dementia of the Alzheimer type, presenile onset, with depression (disorder)"
        } ]
      },
      "subject": {
        "reference": "Patient/de56e9db-49b7-4f1a-a1ae-2649b1bb52b9"
      },
      "onsetPeriod": {
        "start": "2026-07-15T08:34:00.000+00:00"
      }
    }
  }, {
    "fullUrl": "https://madie.cms.gov/Encounter/423a1e4c-8c61-4903-8920-cda0e7c2dbbf",
    "resource": {
      "resourceType": "Encounter",
      "id": "423a1e4c-8c61-4903-8920-cda0e7c2dbbf",
      "meta": {
        "profile": [ "http://hl7.org/fhir/us/qicore/StructureDefinition/qicore-encounter" ]
      },
      "status": "finished",
      "class": {
        "system": "http://terminology.hl7.org/CodeSystem/v3-ActCode",
        "code": "IMP",
        "display": "inpatient encounter",
        "userSelected": true
      },
      "type": [ {
        "coding": [ {
          "system": "http://www.ama-assn.org/go/cpt",
          "version": "2023",
          "code": "99221",
          "userSelected": true
        } ]
      } ],
      "subject": {
        "reference": "Patient/de56e9db-49b7-4f1a-a1ae-2649b1bb52b9"
      },
      "period": {
        "start": "2026-03-02T08:00:00.000+00:00",
        "end": "2026-03-02T08:35:00.000+00:00"
      }
    }
  }, {
    "fullUrl": "https://madie.cms.gov/Encounter/95a75c3f-b71c-48d1-8683-d7f336afc960",
    "resource": {
      "resourceType": "Encounter",
      "id": "95a75c3f-b71c-48d1-8683-d7f336afc960",
      "meta": {
        "profile": [ "http://hl7.org/fhir/us/qicore/StructureDefinition/qicore-encounter" ]
      },
      "status": "finished",
      "class": {
        "system": "http://terminology.hl7.org/CodeSystem/v3-ActCode",
        "code": "AMB",
        "display": "ambulatory",
        "userSelected": true
      },
      "type": [ {
        "coding": [ {
          "system": "http://snomed.info/sct",
          "version": "http://snomed.info/sct/731000124108/version/20230301",
          "code": "210098006",
          "display": "Domiciliary or rest home patient evaluation and management (procedure)"
        } ]
      } ],
      "subject": {
        "reference": "Patient/de56e9db-49b7-4f1a-a1ae-2649b1bb52b9"
      },
      "period": {
        "start": "2026-07-15T08:00:00.000+00:00",
        "end": "2026-07-15T08:35:00.000+00:00"
      }
    }
  }, {
    "fullUrl": "https://madie.cms.gov/MeasureReport/e2b5ba1d-b535-472c-878b-f8b574f87dfc",
    "resource": {
      "resourceType": "MeasureReport",
      "id": "e2b5ba1d-b535-472c-878b-f8b574f87dfc",
      "meta": {
        "profile": [ "http://hl7.org/fhir/us/cqfmeasures/StructureDefinition/test-case-cqfm" ]
      },
      "contained": [ {
        "resourceType": "Parameters",
        "id": "1f0c7b18-30bd-475e-8811-d2647036689a-parameters",
        "parameter": [ {
          "name": "subject",
          "valueString": "de56e9db-49b7-4f1a-a1ae-2649b1bb52b9"
        } ]
      } ],
      "extension": [ {
        "url": "http://hl7.org/fhir/StructureDefinition/cqf-inputParameters",
        "valueReference": {
          "reference": "#1f0c7b18-30bd-475e-8811-d2647036689a-parameters"
        }
      }, {
        "url": "http://hl7.org/fhir/us/cqfmeasures/StructureDefinition/cqfm-testCaseDescription",
        "valueMarkdown": "Patient has Dementia Dx and 2 encounters in MP however one encounter is of Inpatient Class and does not qualify for Initial population"
      } ],
      "modifierExtension": [ {
        "url": "http://hl7.org/fhir/us/cqfmeasures/StructureDefinition/cqfm-isTestCase",
        "valueBoolean": true
      } ],
      "status": "complete",
      "type": "individual",
      "measure": "https://madie.cms.gov/Measure/CMS149FHIRDementiaCognitiveAssess",
      "period": {
        "start": "2026-01-01",
        "end": "2026-12-31"
      },
      "group": [ {
        "id": "Group_1",
        "population": [ {
          "id": "InitialPopulation_1",
          "code": {
            "coding": [ {
              "system": "http://terminology.hl7.org/CodeSystem/measure-population",
              "code": "initial-population",
              "display": "Initial Population"
            } ]
          },
          "count": 0
        }, {
          "id": "Denominator_1",
          "code": {
            "coding": [ {
              "system": "http://terminology.hl7.org/CodeSystem/measure-population",
              "code": "denominator",
              "display": "Denominator"
            } ]
          },
          "count": 0
        }, {
          "id": "Numerator_1",
          "code": {
            "coding": [ {
              "system": "http://terminology.hl7.org/CodeSystem/measure-population",
              "code": "numerator",
              "display": "Numerator"
            } ]
          },
          "count": 0
        }, {
          "id": "DenominatorException_1",
          "code": {
            "coding": [ {
              "system": "http://terminology.hl7.org/CodeSystem/measure-population",
              "code": "denominator-exception",
              "display": "Denominator Exception"
            } ]
          },
          "count": 0
        } ],
        "measureScore": {
          "value": 1.0
        }
      } ],
      "evaluatedResource": [ {
        "reference": "Patient/de56e9db-49b7-4f1a-a1ae-2649b1bb52b9"
      }, {
        "reference": "Condition/c1edfd79-26bf-427d-808d-79795b659094"
      }, {
        "reference": "Encounter/423a1e4c-8c61-4903-8920-cda0e7c2dbbf"
      }, {
        "reference": "Encounter/95a75c3f-b71c-48d1-8683-d7f336afc960"
      } ]
    }
  } ]
}