{
  "resourceType": "Bundle",
  "id": "612e6f5302c62a011f2f166a",
  "type": "transaction",
  "entry": [ {
    "fullUrl": "https://madie.cms.gov/Patient/f7ffeb68-1928-4860-8b3e-767f128b23d3",
    "resource": {
      "resourceType": "Patient",
      "id": "f7ffeb68-1928-4860-8b3e-767f128b23d3",
      "meta": {
        "profile": [ "http://hl7.org/fhir/us/qicore/StructureDefinition/qicore-patient" ]
      },
      "text": {
        "status": "generated",
        "div": "<div xmlns=\"http://www.w3.org/1999/xhtml\"><div class=\"hapiHeaderText\">ThrombinIOnICUStart <b>NUMERPASS </b></div><table class=\"hapiPropertyTable\"><tbody><tr><td>Identifier</td><td>06eca7aa47ca0c502a3acb1ae6090a56</td></tr><tr><td>Date of birth</td><td><span>03 March 1974</span></td></tr></tbody></table></div>"
      },
      "extension": [ {
        "url": "http://hl7.org/fhir/us/core/StructureDefinition/us-core-race",
        "extension": [ {
          "url": "ombCategory",
          "valueCoding": {
            "system": "urn:oid:2.16.840.1.113883.6.238",
            "code": "1002-5",
            "display": "American Indian or Alaska Native",
            "userSelected": true
          }
        }, {
          "url": "text",
          "valueString": "American Indian or Alaska Native"
        } ]
      }, {
        "url": "http://hl7.org/fhir/us/core/StructureDefinition/us-core-ethnicity",
        "extension": [ {
          "url": "ombCategory",
          "valueCoding": {
            "system": "urn:oid:2.16.840.1.113883.6.238",
            "code": "2135-2",
            "display": "Hispanic or Latino",
            "userSelected": true
          }
        }, {
          "url": "text",
          "valueString": "Hispanic or Latino"
        } ]
      } ],
      "identifier": [ {
        "type": {
          "coding": [ {
            "system": "http://terminology.hl7.org/CodeSystem/v2-0203",
            "code": "MR"
          } ]
        },
        "system": "https://bonnie-fhir.healthit.gov/",
        "value": "612e6f5302c62a011f2f166a"
      } ],
      "active": true,
      "name": [ {
        "use": "usual",
        "family": "NUMERPass",
        "given": [ "ThrombinIOnICUStart" ]
      } ],
      "gender": "female",
      "birthDate": "1975-03-03"
    },
    "request": {
      "method": "PUT",
      "url": "Patient/f7ffeb68-1928-4860-8b3e-767f128b23d3"
    }
  }, {
    "fullUrl": "https://madie.cms.gov/Encounter/e5699c10-b4b9-4fe2-a90f-76e2aad791ea",
    "resource": {
      "resourceType": "Encounter",
      "id": "e5699c10-b4b9-4fe2-a90f-76e2aad791ea",
      "meta": {
        "profile": [ "http://hl7.org/fhir/us/qicore/StructureDefinition/qicore-encounter" ]
      },
      "status": "finished",
      "class": {
        "system": "http://terminology.hl7.org/CodeSystem/v3-ActCode",
        "code": "IMP",
        "display": "inpatient encounter"
      },
      "type": [ {
        "coding": [ {
          "system": "http://snomed.info/sct",
          "code": "8715000"
        } ]
      } ],
      "subject": {
        "reference": "Patient/f7ffeb68-1928-4860-8b3e-767f128b23d3"
      },
      "period": {
        "start": "2026-12-04T08:00:00.000+00:00",
        "end": "2026-12-30T08:15:00.000+00:00"
      },
      "length": {
        "value": 26.0,
        "unit": "days"
      },
      "location": [ {
        "location": {
          "reference": "Location/e24932e2-0bf8-45d7-979d-45110ef147ea"
        },
        "period": {
          "start": "2026-12-06T09:00:00.000+00:00",
          "end": "2026-12-12T08:15:00.000+00:00"
        }
      } ]
    },
    "request": {
      "method": "PUT",
      "url": "Encounter/e5699c10-b4b9-4fe2-a90f-76e2aad791ea"
    }
  }, {
    "fullUrl": "https://madie.cms.gov/Coverage/14774d6f-45e0-4fa8-ab80-fab1a7ed5fc5",
    "resource": {
      "resourceType": "Coverage",
      "id": "14774d6f-45e0-4fa8-ab80-fab1a7ed5fc5",
      "status": "active",
      "beneficiary": {
        "reference": "Patient/f7ffeb68-1928-4860-8b3e-767f128b23d3"
      },
      "period": {
        "start": "1975-03-03T08:00:00.000+00:00"
      },
      "payor": [ {
        "reference": "Organization/7508c6d9-3184-4db2-9d42-0271b4dbbf4e"
      } ]
    },
    "request": {
      "method": "PUT",
      "url": "Coverage/14774d6f-45e0-4fa8-ab80-fab1a7ed5fc5"
    }
  }, {
    "fullUrl": "https://madie.cms.gov/MedicationAdministration/c7b88721-0d65-4cbc-b999-9d4d4be33d07",
    "resource": {
      "resourceType": "MedicationAdministration",
      "id": "c7b88721-0d65-4cbc-b999-9d4d4be33d07",
      "meta": {
        "profile": [ "http://hl7.org/fhir/us/qicore/StructureDefinition/qicore-medicationadministration" ]
      },
      "status": "completed",
      "medicationCodeableConcept": {
        "coding": [ {
          "system": "http://www.nlm.nih.gov/research/umls/rxnorm",
          "code": "308351"
        } ]
      },
      "subject": {
        "reference": "Patient/f7ffeb68-1928-4860-8b3e-767f128b23d3"
      },
      "effectivePeriod": {
        "start": "2026-12-06T08:00:00.000+00:00",
        "end": "2026-12-06T08:45:00.000+00:00"
      }
    },
    "request": {
      "method": "PUT",
      "url": "MedicationAdministration/c7b88721-0d65-4cbc-b999-9d4d4be33d07"
    }
  }, {
    "fullUrl": "https://madie.cms.gov/Procedure/17c5a88b-6153-4f2a-8021-c37d6441b102",
    "resource": {
      "resourceType": "Procedure",
      "id": "17c5a88b-6153-4f2a-8021-c37d6441b102",
      "status": "completed",
      "code": {
        "coding": [ {
          "system": "http://www.icd10data.com/icd10pcs",
          "code": "3E030FZ"
        }, {
          "system": "http://snomed.info/sct",
          "code": "18946005"
        } ]
      },
      "subject": {
        "reference": "Patient/f7ffeb68-1928-4860-8b3e-767f128b23d3"
      },
      "performedPeriod": {
        "start": "2026-12-04T11:00:00.000+00:00",
        "end": "2026-12-06T11:15:00.000+00:00"
      }
    },
    "request": {
      "method": "PUT",
      "url": "Procedure/17c5a88b-6153-4f2a-8021-c37d6441b102"
    }
  }, {
    "fullUrl": "https://madie.cms.gov/Location/e24932e2-0bf8-45d7-979d-45110ef147ea",
    "resource": {
      "resourceType": "Location",
      "id": "e24932e2-0bf8-45d7-979d-45110ef147ea",
      "meta": {
        "profile": [ "http://hl7.org/fhir/us/qicore/StructureDefinition/qicore-location" ]
      },
      "identifier": [ {
        "use": "usual",
        "system": "http://exampleoflocation.com",
        "value": "B1-S.F2"
      } ],
      "name": "Medical Surgical East, first floor",
      "type": [ {
        "coding": [ {
          "system": "https://www.cdc.gov/nhsn/cdaportal/terminology/codesystem/hsloc.html",
          "code": "1025-6",
          "display": "Trauma Critical Care",
          "userSelected": true
        } ]
      } ]
    },
    "request": {
      "method": "PUT",
      "url": "Location/e24932e2-0bf8-45d7-979d-45110ef147ea"
    }
  }, {
    "fullUrl": "https://madie.cms.gov/Organization/7508c6d9-3184-4db2-9d42-0271b4dbbf4e",
    "resource": {
      "resourceType": "Organization",
      "id": "7508c6d9-3184-4db2-9d42-0271b4dbbf4e",
      "meta": {
        "profile": [ "http://hl7.org/fhir/us/qicore/StructureDefinition/qicore-organization" ]
      },
      "identifier": [ {
        "use": "temp",
        "system": "urn:oid:2.16.840.1.113883.4.4",
        "value": "21-3259825"
      } ],
      "active": true,
      "type": [ {
        "coding": [ {
          "system": "http://terminology.hl7.org/CodeSystem/organization-type",
          "code": "pay",
          "display": "Payer"
        } ]
      } ],
      "name": "Blue Cross Blue Shield of Texas",
      "telecom": [ {
        "system": "phone",
        "value": "(+1) 972-766-6900"
      } ],
      "address": [ {
        "use": "billing",
        "type": "postal",
        "line": [ "P.O. Box 660044" ],
        "city": "Dallas",
        "state": "TX",
        "postalCode": "75266-0044",
        "country": "USA"
      } ]
    },
    "request": {
      "method": "PUT",
      "url": "Organization/7508c6d9-3184-4db2-9d42-0271b4dbbf4e"
    }
  }, {
    "fullUrl": "https://madie.cms.gov/Practitioner/d071d19e-4dba-418a-8d9b-7d0e2a497b61",
    "resource": {
      "resourceType": "Practitioner",
      "id": "d071d19e-4dba-418a-8d9b-7d0e2a497b61",
      "identifier": [ {
        "system": "http://hl7.org/fhir/sid/us-npi",
        "value": "123456"
      } ],
      "name": [ {
        "family": "Evil",
        "prefix": [ "Dr" ]
      } ]
    },
    "request": {
      "method": "PUT",
      "url": "Practitioner/d071d19e-4dba-418a-8d9b-7d0e2a497b61"
    }
  }, {
    "fullUrl": "https://madie.cms.gov/MeasureReport/38e1d2b6-057e-4057-9cee-439a085fc1cb",
    "resource": {
      "resourceType": "MeasureReport",
      "id": "38e1d2b6-057e-4057-9cee-439a085fc1cb",
      "meta": {
        "profile": [ "http://hl7.org/fhir/us/cqfmeasures/StructureDefinition/test-case-cqfm" ]
      },
      "contained": [ {
        "resourceType": "Parameters",
        "id": "4ce21a88-65a3-4337-8e48-08597b993850-parameters",
        "parameter": [ {
          "name": "subject",
          "valueString": "f7ffeb68-1928-4860-8b3e-767f128b23d3"
        } ]
      } ],
      "extension": [ {
        "url": "http://hl7.org/fhir/StructureDefinition/cqf-inputParameters",
        "valueReference": {
          "reference": "#4ce21a88-65a3-4337-8e48-08597b993850-parameters"
        }
      }, {
        "url": "http://hl7.org/fhir/us/cqfmeasures/StructureDefinition/cqfm-testCaseDescription",
        "valueMarkdown": "meets IPP, meets Denominator, medication administered:Thrombin, Thrombin  concurrent with start of ICU Admission \n"
      } ],
      "modifierExtension": [ {
        "url": "http://hl7.org/fhir/us/cqfmeasures/StructureDefinition/cqfm-isTestCase",
        "valueBoolean": true
      } ],
      "status": "complete",
      "type": "individual",
      "measure": "https://madie.cms.gov/Measure/CMS190FHIRVTEProphylaxisICU",
      "period": {
        "start": "2026-01-01",
        "end": "2026-12-31"
      },
      "group": [ {
        "id": "Group_1",
        "population": [ {
          "id": "InitialPopulation_1",
          "code": {
            "coding": [ {
              "system": "http://terminology.hl7.org/CodeSystem/measure-population",
              "code": "initial-population",
              "display": "Initial Population"
            } ]
          },
          "count": 1
        }, {
          "id": "Denominator_1",
          "code": {
            "coding": [ {
              "system": "http://terminology.hl7.org/CodeSystem/measure-population",
              "code": "denominator",
              "display": "Denominator"
            } ]
          },
          "count": 1
        }, {
          "id": "DenominatorExclusion_1",
          "code": {
            "coding": [ {
              "system": "http://terminology.hl7.org/CodeSystem/measure-population",
              "code": "denominator-exclusion",
              "display": "Denominator Exclusion"
            } ]
          },
          "count": 0
        }, {
          "id": "Numerator_1",
          "code": {
            "coding": [ {
              "system": "http://terminology.hl7.org/CodeSystem/measure-population",
              "code": "numerator",
              "display": "Numerator"
            } ]
          },
          "count": 1
        }, {
          "id": "DenominatorException_1",
          "code": {
            "coding": [ {
              "system": "http://terminology.hl7.org/CodeSystem/measure-population",
              "code": "denominator-exception",
              "display": "Denominator Exception"
            } ]
          },
          "count": 0
        } ],
        "measureScore": {
          "value": 0.0
        }
      } ],
      "evaluatedResource": [ {
        "reference": "Patient/f7ffeb68-1928-4860-8b3e-767f128b23d3"
      }, {
        "reference": "Encounter/e5699c10-b4b9-4fe2-a90f-76e2aad791ea"
      }, {
        "reference": "Coverage/14774d6f-45e0-4fa8-ab80-fab1a7ed5fc5"
      }, {
        "reference": "MedicationAdministration/c7b88721-0d65-4cbc-b999-9d4d4be33d07"
      }, {
        "reference": "Procedure/17c5a88b-6153-4f2a-8021-c37d6441b102"
      }, {
        "reference": "Location/e24932e2-0bf8-45d7-979d-45110ef147ea"
      }, {
        "reference": "Organization/7508c6d9-3184-4db2-9d42-0271b4dbbf4e"
      }, {
        "reference": "Practitioner/d071d19e-4dba-418a-8d9b-7d0e2a497b61"
      } ]
    },
    "request": {
      "method": "PUT",
      "url": "MeasureReport/38e1d2b6-057e-4057-9cee-439a085fc1cb"
    }
  } ]
}