{
  "resourceType": "Bundle",
  "id": "612e6f1b02c62a011f2f0ba0",
  "type": "transaction",
  "entry": [ {
    "fullUrl": "https://madie.cms.gov/Patient/a0695e1d-fb04-4305-8cf6-904a8a237ebd",
    "resource": {
      "resourceType": "Patient",
      "id": "a0695e1d-fb04-4305-8cf6-904a8a237ebd",
      "meta": {
        "profile": [ "http://hl7.org/fhir/us/qicore/StructureDefinition/qicore-patient" ]
      },
      "text": {
        "status": "generated",
        "div": "<div xmlns=\"http://www.w3.org/1999/xhtml\"><div class=\"hapiHeaderText\">ICUEnds1MinAfterEncEnd <b>DENOMFAIL </b></div><table class=\"hapiPropertyTable\"><tbody><tr><td>Identifier</td><td>009b2b3795c87569355f211b9e8d5ef5</td></tr><tr><td>Date of birth</td><td><span>03 March 1974</span></td></tr></tbody></table></div>"
      },
      "extension": [ {
        "url": "http://hl7.org/fhir/us/core/StructureDefinition/us-core-race",
        "extension": [ {
          "url": "ombCategory",
          "valueCoding": {
            "system": "urn:oid:2.16.840.1.113883.6.238",
            "code": "1002-5",
            "display": "American Indian or Alaska Native",
            "userSelected": true
          }
        }, {
          "url": "text",
          "valueString": "American Indian or Alaska Native"
        } ]
      }, {
        "url": "http://hl7.org/fhir/us/core/StructureDefinition/us-core-ethnicity",
        "extension": [ {
          "url": "ombCategory",
          "valueCoding": {
            "system": "urn:oid:2.16.840.1.113883.6.238",
            "code": "2186-5",
            "display": "Not Hispanic or Latino",
            "userSelected": true
          }
        }, {
          "url": "text",
          "valueString": "Not Hispanic or Latino"
        } ]
      } ],
      "identifier": [ {
        "type": {
          "coding": [ {
            "system": "http://terminology.hl7.org/CodeSystem/v2-0203",
            "code": "MR"
          } ]
        },
        "system": "https://bonnie-fhir.healthit.gov/",
        "value": "612e6f1b02c62a011f2f0ba0"
      } ],
      "active": true,
      "name": [ {
        "use": "usual",
        "family": "DENOMFail",
        "given": [ "ICUEnds1MinAfterEncEnd" ]
      } ],
      "gender": "female",
      "birthDate": "1975-03-03"
    },
    "request": {
      "method": "PUT",
      "url": "Patient/a0695e1d-fb04-4305-8cf6-904a8a237ebd"
    }
  }, {
    "fullUrl": "https://madie.cms.gov/Encounter/9945f8ee-27cb-464f-830c-06a4b43da189",
    "resource": {
      "resourceType": "Encounter",
      "id": "9945f8ee-27cb-464f-830c-06a4b43da189",
      "meta": {
        "profile": [ "http://hl7.org/fhir/us/qicore/StructureDefinition/qicore-encounter" ]
      },
      "status": "finished",
      "class": {
        "system": "http://terminology.hl7.org/CodeSystem/v3-ActCode",
        "code": "IMP",
        "display": "inpatient encounter"
      },
      "type": [ {
        "coding": [ {
          "system": "http://snomed.info/sct",
          "code": "8715000"
        } ]
      } ],
      "subject": {
        "reference": "Patient/a0695e1d-fb04-4305-8cf6-904a8a237ebd"
      },
      "period": {
        "start": "2026-12-01T01:05:00.000+00:00",
        "end": "2026-12-31T22:59:00.000+00:00"
      },
      "length": {
        "value": 30.0,
        "unit": "days"
      },
      "location": [ {
        "location": {
          "reference": "Location/intensive-care-unit-108a"
        },
        "period": {
          "start": "2026-12-30T23:59:00.000+00:00",
          "end": "2026-12-31T23:00:00.000+00:00"
        }
      } ]
    },
    "request": {
      "method": "PUT",
      "url": "Encounter/9945f8ee-27cb-464f-830c-06a4b43da189"
    }
  }, {
    "fullUrl": "https://madie.cms.gov/Location/b5b7a8ac-f91d-46e1-98be-7fa5e5efa842",
    "resource": {
      "resourceType": "Location",
      "id": "b5b7a8ac-f91d-46e1-98be-7fa5e5efa842",
      "meta": {
        "profile": [ "http://hl7.org/fhir/us/qicore/StructureDefinition/qicore-location" ]
      },
      "identifier": [ {
        "use": "usual",
        "system": "http://exampleoflocation.com",
        "value": "B1-S.F2"
      } ],
      "name": "Medical Surgical East, first floor",
      "type": [ {
        "coding": [ {
          "system": "https://www.cdc.gov/nhsn/cdaportal/terminology/codesystem/hsloc.html",
          "code": "1025-6",
          "display": "Trauma Critical Care",
          "userSelected": true
        } ]
      } ]
    },
    "request": {
      "method": "PUT",
      "url": "Location/b5b7a8ac-f91d-46e1-98be-7fa5e5efa842"
    }
  }, {
    "fullUrl": "https://madie.cms.gov/Coverage/2de66525-8dce-409f-92e6-69f36d4d932c",
    "resource": {
      "resourceType": "Coverage",
      "id": "2de66525-8dce-409f-92e6-69f36d4d932c",
      "status": "active",
      "beneficiary": {
        "reference": "Patient/a0695e1d-fb04-4305-8cf6-904a8a237ebd"
      },
      "period": {
        "start": "1975-03-03T08:00:00.000+00:00"
      },
      "payor": [ {
        "reference": "Organization/5ea4f48d-4089-4dfa-b92e-d233b43aaa0c"
      } ]
    },
    "request": {
      "method": "PUT",
      "url": "Coverage/2de66525-8dce-409f-92e6-69f36d4d932c"
    }
  }, {
    "fullUrl": "https://madie.cms.gov/Organization/5ea4f48d-4089-4dfa-b92e-d233b43aaa0c",
    "resource": {
      "resourceType": "Organization",
      "id": "5ea4f48d-4089-4dfa-b92e-d233b43aaa0c",
      "meta": {
        "profile": [ "http://hl7.org/fhir/us/qicore/StructureDefinition/qicore-organization" ]
      },
      "identifier": [ {
        "use": "temp",
        "system": "urn:oid:2.16.840.1.113883.4.4",
        "value": "21-3259825"
      } ],
      "active": true,
      "type": [ {
        "coding": [ {
          "system": "http://terminology.hl7.org/CodeSystem/organization-type",
          "code": "pay",
          "display": "Payer"
        } ]
      } ],
      "name": "Blue Cross Blue Shield of Texas",
      "telecom": [ {
        "system": "phone",
        "value": "(+1) 972-766-6900"
      } ],
      "address": [ {
        "use": "billing",
        "type": "postal",
        "line": [ "P.O. Box 660044" ],
        "city": "Dallas",
        "state": "TX",
        "postalCode": "75266-0044",
        "country": "USA"
      } ]
    },
    "request": {
      "method": "PUT",
      "url": "Organization/5ea4f48d-4089-4dfa-b92e-d233b43aaa0c"
    }
  }, {
    "fullUrl": "https://madie.cms.gov/Practitioner/e6090e7c-34b6-47ef-ac2a-561dc45f4869",
    "resource": {
      "resourceType": "Practitioner",
      "id": "e6090e7c-34b6-47ef-ac2a-561dc45f4869",
      "identifier": [ {
        "system": "http://hl7.org/fhir/sid/us-npi",
        "value": "123456"
      } ],
      "name": [ {
        "family": "Evil",
        "prefix": [ "Dr" ]
      } ]
    },
    "request": {
      "method": "PUT",
      "url": "Practitioner/e6090e7c-34b6-47ef-ac2a-561dc45f4869"
    }
  }, {
    "fullUrl": "https://madie.cms.gov/MeasureReport/1c79186a-d453-4760-b526-43141732f81c",
    "resource": {
      "resourceType": "MeasureReport",
      "id": "1c79186a-d453-4760-b526-43141732f81c",
      "meta": {
        "profile": [ "http://hl7.org/fhir/us/cqfmeasures/StructureDefinition/test-case-cqfm" ]
      },
      "contained": [ {
        "resourceType": "Parameters",
        "id": "24f58e36-99d6-45c0-9061-87ba8dccf9e2-parameters",
        "parameter": [ {
          "name": "subject",
          "valueString": "a0695e1d-fb04-4305-8cf6-904a8a237ebd"
        } ]
      } ],
      "extension": [ {
        "url": "http://hl7.org/fhir/StructureDefinition/cqf-inputParameters",
        "valueReference": {
          "reference": "#24f58e36-99d6-45c0-9061-87ba8dccf9e2-parameters"
        }
      }, {
        "url": "http://hl7.org/fhir/us/cqfmeasures/StructureDefinition/cqfm-testCaseDescription",
        "valueMarkdown": "ICU ends 1 min after discharge\n"
      } ],
      "modifierExtension": [ {
        "url": "http://hl7.org/fhir/us/cqfmeasures/StructureDefinition/cqfm-isTestCase",
        "valueBoolean": true
      } ],
      "status": "complete",
      "type": "individual",
      "measure": "https://madie.cms.gov/Measure/CMS190FHIRVTEProphylaxisICU",
      "period": {
        "start": "2026-01-01",
        "end": "2026-12-31"
      },
      "group": [ {
        "id": "Group_1",
        "population": [ {
          "id": "InitialPopulation_1",
          "code": {
            "coding": [ {
              "system": "http://terminology.hl7.org/CodeSystem/measure-population",
              "code": "initial-population",
              "display": "Initial Population"
            } ]
          },
          "count": 1
        }, {
          "id": "Denominator_1",
          "code": {
            "coding": [ {
              "system": "http://terminology.hl7.org/CodeSystem/measure-population",
              "code": "denominator",
              "display": "Denominator"
            } ]
          },
          "count": 0
        }, {
          "id": "DenominatorExclusion_1",
          "code": {
            "coding": [ {
              "system": "http://terminology.hl7.org/CodeSystem/measure-population",
              "code": "denominator-exclusion",
              "display": "Denominator Exclusion"
            } ]
          },
          "count": 0
        }, {
          "id": "Numerator_1",
          "code": {
            "coding": [ {
              "system": "http://terminology.hl7.org/CodeSystem/measure-population",
              "code": "numerator",
              "display": "Numerator"
            } ]
          },
          "count": 0
        }, {
          "id": "DenominatorException_1",
          "code": {
            "coding": [ {
              "system": "http://terminology.hl7.org/CodeSystem/measure-population",
              "code": "denominator-exception",
              "display": "Denominator Exception"
            } ]
          },
          "count": 0
        } ],
        "measureScore": {
          "value": 0.0
        }
      } ],
      "evaluatedResource": [ {
        "reference": "Patient/a0695e1d-fb04-4305-8cf6-904a8a237ebd"
      }, {
        "reference": "Encounter/9945f8ee-27cb-464f-830c-06a4b43da189"
      }, {
        "reference": "Location/b5b7a8ac-f91d-46e1-98be-7fa5e5efa842"
      }, {
        "reference": "Coverage/2de66525-8dce-409f-92e6-69f36d4d932c"
      }, {
        "reference": "Organization/5ea4f48d-4089-4dfa-b92e-d233b43aaa0c"
      }, {
        "reference": "Practitioner/e6090e7c-34b6-47ef-ac2a-561dc45f4869"
      } ]
    },
    "request": {
      "method": "PUT",
      "url": "MeasureReport/1c79186a-d453-4760-b526-43141732f81c"
    }
  } ]
}