{
  "resourceType": "Bundle",
  "id": "NUMERPass-SBP139DBP89StartOfMP",
  "type": "transaction",
  "entry": [ {
    "fullUrl": "https://madie.cms.gov/Patient/6f37e357-7575-4b40-a63e-4b882532250f",
    "resource": {
      "resourceType": "Patient",
      "id": "6f37e357-7575-4b40-a63e-4b882532250f",
      "meta": {
        "profile": [ "http://hl7.org/fhir/us/qicore/StructureDefinition/qicore-patient" ]
      },
      "extension": [ {
        "url": "http://hl7.org/fhir/us/core/StructureDefinition/us-core-race",
        "extension": [ {
          "url": "ombCategory",
          "valueCoding": {
            "system": "urn:oid:2.16.840.1.113883.6.238",
            "code": "2028-9",
            "display": "Asian"
          }
        }, {
          "url": "text",
          "valueString": "Asian"
        } ]
      }, {
        "url": "http://hl7.org/fhir/us/core/StructureDefinition/us-core-ethnicity",
        "extension": [ {
          "url": "ombCategory",
          "valueCoding": {
            "system": "urn:oid:2.16.840.1.113883.6.238",
            "code": "2135-2",
            "display": "Hispanic or Latino"
          }
        }, {
          "url": "text",
          "valueString": "Hispanic or Latino"
        } ]
      } ],
      "identifier": [ {
        "system": "http://hospital.smarthealthit.org",
        "value": "999999995"
      } ],
      "name": [ {
        "family": "NUMERPass",
        "given": [ "SBP139DBP89StartOfMP" ]
      } ],
      "gender": "female",
      "birthDate": "2007-12-31"
    },
    "request": {
      "method": "PUT",
      "url": "Patient/6f37e357-7575-4b40-a63e-4b882532250f"
    }
  }, {
    "fullUrl": "https://madie.cms.gov/Encounter/d24838ef-bb1d-4c63-9e60-ee0e2b9b9e47",
    "resource": {
      "resourceType": "Encounter",
      "id": "d24838ef-bb1d-4c63-9e60-ee0e2b9b9e47",
      "meta": {
        "profile": [ "http://hl7.org/fhir/us/qicore/StructureDefinition/qicore-encounter" ]
      },
      "status": "finished",
      "class": {
        "system": "http://terminology.hl7.org/CodeSystem/v3-ActCode",
        "code": "AMB",
        "display": "ambulatory"
      },
      "type": [ {
        "coding": [ {
          "system": "http://snomed.info/sct",
          "code": "3391000175108",
          "display": "Office visit for pediatric care and assessment (procedure)"
        } ]
      } ],
      "subject": {
        "reference": "Patient/6f37e357-7575-4b40-a63e-4b882532250f"
      },
      "period": {
        "start": "2026-01-01T00:00:00.000+00:00",
        "end": "2026-01-01T01:00:00.000+00:00"
      }
    },
    "request": {
      "method": "PUT",
      "url": "Encounter/d24838ef-bb1d-4c63-9e60-ee0e2b9b9e47"
    }
  }, {
    "fullUrl": "https://madie.cms.gov/Condition/c58e8c51-d77f-4a78-95a9-2d9c293b5156",
    "resource": {
      "resourceType": "Condition",
      "id": "c58e8c51-d77f-4a78-95a9-2d9c293b5156",
      "meta": {
        "profile": [ "http://hl7.org/fhir/us/qicore/StructureDefinition/qicore-condition-encounter-diagnosis" ]
      },
      "clinicalStatus": {
        "coding": [ {
          "system": "http://terminology.hl7.org/CodeSystem/condition-clinical",
          "code": "active"
        } ]
      },
      "category": [ {
        "coding": [ {
          "system": "http://terminology.hl7.org/CodeSystem/condition-category",
          "code": "encounter-diagnosis",
          "display": "Encounter Diagnosis"
        } ]
      } ],
      "code": {
        "coding": [ {
          "system": "http://snomed.info/sct",
          "code": "371125006",
          "display": "Labile essential hypertension (disorder)"
        } ]
      },
      "subject": {
        "reference": "Patient/6f37e357-7575-4b40-a63e-4b882532250f"
      },
      "onsetDateTime": "2026-06-29T23:59:59.000+00:00"
    },
    "request": {
      "method": "PUT",
      "url": "Condition/c58e8c51-d77f-4a78-95a9-2d9c293b5156"
    }
  }, {
    "fullUrl": "https://madie.cms.gov/Observation/a6de0478-ce21-47ce-affd-6bad75b08220",
    "resource": {
      "resourceType": "Observation",
      "id": "a6de0478-ce21-47ce-affd-6bad75b08220",
      "meta": {
        "profile": [ "http://hl7.org/fhir/us/core/StructureDefinition/us-core-blood-pressure" ]
      },
      "status": "final",
      "category": [ {
        "coding": [ {
          "system": "http://terminology.hl7.org/CodeSystem/observation-category",
          "code": "vital-signs",
          "display": "Vital Signs"
        } ],
        "text": "Vital Signs"
      } ],
      "code": {
        "coding": [ {
          "system": "http://loinc.org",
          "code": "85354-9",
          "display": "Blood pressure panel with all children optional"
        } ]
      },
      "subject": {
        "reference": "Patient/6f37e357-7575-4b40-a63e-4b882532250f"
      },
      "encounter": {
        "reference": "Encounter/d24838ef-bb1d-4c63-9e60-ee0e2b9b9e47-1"
      },
      "effectiveDateTime": "2026-01-01T00:00:00.000+00:00",
      "component": [ {
        "code": {
          "coding": [ {
            "system": "http://loinc.org",
            "code": "8480-6",
            "display": "Systolic blood pressure"
          } ]
        },
        "valueQuantity": {
          "value": 139,
          "unit": "mmHg",
          "system": "http://unitsofmeasure.org",
          "code": "mm[Hg]"
        }
      }, {
        "code": {
          "coding": [ {
            "system": "http://loinc.org",
            "code": "8462-4",
            "display": "Diastolic blood pressure"
          } ]
        },
        "valueQuantity": {
          "value": 89,
          "unit": "mmHg",
          "system": "http://unitsofmeasure.org",
          "code": "mm[Hg]"
        }
      } ]
    },
    "request": {
      "method": "PUT",
      "url": "Observation/a6de0478-ce21-47ce-affd-6bad75b08220"
    }
  }, {
    "fullUrl": "https://madie.cms.gov/Encounter/d24838ef-bb1d-4c63-9e60-ee0e2b9b9e47-1",
    "resource": {
      "resourceType": "Encounter",
      "id": "d24838ef-bb1d-4c63-9e60-ee0e2b9b9e47-1",
      "meta": {
        "profile": [ "http://hl7.org/fhir/us/qicore/StructureDefinition/qicore-encounter" ]
      },
      "status": "finished",
      "class": {
        "system": "http://terminology.hl7.org/CodeSystem/v3-ActCode",
        "code": "AMB",
        "display": "ambulatory"
      },
      "type": [ {
        "coding": [ {
          "system": "http://snomed.info/sct",
          "code": "3391000175108",
          "display": "Office visit for pediatric care and assessment (procedure)"
        } ]
      } ],
      "subject": {
        "reference": "Patient/6f37e357-7575-4b40-a63e-4b882532250f"
      },
      "period": {
        "start": "2026-01-01T00:00:00.000+00:00",
        "end": "2026-01-01T01:00:00.000+00:00"
      }
    },
    "request": {
      "method": "PUT",
      "url": "Encounter/d24838ef-bb1d-4c63-9e60-ee0e2b9b9e47-1"
    }
  }, {
    "fullUrl": "https://madie.cms.gov/MeasureReport/fba2c617-1601-4900-a65c-6e1e1f7adcbc",
    "resource": {
      "resourceType": "MeasureReport",
      "id": "fba2c617-1601-4900-a65c-6e1e1f7adcbc",
      "meta": {
        "profile": [ "http://hl7.org/fhir/us/cqfmeasures/StructureDefinition/test-case-cqfm" ]
      },
      "contained": [ {
        "resourceType": "Parameters",
        "id": "584bebf4-81bf-4523-9cff-ad0c1f90ca87-parameters",
        "parameter": [ {
          "name": "subject",
          "valueString": "6f37e357-7575-4b40-a63e-4b882532250f"
        } ]
      } ],
      "extension": [ {
        "url": "http://hl7.org/fhir/StructureDefinition/cqf-inputParameters",
        "valueReference": {
          "reference": "#584bebf4-81bf-4523-9cff-ad0c1f90ca87-parameters"
        }
      }, {
        "url": "http://hl7.org/fhir/us/cqfmeasures/StructureDefinition/cqfm-testCaseDescription",
        "valueMarkdown": "BP 139/89 during day of start of MP 1/1/2023"
      } ],
      "modifierExtension": [ {
        "url": "http://hl7.org/fhir/us/cqfmeasures/StructureDefinition/cqfm-isTestCase",
        "valueBoolean": true
      } ],
      "status": "complete",
      "type": "individual",
      "measure": "https://madie.cms.gov/Measure/CMS165FHIRControllingHighBP",
      "period": {
        "start": "2026-01-01",
        "end": "2026-12-31"
      },
      "group": [ {
        "id": "Group_1",
        "population": [ {
          "id": "InitialPopulation_1",
          "code": {
            "coding": [ {
              "system": "http://terminology.hl7.org/CodeSystem/measure-population",
              "code": "initial-population",
              "display": "Initial Population"
            } ]
          },
          "count": 1
        }, {
          "id": "Denominator_1",
          "code": {
            "coding": [ {
              "system": "http://terminology.hl7.org/CodeSystem/measure-population",
              "code": "denominator",
              "display": "Denominator"
            } ]
          },
          "count": 1
        }, {
          "id": "DenominatorExclusion_1",
          "code": {
            "coding": [ {
              "system": "http://terminology.hl7.org/CodeSystem/measure-population",
              "code": "denominator-exclusion",
              "display": "Denominator Exclusion"
            } ]
          },
          "count": 0
        }, {
          "id": "Numerator_1",
          "code": {
            "coding": [ {
              "system": "http://terminology.hl7.org/CodeSystem/measure-population",
              "code": "numerator",
              "display": "Numerator"
            } ]
          },
          "count": 1
        } ],
        "measureScore": {
          "value": 1.0
        }
      } ],
      "evaluatedResource": [ {
        "reference": "Patient/6f37e357-7575-4b40-a63e-4b882532250f"
      }, {
        "reference": "Encounter/d24838ef-bb1d-4c63-9e60-ee0e2b9b9e47"
      }, {
        "reference": "Condition/c58e8c51-d77f-4a78-95a9-2d9c293b5156"
      }, {
        "reference": "Observation/a6de0478-ce21-47ce-affd-6bad75b08220"
      }, {
        "reference": "Encounter/d24838ef-bb1d-4c63-9e60-ee0e2b9b9e47-1"
      } ]
    },
    "request": {
      "method": "PUT",
      "url": "MeasureReport/fba2c617-1601-4900-a65c-6e1e1f7adcbc"
    }
  } ]
}