{
  "resourceType": "Bundle",
  "id": "tests-DENEXFail-SCrIncreasedBy03mg",
  "type": "transaction",
  "entry": [ {
    "fullUrl": "https://madie.cms.gov/Observation/e64f9b22-e342-4195-bddb-e139550fa0a5",
    "resource": {
      "resourceType": "Observation",
      "id": "e64f9b22-e342-4195-bddb-e139550fa0a5",
      "meta": {
        "profile": [ "http://hl7.org/fhir/us/qicore/StructureDefinition/qicore-observation-lab" ]
      },
      "status": "final",
      "category": [ {
        "coding": [ {
          "system": "http://terminology.hl7.org/CodeSystem/observation-category",
          "code": "laboratory",
          "display": "Laboratory"
        } ]
      } ],
      "code": {
        "coding": [ {
          "system": "http://loinc.org",
          "version": "2.72",
          "code": "21232-4",
          "display": "Creatinine [Mass/volume] in Serum or Plasma"
        } ]
      },
      "subject": {
        "reference": "Patient/fd3b9a4e-9dcf-4eda-bd0e-0f9ababe6233"
      },
      "effectiveDateTime": "2026-09-24T08:15:00.000+00:00",
      "valueQuantity": {
        "value": 0.1,
        "unit": "mg/dL",
        "system": "http://unitsofmeasure.org",
        "code": "mg/dL"
      }
    },
    "request": {
      "method": "PUT",
      "url": "Observation/e64f9b22-e342-4195-bddb-e139550fa0a5"
    }
  }, {
    "fullUrl": "https://madie.cms.gov/Encounter/4395f0e6-db4c-4407-bc80-91c65c175d85",
    "resource": {
      "resourceType": "Encounter",
      "id": "4395f0e6-db4c-4407-bc80-91c65c175d85",
      "meta": {
        "profile": [ "http://hl7.org/fhir/us/qicore/StructureDefinition/qicore-encounter" ]
      },
      "status": "finished",
      "class": {
        "system": "http://terminology.hl7.org/CodeSystem/v3-ActCode",
        "code": "IMP",
        "display": "inpatient encounter"
      },
      "type": [ {
        "coding": [ {
          "system": "http://snomed.info/sct",
          "code": "183452005",
          "display": "Emergency hospital admission (procedure)"
        } ]
      } ],
      "subject": {
        "reference": "Patient/fd3b9a4e-9dcf-4eda-bd0e-0f9ababe6233"
      },
      "period": {
        "start": "2026-09-24T20:00:00.000+00:00",
        "end": "2026-09-27T08:15:00.000+00:00"
      }
    },
    "request": {
      "method": "PUT",
      "url": "Encounter/4395f0e6-db4c-4407-bc80-91c65c175d85"
    }
  }, {
    "fullUrl": "https://madie.cms.gov/Encounter/f76c5167-3fe2-44e8-bca4-1f2350d907ff",
    "resource": {
      "resourceType": "Encounter",
      "id": "f76c5167-3fe2-44e8-bca4-1f2350d907ff",
      "meta": {
        "profile": [ "http://hl7.org/fhir/us/qicore/StructureDefinition/qicore-encounter" ]
      },
      "status": "finished",
      "class": {
        "system": "http://terminology.hl7.org/CodeSystem/v3-ActCode",
        "code": "EMER",
        "display": "emergency encounter"
      },
      "type": [ {
        "coding": [ {
          "system": "http://snomed.info/sct",
          "code": "4525004",
          "display": "Emergency Department Visit"
        } ]
      } ],
      "subject": {
        "reference": "Patient/fd3b9a4e-9dcf-4eda-bd0e-0f9ababe6233"
      },
      "period": {
        "start": "2026-09-24T08:00:00.000+00:00",
        "end": "2026-09-24T20:00:00.000+00:00"
      }
    },
    "request": {
      "method": "PUT",
      "url": "Encounter/f76c5167-3fe2-44e8-bca4-1f2350d907ff"
    }
  }, {
    "fullUrl": "https://madie.cms.gov/Observation/1cdd24b2-9c17-4607-b384-83b8eb350d84",
    "resource": {
      "resourceType": "Observation",
      "id": "1cdd24b2-9c17-4607-b384-83b8eb350d84",
      "meta": {
        "profile": [ "http://hl7.org/fhir/us/qicore/StructureDefinition/qicore-observation-lab" ]
      },
      "status": "final",
      "category": [ {
        "coding": [ {
          "system": "http://terminology.hl7.org/CodeSystem/observation-category",
          "code": "laboratory",
          "display": "Laboratory"
        } ]
      } ],
      "code": {
        "coding": [ {
          "system": "http://loinc.org",
          "version": "2.72",
          "code": "21232-4",
          "display": "Creatinine [Mass/volume] in Serum or Plasma"
        } ]
      },
      "subject": {
        "reference": "Patient/fd3b9a4e-9dcf-4eda-bd0e-0f9ababe6233"
      },
      "effectiveDateTime": "2026-09-26T08:01:00.000+00:00",
      "valueQuantity": {
        "value": 1.4,
        "unit": "mg/dL",
        "system": "http://unitsofmeasure.org",
        "code": "mg/dL"
      }
    },
    "request": {
      "method": "PUT",
      "url": "Observation/1cdd24b2-9c17-4607-b384-83b8eb350d84"
    }
  }, {
    "fullUrl": "https://madie.cms.gov/Observation/150e8b71-0a71-41d3-8372-91d8fe69b76f",
    "resource": {
      "resourceType": "Observation",
      "id": "150e8b71-0a71-41d3-8372-91d8fe69b76f",
      "meta": {
        "profile": [ "http://hl7.org/fhir/us/qicore/StructureDefinition/qicore-observation-lab" ]
      },
      "status": "final",
      "category": [ {
        "coding": [ {
          "system": "http://terminology.hl7.org/CodeSystem/observation-category",
          "code": "laboratory",
          "display": "Laboratory"
        } ]
      } ],
      "code": {
        "coding": [ {
          "system": "http://loinc.org",
          "version": "2.72",
          "code": "21232-4",
          "display": "Creatinine [Mass/volume] in Serum or Plasma"
        } ]
      },
      "subject": {
        "reference": "Patient/fd3b9a4e-9dcf-4eda-bd0e-0f9ababe6233"
      },
      "effectiveDateTime": "2026-09-25T08:00:00.000+00:00",
      "valueQuantity": {
        "value": 1.1,
        "unit": "mg/dL",
        "system": "http://unitsofmeasure.org",
        "code": "mg/dL"
      }
    },
    "request": {
      "method": "PUT",
      "url": "Observation/150e8b71-0a71-41d3-8372-91d8fe69b76f"
    }
  }, {
    "fullUrl": "https://madie.cms.gov/Patient/fd3b9a4e-9dcf-4eda-bd0e-0f9ababe6233",
    "resource": {
      "resourceType": "Patient",
      "id": "fd3b9a4e-9dcf-4eda-bd0e-0f9ababe6233",
      "meta": {
        "profile": [ "http://hl7.org/fhir/us/qicore/StructureDefinition/qicore-patient" ]
      },
      "extension": [ {
        "url": "http://hl7.org/fhir/us/core/StructureDefinition/us-core-race",
        "extension": [ {
          "url": "ombCategory",
          "valueCoding": {
            "system": "urn:oid:2.16.840.1.113883.6.238",
            "code": "2106-3",
            "display": "White"
          }
        }, {
          "url": "text",
          "valueString": "White"
        } ]
      }, {
        "url": "http://hl7.org/fhir/us/core/StructureDefinition/us-core-ethnicity",
        "extension": [ {
          "url": "ombCategory",
          "valueCoding": {
            "system": "urn:oid:2.16.840.1.113883.6.238",
            "code": "2135-2",
            "display": "Hispanic or Latino"
          }
        }, {
          "url": "text",
          "valueString": "Hispanic or Latino"
        } ]
      }, {
        "url": "http://hl7.org/fhir/us/core/StructureDefinition/us-core-sex",
        "valueCode": "248153007"
      } ],
      "identifier": [ {
        "system": "http://hospital.smarthealthit.org",
        "value": "999999999"
      } ],
      "name": [ {
        "family": "Example",
        "given": [ "Patient" ]
      } ],
      "gender": "male",
      "birthDate": "1956-01-01"
    },
    "request": {
      "method": "PUT",
      "url": "Patient/fd3b9a4e-9dcf-4eda-bd0e-0f9ababe6233"
    }
  }, {
    "fullUrl": "https://madie.cms.gov/MeasureReport/147d96ec-5892-4e21-b217-4046e69a6209",
    "resource": {
      "resourceType": "MeasureReport",
      "id": "147d96ec-5892-4e21-b217-4046e69a6209",
      "meta": {
        "profile": [ "http://hl7.org/fhir/us/cqfmeasures/StructureDefinition/test-case-cqfm" ]
      },
      "contained": [ {
        "resourceType": "Parameters",
        "id": "8ba1be42-dd67-40f7-86cd-0e9dc2bfb487-parameters",
        "parameter": [ {
          "name": "subject",
          "valueString": "fd3b9a4e-9dcf-4eda-bd0e-0f9ababe6233"
        } ]
      } ],
      "extension": [ {
        "url": "http://hl7.org/fhir/StructureDefinition/cqf-inputParameters",
        "valueReference": {
          "reference": "#8ba1be42-dd67-40f7-86cd-0e9dc2bfb487-parameters"
        }
      }, {
        "url": "http://hl7.org/fhir/us/cqfmeasures/StructureDefinition/cqfm-testCaseDescription",
        "valueMarkdown": "IP encounter w/ increase in SCr value of >= 0.3 mg/dL between index SCr and a subsequent SCr taken within 48 of the index SCr. Index SCr is  value of  first SCr result obtained on arrival, done <=48 hours after the start of the encounter. Meets DENEX"
      } ],
      "modifierExtension": [ {
        "url": "http://hl7.org/fhir/us/cqfmeasures/StructureDefinition/cqfm-isTestCase",
        "valueBoolean": true
      } ],
      "status": "complete",
      "type": "individual",
      "measure": "https://madie.cms.gov/Measure/CMS832FHIRHHAKI",
      "period": {
        "start": "2026-01-01",
        "end": "2026-12-31"
      },
      "group": [ {
        "id": "Group_1",
        "population": [ {
          "id": "InitialPopulation_1",
          "code": {
            "coding": [ {
              "system": "http://terminology.hl7.org/CodeSystem/measure-population",
              "code": "initial-population",
              "display": "Initial Population"
            } ]
          },
          "count": 1
        }, {
          "id": "Denominator_1",
          "code": {
            "coding": [ {
              "system": "http://terminology.hl7.org/CodeSystem/measure-population",
              "code": "denominator",
              "display": "Denominator"
            } ]
          },
          "count": 1
        }, {
          "id": "DenominatorExclusion_1",
          "code": {
            "coding": [ {
              "system": "http://terminology.hl7.org/CodeSystem/measure-population",
              "code": "denominator-exclusion",
              "display": "Denominator Exclusion"
            } ]
          },
          "count": 1
        }, {
          "id": "Numerator_1",
          "code": {
            "coding": [ {
              "system": "http://terminology.hl7.org/CodeSystem/measure-population",
              "code": "numerator",
              "display": "Numerator"
            } ]
          },
          "count": 0
        } ],
        "measureScore": {
          "value": 0.0
        }
      } ],
      "evaluatedResource": [ {
        "reference": "Observation/e64f9b22-e342-4195-bddb-e139550fa0a5"
      }, {
        "reference": "Encounter/4395f0e6-db4c-4407-bc80-91c65c175d85"
      }, {
        "reference": "Encounter/f76c5167-3fe2-44e8-bca4-1f2350d907ff"
      }, {
        "reference": "Observation/1cdd24b2-9c17-4607-b384-83b8eb350d84"
      }, {
        "reference": "Observation/150e8b71-0a71-41d3-8372-91d8fe69b76f"
      }, {
        "reference": "Patient/fd3b9a4e-9dcf-4eda-bd0e-0f9ababe6233"
      } ]
    },
    "request": {
      "method": "PUT",
      "url": "MeasureReport/147d96ec-5892-4e21-b217-4046e69a6209"
    }
  } ]
}