{
  "resourceType": "Bundle",
  "id": "657cbdc9b4f1f0343662347a",
  "type": "transaction",
  "entry": [ {
    "fullUrl": "https://madie.cms.gov/Patient/56c7677a-d509-474e-911a-7e8ebd446cdd",
    "resource": {
      "resourceType": "Patient",
      "id": "56c7677a-d509-474e-911a-7e8ebd446cdd",
      "meta": {
        "profile": [ "http://hl7.org/fhir/us/qicore/StructureDefinition/qicore-patient" ]
      },
      "extension": [ {
        "url": "http://hl7.org/fhir/us/core/StructureDefinition/us-core-race",
        "extension": [ {
          "url": "ombCategory",
          "valueCoding": {
            "system": "urn:oid:2.16.840.1.113883.6.238",
            "code": "2106-3",
            "display": "White",
            "userSelected": true
          }
        }, {
          "url": "text",
          "valueString": "White"
        } ]
      }, {
        "url": "http://hl7.org/fhir/us/core/StructureDefinition/us-core-ethnicity",
        "extension": [ {
          "url": "ombCategory",
          "valueCoding": {
            "system": "urn:oid:2.16.840.1.113883.6.238",
            "code": "2186-5",
            "display": "Not Hispanic or Latino",
            "userSelected": true
          }
        }, {
          "url": "text",
          "valueString": "Not Hispanic or Latino"
        } ]
      } ],
      "identifier": [ {
        "type": {
          "coding": [ {
            "system": "http://terminology.hl7.org/CodeSystem/v2-0203",
            "code": "MR"
          } ]
        },
        "system": "https://bonnie-fhir.healthit.gov/",
        "value": "657cbdc9b4f1f0343662347a"
      } ],
      "name": [ {
        "family": "BloodGlucosePass",
        "given": [ "BloodGlucoseDataAbsentReason" ]
      } ],
      "gender": "female",
      "birthDate": "2008-01-01"
    },
    "request": {
      "method": "PUT",
      "url": "Patient/56c7677a-d509-474e-911a-7e8ebd446cdd"
    }
  }, {
    "fullUrl": "https://madie.cms.gov/Encounter/d8093613-60ee-40b3-9989-dee67a30e685",
    "resource": {
      "resourceType": "Encounter",
      "id": "d8093613-60ee-40b3-9989-dee67a30e685",
      "meta": {
        "profile": [ "http://hl7.org/fhir/us/qicore/StructureDefinition/qicore-encounter" ]
      },
      "status": "finished",
      "class": {
        "system": "http://terminology.hl7.org/CodeSystem/v3-ActCode",
        "code": "ACUTE",
        "display": "inpatient acute"
      },
      "type": [ {
        "coding": [ {
          "system": "http://snomed.info/sct",
          "version": "2024",
          "code": "32485007",
          "display": "Hospital admission (procedure)",
          "userSelected": true
        } ]
      } ],
      "subject": {
        "reference": "Patient/56c7677a-d509-474e-911a-7e8ebd446cdd"
      },
      "period": {
        "start": "2026-01-01T08:00:00.000Z",
        "end": "2026-01-02T09:15:00.000Z"
      }
    },
    "request": {
      "method": "PUT",
      "url": "Encounter/d8093613-60ee-40b3-9989-dee67a30e685"
    }
  }, {
    "fullUrl": "https://madie.cms.gov/Location/65798285-0ed5-4943-a12b-ced99f6e10c4",
    "resource": {
      "resourceType": "Location",
      "id": "65798285-0ed5-4943-a12b-ced99f6e10c4",
      "meta": {
        "profile": [ "http://hl7.org/fhir/us/qicore/StructureDefinition/qicore-location" ]
      },
      "identifier": [ {
        "use": "usual",
        "system": "http://exampleoflocation.com",
        "value": "B1-S.F2"
      } ],
      "name": "Medical Surgical East, first floor",
      "type": [ {
        "coding": [ {
          "system": "https://www.cdc.gov/nhsn/cdaportal/terminology/codesystem/hsloc.html",
          "code": "1028-0",
          "display": "Medical Cardiac Critical Care",
          "userSelected": true
        } ]
      } ]
    },
    "request": {
      "method": "PUT",
      "url": "Location/65798285-0ed5-4943-a12b-ced99f6e10c4"
    }
  }, {
    "fullUrl": "https://madie.cms.gov/MedicationRequest/deca40e4-0fa4-498a-bbe4-a406b8cfc8a6",
    "resource": {
      "resourceType": "MedicationRequest",
      "id": "deca40e4-0fa4-498a-bbe4-a406b8cfc8a6",
      "meta": {
        "profile": [ "http://hl7.org/fhir/us/qicore/StructureDefinition/qicore-medicationrequest" ]
      },
      "status": "completed",
      "intent": "order",
      "medicationCodeableConcept": {
        "coding": [ {
          "system": "http://www.nlm.nih.gov/research/umls/rxnorm",
          "version": "06052023",
          "code": "1007184"
        } ]
      },
      "subject": {
        "reference": "Patient/56c7677a-d509-474e-911a-7e8ebd446cdd"
      },
      "authoredOn": "2026-01-01T08:15:00.000Z",
      "requester": {
        "reference": "Practitioner/33d87640-6b2a-40b0-ab11-542478a88d5a"
      },
      "dosageInstruction": [ {
        "timing": {
          "repeat": {
            "boundsPeriod": {
              "start": "2025-01-01T08:15:00.000Z"
            }
          }
        }
      } ]
    },
    "request": {
      "method": "PUT",
      "url": "MedicationRequest/deca40e4-0fa4-498a-bbe4-a406b8cfc8a6"
    }
  }, {
    "fullUrl": "https://madie.cms.gov/Observation/fd215b2c-f877-4f45-a44b-f3f5ed6b2efe",
    "resource": {
      "resourceType": "Observation",
      "id": "fd215b2c-f877-4f45-a44b-f3f5ed6b2efe",
      "meta": {
        "profile": [ "http://hl7.org/fhir/us/qicore/StructureDefinition/qicore-observation-lab" ]
      },
      "status": "final",
      "category": [ {
        "coding": [ {
          "system": "http://terminology.hl7.org/CodeSystem/observation-category",
          "code": "laboratory",
          "display": "Laboratory"
        } ],
        "text": "Laboratory"
      } ],
      "code": {
        "coding": [ {
          "system": "http://loinc.org",
          "version": "2.72",
          "code": "2339-0",
          "display": "Glucose [Mass/volume] in Blood",
          "userSelected": true
        } ]
      },
      "subject": {
        "reference": "Patient/56c7677a-d509-474e-911a-7e8ebd446cdd"
      },
      "effectiveDateTime": "2026-01-01T08:10:00.000Z",
      "performer": [ {
        "reference": "Organization/Organization-1"
      } ],
      "dataAbsentReason": {
        "coding": [ {
          "system": "http://terminology.hl7.org/CodeSystem/data-absent-reason",
          "code": "not-asked",
          "display": "Not Asked"
        } ]
      }
    },
    "request": {
      "method": "PUT",
      "url": "Observation/fd215b2c-f877-4f45-a44b-f3f5ed6b2efe"
    }
  }, {
    "fullUrl": "https://madie.cms.gov/Coverage/80c531a2-6ee2-4353-89a2-a43408d5a4d5",
    "resource": {
      "resourceType": "Coverage",
      "id": "80c531a2-6ee2-4353-89a2-a43408d5a4d5",
      "meta": {
        "profile": [ "http://hl7.org/fhir/us/qicore/StructureDefinition/qicore-coverage" ]
      },
      "identifier": [ {
        "system": "http://benefitsinc.com/certificate",
        "value": "12345"
      } ],
      "status": "active",
      "type": {
        "coding": [ {
          "system": "https://nahdo.org/sopt",
          "version": "1.0.1",
          "code": "1",
          "display": "MEDICARE",
          "userSelected": true
        } ]
      },
      "subscriberId": "AB9876",
      "beneficiary": {
        "reference": "Patient/56c7677a-d509-474e-911a-7e8ebd446cdd"
      },
      "relationship": {
        "coding": [ {
          "system": "http://terminology.hl7.org/CodeSystem/subscriber-relationship",
          "code": "self"
        } ]
      },
      "payor": [ {
        "reference": "Organization/66d5d492-5f2c-4b1e-903a-206ef88a0a9f"
      } ]
    },
    "request": {
      "method": "PUT",
      "url": "Coverage/80c531a2-6ee2-4353-89a2-a43408d5a4d5"
    }
  }, {
    "fullUrl": "https://madie.cms.gov/Organization/66d5d492-5f2c-4b1e-903a-206ef88a0a9f",
    "resource": {
      "resourceType": "Organization",
      "id": "66d5d492-5f2c-4b1e-903a-206ef88a0a9f",
      "meta": {
        "profile": [ "http://hl7.org/fhir/us/qicore/StructureDefinition/qicore-organization" ]
      },
      "identifier": [ {
        "use": "temp",
        "system": "urn:oid:2.16.840.1.113883.4.4",
        "value": "21-3259825"
      } ],
      "active": true,
      "type": [ {
        "coding": [ {
          "system": "http://terminology.hl7.org/CodeSystem/organization-type",
          "code": "pay",
          "display": "Payer"
        } ]
      } ],
      "name": "Blue Cross Blue Shield of Texas",
      "telecom": [ {
        "system": "phone",
        "value": "(+1) 972-766-6900"
      } ],
      "address": [ {
        "use": "billing",
        "type": "postal",
        "line": [ "P.O. Box 660044" ],
        "city": "Dallas",
        "state": "TX",
        "postalCode": "75266-0044",
        "country": "USA"
      } ]
    },
    "request": {
      "method": "PUT",
      "url": "Organization/66d5d492-5f2c-4b1e-903a-206ef88a0a9f"
    }
  }, {
    "fullUrl": "https://madie.cms.gov/Practitioner/183ea02c-3ee5-4970-9c80-1f106efff870",
    "resource": {
      "resourceType": "Practitioner",
      "id": "183ea02c-3ee5-4970-9c80-1f106efff870",
      "meta": {
        "profile": [ "http://hl7.org/fhir/us/qicore/StructureDefinition/qicore-practitioner" ]
      },
      "identifier": [ {
        "system": "http://hl7.org/fhir/sid/us-npi",
        "value": "0723660813"
      } ],
      "name": [ {
        "family": "Evil",
        "prefix": [ "Dr" ]
      } ]
    },
    "request": {
      "method": "PUT",
      "url": "Practitioner/183ea02c-3ee5-4970-9c80-1f106efff870"
    }
  }, {
    "fullUrl": "https://madie.cms.gov/MeasureReport/0be66a3b-cb5a-49a4-b189-69883a61549c",
    "resource": {
      "resourceType": "MeasureReport",
      "id": "0be66a3b-cb5a-49a4-b189-69883a61549c",
      "meta": {
        "profile": [ "http://hl7.org/fhir/us/cqfmeasures/StructureDefinition/test-case-cqfm" ]
      },
      "contained": [ {
        "resourceType": "Parameters",
        "id": "48b7a7da-ede5-4124-b84c-9a06849fcf9b-parameters",
        "parameter": [ {
          "name": "subject",
          "valueString": "56c7677a-d509-474e-911a-7e8ebd446cdd"
        } ]
      } ],
      "extension": [ {
        "url": "http://hl7.org/fhir/StructureDefinition/cqf-inputParameters",
        "valueReference": {
          "reference": "#48b7a7da-ede5-4124-b84c-9a06849fcf9b-parameters"
        }
      }, {
        "url": "http://hl7.org/fhir/us/cqfmeasures/StructureDefinition/cqfm-testCaseDescription",
        "valueMarkdown": "Testing blood glucose attribute dataAbsentReason"
      } ],
      "modifierExtension": [ {
        "url": "http://hl7.org/fhir/us/cqfmeasures/StructureDefinition/cqfm-isTestCase",
        "valueBoolean": true
      } ],
      "status": "complete",
      "type": "individual",
      "measure": "https://madie.cms.gov/Measure/NHSNGlycemicControlHypoglycemiaInitialPopulation",
      "period": {
        "start": "2026-01-01",
        "end": "2026-12-31"
      },
      "group": [ {
        "id": "Group_1",
        "population": [ {
          "id": "InitialPopulation_1",
          "code": {
            "coding": [ {
              "system": "http://terminology.hl7.org/CodeSystem/measure-population",
              "code": "initial-population",
              "display": "Initial Population"
            } ]
          },
          "count": 1
        } ],
        "measureScore": {
          "value": 0.0
        }
      } ],
      "evaluatedResource": [ {
        "reference": "Patient/56c7677a-d509-474e-911a-7e8ebd446cdd"
      }, {
        "reference": "Encounter/d8093613-60ee-40b3-9989-dee67a30e685"
      }, {
        "reference": "Location/65798285-0ed5-4943-a12b-ced99f6e10c4"
      }, {
        "reference": "MedicationRequest/deca40e4-0fa4-498a-bbe4-a406b8cfc8a6"
      }, {
        "reference": "Observation/fd215b2c-f877-4f45-a44b-f3f5ed6b2efe"
      }, {
        "reference": "Coverage/80c531a2-6ee2-4353-89a2-a43408d5a4d5"
      }, {
        "reference": "Organization/66d5d492-5f2c-4b1e-903a-206ef88a0a9f"
      }, {
        "reference": "Practitioner/183ea02c-3ee5-4970-9c80-1f106efff870"
      } ]
    },
    "request": {
      "method": "PUT",
      "url": "MeasureReport/0be66a3b-cb5a-49a4-b189-69883a61549c"
    }
  } ]
}