{
  "resourceType": "Bundle",
  "id": "612e6f6d02c62a011f2f1cad",
  "type": "transaction",
  "entry": [ {
    "fullUrl": "https://madie.cms.gov/Patient/67df96df-45ff-4387-bc4d-04055a95483f",
    "resource": {
      "resourceType": "Patient",
      "id": "67df96df-45ff-4387-bc4d-04055a95483f",
      "meta": {
        "profile": [ "http://hl7.org/fhir/us/qicore/StructureDefinition/qicore-patient" ]
      },
      "text": {
        "status": "generated",
        "div": "<div xmlns=\"http://www.w3.org/1999/xhtml\"><div class=\"hapiHeaderText\">TestMultipleOccur1inDen1inNum <b>NUMERPASS </b></div><table class=\"hapiPropertyTable\"><tbody><tr><td>Identifier</td><td>9a2b10a8b5b2082e23f2748100ecbdeaeee7f4e84632ea8fa273e55b42847316</td></tr><tr><td>Date of birth</td><td><span>03 March 1974</span></td></tr></tbody></table></div>"
      },
      "extension": [ {
        "url": "http://hl7.org/fhir/us/core/StructureDefinition/us-core-race",
        "extension": [ {
          "url": "ombCategory",
          "valueCoding": {
            "system": "urn:oid:2.16.840.1.113883.6.238",
            "code": "1002-5",
            "display": "American Indian or Alaska Native",
            "userSelected": true
          }
        }, {
          "url": "text",
          "valueString": "American Indian or Alaska Native"
        } ]
      }, {
        "url": "http://hl7.org/fhir/us/core/StructureDefinition/us-core-ethnicity",
        "extension": [ {
          "url": "ombCategory",
          "valueCoding": {
            "system": "urn:oid:2.16.840.1.113883.6.238",
            "code": "2135-2",
            "display": "Hispanic or Latino",
            "userSelected": true
          }
        }, {
          "url": "text",
          "valueString": "Hispanic or Latino"
        } ]
      } ],
      "identifier": [ {
        "type": {
          "coding": [ {
            "system": "http://terminology.hl7.org/CodeSystem/v2-0203",
            "code": "MR"
          } ]
        },
        "system": "https://bonnie-fhir.healthit.gov/",
        "value": "612e6f6d02c62a011f2f1cad"
      } ],
      "active": true,
      "name": [ {
        "use": "usual",
        "family": "NUMERPass",
        "given": [ "TestMultipleOccur1inDen1inNum" ]
      } ],
      "gender": "female",
      "birthDate": "1975-03-03"
    },
    "request": {
      "method": "PUT",
      "url": "Patient/67df96df-45ff-4387-bc4d-04055a95483f"
    }
  }, {
    "fullUrl": "https://madie.cms.gov/Encounter/5f828248-d180-49dc-81d6-c42c95d5e3e7",
    "resource": {
      "resourceType": "Encounter",
      "id": "5f828248-d180-49dc-81d6-c42c95d5e3e7",
      "meta": {
        "profile": [ "http://hl7.org/fhir/us/qicore/StructureDefinition/qicore-encounter" ]
      },
      "status": "finished",
      "class": {
        "system": "http://terminology.hl7.org/CodeSystem/v3-ActCode",
        "code": "IMP",
        "display": "inpatient encounter"
      },
      "type": [ {
        "coding": [ {
          "system": "http://snomed.info/sct",
          "code": "183452005"
        } ]
      } ],
      "subject": {
        "reference": "Patient/67df96df-45ff-4387-bc4d-04055a95483f"
      },
      "period": {
        "start": "2026-03-22T08:00:00.000+00:00",
        "end": "2026-03-22T08:15:00.000+00:00"
      },
      "length": {
        "value": 0,
        "unit": "days"
      }
    },
    "request": {
      "method": "PUT",
      "url": "Encounter/5f828248-d180-49dc-81d6-c42c95d5e3e7"
    }
  }, {
    "fullUrl": "https://madie.cms.gov/Encounter/255b3a0d-464c-4a47-997a-02334485ba48",
    "resource": {
      "resourceType": "Encounter",
      "id": "255b3a0d-464c-4a47-997a-02334485ba48",
      "meta": {
        "profile": [ "http://hl7.org/fhir/us/qicore/StructureDefinition/qicore-encounter" ]
      },
      "status": "finished",
      "class": {
        "system": "http://terminology.hl7.org/CodeSystem/v3-ActCode",
        "code": "EMER",
        "display": "emergency"
      },
      "type": [ {
        "coding": [ {
          "system": "http://snomed.info/sct",
          "code": "4525004"
        } ]
      } ],
      "subject": {
        "reference": "Patient/67df96df-45ff-4387-bc4d-04055a95483f"
      },
      "period": {
        "start": "2026-12-06T02:00:00.000+00:00",
        "end": "2026-12-06T08:15:00.000+00:00"
      },
      "length": {
        "value": 0,
        "unit": "days"
      }
    },
    "request": {
      "method": "PUT",
      "url": "Encounter/255b3a0d-464c-4a47-997a-02334485ba48"
    }
  }, {
    "fullUrl": "https://madie.cms.gov/Encounter/07f4e574-b1c8-4d95-b0fa-ca2b3110b23f",
    "resource": {
      "resourceType": "Encounter",
      "id": "07f4e574-b1c8-4d95-b0fa-ca2b3110b23f",
      "meta": {
        "profile": [ "http://hl7.org/fhir/us/qicore/StructureDefinition/qicore-encounter" ]
      },
      "status": "finished",
      "class": {
        "system": "http://terminology.hl7.org/CodeSystem/v3-ActCode",
        "code": "IMP",
        "display": "inpatient encounter"
      },
      "type": [ {
        "coding": [ {
          "system": "http://snomed.info/sct",
          "code": "8715000"
        } ]
      } ],
      "subject": {
        "reference": "Patient/67df96df-45ff-4387-bc4d-04055a95483f"
      },
      "period": {
        "start": "2026-12-06T08:45:00.000+00:00",
        "end": "2026-12-30T08:15:00.000+00:00"
      },
      "length": {
        "value": 24,
        "unit": "days"
      },
      "location": [ {
        "location": {
          "reference": "Location/63d5660d-7152-43d9-be4e-6ab766fcd65a"
        },
        "period": {
          "start": "2026-12-06T09:00:00.000+00:00",
          "end": "2026-12-12T08:15:00.000+00:00"
        }
      } ]
    },
    "request": {
      "method": "PUT",
      "url": "Encounter/07f4e574-b1c8-4d95-b0fa-ca2b3110b23f"
    }
  }, {
    "fullUrl": "https://madie.cms.gov/Coverage/16d0ed23-cd42-4cb6-9545-8db381641aac",
    "resource": {
      "resourceType": "Coverage",
      "id": "16d0ed23-cd42-4cb6-9545-8db381641aac",
      "status": "active",
      "beneficiary": {
        "reference": "Patient/67df96df-45ff-4387-bc4d-04055a95483f"
      },
      "period": {
        "start": "1975-03-03T08:00:00.000+00:00"
      },
      "payor": [ {
        "reference": "Organization/b9ec63ae-b334-4032-9731-2a2312ce6c5a"
      } ]
    },
    "request": {
      "method": "PUT",
      "url": "Coverage/16d0ed23-cd42-4cb6-9545-8db381641aac"
    }
  }, {
    "fullUrl": "https://madie.cms.gov/MedicationAdministration/319bce7a-fe2d-49d7-b685-91f3a9a46408",
    "resource": {
      "resourceType": "MedicationAdministration",
      "id": "319bce7a-fe2d-49d7-b685-91f3a9a46408",
      "meta": {
        "profile": [ "http://hl7.org/fhir/us/qicore/StructureDefinition/qicore-medicationadministration" ]
      },
      "status": "completed",
      "medicationCodeableConcept": {
        "coding": [ {
          "system": "http://www.nlm.nih.gov/research/umls/rxnorm",
          "code": "308351"
        } ]
      },
      "subject": {
        "reference": "Patient/67df96df-45ff-4387-bc4d-04055a95483f"
      },
      "effectivePeriod": {
        "start": "2026-12-06T06:30:00.000+00:00"
      }
    },
    "request": {
      "method": "PUT",
      "url": "MedicationAdministration/319bce7a-fe2d-49d7-b685-91f3a9a46408"
    }
  }, {
    "fullUrl": "https://madie.cms.gov/Location/63d5660d-7152-43d9-be4e-6ab766fcd65a",
    "resource": {
      "resourceType": "Location",
      "id": "63d5660d-7152-43d9-be4e-6ab766fcd65a",
      "meta": {
        "profile": [ "http://hl7.org/fhir/us/qicore/StructureDefinition/qicore-location" ]
      },
      "identifier": [ {
        "use": "usual",
        "system": "http://exampleoflocation.com",
        "value": "B1-S.F2"
      } ],
      "name": "Medical Surgical East, first floor",
      "type": [ {
        "coding": [ {
          "system": "https://www.cdc.gov/nhsn/cdaportal/terminology/codesystem/hsloc.html",
          "code": "1025-6",
          "display": "Trauma Critical Care",
          "userSelected": true
        } ]
      } ]
    },
    "request": {
      "method": "PUT",
      "url": "Location/63d5660d-7152-43d9-be4e-6ab766fcd65a"
    }
  }, {
    "fullUrl": "https://madie.cms.gov/Organization/b9ec63ae-b334-4032-9731-2a2312ce6c5a",
    "resource": {
      "resourceType": "Organization",
      "id": "b9ec63ae-b334-4032-9731-2a2312ce6c5a",
      "meta": {
        "profile": [ "http://hl7.org/fhir/us/qicore/StructureDefinition/qicore-organization" ]
      },
      "identifier": [ {
        "use": "temp",
        "system": "urn:oid:2.16.840.1.113883.4.4",
        "value": "21-3259825"
      } ],
      "active": true,
      "type": [ {
        "coding": [ {
          "system": "http://terminology.hl7.org/CodeSystem/organization-type",
          "code": "pay",
          "display": "Payer"
        } ]
      } ],
      "name": "Blue Cross Blue Shield of Texas",
      "telecom": [ {
        "system": "phone",
        "value": "(+1) 972-766-6900"
      } ],
      "address": [ {
        "use": "billing",
        "type": "postal",
        "line": [ "P.O. Box 660044" ],
        "city": "Dallas",
        "state": "TX",
        "postalCode": "75266-0044",
        "country": "USA"
      } ]
    },
    "request": {
      "method": "PUT",
      "url": "Organization/b9ec63ae-b334-4032-9731-2a2312ce6c5a"
    }
  }, {
    "fullUrl": "https://madie.cms.gov/Practitioner/cd598a67-b920-46c4-8dbe-5872bb3ff65b",
    "resource": {
      "resourceType": "Practitioner",
      "id": "cd598a67-b920-46c4-8dbe-5872bb3ff65b",
      "identifier": [ {
        "system": "http://hl7.org/fhir/sid/us-npi",
        "value": "123456"
      } ],
      "name": [ {
        "family": "Evil",
        "prefix": [ "Dr" ]
      } ]
    },
    "request": {
      "method": "PUT",
      "url": "Practitioner/cd598a67-b920-46c4-8dbe-5872bb3ff65b"
    }
  }, {
    "fullUrl": "https://madie.cms.gov/MeasureReport/89e562d8-eace-4b71-8f92-79635846f63c",
    "resource": {
      "resourceType": "MeasureReport",
      "id": "89e562d8-eace-4b71-8f92-79635846f63c",
      "meta": {
        "profile": [ "http://hl7.org/fhir/us/cqfmeasures/StructureDefinition/test-case-cqfm" ]
      },
      "contained": [ {
        "resourceType": "Parameters",
        "id": "1df557c4-5d2a-48af-9ded-78bae52e72d4-parameters",
        "parameter": [ {
          "name": "subject",
          "valueString": "67df96df-45ff-4387-bc4d-04055a95483f"
        } ]
      } ],
      "extension": [ {
        "url": "http://hl7.org/fhir/StructureDefinition/cqf-inputParameters",
        "valueReference": {
          "reference": "#1df557c4-5d2a-48af-9ded-78bae52e72d4-parameters"
        }
      }, {
        "url": "http://hl7.org/fhir/us/cqfmeasures/StructureDefinition/cqfm-testCaseDescription",
        "valueMarkdown": " Patient has 2 encounters, first encounter has NO ICU, but second encounter  meets IPP, meets Denominator, medication administered:Thrombin during ED, ED endTime less than 1 hour before Start of ICU\n"
      } ],
      "modifierExtension": [ {
        "url": "http://hl7.org/fhir/us/cqfmeasures/StructureDefinition/cqfm-isTestCase",
        "valueBoolean": true
      } ],
      "status": "complete",
      "type": "individual",
      "measure": "https://madie.cms.gov/Measure/CMS190FHIRVTEProphylaxisICU",
      "period": {
        "start": "2026-01-01",
        "end": "2026-12-31"
      },
      "group": [ {
        "id": "Group_1",
        "population": [ {
          "id": "InitialPopulation_1",
          "code": {
            "coding": [ {
              "system": "http://terminology.hl7.org/CodeSystem/measure-population",
              "code": "initial-population",
              "display": "Initial Population"
            } ]
          },
          "count": 2
        }, {
          "id": "Denominator_1",
          "code": {
            "coding": [ {
              "system": "http://terminology.hl7.org/CodeSystem/measure-population",
              "code": "denominator",
              "display": "Denominator"
            } ]
          },
          "count": 1
        }, {
          "id": "DenominatorExclusion_1",
          "code": {
            "coding": [ {
              "system": "http://terminology.hl7.org/CodeSystem/measure-population",
              "code": "denominator-exclusion",
              "display": "Denominator Exclusion"
            } ]
          },
          "count": 0
        }, {
          "id": "Numerator_1",
          "code": {
            "coding": [ {
              "system": "http://terminology.hl7.org/CodeSystem/measure-population",
              "code": "numerator",
              "display": "Numerator"
            } ]
          },
          "count": 1
        }, {
          "id": "DenominatorException_1",
          "code": {
            "coding": [ {
              "system": "http://terminology.hl7.org/CodeSystem/measure-population",
              "code": "denominator-exception",
              "display": "Denominator Exception"
            } ]
          },
          "count": 0
        } ],
        "measureScore": {
          "value": 0.0
        }
      } ],
      "evaluatedResource": [ {
        "reference": "Patient/67df96df-45ff-4387-bc4d-04055a95483f"
      }, {
        "reference": "Encounter/5f828248-d180-49dc-81d6-c42c95d5e3e7"
      }, {
        "reference": "Encounter/255b3a0d-464c-4a47-997a-02334485ba48"
      }, {
        "reference": "Encounter/07f4e574-b1c8-4d95-b0fa-ca2b3110b23f"
      }, {
        "reference": "Coverage/16d0ed23-cd42-4cb6-9545-8db381641aac"
      }, {
        "reference": "MedicationAdministration/319bce7a-fe2d-49d7-b685-91f3a9a46408"
      }, {
        "reference": "Location/63d5660d-7152-43d9-be4e-6ab766fcd65a"
      }, {
        "reference": "Organization/b9ec63ae-b334-4032-9731-2a2312ce6c5a"
      }, {
        "reference": "Practitioner/cd598a67-b920-46c4-8dbe-5872bb3ff65b"
      } ]
    },
    "request": {
      "method": "PUT",
      "url": "MeasureReport/89e562d8-eace-4b71-8f92-79635846f63c"
    }
  } ]
}