{
  "resourceType": "Bundle",
  "id": "62fd4b660968f8012246afda",
  "type": "collection",
  "entry": [ {
    "fullUrl": "https://madie.cms.gov/Patient/8e1e9821-1176-4dd0-a361-1931cbc5029e",
    "resource": {
      "resourceType": "Patient",
      "id": "8e1e9821-1176-4dd0-a361-1931cbc5029e",
      "meta": {
        "profile": [ "http://hl7.org/fhir/us/qicore/StructureDefinition/qicore-patient" ]
      },
      "extension": [ {
        "url": "http://hl7.org/fhir/us/core/StructureDefinition/us-core-race",
        "extension": [ {
          "url": "ombCategory",
          "valueCoding": {
            "system": "urn:oid:2.16.840.1.113883.6.238",
            "code": "2106-3",
            "display": "White",
            "userSelected": true
          }
        }, {
          "url": "text",
          "valueString": "White"
        } ]
      }, {
        "url": "http://hl7.org/fhir/us/core/StructureDefinition/us-core-ethnicity",
        "extension": [ {
          "url": "ombCategory",
          "valueCoding": {
            "system": "urn:oid:2.16.840.1.113883.6.238",
            "code": "2186-5",
            "display": "Not Hispanic or Latino",
            "userSelected": true
          }
        }, {
          "url": "text",
          "valueString": "Not Hispanic or Latino"
        } ]
      } ],
      "identifier": [ {
        "type": {
          "coding": [ {
            "system": "http://terminology.hl7.org/CodeSystem/v2-0203",
            "code": "MR"
          } ]
        },
        "system": "https://bonnie-fhir.healthit.gov/",
        "value": "62fd4b660968f8012246afda"
      } ],
      "name": [ {
        "family": "DenomPass",
        "given": [ "ReferralDayEndRefPeriod" ]
      } ],
      "gender": "other",
      "birthDate": "2001-06-02"
    }
  }, {
    "fullUrl": "https://madie.cms.gov/ServiceRequest/dc6b5014-15c5-4f5d-9447-206c20fdf26a",
    "resource": {
      "resourceType": "ServiceRequest",
      "id": "dc6b5014-15c5-4f5d-9447-206c20fdf26a",
      "meta": {
        "profile": [ "http://hl7.org/fhir/us/qicore/StructureDefinition/qicore-servicerequest" ]
      },
      "status": "active",
      "intent": "order",
      "code": {
        "coding": [ {
          "system": "http://snomed.info/sct",
          "version": "http://snomed.info/sct/731000124108/version/20250301",
          "code": "103696004",
          "display": "Patient referral to specialist (procedure)",
          "userSelected": true
        } ]
      },
      "subject": {
        "reference": "Patient/8e1e9821-1176-4dd0-a361-1931cbc5029e"
      },
      "authoredOn": "2026-10-31T23:59:00.000+00:00"
    }
  }, {
    "fullUrl": "https://madie.cms.gov/Encounter/37b54d3a-ad6c-432e-abde-c1172cd07563",
    "resource": {
      "resourceType": "Encounter",
      "id": "37b54d3a-ad6c-432e-abde-c1172cd07563",
      "meta": {
        "profile": [ "http://hl7.org/fhir/us/qicore/StructureDefinition/qicore-encounter" ]
      },
      "status": "finished",
      "class": {
        "system": "http://terminology.hl7.org/CodeSystem/v3-ActCode",
        "code": "AMB",
        "display": "ambulatory"
      },
      "type": [ {
        "coding": [ {
          "system": "http://www.ama-assn.org/go/cpt",
          "version": "2021",
          "code": "99381",
          "display": "Initial comprehensive preventive medicine evaluation and management of an individual including an age and gender appropriate history, examination, counseling/anticipatory guidance/risk factor reduction interventions, and the ordering of laboratory/diagnostic procedures, new patient; infant (age younger than 1 year)",
          "userSelected": true
        } ]
      } ],
      "subject": {
        "reference": "Patient/8e1e9821-1176-4dd0-a361-1931cbc5029e"
      },
      "period": {
        "start": "2026-12-31T23:00:00.000+00:00",
        "end": "2026-12-31T23:59:00.000+00:00"
      }
    }
  }, {
    "fullUrl": "https://madie.cms.gov/Coverage/08c3640f-8703-4675-b898-5ed4218ed0bb",
    "resource": {
      "resourceType": "Coverage",
      "id": "08c3640f-8703-4675-b898-5ed4218ed0bb",
      "meta": {
        "profile": [ "http://hl7.org/fhir/us/qicore/StructureDefinition/qicore-coverage" ]
      },
      "status": "active",
      "subscriberId": "123456",
      "beneficiary": {
        "reference": "Patient/8e1e9821-1176-4dd0-a361-1931cbc5029e"
      },
      "relationship": {
        "coding": [ {
          "system": "http://terminology.hl7.org/CodeSystem/subscriber-relationship",
          "code": "self",
          "display": "Self"
        } ]
      },
      "payor": [ {
        "reference": "Organization/c43d9290-d848-4d38-a4e1-681be0b153f2"
      } ]
    }
  }, {
    "fullUrl": "https://madie.cms.gov/Organization/c43d9290-d848-4d38-a4e1-681be0b153f2",
    "resource": {
      "resourceType": "Organization",
      "id": "c43d9290-d848-4d38-a4e1-681be0b153f2",
      "meta": {
        "profile": [ "http://hl7.org/fhir/us/qicore/StructureDefinition/qicore-organization" ]
      },
      "identifier": [ {
        "use": "temp",
        "system": "urn:oid:2.16.840.1.113883.4.4",
        "value": "21-3259825"
      } ],
      "active": true,
      "type": [ {
        "coding": [ {
          "system": "http://terminology.hl7.org/CodeSystem/organization-type",
          "code": "pay",
          "display": "Payer"
        } ]
      } ],
      "name": "Blue Cross Blue Shield of Texas",
      "telecom": [ {
        "system": "phone",
        "value": "(+1) 972-766-6900"
      } ],
      "address": [ {
        "use": "billing",
        "type": "postal",
        "line": [ "P.O. Box 660044" ],
        "city": "Dallas",
        "state": "TX",
        "postalCode": "75266-0044",
        "country": "USA"
      } ]
    }
  }, {
    "fullUrl": "https://madie.cms.gov/Practitioner/9afb993d-d148-47f3-9bf4-88535cda6a2f",
    "resource": {
      "resourceType": "Practitioner",
      "id": "9afb993d-d148-47f3-9bf4-88535cda6a2f",
      "meta": {
        "profile": [ "http://hl7.org/fhir/us/qicore/StructureDefinition/qicore-practitioner" ]
      },
      "identifier": [ {
        "system": "http://hl7.org/fhir/sid/us-npi",
        "value": "1689411712"
      } ],
      "name": [ {
        "family": "Evil",
        "prefix": [ "Dr" ]
      } ]
    }
  }, {
    "fullUrl": "https://madie.cms.gov/MeasureReport/2e1f6224-316c-4c31-aa70-68f42206ea68",
    "resource": {
      "resourceType": "MeasureReport",
      "id": "2e1f6224-316c-4c31-aa70-68f42206ea68",
      "meta": {
        "profile": [ "http://hl7.org/fhir/us/cqfmeasures/StructureDefinition/test-case-cqfm" ]
      },
      "contained": [ {
        "resourceType": "Parameters",
        "id": "97f091eb-bd8c-4323-ba26-15840068dd14-parameters",
        "parameter": [ {
          "name": "subject",
          "valueString": "8e1e9821-1176-4dd0-a361-1931cbc5029e"
        } ]
      } ],
      "extension": [ {
        "url": "http://hl7.org/fhir/StructureDefinition/cqf-inputParameters",
        "valueReference": {
          "reference": "#97f091eb-bd8c-4323-ba26-15840068dd14-parameters"
        }
      }, {
        "url": "http://hl7.org/fhir/us/cqfmeasures/StructureDefinition/cqfm-testCaseDescription",
        "valueMarkdown": "Encounter on last day of MP status finished, Referral Status Active. Intent Order, Edge test of Referral Period 10/31 11:59 PM "
      } ],
      "modifierExtension": [ {
        "url": "http://hl7.org/fhir/us/cqfmeasures/StructureDefinition/cqfm-isTestCase",
        "valueBoolean": true
      } ],
      "status": "complete",
      "type": "individual",
      "measure": "https://madie.cms.gov/Measure/CMS50FHIRReceiptofSpecialistReport",
      "period": {
        "start": "2026-01-01",
        "end": "2026-12-31"
      },
      "group": [ {
        "id": "Group_1",
        "population": [ {
          "id": "InitialPopulation_1",
          "code": {
            "coding": [ {
              "system": "http://terminology.hl7.org/CodeSystem/measure-population",
              "code": "initial-population",
              "display": "Initial Population"
            } ]
          },
          "count": 1
        }, {
          "id": "Denominator_1",
          "code": {
            "coding": [ {
              "system": "http://terminology.hl7.org/CodeSystem/measure-population",
              "code": "denominator",
              "display": "Denominator"
            } ]
          },
          "count": 1
        }, {
          "id": "Numerator_1",
          "code": {
            "coding": [ {
              "system": "http://terminology.hl7.org/CodeSystem/measure-population",
              "code": "numerator",
              "display": "Numerator"
            } ]
          },
          "count": 0
        } ],
        "measureScore": {
          "value": 1.0
        }
      } ],
      "evaluatedResource": [ {
        "reference": "Patient/8e1e9821-1176-4dd0-a361-1931cbc5029e"
      }, {
        "reference": "ServiceRequest/dc6b5014-15c5-4f5d-9447-206c20fdf26a"
      }, {
        "reference": "Encounter/37b54d3a-ad6c-432e-abde-c1172cd07563"
      }, {
        "reference": "Coverage/08c3640f-8703-4675-b898-5ed4218ed0bb"
      }, {
        "reference": "Organization/c43d9290-d848-4d38-a4e1-681be0b153f2"
      }, {
        "reference": "Practitioner/9afb993d-d148-47f3-9bf4-88535cda6a2f"
      } ]
    }
  } ]
}