{
  "resourceType": "Bundle",
  "id": "62f663525efef5272905e70e",
  "type": "collection",
  "entry": [ {
    "fullUrl": "https://madie.cms.gov/Patient/4a1f1d8c-0de8-4819-a0a3-28f6caaf6265",
    "resource": {
      "resourceType": "Patient",
      "id": "4a1f1d8c-0de8-4819-a0a3-28f6caaf6265",
      "meta": {
        "profile": [ "http://hl7.org/fhir/us/qicore/StructureDefinition/qicore-patient" ]
      },
      "extension": [ {
        "url": "http://hl7.org/fhir/us/core/StructureDefinition/us-core-race",
        "extension": [ {
          "url": "ombCategory",
          "valueCoding": {
            "system": "urn:oid:2.16.840.1.113883.6.238",
            "code": "1002-5",
            "display": "American Indian or Alaska Native",
            "userSelected": true
          }
        }, {
          "url": "text",
          "valueString": "American Indian or Alaska Native"
        } ]
      }, {
        "url": "http://hl7.org/fhir/us/core/StructureDefinition/us-core-ethnicity",
        "extension": [ {
          "url": "ombCategory",
          "valueCoding": {
            "system": "urn:oid:2.16.840.1.113883.6.238",
            "code": "2135-2",
            "display": "Hispanic or Latino",
            "userSelected": true
          }
        }, {
          "url": "text",
          "valueString": "Hispanic or Latino"
        } ]
      }, {
        "url": "http://hl7.org/fhir/us/core/StructureDefinition/us-core-sex",
        "valueCode": "248153007"
      } ],
      "identifier": [ {
        "type": {
          "coding": [ {
            "system": "http://terminology.hl7.org/CodeSystem/v2-0203",
            "code": "MR"
          } ]
        },
        "system": "https://bonnie-fhir.healthit.gov/",
        "value": "62f663525efef5272905e70e"
      } ],
      "name": [ {
        "family": "DENOMPass",
        "given": [ "AdultPhysicalTherapyEvaluation" ]
      } ],
      "gender": "male",
      "birthDate": "2008-12-31"
    }
  }, {
    "fullUrl": "https://madie.cms.gov/Encounter/5d1c64df-d710-466e-9463-453f09216046",
    "resource": {
      "resourceType": "Encounter",
      "id": "5d1c64df-d710-466e-9463-453f09216046",
      "meta": {
        "profile": [ "http://hl7.org/fhir/us/qicore/StructureDefinition/qicore-encounter" ]
      },
      "status": "finished",
      "class": {
        "system": "http://terminology.hl7.org/CodeSystem/v3-ActCode",
        "code": "IMP",
        "display": "inpatient encounter"
      },
      "type": [ {
        "coding": [ {
          "system": "http://snomed.info/sct",
          "code": "183326003",
          "display": "Combined physical therapy (regime/therapy)",
          "userSelected": true
        } ]
      } ],
      "subject": {
        "reference": "Patient/4a1f1d8c-0de8-4819-a0a3-28f6caaf6265"
      },
      "period": {
        "start": "2026-08-12T08:00:00.000Z",
        "end": "2026-08-12T08:15:00.000Z"
      }
    }
  }, {
    "fullUrl": "https://madie.cms.gov/Coverage/7907c184-3777-4416-8425-29d143b71e13",
    "resource": {
      "resourceType": "Coverage",
      "id": "7907c184-3777-4416-8425-29d143b71e13",
      "meta": {
        "profile": [ "http://hl7.org/fhir/us/qicore/StructureDefinition/qicore-coverage" ]
      },
      "status": "active",
      "type": {
        "coding": [ {
          "system": "https://nahdo.org/sopt",
          "code": "2",
          "display": "MEDICAID",
          "userSelected": true
        } ]
      },
      "subscriberId": "123456789",
      "beneficiary": {
        "reference": "Patient/4a1f1d8c-0de8-4819-a0a3-28f6caaf6265"
      },
      "relationship": {
        "coding": [ {
          "system": "http://terminology.hl7.org/CodeSystem/subscriber-relationship",
          "code": "self",
          "display": "Self",
          "userSelected": true
        } ]
      },
      "period": {
        "start": "2021-08-12T08:00:00.000Z",
        "end": "2026-08-12T08:15:00.000Z"
      },
      "payor": [ {
        "reference": "Organization/ced9e566-b9c4-4c82-a9a2-5646e52285db"
      } ]
    }
  }, {
    "fullUrl": "https://madie.cms.gov/Organization/ced9e566-b9c4-4c82-a9a2-5646e52285db",
    "resource": {
      "resourceType": "Organization",
      "id": "ced9e566-b9c4-4c82-a9a2-5646e52285db",
      "meta": {
        "profile": [ "http://hl7.org/fhir/us/qicore/StructureDefinition/qicore-organization" ]
      },
      "identifier": [ {
        "use": "temp",
        "system": "urn:oid:2.16.840.1.113883.4.4",
        "value": "21-3259825"
      } ],
      "active": true,
      "type": [ {
        "coding": [ {
          "system": "http://terminology.hl7.org/CodeSystem/organization-type",
          "code": "pay",
          "display": "Payer"
        } ]
      } ],
      "name": "Blue Cross Blue Shield of Texas",
      "telecom": [ {
        "system": "phone",
        "value": "(+1) 972-766-6900"
      } ],
      "address": [ {
        "use": "billing",
        "type": "postal",
        "line": [ "P.O. Box 660044" ],
        "city": "Dallas",
        "state": "TX",
        "postalCode": "75266-0044",
        "country": "USA"
      } ]
    }
  }, {
    "fullUrl": "https://madie.cms.gov/Practitioner/64c76301-06a2-43cf-853e-c7242134ebf7",
    "resource": {
      "resourceType": "Practitioner",
      "id": "64c76301-06a2-43cf-853e-c7242134ebf7",
      "meta": {
        "profile": [ "http://hl7.org/fhir/us/qicore/StructureDefinition/qicore-practitioner" ]
      },
      "identifier": [ {
        "system": "http://hl7.org/fhir/sid/us-npi",
        "value": "1234567893"
      } ],
      "name": [ {
        "family": "Evil",
        "prefix": [ "Dr" ]
      } ]
    }
  }, {
    "fullUrl": "https://madie.cms.gov/MeasureReport/d247410b-3db9-4adb-b36b-f6965347c71f",
    "resource": {
      "resourceType": "MeasureReport",
      "id": "d247410b-3db9-4adb-b36b-f6965347c71f",
      "meta": {
        "profile": [ "http://hl7.org/fhir/us/cqfmeasures/StructureDefinition/test-case-cqfm" ]
      },
      "contained": [ {
        "resourceType": "Parameters",
        "id": "19a34adc-8c7c-42f4-a29e-a0bd6427191c-parameters",
        "parameter": [ {
          "name": "subject",
          "valueString": "4a1f1d8c-0de8-4819-a0a3-28f6caaf6265"
        } ]
      } ],
      "extension": [ {
        "url": "http://hl7.org/fhir/StructureDefinition/cqf-inputParameters",
        "valueReference": {
          "reference": "#19a34adc-8c7c-42f4-a29e-a0bd6427191c-parameters"
        }
      }, {
        "url": "http://hl7.org/fhir/us/cqfmeasures/StructureDefinition/cqfm-testCaseDescription",
        "valueMarkdown": "18 yo male with physical therapy evaluation"
      } ],
      "modifierExtension": [ {
        "url": "http://hl7.org/fhir/us/cqfmeasures/StructureDefinition/cqfm-isTestCase",
        "valueBoolean": true
      } ],
      "status": "complete",
      "type": "individual",
      "measure": "https://madie.cms.gov/Measure/CMS2FHIRPCSDepScreenAndFollowUp",
      "period": {
        "start": "2026-01-01",
        "end": "2026-12-31"
      },
      "group": [ {
        "id": "Group_1",
        "population": [ {
          "id": "InitialPopulation_1",
          "code": {
            "coding": [ {
              "system": "http://terminology.hl7.org/CodeSystem/measure-population",
              "code": "initial-population",
              "display": "Initial Population"
            } ]
          },
          "count": 1
        }, {
          "id": "Denominator_1",
          "code": {
            "coding": [ {
              "system": "http://terminology.hl7.org/CodeSystem/measure-population",
              "code": "denominator",
              "display": "Denominator"
            } ]
          },
          "count": 1
        }, {
          "id": "DenominatorExclusion_1",
          "code": {
            "coding": [ {
              "system": "http://terminology.hl7.org/CodeSystem/measure-population",
              "code": "denominator-exclusion",
              "display": "Denominator Exclusion"
            } ]
          },
          "count": 0
        }, {
          "id": "Numerator_1",
          "code": {
            "coding": [ {
              "system": "http://terminology.hl7.org/CodeSystem/measure-population",
              "code": "numerator",
              "display": "Numerator"
            } ]
          },
          "count": 0
        }, {
          "id": "DenominatorException_1",
          "code": {
            "coding": [ {
              "system": "http://terminology.hl7.org/CodeSystem/measure-population",
              "code": "denominator-exception",
              "display": "Denominator Exception"
            } ]
          },
          "count": 0
        } ],
        "measureScore": {
          "value": 1.0
        }
      } ],
      "evaluatedResource": [ {
        "reference": "Patient/4a1f1d8c-0de8-4819-a0a3-28f6caaf6265"
      }, {
        "reference": "Encounter/5d1c64df-d710-466e-9463-453f09216046"
      }, {
        "reference": "Coverage/7907c184-3777-4416-8425-29d143b71e13"
      }, {
        "reference": "Organization/ced9e566-b9c4-4c82-a9a2-5646e52285db"
      }, {
        "reference": "Practitioner/64c76301-06a2-43cf-853e-c7242134ebf7"
      } ]
    }
  } ]
}