{
  "resourceType": "Bundle",
  "id": "63487c2e0968f80122540173",
  "type": "transaction",
  "entry": [ {
    "fullUrl": "https://madie.cms.gov/Patient/8b0160c7-9fb9-47e0-8a7d-ac8afc5b3ea3",
    "resource": {
      "resourceType": "Patient",
      "id": "8b0160c7-9fb9-47e0-8a7d-ac8afc5b3ea3",
      "meta": {
        "profile": [ "http://hl7.org/fhir/us/qicore/StructureDefinition/qicore-patient" ]
      },
      "text": {
        "status": "generated",
        "div": "<div xmlns=\"http://www.w3.org/1999/xhtml\"><div class=\"hapiHeaderText\">AssessGARelDtTimeB4TimeOfDel <b>DENPASS </b></div><table class=\"hapiPropertyTable\"><tbody><tr><td>Identifier</td><td>399eb1d15b18a70b0a1fc126870ee45fba3a6862e3faa339c35b816b8fe113c4</td></tr><tr><td>Date of birth</td><td><span>14 February 1985</span></td></tr></tbody></table></div>"
      },
      "extension": [ {
        "url": "http://hl7.org/fhir/us/core/StructureDefinition/us-core-race",
        "extension": [ {
          "url": "ombCategory",
          "valueCoding": {
            "system": "urn:oid:2.16.840.1.113883.6.238",
            "code": "1002-5",
            "display": "American Indian or Alaska Native",
            "userSelected": true
          }
        }, {
          "url": "text",
          "valueString": "American Indian or Alaska Native"
        } ]
      }, {
        "url": "http://hl7.org/fhir/us/core/StructureDefinition/us-core-ethnicity",
        "extension": [ {
          "url": "ombCategory",
          "valueCoding": {
            "system": "urn:oid:2.16.840.1.113883.6.238",
            "code": "2135-2",
            "display": "Hispanic or Latino",
            "userSelected": true
          }
        }, {
          "url": "text",
          "valueString": "Hispanic or Latino"
        } ]
      } ],
      "identifier": [ {
        "type": {
          "coding": [ {
            "system": "http://terminology.hl7.org/CodeSystem/v2-0203",
            "code": "MR"
          } ]
        },
        "system": "https://bonnie-fhir.healthit.gov/",
        "value": "63487c2e0968f80122540173"
      } ],
      "active": true,
      "name": [ {
        "use": "usual",
        "family": "DENPass",
        "given": [ "AssessGARelDtTimeB4TimeOfDel" ]
      } ],
      "gender": "female",
      "birthDate": "1998-02-14"
    },
    "request": {
      "method": "PUT",
      "url": "Patient/8b0160c7-9fb9-47e0-8a7d-ac8afc5b3ea3"
    }
  }, {
    "fullUrl": "https://madie.cms.gov/Observation/7e8a43b6-efdd-4f08-8ed8-152e7c433b30",
    "resource": {
      "resourceType": "Observation",
      "id": "7e8a43b6-efdd-4f08-8ed8-152e7c433b30",
      "meta": {
        "profile": [ "http://hl7.org/fhir/us/qicore/StructureDefinition/qicore-simple-observation" ]
      },
      "status": "final",
      "category": [ {
        "coding": [ {
          "system": "http://terminology.hl7.org/CodeSystem/observation-category",
          "code": "exam",
          "display": "exam",
          "userSelected": true
        } ]
      } ],
      "code": {
        "coding": [ {
          "system": "http://loinc.org",
          "code": "11884-4"
        } ]
      },
      "subject": {
        "reference": "Patient/8b0160c7-9fb9-47e0-8a7d-ac8afc5b3ea3"
      },
      "effectiveDateTime": "2026-06-08T00:00:00.000+00:00",
      "valueQuantity": {
        "value": 37,
        "system": "http://unitsofmeasure.org",
        "code": "wk"
      }
    },
    "request": {
      "method": "PUT",
      "url": "Observation/7e8a43b6-efdd-4f08-8ed8-152e7c433b30"
    }
  }, {
    "fullUrl": "https://madie.cms.gov/Observation/897034d6-8519-4d0b-a822-8b7083930232",
    "resource": {
      "resourceType": "Observation",
      "id": "897034d6-8519-4d0b-a822-8b7083930232",
      "meta": {
        "profile": [ "http://hl7.org/fhir/us/qicore/StructureDefinition/qicore-simple-observation" ]
      },
      "status": "final",
      "category": [ {
        "coding": [ {
          "system": "http://terminology.hl7.org/CodeSystem/observation-category",
          "code": "exam",
          "display": "exam",
          "userSelected": true
        } ]
      } ],
      "code": {
        "coding": [ {
          "system": "http://loinc.org",
          "code": "11996-6"
        } ]
      },
      "subject": {
        "reference": "Patient/8b0160c7-9fb9-47e0-8a7d-ac8afc5b3ea3"
      },
      "effectiveDateTime": "2026-06-08T08:00:00.000+00:00",
      "valueInteger": 1
    },
    "request": {
      "method": "PUT",
      "url": "Observation/897034d6-8519-4d0b-a822-8b7083930232"
    }
  }, {
    "fullUrl": "https://madie.cms.gov/Observation/24f1bea2-0911-431a-a037-3e2668652c00",
    "resource": {
      "resourceType": "Observation",
      "id": "24f1bea2-0911-431a-a037-3e2668652c00",
      "meta": {
        "profile": [ "http://hl7.org/fhir/us/qicore/StructureDefinition/qicore-simple-observation" ]
      },
      "status": "final",
      "category": [ {
        "coding": [ {
          "system": "http://terminology.hl7.org/CodeSystem/observation-category",
          "code": "exam",
          "display": "exam",
          "userSelected": true
        } ]
      } ],
      "code": {
        "coding": [ {
          "system": "http://loinc.org",
          "code": "93857-1"
        } ]
      },
      "subject": {
        "reference": "Patient/8b0160c7-9fb9-47e0-8a7d-ac8afc5b3ea3"
      },
      "effectiveDateTime": "2026-06-08T09:15:00.000+00:00",
      "valueDateTime": "2026-06-08T09:15:00.000+00:00"
    },
    "request": {
      "method": "PUT",
      "url": "Observation/24f1bea2-0911-431a-a037-3e2668652c00"
    }
  }, {
    "fullUrl": "https://madie.cms.gov/Encounter/d24f0a77-3b95-4f12-9915-e94934af2b6c",
    "resource": {
      "resourceType": "Encounter",
      "id": "d24f0a77-3b95-4f12-9915-e94934af2b6c",
      "meta": {
        "profile": [ "http://hl7.org/fhir/us/qicore/StructureDefinition/qicore-encounter" ]
      },
      "status": "finished",
      "class": {
        "system": "http://terminology.hl7.org/CodeSystem/v3-ActCode",
        "code": "IMP",
        "display": "inpatient encounter"
      },
      "type": [ {
        "coding": [ {
          "system": "http://snomed.info/sct",
          "code": "183452005"
        } ]
      } ],
      "subject": {
        "reference": "Patient/8b0160c7-9fb9-47e0-8a7d-ac8afc5b3ea3"
      },
      "period": {
        "start": "2026-06-08T08:00:00.000+00:00",
        "end": "2026-06-10T08:15:00.000+00:00"
      },
      "length": {
        "value": 2,
        "unit": "days"
      },
      "reasonReference": [ {
        "reference": "Condition/281404a1-4e61-417d-aa2b-2c3aad98d390"
      } ]
    },
    "request": {
      "method": "PUT",
      "url": "Encounter/d24f0a77-3b95-4f12-9915-e94934af2b6c"
    }
  }, {
    "fullUrl": "https://madie.cms.gov/Procedure/782cfeee-3200-46bf-bf60-983cc95fec6a",
    "resource": {
      "resourceType": "Procedure",
      "id": "782cfeee-3200-46bf-bf60-983cc95fec6a",
      "meta": {
        "profile": [ "http://hl7.org/fhir/us/qicore/StructureDefinition/qicore-procedure" ]
      },
      "extension": [ {
        "url": "http://hl7.org/fhir/us/qicore/StructureDefinition/qicore-recorded",
        "valueDateTime": "2014-04-05T13:35:00.000+00:00"
      } ],
      "status": "completed",
      "code": {
        "coding": [ {
          "system": "http://www.cms.gov/Medicare/Coding/ICD10",
          "code": "10D07Z3"
        } ]
      },
      "subject": {
        "reference": "Patient/8b0160c7-9fb9-47e0-8a7d-ac8afc5b3ea3"
      },
      "performedPeriod": {
        "start": "2026-06-08T08:00:00.000+00:00",
        "end": "2026-06-08T09:15:00.000+00:00"
      }
    },
    "request": {
      "method": "PUT",
      "url": "Procedure/782cfeee-3200-46bf-bf60-983cc95fec6a"
    }
  }, {
    "fullUrl": "https://madie.cms.gov/Condition/281404a1-4e61-417d-aa2b-2c3aad98d390",
    "resource": {
      "resourceType": "Condition",
      "id": "281404a1-4e61-417d-aa2b-2c3aad98d390",
      "meta": {
        "profile": [ "http://hl7.org/fhir/us/qicore/StructureDefinition/qicore-condition-encounter-diagnosis" ]
      },
      "category": [ {
        "coding": [ {
          "system": "http://terminology.hl7.org/CodeSystem/condition-category",
          "code": "encounter-diagnosis",
          "display": "Encounter Diagnosis"
        } ]
      } ],
      "code": {
        "coding": [ {
          "system": "http://snomed.info/sct",
          "version": "2022-09",
          "code": "169826009",
          "display": "Single live birth from singleton pregnancy (finding)",
          "userSelected": true
        } ]
      },
      "subject": {
        "reference": "Patient/8b0160c7-9fb9-47e0-8a7d-ac8afc5b3ea3"
      },
      "encounter": {
        "reference": "Encounter/d24f0a77-3b95-4f12-9915-e94934af2b6c"
      },
      "recordedDate": "2026-10-19T08:00:00.000+00:00"
    },
    "request": {
      "method": "PUT",
      "url": "Condition/281404a1-4e61-417d-aa2b-2c3aad98d390"
    }
  }, {
    "fullUrl": "https://madie.cms.gov/Coverage/5b76e699-eb62-4ef0-a4b7-edcd9dbfe906",
    "resource": {
      "resourceType": "Coverage",
      "id": "5b76e699-eb62-4ef0-a4b7-edcd9dbfe906",
      "meta": {
        "profile": [ "http://hl7.org/fhir/us/qicore/StructureDefinition/qicore-coverage" ]
      },
      "status": "active",
      "subscriberId": "523435",
      "beneficiary": {
        "reference": "Patient/8b0160c7-9fb9-47e0-8a7d-ac8afc5b3ea3"
      },
      "relationship": {
        "coding": [ {
          "system": "http://terminology.hl7.org/CodeSystem/subscriber-relationship",
          "code": "self"
        } ]
      },
      "payor": [ {
        "reference": "Organization/333696b9-2172-424b-a83c-a89f02c3e9ac"
      } ]
    },
    "request": {
      "method": "PUT",
      "url": "Coverage/5b76e699-eb62-4ef0-a4b7-edcd9dbfe906"
    }
  }, {
    "fullUrl": "https://madie.cms.gov/Organization/333696b9-2172-424b-a83c-a89f02c3e9ac",
    "resource": {
      "resourceType": "Organization",
      "id": "333696b9-2172-424b-a83c-a89f02c3e9ac",
      "meta": {
        "profile": [ "http://hl7.org/fhir/us/qicore/StructureDefinition/qicore-organization" ]
      },
      "identifier": [ {
        "use": "temp",
        "system": "urn:oid:2.16.840.1.113883.4.4",
        "value": "21-3259825"
      } ],
      "active": true,
      "type": [ {
        "coding": [ {
          "system": "http://terminology.hl7.org/CodeSystem/organization-type",
          "code": "pay",
          "display": "Payer"
        } ]
      } ],
      "name": "Blue Cross Blue Shield of Texas",
      "telecom": [ {
        "system": "phone",
        "value": "(+1) 972-766-6900"
      } ],
      "address": [ {
        "use": "billing",
        "type": "postal",
        "line": [ "P.O. Box 660044" ],
        "city": "Dallas",
        "state": "TX",
        "postalCode": "75266-0044",
        "country": "USA"
      } ]
    },
    "request": {
      "method": "PUT",
      "url": "Organization/333696b9-2172-424b-a83c-a89f02c3e9ac"
    }
  }, {
    "fullUrl": "https://madie.cms.gov/Practitioner/dc7b3f2c-a16d-4d23-9224-a96ea0a82a57",
    "resource": {
      "resourceType": "Practitioner",
      "id": "dc7b3f2c-a16d-4d23-9224-a96ea0a82a57",
      "meta": {
        "profile": [ "http://hl7.org/fhir/us/qicore/StructureDefinition/qicore-practitioner" ]
      },
      "identifier": [ {
        "system": "http://hl7.org/fhir/sid/us-npi",
        "value": "1234567890"
      } ],
      "name": [ {
        "family": "Evil",
        "prefix": [ "Dr" ]
      } ]
    },
    "request": {
      "method": "PUT",
      "url": "Practitioner/dc7b3f2c-a16d-4d23-9224-a96ea0a82a57"
    }
  }, {
    "fullUrl": "https://madie.cms.gov/MeasureReport/faaac8b7-a5d8-469d-bd12-f6370c3995d8",
    "resource": {
      "resourceType": "MeasureReport",
      "id": "faaac8b7-a5d8-469d-bd12-f6370c3995d8",
      "meta": {
        "profile": [ "http://hl7.org/fhir/us/cqfmeasures/StructureDefinition/test-case-cqfm" ]
      },
      "contained": [ {
        "resourceType": "Parameters",
        "id": "637c3f66-d202-40fe-bb55-f1eb0b49bec7-parameters",
        "parameter": [ {
          "name": "subject",
          "valueString": "8b0160c7-9fb9-47e0-8a7d-ac8afc5b3ea3"
        } ]
      } ],
      "extension": [ {
        "url": "http://hl7.org/fhir/StructureDefinition/cqf-inputParameters",
        "valueReference": {
          "reference": "#637c3f66-d202-40fe-bb55-f1eb0b49bec7-parameters"
        }
      }, {
        "url": "http://hl7.org/fhir/us/cqfmeasures/StructureDefinition/cqfm-testCaseDescription",
        "valueMarkdown": "Passes: IP, Pt is 27 years of age,  encounter dx of delivery of singleton, gravida, EGA @ 38 weeks  AsseEGA37 (same day, time B4 ) TmDeliver.  Tests \"Gestation37PlusWeeks.authorDatetime 1 day or less on or before TimeOfDelivery.relevantDatetime\".\n"
      } ],
      "modifierExtension": [ {
        "url": "http://hl7.org/fhir/us/cqfmeasures/StructureDefinition/cqfm-isTestCase",
        "valueBoolean": true
      } ],
      "status": "complete",
      "type": "individual",
      "measure": "https://madie.cms.gov/Measure/CMS0334FHIRPCCesareanBirth",
      "period": {
        "start": "2026-01-01",
        "end": "2026-12-31"
      },
      "group": [ {
        "id": "Group_1",
        "population": [ {
          "id": "InitialPopulation_1",
          "code": {
            "coding": [ {
              "system": "http://terminology.hl7.org/CodeSystem/measure-population",
              "code": "initial-population",
              "display": "Initial Population"
            } ]
          },
          "count": 1
        }, {
          "id": "Denominator_1",
          "code": {
            "coding": [ {
              "system": "http://terminology.hl7.org/CodeSystem/measure-population",
              "code": "denominator",
              "display": "Denominator"
            } ]
          },
          "count": 1
        }, {
          "id": "DenominatorExclusion_1",
          "code": {
            "coding": [ {
              "system": "http://terminology.hl7.org/CodeSystem/measure-population",
              "code": "denominator-exclusion",
              "display": "Denominator Exclusion"
            } ]
          },
          "count": 0
        }, {
          "id": "Numerator_1",
          "code": {
            "coding": [ {
              "system": "http://terminology.hl7.org/CodeSystem/measure-population",
              "code": "numerator",
              "display": "Numerator"
            } ]
          },
          "count": 0
        } ],
        "measureScore": {
          "value": 0.0
        }
      } ],
      "evaluatedResource": [ {
        "reference": "Patient/8b0160c7-9fb9-47e0-8a7d-ac8afc5b3ea3"
      }, {
        "reference": "Observation/7e8a43b6-efdd-4f08-8ed8-152e7c433b30"
      }, {
        "reference": "Observation/897034d6-8519-4d0b-a822-8b7083930232"
      }, {
        "reference": "Observation/24f1bea2-0911-431a-a037-3e2668652c00"
      }, {
        "reference": "Encounter/d24f0a77-3b95-4f12-9915-e94934af2b6c"
      }, {
        "reference": "Procedure/782cfeee-3200-46bf-bf60-983cc95fec6a"
      }, {
        "reference": "Condition/281404a1-4e61-417d-aa2b-2c3aad98d390"
      }, {
        "reference": "Coverage/5b76e699-eb62-4ef0-a4b7-edcd9dbfe906"
      }, {
        "reference": "Organization/333696b9-2172-424b-a83c-a89f02c3e9ac"
      }, {
        "reference": "Practitioner/dc7b3f2c-a16d-4d23-9224-a96ea0a82a57"
      } ]
    },
    "request": {
      "method": "PUT",
      "url": "MeasureReport/faaac8b7-a5d8-469d-bd12-f6370c3995d8"
    }
  } ]
}