{
  "resourceType": "Bundle",
  "id": "62cdd64162b2323a168e975e",
  "type": "collection",
  "entry": [ {
    "fullUrl": "https://madie.cms.gov/Patient/831a0ba9-8b96-4414-901c-70add57d2cc4",
    "resource": {
      "resourceType": "Patient",
      "id": "831a0ba9-8b96-4414-901c-70add57d2cc4",
      "meta": {
        "profile": [ "http://hl7.org/fhir/us/qicore/StructureDefinition/qicore-patient" ]
      },
      "extension": [ {
        "url": "http://hl7.org/fhir/us/core/StructureDefinition/us-core-race",
        "extension": [ {
          "url": "ombCategory",
          "valueCoding": {
            "system": "urn:oid:2.16.840.1.113883.6.238",
            "code": "1002-5",
            "display": "American Indian or Alaska Native",
            "userSelected": true
          }
        }, {
          "url": "text",
          "valueString": "American Indian or Alaska Native"
        } ]
      }, {
        "url": "http://hl7.org/fhir/us/core/StructureDefinition/us-core-ethnicity",
        "extension": [ {
          "url": "ombCategory",
          "valueCoding": {
            "system": "urn:oid:2.16.840.1.113883.6.238",
            "code": "2135-2",
            "display": "Hispanic or Latino",
            "userSelected": true
          }
        }, {
          "url": "text",
          "valueString": "Hispanic or Latino"
        } ]
      } ],
      "identifier": [ {
        "type": {
          "coding": [ {
            "system": "http://terminology.hl7.org/CodeSystem/v2-0203",
            "code": "MR"
          } ]
        },
        "system": "https://bonnie-fhir.healthit.gov/",
        "value": "62cdd64162b2323a168e975e"
      } ],
      "name": [ {
        "family": "NUMERFail",
        "given": [ "SystolicNoDiastolic" ]
      } ],
      "gender": "male",
      "birthDate": "1976-12-31"
    }
  }, {
    "fullUrl": "https://madie.cms.gov/Encounter/ba82e331-69e1-4949-bfa2-a880b9beb723",
    "resource": {
      "resourceType": "Encounter",
      "id": "ba82e331-69e1-4949-bfa2-a880b9beb723",
      "meta": {
        "profile": [ "http://hl7.org/fhir/us/qicore/StructureDefinition/qicore-encounter" ]
      },
      "status": "finished",
      "class": {
        "system": "http://terminology.hl7.org/CodeSystem/v3-ActCode",
        "code": "AMB",
        "display": "ambulatory"
      },
      "type": [ {
        "coding": [ {
          "system": "http://snomed.info/sct",
          "version": "2022-03",
          "code": "103705002",
          "display": "Patient status observation (procedure)",
          "userSelected": true
        } ]
      } ],
      "subject": {
        "reference": "Patient/831a0ba9-8b96-4414-901c-70add57d2cc4"
      },
      "period": {
        "start": "2026-12-31T08:00:00.000Z",
        "end": "2026-12-31T08:45:00.000Z"
      }
    }
  }, {
    "fullUrl": "https://madie.cms.gov/Observation/29da193f-b9d7-4dc7-b4b4-a6bad3d87dde",
    "resource": {
      "resourceType": "Observation",
      "id": "29da193f-b9d7-4dc7-b4b4-a6bad3d87dde",
      "meta": {
        "profile": [ "http://hl7.org/fhir/us/qicore/StructureDefinition/qicore-simple-observation" ]
      },
      "status": "final",
      "category": [ {
        "coding": [ {
          "system": "http://terminology.hl7.org/CodeSystem/observation-category",
          "code": "vital-signs",
          "display": "Vital Signs"
        } ]
      } ],
      "code": {
        "coding": [ {
          "system": "http://loinc.org",
          "code": "8480-6",
          "display": "Systolic blood pressure"
        }, {
          "system": "http://loinc.org",
          "code": "85354-9",
          "display": "Blood pressure panel with all children optional"
        } ]
      },
      "subject": {
        "reference": "Patient/831a0ba9-8b96-4414-901c-70add57d2cc4"
      },
      "effectiveDateTime": "2026-12-31T08:05:00.000Z",
      "component": [ {
        "code": {
          "coding": [ {
            "system": "http://loinc.org",
            "code": "8480-6",
            "display": "Systolic blood pressure"
          } ]
        },
        "valueQuantity": {
          "value": 160,
          "unit": "mmHg",
          "system": "http://unitsofmeasure.org",
          "code": "mm[Hg]"
        }
      }, {
        "code": {
          "coding": [ {
            "system": "http://loinc.org",
            "code": "8462-4",
            "display": "Diastolic blood pressure"
          } ]
        },
        "valueQuantity": {
          "value": 80,
          "unit": "mmHg",
          "system": "http://unitsofmeasure.org",
          "code": "mm[Hg]"
        }
      } ]
    }
  }, {
    "fullUrl": "https://madie.cms.gov/ServiceRequest/1670d340-380c-4a6b-9f16-225d7b70001a",
    "resource": {
      "resourceType": "ServiceRequest",
      "id": "1670d340-380c-4a6b-9f16-225d7b70001a",
      "meta": {
        "profile": [ "http://hl7.org/fhir/us/qicore/StructureDefinition/qicore-servicerequest" ]
      },
      "status": "active",
      "intent": "order",
      "code": {
        "coding": [ {
          "system": "http://snomed.info/sct",
          "version": "2022-03",
          "code": "183617005",
          "display": "Follow-up 1 day (finding)",
          "userSelected": true
        } ]
      },
      "subject": {
        "reference": "Patient/831a0ba9-8b96-4414-901c-70add57d2cc4"
      },
      "authoredOn": "2026-12-31T08:30:00.000Z"
    }
  }, {
    "fullUrl": "https://madie.cms.gov/ServiceRequest/18da118d-9f4d-4df2-9581-badadfdce5f8",
    "resource": {
      "resourceType": "ServiceRequest",
      "id": "18da118d-9f4d-4df2-9581-badadfdce5f8",
      "meta": {
        "profile": [ "http://hl7.org/fhir/us/qicore/StructureDefinition/qicore-servicerequest" ]
      },
      "status": "active",
      "intent": "order",
      "code": {
        "coding": [ {
          "system": "http://snomed.info/sct",
          "version": "2022-03",
          "code": "103699006",
          "display": "Patient referral to dietitian (procedure)",
          "userSelected": true
        } ]
      },
      "subject": {
        "reference": "Patient/831a0ba9-8b96-4414-901c-70add57d2cc4"
      },
      "authoredOn": "2026-12-31T08:30:00.000Z"
    }
  }, {
    "fullUrl": "https://madie.cms.gov/Coverage/51c4e38d-246c-4f05-81e9-a27ba3819e85",
    "resource": {
      "resourceType": "Coverage",
      "id": "51c4e38d-246c-4f05-81e9-a27ba3819e85",
      "meta": {
        "profile": [ "http://hl7.org/fhir/us/qicore/StructureDefinition/qicore-coverage" ]
      },
      "status": "active",
      "subscriberId": "748320",
      "beneficiary": {
        "reference": "Patient/831a0ba9-8b96-4414-901c-70add57d2cc4"
      },
      "relationship": {
        "coding": [ {
          "system": "http://terminology.hl7.org/CodeSystem/subscriber-relationship",
          "code": "self",
          "display": "Self"
        } ]
      },
      "payor": [ {
        "reference": "Organization/f533e25f-9341-49e8-8b6c-6008ac19ecaf"
      } ]
    }
  }, {
    "fullUrl": "https://madie.cms.gov/Organization/f533e25f-9341-49e8-8b6c-6008ac19ecaf",
    "resource": {
      "resourceType": "Organization",
      "id": "f533e25f-9341-49e8-8b6c-6008ac19ecaf",
      "meta": {
        "profile": [ "http://hl7.org/fhir/us/qicore/StructureDefinition/qicore-organization" ]
      },
      "identifier": [ {
        "use": "temp",
        "system": "urn:oid:2.16.840.1.113883.4.4",
        "value": "21-3259825"
      } ],
      "active": true,
      "type": [ {
        "coding": [ {
          "system": "http://terminology.hl7.org/CodeSystem/organization-type",
          "code": "pay",
          "display": "Payer"
        } ]
      } ],
      "name": "Blue Cross Blue Shield of Texas",
      "telecom": [ {
        "system": "phone",
        "value": "(+1) 972-766-6900"
      } ],
      "address": [ {
        "use": "billing",
        "type": "postal",
        "line": [ "P.O. Box 660044" ],
        "city": "Dallas",
        "state": "TX",
        "postalCode": "75266-0044",
        "country": "USA"
      } ]
    }
  }, {
    "fullUrl": "https://madie.cms.gov/Practitioner/7afc89b7-12f2-44a4-a1e4-dbc71e077b75",
    "resource": {
      "resourceType": "Practitioner",
      "id": "7afc89b7-12f2-44a4-a1e4-dbc71e077b75",
      "meta": {
        "profile": [ "http://hl7.org/fhir/us/qicore/StructureDefinition/qicore-practitioner" ]
      },
      "identifier": [ {
        "system": "http://hl7.org/fhir/sid/us-npi",
        "value": "1003802901"
      } ],
      "name": [ {
        "family": "Evil",
        "prefix": [ "Dr" ]
      } ]
    }
  }, {
    "fullUrl": "https://madie.cms.gov/MeasureReport/cbfb5acb-e9a9-45dc-a25e-1cef58f32899",
    "resource": {
      "resourceType": "MeasureReport",
      "id": "cbfb5acb-e9a9-45dc-a25e-1cef58f32899",
      "meta": {
        "profile": [ "http://hl7.org/fhir/us/cqfmeasures/StructureDefinition/test-case-cqfm" ]
      },
      "contained": [ {
        "resourceType": "Parameters",
        "id": "6c1a6a50-fe61-4097-96de-dd04b2a726e7-parameters",
        "parameter": [ {
          "name": "subject",
          "valueString": "831a0ba9-8b96-4414-901c-70add57d2cc4"
        } ]
      } ],
      "extension": [ {
        "url": "http://hl7.org/fhir/StructureDefinition/cqf-inputParameters",
        "valueReference": {
          "reference": "#6c1a6a50-fe61-4097-96de-dd04b2a726e7-parameters"
        }
      }, {
        "url": "http://hl7.org/fhir/us/cqfmeasures/StructureDefinition/cqfm-testCaseDescription",
        "valueMarkdown": "Age 18+, encounter last day of MP, systolic 160 mm[Hg], but no diastolic documented. Follow up within 4 wks recommended and referred to dietician "
      } ],
      "modifierExtension": [ {
        "url": "http://hl7.org/fhir/us/cqfmeasures/StructureDefinition/cqfm-isTestCase",
        "valueBoolean": true
      } ],
      "status": "complete",
      "type": "individual",
      "measure": "https://madie.cms.gov/Measure/CMS22FHIRPCSBPScreeningFollowUp",
      "period": {
        "start": "2026-01-01",
        "end": "2026-12-31"
      },
      "group": [ {
        "id": "Group_1",
        "population": [ {
          "id": "InitialPopulation_1",
          "code": {
            "coding": [ {
              "system": "http://terminology.hl7.org/CodeSystem/measure-population",
              "code": "initial-population",
              "display": "Initial Population"
            } ]
          },
          "count": 1
        }, {
          "id": "Denominator_1",
          "code": {
            "coding": [ {
              "system": "http://terminology.hl7.org/CodeSystem/measure-population",
              "code": "denominator",
              "display": "Denominator"
            } ]
          },
          "count": 1
        }, {
          "id": "DenominatorExclusion_1",
          "code": {
            "coding": [ {
              "system": "http://terminology.hl7.org/CodeSystem/measure-population",
              "code": "denominator-exclusion",
              "display": "Denominator Exclusion"
            } ]
          },
          "count": 0
        }, {
          "id": "Numerator_1",
          "code": {
            "coding": [ {
              "system": "http://terminology.hl7.org/CodeSystem/measure-population",
              "code": "numerator",
              "display": "Numerator"
            } ]
          },
          "count": 0
        }, {
          "id": "DenominatorException_1",
          "code": {
            "coding": [ {
              "system": "http://terminology.hl7.org/CodeSystem/measure-population",
              "code": "denominator-exception",
              "display": "Denominator Exception"
            } ]
          },
          "count": 0
        } ],
        "measureScore": {
          "value": 0.0
        }
      } ],
      "evaluatedResource": [ {
        "reference": "Patient/831a0ba9-8b96-4414-901c-70add57d2cc4"
      }, {
        "reference": "Encounter/ba82e331-69e1-4949-bfa2-a880b9beb723"
      }, {
        "reference": "Observation/29da193f-b9d7-4dc7-b4b4-a6bad3d87dde"
      }, {
        "reference": "ServiceRequest/1670d340-380c-4a6b-9f16-225d7b70001a"
      }, {
        "reference": "ServiceRequest/18da118d-9f4d-4df2-9581-badadfdce5f8"
      }, {
        "reference": "Coverage/51c4e38d-246c-4f05-81e9-a27ba3819e85"
      }, {
        "reference": "Organization/f533e25f-9341-49e8-8b6c-6008ac19ecaf"
      }, {
        "reference": "Practitioner/7afc89b7-12f2-44a4-a1e4-dbc71e077b75"
      } ]
    }
  } ]
}