{
  "resourceType": "Bundle",
  "id": "DENEXPass-HospiceEncOverlapsMP",
  "type": "transaction",
  "entry": [ {
    "fullUrl": "https://madie.cms.gov/Patient/d986061c-de3e-4d5d-95e7-f5ec93c5665c",
    "resource": {
      "resourceType": "Patient",
      "id": "d986061c-de3e-4d5d-95e7-f5ec93c5665c",
      "meta": {
        "profile": [ "http://hl7.org/fhir/us/qicore/StructureDefinition/qicore-patient" ]
      },
      "extension": [ {
        "url": "http://hl7.org/fhir/us/core/StructureDefinition/us-core-race",
        "extension": [ {
          "url": "ombCategory",
          "valueCoding": {
            "system": "urn:oid:2.16.840.1.113883.6.238",
            "code": "2028-9",
            "display": "Asian"
          }
        }, {
          "url": "text",
          "valueString": "Asian"
        } ]
      }, {
        "url": "http://hl7.org/fhir/us/core/StructureDefinition/us-core-sex",
        "valueCode": "248152002"
      }, {
        "url": "http://hl7.org/fhir/us/core/StructureDefinition/us-core-ethnicity",
        "extension": [ {
          "url": "ombCategory",
          "valueCoding": {
            "system": "urn:oid:2.16.840.1.113883.6.238",
            "code": "2135-2",
            "display": "Hispanic or Latino"
          }
        }, {
          "url": "text",
          "valueString": "Hispanic or Latino"
        } ]
      } ],
      "identifier": [ {
        "system": "http://hospital.smarthealthit.org",
        "value": "999999995"
      } ],
      "name": [ {
        "family": "Bertha",
        "given": [ "Betty" ]
      } ],
      "gender": "female",
      "birthDate": "2002-12-31"
    },
    "request": {
      "method": "PUT",
      "url": "Patient/d986061c-de3e-4d5d-95e7-f5ec93c5665c"
    }
  }, {
    "fullUrl": "https://madie.cms.gov/Encounter/5a3d4b85-2ca8-4d09-8d30-102cc5edb6b3",
    "resource": {
      "resourceType": "Encounter",
      "id": "5a3d4b85-2ca8-4d09-8d30-102cc5edb6b3",
      "meta": {
        "profile": [ "http://hl7.org/fhir/us/qicore/StructureDefinition/qicore-encounter" ]
      },
      "status": "finished",
      "class": {
        "system": "http://terminology.hl7.org/CodeSystem/v3-ActCode",
        "code": "AMB",
        "display": "ambulatory"
      },
      "type": [ {
        "coding": [ {
          "system": "http://snomed.info/sct",
          "code": "185460008",
          "display": "Home visit request by patient (procedure)"
        } ]
      } ],
      "subject": {
        "reference": "Patient/d986061c-de3e-4d5d-95e7-f5ec93c5665c"
      },
      "period": {
        "start": "2026-01-01T00:00:00.000+00:00",
        "end": "2026-01-01T01:00:00.000+00:00"
      }
    },
    "request": {
      "method": "PUT",
      "url": "Encounter/5a3d4b85-2ca8-4d09-8d30-102cc5edb6b3"
    }
  }, {
    "fullUrl": "https://madie.cms.gov/Encounter/d8d8202c-3b07-4fc7-854c-79e95dfb76dd",
    "resource": {
      "resourceType": "Encounter",
      "id": "d8d8202c-3b07-4fc7-854c-79e95dfb76dd",
      "meta": {
        "profile": [ "http://hl7.org/fhir/us/qicore/StructureDefinition/qicore-encounter" ]
      },
      "status": "finished",
      "class": {
        "system": "http://terminology.hl7.org/CodeSystem/v3-ActCode",
        "code": "AMB",
        "display": "ambulatory"
      },
      "type": [ {
        "coding": [ {
          "system": "http://snomed.info/sct",
          "code": "183921001",
          "display": "Admission to hospice for respite (procedure)"
        } ]
      } ],
      "subject": {
        "reference": "Patient/d986061c-de3e-4d5d-95e7-f5ec93c5665c"
      },
      "period": {
        "start": "2025-12-31T23:59:59.000+00:00",
        "end": "2026-01-01T01:00:00.000+00:00"
      }
    },
    "request": {
      "method": "PUT",
      "url": "Encounter/d8d8202c-3b07-4fc7-854c-79e95dfb76dd"
    }
  }, {
    "fullUrl": "https://madie.cms.gov/MeasureReport/ddce5657-8d40-4d72-8109-f7c3e1ebd091",
    "resource": {
      "resourceType": "MeasureReport",
      "id": "ddce5657-8d40-4d72-8109-f7c3e1ebd091",
      "meta": {
        "profile": [ "http://hl7.org/fhir/us/cqfmeasures/StructureDefinition/test-case-cqfm" ]
      },
      "contained": [ {
        "resourceType": "Parameters",
        "id": "c3fc4f5f-99e6-40de-b6e7-617283121d0b-parameters",
        "parameter": [ {
          "name": "subject",
          "valueString": "d986061c-de3e-4d5d-95e7-f5ec93c5665c"
        } ]
      } ],
      "extension": [ {
        "url": "http://hl7.org/fhir/StructureDefinition/cqf-inputParameters",
        "valueReference": {
          "reference": "#c3fc4f5f-99e6-40de-b6e7-617283121d0b-parameters"
        }
      }, {
        "url": "http://hl7.org/fhir/us/cqfmeasures/StructureDefinition/cqfm-testCaseDescription",
        "valueMarkdown": "Hospice Encounter - For meeting 100% coverage"
      } ],
      "modifierExtension": [ {
        "url": "http://hl7.org/fhir/us/cqfmeasures/StructureDefinition/cqfm-isTestCase",
        "valueBoolean": true
      } ],
      "status": "complete",
      "type": "individual",
      "measure": "https://madie.cms.gov/Measure/CMS124FHIRCervicalCancerScreen",
      "period": {
        "start": "2026-01-01",
        "end": "2026-12-31"
      },
      "group": [ {
        "id": "Group_1",
        "population": [ {
          "id": "InitialPopulation_1",
          "code": {
            "coding": [ {
              "system": "http://terminology.hl7.org/CodeSystem/measure-population",
              "code": "initial-population",
              "display": "Initial Population"
            } ]
          },
          "count": 1
        }, {
          "id": "Denominator_1",
          "code": {
            "coding": [ {
              "system": "http://terminology.hl7.org/CodeSystem/measure-population",
              "code": "denominator",
              "display": "Denominator"
            } ]
          },
          "count": 1
        }, {
          "id": "DenominatorExclusion_1",
          "code": {
            "coding": [ {
              "system": "http://terminology.hl7.org/CodeSystem/measure-population",
              "code": "denominator-exclusion",
              "display": "Denominator Exclusion"
            } ]
          },
          "count": 1
        }, {
          "id": "Numerator_1",
          "code": {
            "coding": [ {
              "system": "http://terminology.hl7.org/CodeSystem/measure-population",
              "code": "numerator",
              "display": "Numerator"
            } ]
          },
          "count": 0
        } ],
        "measureScore": {
          "value": 1.0
        }
      } ],
      "evaluatedResource": [ {
        "reference": "Patient/d986061c-de3e-4d5d-95e7-f5ec93c5665c"
      }, {
        "reference": "Encounter/5a3d4b85-2ca8-4d09-8d30-102cc5edb6b3"
      }, {
        "reference": "Encounter/d8d8202c-3b07-4fc7-854c-79e95dfb76dd"
      } ]
    },
    "request": {
      "method": "PUT",
      "url": "MeasureReport/ddce5657-8d40-4d72-8109-f7c3e1ebd091"
    }
  } ]
}