{
  "resourceType": "Bundle",
  "id": "60f82c2f98086b570510e2cd",
  "type": "transaction",
  "entry": [ {
    "fullUrl": "https://madie.cms.gov/Patient/5a329008-fcc1-4168-ab9c-89cb5dd6ff32",
    "resource": {
      "resourceType": "Patient",
      "id": "5a329008-fcc1-4168-ab9c-89cb5dd6ff32",
      "meta": {
        "profile": [ "http://hl7.org/fhir/us/qicore/StructureDefinition/qicore-patient" ]
      },
      "text": {
        "status": "generated",
        "div": "<div xmlns=\"http://www.w3.org/1999/xhtml\"><div class=\"hapiHeaderText\">LCG2Enc1WithAntithrombic1WithtPA <b>NUMER&amp;DENECEPPASS </b></div><table class=\"hapiPropertyTable\"><tbody><tr><td>Date of birth</td><td><span>06 April 1980</span></td></tr></tbody></table></div>"
      },
      "extension": [ {
        "url": "http://hl7.org/fhir/us/core/StructureDefinition/us-core-race",
        "extension": [ {
          "url": "ombCategory",
          "valueCoding": {
            "system": "urn:oid:2.16.840.1.113883.6.238",
            "code": "2106-3",
            "display": "White",
            "userSelected": true
          }
        }, {
          "url": "text",
          "valueString": "White"
        } ]
      }, {
        "url": "http://hl7.org/fhir/us/core/StructureDefinition/us-core-ethnicity",
        "extension": [ {
          "url": "ombCategory",
          "valueCoding": {
            "system": "urn:oid:2.16.840.1.113883.6.238",
            "code": "2186-5",
            "display": "Not Hispanic or Latino",
            "userSelected": true
          }
        }, {
          "url": "text",
          "valueString": "Not Hispanic or Latino"
        } ]
      } ],
      "identifier": [ {
        "type": {
          "coding": [ {
            "system": "http://terminology.hl7.org/CodeSystem/v2-0203",
            "code": "MR"
          } ]
        },
        "system": "https://bonnie-fhir.healthit.gov/",
        "value": "60f82c2f98086b570510e2cd"
      } ],
      "active": true,
      "name": [ {
        "use": "usual",
        "family": "NUMER&DENECEPPass",
        "given": [ "LCG2Enc1WithAntithrombic1WithtPA" ]
      } ],
      "gender": "male",
      "birthDate": "1981-04-06"
    },
    "request": {
      "method": "PUT",
      "url": "Patient/5a329008-fcc1-4168-ab9c-89cb5dd6ff32"
    }
  }, {
    "fullUrl": "https://madie.cms.gov/Encounter/7ec74849-e2af-441b-b73c-c856300fab9a",
    "resource": {
      "resourceType": "Encounter",
      "id": "7ec74849-e2af-441b-b73c-c856300fab9a",
      "meta": {
        "profile": [ "http://hl7.org/fhir/us/qicore/StructureDefinition/qicore-encounter" ]
      },
      "status": "finished",
      "class": {
        "system": "http://terminology.hl7.org/CodeSystem/v3-ActCode",
        "code": "EMER",
        "display": "emergency"
      },
      "type": [ {
        "coding": [ {
          "system": "http://snomed.info/sct",
          "code": "4525004"
        } ]
      } ],
      "subject": {
        "reference": "Patient/5a329008-fcc1-4168-ab9c-89cb5dd6ff32"
      },
      "period": {
        "start": "2026-04-02T08:00:00.000+00:00",
        "end": "2026-04-02T22:15:00.000+00:00"
      }
    },
    "request": {
      "method": "PUT",
      "url": "Encounter/7ec74849-e2af-441b-b73c-c856300fab9a"
    }
  }, {
    "fullUrl": "https://madie.cms.gov/Encounter/6fac0d25-023f-41c3-87be-4f1c9c4afc70",
    "resource": {
      "resourceType": "Encounter",
      "id": "6fac0d25-023f-41c3-87be-4f1c9c4afc70",
      "meta": {
        "profile": [ "http://hl7.org/fhir/us/qicore/StructureDefinition/qicore-encounter" ]
      },
      "status": "finished",
      "class": {
        "system": "http://terminology.hl7.org/CodeSystem/v3-ActCode",
        "code": "IMP",
        "display": "inpatient encounter"
      },
      "type": [ {
        "coding": [ {
          "system": "http://snomed.info/sct",
          "code": "183452005"
        } ]
      } ],
      "subject": {
        "reference": "Patient/5a329008-fcc1-4168-ab9c-89cb5dd6ff32"
      },
      "period": {
        "start": "2026-04-02T23:00:00.000+00:00",
        "end": "2026-04-10T10:15:00.000+00:00"
      },
      "reasonReference": [ {
        "reference": "Condition/4040fabc-f471-49c1-b99a-b3cfef625978"
      } ]
    },
    "request": {
      "method": "PUT",
      "url": "Encounter/6fac0d25-023f-41c3-87be-4f1c9c4afc70"
    }
  }, {
    "fullUrl": "https://madie.cms.gov/claim/5ca62962b8484628b8de1ec5",
    "resource": {
      "resourceType": "Claim",
      "id": "5ca62962b8484628b8de1ec5",
      "meta": {
        "profile": [ "http://hl7.org/fhir/us/qicore/StructureDefinition/qicore-claim" ]
      },
      "status": "active",
      "type": {
        "coding": [ {
          "system": "http://terminology.hl7.org/CodeSystem/claim-type",
          "code": "institutional"
        } ]
      },
      "use": "claim",
      "patient": {
        "reference": "Patient/d170a0a8-b5ad-4303-b6df-e304dd5f92ad"
      },
      "created": "2026-12-01",
      "provider": {
        "reference": "Practitioner/828b71b9-a35a-4794-8364-9bc74ef28095"
      },
      "priority": {
        "coding": [ {
          "system": "http://terminology.hl7.org/CodeSystem/processpriority",
          "code": "normal"
        } ]
      },
      "diagnosis": [ {
        "sequence": 1,
        "diagnosisCodeableConcept": {
          "coding": [ {
            "system": "http://hl7.org/fhir/sid/icd-10-cm",
            "code": "I63.00"
          } ]
        },
        "type": [ {
          "coding": [ {
            "system": "http://terminology.hl7.org/CodeSystem/ex-diagnosistype",
            "code": "principal"
          } ]
        } ]
      } ],
      "insurance": [ {
        "sequence": 1,
        "focal": true,
        "coverage": {
          "reference": "Coverage/5fa041661c76ba66d9959367"
        }
      } ],
      "item": [ {
        "sequence": 1,
        "diagnosisSequence": [ 1 ],
        "productOrService": {
          "coding": [ {
            "system": "http://terminology.hl7.org/CodeSystem/ex-USCLS",
            "code": "99555"
          } ]
        },
        "encounter": [ {
          "reference": "Encounter/6fac0d25-023f-41c3-87be-4f1c9c4afc70"
        } ]
      } ]
    },
    "request": {
      "method": "PUT",
      "url": "Claim/5ca62962b8484628b8de1ec5"
    }
  }, {
    "fullUrl": "https://madie.cms.gov/Encounter/4dd28b74-33c2-427c-8256-d0ce8acaa601",
    "resource": {
      "resourceType": "Encounter",
      "id": "4dd28b74-33c2-427c-8256-d0ce8acaa601",
      "meta": {
        "profile": [ "http://hl7.org/fhir/us/qicore/StructureDefinition/qicore-encounter" ]
      },
      "status": "finished",
      "class": {
        "system": "http://terminology.hl7.org/CodeSystem/v3-ActCode",
        "code": "EMER",
        "display": "emergency"
      },
      "type": [ {
        "coding": [ {
          "system": "http://snomed.info/sct",
          "code": "4525004"
        } ]
      } ],
      "subject": {
        "reference": "Patient/5a329008-fcc1-4168-ab9c-89cb5dd6ff32"
      },
      "period": {
        "start": "2026-06-01T04:00:00.000+00:00",
        "end": "2026-06-01T08:15:00.000+00:00"
      }
    },
    "request": {
      "method": "PUT",
      "url": "Encounter/4dd28b74-33c2-427c-8256-d0ce8acaa601"
    }
  }, {
    "fullUrl": "https://madie.cms.gov/Encounter/229b1041-9235-436a-a904-c3841edad188",
    "resource": {
      "resourceType": "Encounter",
      "id": "229b1041-9235-436a-a904-c3841edad188",
      "meta": {
        "profile": [ "http://hl7.org/fhir/us/qicore/StructureDefinition/qicore-encounter" ]
      },
      "status": "finished",
      "class": {
        "system": "http://terminology.hl7.org/CodeSystem/v3-ActCode",
        "code": "OBSENC",
        "display": "observation encounter"
      },
      "type": [ {
        "coding": [ {
          "system": "http://snomed.info/sct",
          "code": "448851000124103"
        } ]
      } ],
      "subject": {
        "reference": "Patient/5a329008-fcc1-4168-ab9c-89cb5dd6ff32"
      },
      "period": {
        "start": "2026-06-01T09:00:00.000+00:00",
        "end": "2026-06-01T23:15:00.000+00:00"
      }
    },
    "request": {
      "method": "PUT",
      "url": "Encounter/229b1041-9235-436a-a904-c3841edad188"
    }
  }, {
    "fullUrl": "https://madie.cms.gov/Encounter/93ad3087-1bd1-48cd-8602-bfcd89240143",
    "resource": {
      "resourceType": "Encounter",
      "id": "93ad3087-1bd1-48cd-8602-bfcd89240143",
      "meta": {
        "profile": [ "http://hl7.org/fhir/us/qicore/StructureDefinition/qicore-encounter" ]
      },
      "status": "finished",
      "class": {
        "system": "http://terminology.hl7.org/CodeSystem/v3-ActCode",
        "code": "IMP",
        "display": "inpatient encounter"
      },
      "type": [ {
        "coding": [ {
          "system": "http://snomed.info/sct",
          "code": "183452005"
        } ]
      } ],
      "subject": {
        "reference": "Patient/5a329008-fcc1-4168-ab9c-89cb5dd6ff32"
      },
      "period": {
        "start": "2026-06-02T00:00:00.000+00:00",
        "end": "2026-06-15T11:15:00.000+00:00"
      },
      "reasonReference": [ {
        "reference": "Condition/9a2cc84d-babe-4b2f-835b-b0f42b490875"
      } ]
    },
    "request": {
      "method": "PUT",
      "url": "Encounter/93ad3087-1bd1-48cd-8602-bfcd89240143"
    }
  }, {
    "fullUrl": "https://madie.cms.gov/claim/5ca62962b8484628b8de1ec5",
    "resource": {
      "resourceType": "Claim",
      "id": "5ca62962b8484628b8de1ec5",
      "meta": {
        "profile": [ "http://hl7.org/fhir/us/qicore/StructureDefinition/qicore-claim" ]
      },
      "status": "active",
      "type": {
        "coding": [ {
          "system": "http://terminology.hl7.org/CodeSystem/claim-type",
          "code": "institutional"
        } ]
      },
      "use": "claim",
      "patient": {
        "reference": "Patient/d170a0a8-b5ad-4303-b6df-e304dd5f92ad"
      },
      "created": "2026-12-01",
      "provider": {
        "reference": "Practitioner/828b71b9-a35a-4794-8364-9bc74ef28095"
      },
      "priority": {
        "coding": [ {
          "system": "http://terminology.hl7.org/CodeSystem/processpriority",
          "code": "normal"
        } ]
      },
      "diagnosis": [ {
        "sequence": 1,
        "diagnosisCodeableConcept": {
          "coding": [ {
            "system": "http://hl7.org/fhir/sid/icd-10-cm",
            "code": "I63.00"
          } ]
        },
        "type": [ {
          "coding": [ {
            "system": "http://terminology.hl7.org/CodeSystem/ex-diagnosistype",
            "code": "principal"
          } ]
        } ]
      } ],
      "insurance": [ {
        "sequence": 1,
        "focal": true,
        "coverage": {
          "reference": "Coverage/5fa041661c76ba66d9959367"
        }
      } ],
      "item": [ {
        "sequence": 1,
        "diagnosisSequence": [ 1 ],
        "productOrService": {
          "coding": [ {
            "system": "http://terminology.hl7.org/CodeSystem/ex-USCLS",
            "code": "99555"
          } ]
        },
        "encounter": [ {
          "reference": "Encounter/93ad3087-1bd1-48cd-8602-bfcd89240143"
        } ]
      } ]
    },
    "request": {
      "method": "PUT",
      "url": "Claim/5ca62962b8484628b8de1ec5"
    }
  }, {
    "fullUrl": "https://madie.cms.gov/Observation/fa3f3625-e458-48c7-b4df-6f1bb284a9f2",
    "resource": {
      "resourceType": "Observation",
      "id": "fa3f3625-e458-48c7-b4df-6f1bb284a9f2",
      "meta": {
        "profile": [ "http://hl7.org/fhir/us/qicore/StructureDefinition/qicore-observation-lab" ]
      },
      "status": "final",
      "category": [ {
        "coding": [ {
          "system": "http://terminology.hl7.org/CodeSystem/observation-category",
          "code": "laboratory",
          "display": "Laboratory"
        } ]
      } ],
      "code": {
        "coding": [ {
          "system": "http://loinc.org",
          "code": "34714-6"
        } ]
      },
      "subject": {
        "reference": "Patient/5a329008-fcc1-4168-ab9c-89cb5dd6ff32"
      },
      "effectivePeriod": {
        "start": "2026-04-02T08:00:00.000+00:00",
        "end": "2026-04-02T22:15:00.000+00:00"
      },
      "issued": "2026-04-02T08:00:00.000+00:00",
      "valueInteger": 2
    },
    "request": {
      "method": "PUT",
      "url": "Observation/fa3f3625-e458-48c7-b4df-6f1bb284a9f2"
    }
  }, {
    "fullUrl": "https://madie.cms.gov/MedicationAdministration/431d0925-8de9-4aeb-9a98-9e9708d89e9e",
    "resource": {
      "resourceType": "MedicationAdministration",
      "id": "431d0925-8de9-4aeb-9a98-9e9708d89e9e",
      "meta": {
        "profile": [ "http://hl7.org/fhir/us/qicore/StructureDefinition/qicore-medicationadministration" ]
      },
      "extension": [ {
        "url": "http://hl7.org/fhir/us/qicore/StructureDefinition/qicore-recorded",
        "valueDateTime": "2026-04-02T23:00:00.000+00:00"
      } ],
      "status": "completed",
      "medicationCodeableConcept": {
        "coding": [ {
          "system": "http://www.nlm.nih.gov/research/umls/rxnorm",
          "code": "1037045"
        } ]
      },
      "subject": {
        "reference": "Patient/5a329008-fcc1-4168-ab9c-89cb5dd6ff32"
      },
      "effectivePeriod": {
        "start": "2026-04-02T23:00:00.000+00:00",
        "end": "2026-04-10T10:15:00.000+00:00"
      }
    },
    "request": {
      "method": "PUT",
      "url": "MedicationAdministration/431d0925-8de9-4aeb-9a98-9e9708d89e9e"
    }
  }, {
    "fullUrl": "https://madie.cms.gov/MedicationAdministration/d48cca8a-0968-496c-b092-9db29f191455",
    "resource": {
      "resourceType": "MedicationAdministration",
      "id": "d48cca8a-0968-496c-b092-9db29f191455",
      "meta": {
        "profile": [ "http://hl7.org/fhir/us/qicore/StructureDefinition/qicore-medicationadministration" ]
      },
      "extension": [ {
        "url": "http://hl7.org/fhir/us/qicore/StructureDefinition/qicore-recorded",
        "valueDateTime": "2026-06-01T09:00:00.000+00:00"
      } ],
      "status": "completed",
      "medicationCodeableConcept": {
        "coding": [ {
          "system": "http://www.nlm.nih.gov/research/umls/rxnorm",
          "code": "1804799"
        } ]
      },
      "subject": {
        "reference": "Patient/5a329008-fcc1-4168-ab9c-89cb5dd6ff32"
      },
      "effectivePeriod": {
        "start": "2026-06-01T09:00:00.000+00:00",
        "end": "2026-06-01T23:15:00.000+00:00"
      },
      "reasonCode": [ {
        "coding": [ {
          "system": "http://www.nlm.nih.gov/research/umls/rxnorm",
          "code": "1804799",
          "display": "alteplase 100 MG Injection"
        } ]
      } ]
    },
    "request": {
      "method": "PUT",
      "url": "MedicationAdministration/d48cca8a-0968-496c-b092-9db29f191455"
    }
  }, {
    "fullUrl": "https://madie.cms.gov/MedicationAdministration/864e46b6-c357-41da-9408-2f5e0f36489c",
    "resource": {
      "resourceType": "MedicationAdministration",
      "id": "864e46b6-c357-41da-9408-2f5e0f36489c",
      "meta": {
        "profile": [ "http://hl7.org/fhir/us/qicore/StructureDefinition/qicore-medicationadministration" ]
      },
      "extension": [ {
        "url": "http://hl7.org/fhir/us/qicore/StructureDefinition/qicore-recorded",
        "valueDateTime": "2026-06-02T00:15:00.000+00:00"
      } ],
      "status": "completed",
      "medicationCodeableConcept": {
        "coding": [ {
          "system": "http://www.nlm.nih.gov/research/umls/rxnorm",
          "code": "1037045"
        } ]
      },
      "subject": {
        "reference": "Patient/5a329008-fcc1-4168-ab9c-89cb5dd6ff32"
      },
      "effectivePeriod": {
        "start": "2026-06-02T00:15:00.000+00:00",
        "end": "2026-06-15T11:15:00.000+00:00"
      }
    },
    "request": {
      "method": "PUT",
      "url": "MedicationAdministration/864e46b6-c357-41da-9408-2f5e0f36489c"
    }
  }, {
    "fullUrl": "https://madie.cms.gov/MedicationRequest/5dae81f3-e0e9-4cd5-9ce2-4d7380ab98c3",
    "resource": {
      "resourceType": "MedicationRequest",
      "id": "5dae81f3-e0e9-4cd5-9ce2-4d7380ab98c3",
      "meta": {
        "profile": [ "http://hl7.org/fhir/us/qicore/StructureDefinition/qicore-medicationrequest" ]
      },
      "status": "completed",
      "intent": "order",
      "medicationCodeableConcept": {
        "coding": [ {
          "system": "http://www.nlm.nih.gov/research/umls/rxnorm",
          "code": "1037045"
        } ]
      },
      "subject": {
        "reference": "Patient/5a329008-fcc1-4168-ab9c-89cb5dd6ff32"
      },
      "authoredOn": "2026-04-02T08:00:00.000+00:00",
      "requester": {
        "reference": "Practitioner/example"
      },
      "dosageInstruction": [ {
        "timing": {
          "repeat": {
            "boundsPeriod": {
              "start": "2026-04-02T23:00:00.000+00:00",
              "end": "2026-04-10T10:15:00.000+00:00"
            }
          }
        }
      } ]
    },
    "request": {
      "method": "PUT",
      "url": "MedicationRequest/5dae81f3-e0e9-4cd5-9ce2-4d7380ab98c3"
    }
  }, {
    "fullUrl": "https://madie.cms.gov/MedicationRequest/c1441be7-f382-4c6d-b0ad-d7a95361af86",
    "resource": {
      "resourceType": "MedicationRequest",
      "id": "c1441be7-f382-4c6d-b0ad-d7a95361af86",
      "meta": {
        "profile": [ "http://hl7.org/fhir/us/qicore/StructureDefinition/qicore-medicationrequest" ]
      },
      "status": "completed",
      "intent": "order",
      "medicationCodeableConcept": {
        "coding": [ {
          "system": "http://www.nlm.nih.gov/research/umls/rxnorm",
          "code": "1037045"
        } ]
      },
      "subject": {
        "reference": "Patient/5a329008-fcc1-4168-ab9c-89cb5dd6ff32"
      },
      "authoredOn": "2026-06-02T09:00:00.000+00:00",
      "requester": {
        "reference": "Practitioner/example"
      },
      "dosageInstruction": [ {
        "timing": {
          "repeat": {
            "boundsPeriod": {
              "start": "2026-06-02T00:15:00.000+00:00",
              "end": "2026-06-15T11:15:00.000+00:00"
            }
          }
        }
      } ]
    },
    "request": {
      "method": "PUT",
      "url": "MedicationRequest/c1441be7-f382-4c6d-b0ad-d7a95361af86"
    }
  }, {
    "fullUrl": "https://madie.cms.gov/Condition/4040fabc-f471-49c1-b99a-b3cfef625978",
    "resource": {
      "resourceType": "Condition",
      "id": "4040fabc-f471-49c1-b99a-b3cfef625978",
      "meta": {
        "profile": [ "http://hl7.org/fhir/us/qicore/StructureDefinition/qicore-condition-problems-health-concerns" ]
      },
      "clinicalStatus": {
        "coding": [ {
          "system": "http://terminology.hl7.org/CodeSystem/condition-clinical",
          "code": "active"
        } ]
      },
      "verificationStatus": {
        "coding": [ {
          "system": "http://terminology.hl7.org/CodeSystem/condition-ver-status",
          "code": "confirmed"
        } ]
      },
      "category": [ {
        "coding": [ {
          "system": "http://terminology.hl7.org/CodeSystem/condition-category",
          "code": "encounter-diagnosis",
          "display": "Encounter Diagnosis"
        } ]
      } ],
      "code": {
        "coding": [ {
          "system": "http://snomed.info/sct",
          "version": "2020-09",
          "code": "111297002",
          "display": "Nonparalytic stroke (disorder)",
          "userSelected": true
        } ]
      },
      "subject": {
        "reference": "Patient/5a329008-fcc1-4168-ab9c-89cb5dd6ff32"
      },
      "recordedDate": "2026-08-16T08:00:00.000+00:00"
    },
    "request": {
      "method": "PUT",
      "url": "Condition/4040fabc-f471-49c1-b99a-b3cfef625978"
    }
  }, {
    "fullUrl": "https://madie.cms.gov/Condition/9a2cc84d-babe-4b2f-835b-b0f42b490875",
    "resource": {
      "resourceType": "Condition",
      "id": "9a2cc84d-babe-4b2f-835b-b0f42b490875",
      "meta": {
        "profile": [ "http://hl7.org/fhir/us/qicore/StructureDefinition/qicore-condition-problems-health-concerns" ]
      },
      "clinicalStatus": {
        "coding": [ {
          "system": "http://terminology.hl7.org/CodeSystem/condition-clinical",
          "code": "active"
        } ]
      },
      "verificationStatus": {
        "coding": [ {
          "system": "http://terminology.hl7.org/CodeSystem/condition-ver-status",
          "code": "confirmed"
        } ]
      },
      "category": [ {
        "coding": [ {
          "system": "http://terminology.hl7.org/CodeSystem/condition-category",
          "code": "encounter-diagnosis",
          "display": "Encounter Diagnosis"
        } ]
      } ],
      "code": {
        "coding": [ {
          "system": "http://snomed.info/sct",
          "version": "2020-09",
          "code": "111297002",
          "display": "Nonparalytic stroke (disorder)",
          "userSelected": true
        } ]
      },
      "subject": {
        "reference": "Patient/5a329008-fcc1-4168-ab9c-89cb5dd6ff32"
      },
      "recordedDate": "2026-08-16T08:00:00.000+00:00"
    },
    "request": {
      "method": "PUT",
      "url": "Condition/9a2cc84d-babe-4b2f-835b-b0f42b490875"
    }
  }, {
    "fullUrl": "https://madie.cms.gov/Coverage/25311724-c5ee-425e-a5e3-7ea7ca75b31f",
    "resource": {
      "resourceType": "Coverage",
      "id": "25311724-c5ee-425e-a5e3-7ea7ca75b31f",
      "meta": {
        "profile": [ "http://hl7.org/fhir/us/qicore/StructureDefinition/qicore-coverage" ]
      },
      "status": "active",
      "subscriberId": "523435",
      "beneficiary": {
        "reference": "Patient/5a329008-fcc1-4168-ab9c-89cb5dd6ff32"
      },
      "relationship": {
        "coding": [ {
          "system": "http://terminology.hl7.org/CodeSystem/subscriber-relationship",
          "code": "self"
        } ]
      },
      "payor": [ {
        "reference": "Organization/2930ff9f-5a06-457e-955c-6cb2e7ceb3fa"
      } ]
    },
    "request": {
      "method": "PUT",
      "url": "Coverage/25311724-c5ee-425e-a5e3-7ea7ca75b31f"
    }
  }, {
    "fullUrl": "https://madie.cms.gov/Organization/2930ff9f-5a06-457e-955c-6cb2e7ceb3fa",
    "resource": {
      "resourceType": "Organization",
      "id": "2930ff9f-5a06-457e-955c-6cb2e7ceb3fa",
      "meta": {
        "profile": [ "http://hl7.org/fhir/us/qicore/StructureDefinition/qicore-organization" ]
      },
      "identifier": [ {
        "use": "temp",
        "system": "urn:oid:2.16.840.1.113883.4.4",
        "value": "21-3259825"
      } ],
      "active": true,
      "type": [ {
        "coding": [ {
          "system": "http://terminology.hl7.org/CodeSystem/organization-type",
          "code": "pay",
          "display": "Payer"
        } ]
      } ],
      "name": "Blue Cross Blue Shield of Texas",
      "telecom": [ {
        "system": "phone",
        "value": "(+1) 972-766-6900"
      } ],
      "address": [ {
        "use": "billing",
        "type": "postal",
        "line": [ "P.O. Box 660044" ],
        "city": "Dallas",
        "state": "TX",
        "postalCode": "75266-0044",
        "country": "USA"
      } ]
    },
    "request": {
      "method": "PUT",
      "url": "Organization/2930ff9f-5a06-457e-955c-6cb2e7ceb3fa"
    }
  }, {
    "fullUrl": "https://madie.cms.gov/Practitioner/828b71b9-a35a-4794-8364-9bc74ef28095",
    "resource": {
      "resourceType": "Practitioner",
      "id": "828b71b9-a35a-4794-8364-9bc74ef28095",
      "meta": {
        "profile": [ "http://hl7.org/fhir/us/qicore/StructureDefinition/qicore-practitioner" ]
      },
      "identifier": [ {
        "system": "http://hl7.org/fhir/sid/us-npi",
        "value": "9999999896"
      } ],
      "name": [ {
        "family": "Evil",
        "prefix": [ "Dr" ]
      } ]
    },
    "request": {
      "method": "PUT",
      "url": "Practitioner/828b71b9-a35a-4794-8364-9bc74ef28095"
    }
  }, {
    "fullUrl": "https://madie.cms.gov/MeasureReport/dda268cb-4395-4776-acd8-0fee046d392a",
    "resource": {
      "resourceType": "MeasureReport",
      "id": "dda268cb-4395-4776-acd8-0fee046d392a",
      "meta": {
        "profile": [ "http://hl7.org/fhir/us/cqfmeasures/StructureDefinition/test-case-cqfm" ]
      },
      "contained": [ {
        "resourceType": "Parameters",
        "id": "fa804306-1197-43fe-a6c9-0314652745a9-parameters",
        "parameter": [ {
          "name": "subject",
          "valueString": "5a329008-fcc1-4168-ab9c-89cb5dd6ff32"
        } ]
      } ],
      "extension": [ {
        "url": "http://hl7.org/fhir/StructureDefinition/cqf-inputParameters",
        "valueReference": {
          "reference": "#fa804306-1197-43fe-a6c9-0314652745a9-parameters"
        }
      }, {
        "url": "http://hl7.org/fhir/us/cqfmeasures/StructureDefinition/cqfm-testCaseDescription",
        "valueMarkdown": "Testing multiple encounters, one with ED to Inpatient with antithrombotic, and one with Ed to Obs to Inpatient with tPA. \n"
      } ],
      "modifierExtension": [ {
        "url": "http://hl7.org/fhir/us/cqfmeasures/StructureDefinition/cqfm-isTestCase",
        "valueBoolean": true
      } ],
      "status": "complete",
      "type": "individual",
      "measure": "https://madie.cms.gov/Measure/CMS72FHIRSTKAntithromboticDay2",
      "period": {
        "start": "2026-01-01",
        "end": "2026-12-31"
      },
      "group": [ {
        "id": "Group_1",
        "population": [ {
          "id": "InitialPopulation_1",
          "code": {
            "coding": [ {
              "system": "http://terminology.hl7.org/CodeSystem/measure-population",
              "code": "initial-population",
              "display": "Initial Population"
            } ]
          },
          "count": 2
        }, {
          "id": "Denominator_1",
          "code": {
            "coding": [ {
              "system": "http://terminology.hl7.org/CodeSystem/measure-population",
              "code": "denominator",
              "display": "Denominator"
            } ]
          },
          "count": 2
        }, {
          "id": "DenominatorExclusion_1",
          "code": {
            "coding": [ {
              "system": "http://terminology.hl7.org/CodeSystem/measure-population",
              "code": "denominator-exclusion",
              "display": "Denominator Exclusion"
            } ]
          },
          "count": 1
        }, {
          "id": "Numerator_1",
          "code": {
            "coding": [ {
              "system": "http://terminology.hl7.org/CodeSystem/measure-population",
              "code": "numerator",
              "display": "Numerator"
            } ]
          },
          "count": 1
        }, {
          "id": "DenominatorException_1",
          "code": {
            "coding": [ {
              "system": "http://terminology.hl7.org/CodeSystem/measure-population",
              "code": "denominator-exception",
              "display": "Denominator Exception"
            } ]
          },
          "count": 0
        } ],
        "measureScore": {
          "value": 0.0
        }
      } ],
      "evaluatedResource": [ {
        "reference": "Patient/5a329008-fcc1-4168-ab9c-89cb5dd6ff32"
      }, {
        "reference": "Encounter/7ec74849-e2af-441b-b73c-c856300fab9a"
      }, {
        "reference": "Encounter/6fac0d25-023f-41c3-87be-4f1c9c4afc70"
      }, {
        "reference": "Claim/5ca62962b8484628b8de1ec5"
      }, {
        "reference": "Encounter/4dd28b74-33c2-427c-8256-d0ce8acaa601"
      }, {
        "reference": "Encounter/229b1041-9235-436a-a904-c3841edad188"
      }, {
        "reference": "Encounter/93ad3087-1bd1-48cd-8602-bfcd89240143"
      }, {
        "reference": "Claim/5ca62962b8484628b8de1ec5"
      }, {
        "reference": "Observation/fa3f3625-e458-48c7-b4df-6f1bb284a9f2"
      }, {
        "reference": "MedicationAdministration/431d0925-8de9-4aeb-9a98-9e9708d89e9e"
      }, {
        "reference": "MedicationAdministration/d48cca8a-0968-496c-b092-9db29f191455"
      }, {
        "reference": "MedicationAdministration/864e46b6-c357-41da-9408-2f5e0f36489c"
      }, {
        "reference": "MedicationRequest/5dae81f3-e0e9-4cd5-9ce2-4d7380ab98c3"
      }, {
        "reference": "MedicationRequest/c1441be7-f382-4c6d-b0ad-d7a95361af86"
      }, {
        "reference": "Condition/4040fabc-f471-49c1-b99a-b3cfef625978"
      }, {
        "reference": "Condition/9a2cc84d-babe-4b2f-835b-b0f42b490875"
      }, {
        "reference": "Coverage/25311724-c5ee-425e-a5e3-7ea7ca75b31f"
      }, {
        "reference": "Organization/2930ff9f-5a06-457e-955c-6cb2e7ceb3fa"
      }, {
        "reference": "Practitioner/828b71b9-a35a-4794-8364-9bc74ef28095"
      } ]
    },
    "request": {
      "method": "PUT",
      "url": "MeasureReport/dda268cb-4395-4776-acd8-0fee046d392a"
    }
  } ]
}