{
  "resourceType": "Bundle",
  "id": "657cbdc9b4f1f0343662347a",
  "type": "transaction",
  "entry": [ {
    "fullUrl": "https://madie.cms.gov/Patient/1e403fe4-88cd-4dbf-8942-e262ae91b2c4",
    "resource": {
      "resourceType": "Patient",
      "id": "1e403fe4-88cd-4dbf-8942-e262ae91b2c4",
      "meta": {
        "profile": [ "http://hl7.org/fhir/us/qicore/StructureDefinition/qicore-patient" ]
      },
      "extension": [ {
        "url": "http://hl7.org/fhir/us/core/StructureDefinition/us-core-race",
        "extension": [ {
          "url": "ombCategory",
          "valueCoding": {
            "system": "urn:oid:2.16.840.1.113883.6.238",
            "code": "2106-3",
            "display": "White",
            "userSelected": true
          }
        }, {
          "url": "text",
          "valueString": "White"
        } ]
      }, {
        "url": "http://hl7.org/fhir/us/core/StructureDefinition/us-core-ethnicity",
        "extension": [ {
          "url": "ombCategory",
          "valueCoding": {
            "system": "urn:oid:2.16.840.1.113883.6.238",
            "code": "2186-5",
            "display": "Not Hispanic or Latino",
            "userSelected": true
          }
        }, {
          "url": "text",
          "valueString": "Not Hispanic or Latino"
        } ]
      } ],
      "identifier": [ {
        "type": {
          "coding": [ {
            "system": "http://terminology.hl7.org/CodeSystem/v2-0203",
            "code": "MR"
          } ]
        },
        "system": "https://bonnie-fhir.healthit.gov/",
        "value": "657cbdc9b4f1f0343662347a"
      } ],
      "name": [ {
        "family": "IPOPPass",
        "given": [ "InptEncStatusInProgress" ]
      } ],
      "gender": "female",
      "birthDate": "2008-01-01"
    },
    "request": {
      "method": "PUT",
      "url": "Patient/1e403fe4-88cd-4dbf-8942-e262ae91b2c4"
    }
  }, {
    "fullUrl": "https://madie.cms.gov/Encounter/1659f92f-f7fa-470d-8d42-a790a8bad181",
    "resource": {
      "resourceType": "Encounter",
      "id": "1659f92f-f7fa-470d-8d42-a790a8bad181",
      "meta": {
        "profile": [ "http://hl7.org/fhir/us/qicore/StructureDefinition/qicore-encounter" ]
      },
      "status": "in-progress",
      "class": {
        "system": "http://terminology.hl7.org/CodeSystem/v3-ActCode",
        "code": "ACUTE",
        "display": "inpatient acute"
      },
      "type": [ {
        "coding": [ {
          "system": "http://snomed.info/sct",
          "version": "2024",
          "code": "32485007",
          "display": "Hospital admission (procedure)",
          "userSelected": true
        } ]
      } ],
      "subject": {
        "reference": "Patient/1e403fe4-88cd-4dbf-8942-e262ae91b2c4"
      },
      "period": {
        "start": "2026-01-01T08:00:00.000+00:00",
        "end": "2026-01-02T09:15:00.000+00:00"
      }
    },
    "request": {
      "method": "PUT",
      "url": "Encounter/1659f92f-f7fa-470d-8d42-a790a8bad181"
    }
  }, {
    "fullUrl": "https://madie.cms.gov/Location/0d1a62ed-58e5-416a-aed4-1cb93a4597fb",
    "resource": {
      "resourceType": "Location",
      "id": "0d1a62ed-58e5-416a-aed4-1cb93a4597fb",
      "meta": {
        "profile": [ "http://hl7.org/fhir/us/qicore/StructureDefinition/qicore-location" ]
      },
      "identifier": [ {
        "use": "usual",
        "system": "http://exampleoflocation.com",
        "value": "B1-S.F2"
      } ],
      "name": "Medical Surgical East, first floor",
      "type": [ {
        "coding": [ {
          "system": "https://www.cdc.gov/nhsn/cdaportal/terminology/codesystem/hsloc.html",
          "code": "1028-0",
          "display": "Medical Cardiac Critical Care",
          "userSelected": true
        } ]
      } ]
    },
    "request": {
      "method": "PUT",
      "url": "Location/0d1a62ed-58e5-416a-aed4-1cb93a4597fb"
    }
  }, {
    "fullUrl": "https://madie.cms.gov/MedicationRequest/db3d1f67-f2c7-4c30-a58a-33228e398317",
    "resource": {
      "resourceType": "MedicationRequest",
      "id": "db3d1f67-f2c7-4c30-a58a-33228e398317",
      "meta": {
        "profile": [ "http://hl7.org/fhir/us/qicore/StructureDefinition/qicore-medicationrequest" ]
      },
      "status": "completed",
      "intent": "order",
      "medicationCodeableConcept": {
        "coding": [ {
          "system": "http://www.nlm.nih.gov/research/umls/rxnorm",
          "version": "06052023",
          "code": "1007184"
        } ]
      },
      "subject": {
        "reference": "Patient/1e403fe4-88cd-4dbf-8942-e262ae91b2c4"
      },
      "authoredOn": "2026-01-01T08:15:00.000+00:00",
      "requester": {
        "reference": "Practitioner/33d87640-6b2a-40b0-ab11-542478a88d5a"
      },
      "dosageInstruction": [ {
        "timing": {
          "repeat": {
            "boundsPeriod": {
              "start": "2025-01-01T08:15:00.000+00:00"
            }
          }
        }
      } ]
    },
    "request": {
      "method": "PUT",
      "url": "MedicationRequest/db3d1f67-f2c7-4c30-a58a-33228e398317"
    }
  }, {
    "fullUrl": "https://madie.cms.gov/Coverage/b9d06ef8-62fd-4578-83cc-094776fcc23f",
    "resource": {
      "resourceType": "Coverage",
      "id": "b9d06ef8-62fd-4578-83cc-094776fcc23f",
      "meta": {
        "profile": [ "http://hl7.org/fhir/us/qicore/StructureDefinition/qicore-coverage" ]
      },
      "identifier": [ {
        "system": "http://benefitsinc.com/certificate",
        "value": "12345"
      } ],
      "status": "active",
      "type": {
        "coding": [ {
          "system": "https://nahdo.org/sopt",
          "version": "1.0.1",
          "code": "1",
          "display": "MEDICARE",
          "userSelected": true
        } ]
      },
      "subscriberId": "AB9876",
      "beneficiary": {
        "reference": "Patient/1e403fe4-88cd-4dbf-8942-e262ae91b2c4"
      },
      "relationship": {
        "coding": [ {
          "system": "http://terminology.hl7.org/CodeSystem/subscriber-relationship",
          "code": "self"
        } ]
      },
      "payor": [ {
        "reference": "Organization/c422be78-2dff-4227-b524-8a58e8e19a84"
      } ]
    },
    "request": {
      "method": "PUT",
      "url": "Coverage/b9d06ef8-62fd-4578-83cc-094776fcc23f"
    }
  }, {
    "fullUrl": "https://madie.cms.gov/Organization/c422be78-2dff-4227-b524-8a58e8e19a84",
    "resource": {
      "resourceType": "Organization",
      "id": "c422be78-2dff-4227-b524-8a58e8e19a84",
      "meta": {
        "profile": [ "http://hl7.org/fhir/us/qicore/StructureDefinition/qicore-organization" ]
      },
      "identifier": [ {
        "use": "temp",
        "system": "urn:oid:2.16.840.1.113883.4.4",
        "value": "21-3259825"
      } ],
      "active": true,
      "type": [ {
        "coding": [ {
          "system": "http://terminology.hl7.org/CodeSystem/organization-type",
          "code": "pay",
          "display": "Payer"
        } ]
      } ],
      "name": "Blue Cross Blue Shield of Texas",
      "telecom": [ {
        "system": "phone",
        "value": "(+1) 972-766-6900"
      } ],
      "address": [ {
        "use": "billing",
        "type": "postal",
        "line": [ "P.O. Box 660044" ],
        "city": "Dallas",
        "state": "TX",
        "postalCode": "75266-0044",
        "country": "USA"
      } ]
    },
    "request": {
      "method": "PUT",
      "url": "Organization/c422be78-2dff-4227-b524-8a58e8e19a84"
    }
  }, {
    "fullUrl": "https://madie.cms.gov/Practitioner/3d7cbb7f-6804-439a-9a4b-754b16257ab3",
    "resource": {
      "resourceType": "Practitioner",
      "id": "3d7cbb7f-6804-439a-9a4b-754b16257ab3",
      "meta": {
        "profile": [ "http://hl7.org/fhir/us/qicore/StructureDefinition/qicore-practitioner" ]
      },
      "identifier": [ {
        "system": "http://hl7.org/fhir/sid/us-npi",
        "value": "0723660813"
      } ],
      "name": [ {
        "family": "Evil",
        "prefix": [ "Dr" ]
      } ]
    },
    "request": {
      "method": "PUT",
      "url": "Practitioner/3d7cbb7f-6804-439a-9a4b-754b16257ab3"
    }
  }, {
    "fullUrl": "https://madie.cms.gov/MeasureReport/e3d22477-3753-41b0-a58b-95d4be4b592d",
    "resource": {
      "resourceType": "MeasureReport",
      "id": "e3d22477-3753-41b0-a58b-95d4be4b592d",
      "meta": {
        "profile": [ "http://hl7.org/fhir/us/cqfmeasures/StructureDefinition/test-case-cqfm" ]
      },
      "contained": [ {
        "resourceType": "Parameters",
        "id": "d65be150-7b77-4d5a-92b8-e0c65f1026cb-parameters",
        "parameter": [ {
          "name": "subject",
          "valueString": "1e403fe4-88cd-4dbf-8942-e262ae91b2c4"
        } ]
      } ],
      "extension": [ {
        "url": "http://hl7.org/fhir/StructureDefinition/cqf-inputParameters",
        "valueReference": {
          "reference": "#d65be150-7b77-4d5a-92b8-e0c65f1026cb-parameters"
        }
      }, {
        "url": "http://hl7.org/fhir/us/cqfmeasures/StructureDefinition/cqfm-testCaseDescription",
        "valueMarkdown": "Inpatient encounter with diabetic medication - status in progress"
      } ],
      "modifierExtension": [ {
        "url": "http://hl7.org/fhir/us/cqfmeasures/StructureDefinition/cqfm-isTestCase",
        "valueBoolean": true
      } ],
      "status": "complete",
      "type": "individual",
      "measure": "https://madie.cms.gov/Measure/NHSNGlycemicControlHypoglycemiaInitialPopulation",
      "period": {
        "start": "2026-01-01",
        "end": "2026-12-31"
      },
      "group": [ {
        "id": "Group_1",
        "population": [ {
          "id": "InitialPopulation_1",
          "code": {
            "coding": [ {
              "system": "http://terminology.hl7.org/CodeSystem/measure-population",
              "code": "initial-population",
              "display": "Initial Population"
            } ]
          },
          "count": 1
        } ],
        "measureScore": {
          "value": 0.0
        }
      } ],
      "evaluatedResource": [ {
        "reference": "Patient/1e403fe4-88cd-4dbf-8942-e262ae91b2c4"
      }, {
        "reference": "Encounter/1659f92f-f7fa-470d-8d42-a790a8bad181"
      }, {
        "reference": "Location/0d1a62ed-58e5-416a-aed4-1cb93a4597fb"
      }, {
        "reference": "MedicationRequest/db3d1f67-f2c7-4c30-a58a-33228e398317"
      }, {
        "reference": "Coverage/b9d06ef8-62fd-4578-83cc-094776fcc23f"
      }, {
        "reference": "Organization/c422be78-2dff-4227-b524-8a58e8e19a84"
      }, {
        "reference": "Practitioner/3d7cbb7f-6804-439a-9a4b-754b16257ab3"
      } ]
    },
    "request": {
      "method": "PUT",
      "url": "MeasureReport/e3d22477-3753-41b0-a58b-95d4be4b592d"
    }
  } ]
}