{
  "resourceType": "Bundle",
  "id": "649336534d994e7239aa25f2",
  "type": "collection",
  "entry": [ {
    "fullUrl": "https://madie.cms.gov/Patient/eae55f3d-0a15-4a21-9229-dfb11f8e3f9d",
    "resource": {
      "resourceType": "Patient",
      "id": "eae55f3d-0a15-4a21-9229-dfb11f8e3f9d",
      "meta": {
        "profile": [ "http://hl7.org/fhir/us/qicore/StructureDefinition/qicore-patient" ]
      },
      "extension": [ {
        "url": "http://hl7.org/fhir/us/core/StructureDefinition/us-core-race",
        "extension": [ {
          "url": "ombCategory",
          "valueCoding": {
            "system": "urn:oid:2.16.840.1.113883.6.238",
            "code": "2028-9",
            "display": "Asian",
            "userSelected": true
          }
        }, {
          "url": "text",
          "valueString": "Asian"
        } ]
      }, {
        "url": "http://hl7.org/fhir/us/core/StructureDefinition/us-core-ethnicity",
        "extension": [ {
          "url": "ombCategory",
          "valueCoding": {
            "system": "urn:oid:2.16.840.1.113883.6.238",
            "code": "2186-5",
            "display": "Not Hispanic or Latino",
            "userSelected": true
          }
        }, {
          "url": "text",
          "valueString": "Not Hispanic or Latino"
        } ]
      } ],
      "identifier": [ {
        "type": {
          "coding": [ {
            "system": "http://terminology.hl7.org/CodeSystem/v2-0203",
            "code": "MR"
          } ]
        },
        "system": "https://bonnie-fhir.healthit.gov/",
        "value": "649336534d994e7239aa25f2"
      } ],
      "name": [ {
        "family": "IPFail",
        "given": [ "EncOn240DayEdgeofMP" ]
      } ],
      "gender": "female",
      "birthDate": "1991-02-09"
    }
  }, {
    "fullUrl": "https://madie.cms.gov/Condition/4b6adfd2-5c2c-47d2-a73b-13cf0bd4acc1",
    "resource": {
      "resourceType": "Condition",
      "id": "4b6adfd2-5c2c-47d2-a73b-13cf0bd4acc1",
      "meta": {
        "profile": [ "http://hl7.org/fhir/us/qicore/StructureDefinition/qicore-condition-problems-health-concerns" ]
      },
      "clinicalStatus": {
        "coding": [ {
          "system": "http://terminology.hl7.org/CodeSystem/condition-clinical",
          "code": "active",
          "display": "active",
          "userSelected": true
        } ]
      },
      "category": [ {
        "coding": [ {
          "system": "http://terminology.hl7.org/CodeSystem/condition-category",
          "code": "problem-list-item",
          "display": "Problem List Item"
        } ]
      } ],
      "code": {
        "coding": [ {
          "system": "http://hl7.org/fhir/sid/icd-9-cm",
          "version": "2013",
          "code": "042",
          "display": "Human immunodeficiency virus [HIV] disease",
          "userSelected": true
        }, {
          "system": "http://snomed.info/sct",
          "version": "http://snomed.info/sct/731000124108/version/20250301",
          "code": "165816005",
          "userSelected": true
        } ]
      },
      "subject": {
        "reference": "Patient/eae55f3d-0a15-4a21-9229-dfb11f8e3f9d"
      },
      "onsetDateTime": "2020-12-02T12:00:00.000+00:00",
      "recordedDate": "2026-02-01T11:00:00.000+00:00"
    }
  }, {
    "fullUrl": "https://madie.cms.gov/Encounter/ef001af2-0e29-4f84-bfff-d293fba3b5b5",
    "resource": {
      "resourceType": "Encounter",
      "id": "ef001af2-0e29-4f84-bfff-d293fba3b5b5",
      "meta": {
        "profile": [ "http://hl7.org/fhir/us/qicore/StructureDefinition/qicore-encounter" ]
      },
      "status": "finished",
      "class": {
        "system": "http://terminology.hl7.org/CodeSystem/v3-ActCode",
        "code": "AMB",
        "display": "ambulatory"
      },
      "type": [ {
        "coding": [ {
          "system": "http://www.ama-assn.org/go/cpt",
          "code": "99429",
          "userSelected": true
        } ]
      } ],
      "subject": {
        "reference": "Patient/eae55f3d-0a15-4a21-9229-dfb11f8e3f9d"
      },
      "period": {
        "start": "2026-08-30T18:00:00.000+00:00",
        "end": "2026-08-30T18:55:00.000+00:00"
      }
    }
  }, {
    "fullUrl": "https://madie.cms.gov/Coverage/81452e43-d149-4344-b941-e83f7f34a0ed",
    "resource": {
      "resourceType": "Coverage",
      "id": "81452e43-d149-4344-b941-e83f7f34a0ed",
      "meta": {
        "profile": [ "http://hl7.org/fhir/us/qicore/StructureDefinition/qicore-coverage" ]
      },
      "status": "active",
      "subscriberId": "123456",
      "beneficiary": {
        "reference": "Patient/eae55f3d-0a15-4a21-9229-dfb11f8e3f9d"
      },
      "relationship": {
        "coding": [ {
          "system": "http://terminology.hl7.org/CodeSystem/subscriber-relationship",
          "code": "self",
          "display": "Self"
        } ]
      },
      "payor": [ {
        "reference": "Organization/2d94051b-3aac-464b-aa4c-9e4b3b1a164a"
      } ]
    }
  }, {
    "fullUrl": "https://madie.cms.gov/Organization/2d94051b-3aac-464b-aa4c-9e4b3b1a164a",
    "resource": {
      "resourceType": "Organization",
      "id": "2d94051b-3aac-464b-aa4c-9e4b3b1a164a",
      "meta": {
        "profile": [ "http://hl7.org/fhir/us/qicore/StructureDefinition/qicore-organization" ]
      },
      "identifier": [ {
        "use": "temp",
        "system": "urn:oid:2.16.840.1.113883.4.4",
        "value": "21-3259825"
      } ],
      "active": true,
      "type": [ {
        "coding": [ {
          "system": "http://terminology.hl7.org/CodeSystem/organization-type",
          "code": "pay",
          "display": "Payer"
        } ]
      } ],
      "name": "Blue Cross Blue Shield of Texas",
      "telecom": [ {
        "system": "phone",
        "value": "(+1) 972-766-6900"
      } ],
      "address": [ {
        "use": "billing",
        "type": "postal",
        "line": [ "P.O. Box 660044" ],
        "city": "Dallas",
        "state": "TX",
        "postalCode": "75266-0044",
        "country": "USA"
      } ]
    }
  }, {
    "fullUrl": "https://madie.cms.gov/Practitioner/d1e73f11-cc55-4587-b36d-ee6b8c01f270",
    "resource": {
      "resourceType": "Practitioner",
      "id": "d1e73f11-cc55-4587-b36d-ee6b8c01f270",
      "meta": {
        "profile": [ "http://hl7.org/fhir/us/qicore/StructureDefinition/qicore-practitioner" ]
      },
      "identifier": [ {
        "system": "http://hl7.org/fhir/sid/us-npi",
        "value": "1689411712"
      } ],
      "name": [ {
        "family": "Evil",
        "prefix": [ "Dr" ]
      } ]
    }
  }, {
    "fullUrl": "https://madie.cms.gov/MeasureReport/5b3b4339-642f-42a6-b86a-0ec0254c6ff0",
    "resource": {
      "resourceType": "MeasureReport",
      "id": "5b3b4339-642f-42a6-b86a-0ec0254c6ff0",
      "meta": {
        "profile": [ "http://hl7.org/fhir/us/cqfmeasures/StructureDefinition/test-case-cqfm" ]
      },
      "contained": [ {
        "resourceType": "Parameters",
        "id": "31ed6cc2-4a99-46fa-a8cb-0fa59f1d1ff1-parameters",
        "parameter": [ {
          "name": "subject",
          "valueString": "eae55f3d-0a15-4a21-9229-dfb11f8e3f9d"
        } ]
      } ],
      "extension": [ {
        "url": "http://hl7.org/fhir/StructureDefinition/cqf-inputParameters",
        "valueReference": {
          "reference": "#31ed6cc2-4a99-46fa-a8cb-0fa59f1d1ff1-parameters"
        }
      }, {
        "url": "http://hl7.org/fhir/us/cqfmeasures/StructureDefinition/cqfm-testCaseDescription",
        "valueMarkdown": "HIV diagnosis made during first 90 days of MP with a qualifying encounter on outside 240 day edge during MP"
      } ],
      "modifierExtension": [ {
        "url": "http://hl7.org/fhir/us/cqfmeasures/StructureDefinition/cqfm-isTestCase",
        "valueBoolean": true
      } ],
      "status": "complete",
      "type": "individual",
      "measure": "https://madie.cms.gov/Measure/CMS314FHIRHIVViralSuppression",
      "period": {
        "start": "2026-01-01",
        "end": "2026-12-31"
      },
      "group": [ {
        "id": "Group_1",
        "population": [ {
          "id": "InitialPopulation_1",
          "code": {
            "coding": [ {
              "system": "http://terminology.hl7.org/CodeSystem/measure-population",
              "code": "initial-population",
              "display": "Initial Population"
            } ]
          },
          "count": 0
        }, {
          "id": "Denominator_1",
          "code": {
            "coding": [ {
              "system": "http://terminology.hl7.org/CodeSystem/measure-population",
              "code": "denominator",
              "display": "Denominator"
            } ]
          },
          "count": 0
        }, {
          "id": "Numerator_1",
          "code": {
            "coding": [ {
              "system": "http://terminology.hl7.org/CodeSystem/measure-population",
              "code": "numerator",
              "display": "Numerator"
            } ]
          },
          "count": 0
        } ],
        "measureScore": {
          "value": 1.0
        }
      } ],
      "evaluatedResource": [ {
        "reference": "Patient/eae55f3d-0a15-4a21-9229-dfb11f8e3f9d"
      }, {
        "reference": "Condition/4b6adfd2-5c2c-47d2-a73b-13cf0bd4acc1"
      }, {
        "reference": "Encounter/ef001af2-0e29-4f84-bfff-d293fba3b5b5"
      }, {
        "reference": "Coverage/81452e43-d149-4344-b941-e83f7f34a0ed"
      }, {
        "reference": "Organization/2d94051b-3aac-464b-aa4c-9e4b3b1a164a"
      }, {
        "reference": "Practitioner/d1e73f11-cc55-4587-b36d-ee6b8c01f270"
      } ]
    }
  } ]
}