{
  "resourceType": "Bundle",
  "id": "61168b8798086b77ef9c5ecc",
  "type": "collection",
  "entry": [ {
    "fullUrl": "https://madie.cms.gov/Patient/d9840e8c-3359-42c2-b354-4b236c3c1b15",
    "resource": {
      "resourceType": "Patient",
      "id": "d9840e8c-3359-42c2-b354-4b236c3c1b15",
      "meta": {
        "profile": [ "http://hl7.org/fhir/us/qicore/StructureDefinition/qicore-patient" ]
      },
      "extension": [ {
        "url": "http://hl7.org/fhir/us/core/StructureDefinition/us-core-race",
        "extension": [ {
          "url": "ombCategory",
          "valueCoding": {
            "system": "urn:oid:2.16.840.1.113883.6.238",
            "code": "1002-5",
            "display": "American Indian or Alaska Native",
            "userSelected": true
          }
        }, {
          "url": "text",
          "valueString": "American Indian or Alaska Native"
        } ]
      }, {
        "url": "http://hl7.org/fhir/us/core/StructureDefinition/us-core-ethnicity",
        "extension": [ {
          "url": "ombCategory",
          "valueCoding": {
            "system": "urn:oid:2.16.840.1.113883.6.238",
            "code": "2186-5",
            "display": "Not Hispanic or Latino",
            "userSelected": true
          }
        }, {
          "url": "text",
          "valueString": "Not Hispanic or Latino"
        } ]
      } ],
      "identifier": [ {
        "type": {
          "coding": [ {
            "system": "http://terminology.hl7.org/CodeSystem/v2-0203",
            "code": "MR"
          } ]
        },
        "system": "https://bonnie-fhir.healthit.gov/",
        "value": "61168b8798086b77ef9c5ecc"
      } ],
      "active": true,
      "name": [ {
        "use": "usual",
        "family": "DENEXCEPPass",
        "given": [ "CommEdemaAbsentNotDoneMR" ]
      } ],
      "gender": "male",
      "birthDate": "1973-08-29"
    }
  }, {
    "fullUrl": "https://madie.cms.gov/Communication/c5738c00-81f9-43b3-8c71-5a2c67f475e6",
    "resource": {
      "resourceType": "Communication",
      "id": "c5738c00-81f9-43b3-8c71-5a2c67f475e6",
      "meta": {
        "profile": [ "http://hl7.org/fhir/us/qicore/StructureDefinition/qicore-communicationnotdone" ]
      },
      "extension": [ {
        "url": "http://hl7.org/fhir/us/qicore/StructureDefinition/qicore-recorded",
        "valueDateTime": "2014-07-02T15:00:00.000+00:00"
      } ],
      "status": "not-done",
      "statusReason": {
        "coding": [ {
          "system": "http://snomed.info/sct",
          "code": "183932001",
          "display": "Procedure contraindicated (situation)",
          "userSelected": true
        } ]
      },
      "subject": {
        "reference": "Patient/d9840e8c-3359-42c2-b354-4b236c3c1b15"
      },
      "topic": {
        "coding": [ {
          "system": "http://terminology.hl7.org/CodeSystem/communication-topic",
          "code": "progress-update",
          "display": "Progress Update"
        } ]
      },
      "sent": "2026-08-02T08:00:00.000+00:00",
      "reasonCode": [ {
        "coding": [ {
          "system": "http://snomed.info/sct",
          "code": "428341000124108"
        } ]
      } ]
    }
  }, {
    "fullUrl": "https://madie.cms.gov/Condition/1c5e0b4c-918a-4d48-a51d-76d5e9935fbd",
    "resource": {
      "resourceType": "Condition",
      "id": "1c5e0b4c-918a-4d48-a51d-76d5e9935fbd",
      "meta": {
        "profile": [ "http://hl7.org/fhir/us/qicore/StructureDefinition/qicore-condition-problems-health-concerns" ]
      },
      "clinicalStatus": {
        "coding": [ {
          "system": "http://terminology.hl7.org/CodeSystem/condition-clinical",
          "code": "active",
          "display": "active",
          "userSelected": true
        } ]
      },
      "verificationStatus": {
        "coding": [ {
          "system": "http://terminology.hl7.org/CodeSystem/condition-ver-status",
          "code": "confirmed"
        } ]
      },
      "category": [ {
        "coding": [ {
          "system": "http://terminology.hl7.org/CodeSystem/condition-category",
          "code": "problem-list-item",
          "display": "Problem List Item"
        } ]
      } ],
      "code": {
        "coding": [ {
          "system": "http://snomed.info/sct",
          "version": "http://snomed.info/sct/731000124108/version/20250301",
          "code": "193349004",
          "display": "Preproliferative retinopathy due to diabetes mellitus"
        }, {
          "system": "http://hl7.org/fhir/sid/icd-10-cm",
          "version": "2023",
          "code": "E08.311"
        } ]
      },
      "subject": {
        "reference": "Patient/d9840e8c-3359-42c2-b354-4b236c3c1b15"
      },
      "onsetDateTime": "2025-07-01T15:00:00.000+00:00"
    }
  }, {
    "fullUrl": "https://madie.cms.gov/Observation/478c7e28-f1aa-43b9-8d35-94cb9768480c",
    "resource": {
      "resourceType": "Observation",
      "id": "478c7e28-f1aa-43b9-8d35-94cb9768480c",
      "meta": {
        "profile": [ "http://hl7.org/fhir/us/qicore/StructureDefinition/qicore-observation-clinical-result" ]
      },
      "status": "final",
      "category": [ {
        "coding": [ {
          "system": "http://terminology.hl7.org/CodeSystem/observation-category",
          "code": "vital-signs",
          "display": "Vital Signs"
        } ]
      }, {
        "coding": [ {
          "system": "http://terminology.hl7.org/CodeSystem/observation-category",
          "code": "survey"
        } ]
      } ],
      "code": {
        "coding": [ {
          "system": "http://loinc.org",
          "version": "2.73",
          "code": "32451-7"
        } ]
      },
      "subject": {
        "reference": "Patient/d9840e8c-3359-42c2-b354-4b236c3c1b15"
      },
      "effectiveDateTime": "2026-07-09T08:00:00.000+00:00",
      "valueBoolean": true
    }
  }, {
    "fullUrl": "https://madie.cms.gov/Encounter/604fcea6-9a2f-4053-a243-0f431630cd99",
    "resource": {
      "resourceType": "Encounter",
      "id": "604fcea6-9a2f-4053-a243-0f431630cd99",
      "meta": {
        "profile": [ "http://hl7.org/fhir/us/qicore/StructureDefinition/qicore-encounter" ]
      },
      "status": "finished",
      "class": {
        "system": "http://terminology.hl7.org/CodeSystem/v3-ActCode",
        "code": "AMB"
      },
      "type": [ {
        "coding": [ {
          "system": "http://www.ama-assn.org/go/cpt",
          "version": "2023",
          "code": "99205"
        } ]
      } ],
      "subject": {
        "reference": "Patient/d9840e8c-3359-42c2-b354-4b236c3c1b15"
      },
      "period": {
        "start": "2026-07-02T15:00:00.000+00:00",
        "end": "2026-08-02T16:00:00.000+00:00"
      }
    }
  }, {
    "fullUrl": "https://madie.cms.gov/Communication/f095d664-c11c-4a27-a9dd-c2c49047c737",
    "resource": {
      "resourceType": "Communication",
      "id": "f095d664-c11c-4a27-a9dd-c2c49047c737",
      "meta": {
        "profile": [ "http://hl7.org/fhir/us/qicore/StructureDefinition/qicore-communicationnotdone" ]
      },
      "extension": [ {
        "url": "http://hl7.org/fhir/us/qicore/StructureDefinition/qicore-recorded",
        "valueDateTime": "2026-07-09T08:00:00.000+00:00"
      } ],
      "status": "not-done",
      "statusReason": {
        "coding": [ {
          "system": "http://snomed.info/sct",
          "code": "713247000",
          "display": "Procedure discontinued by patient (situation)",
          "userSelected": true
        } ]
      },
      "category": [ {
        "coding": [ {
          "system": "http://snomed.info/sct",
          "code": "312903003",
          "display": "Mild nonproliferative retinopathy due to diabetes mellitus (disorder)",
          "userSelected": true
        } ]
      } ],
      "topic": {
        "coding": [ {
          "system": "http://terminology.hl7.org/CodeSystem/communication-topic",
          "code": "progress-update",
          "display": "Progress Update"
        } ]
      },
      "sent": "2026-08-02T08:00:00.000+00:00",
      "reasonCode": [ {
        "coding": [ {
          "system": "http://snomed.info/sct",
          "code": "312903003",
          "display": "Mild nonproliferative diabetic retinopathy"
        } ]
      } ]
    }
  }, {
    "fullUrl": "https://madie.cms.gov/MeasureReport/1fbf56ab-6e60-4ce6-a1d5-b520382164bd",
    "resource": {
      "resourceType": "MeasureReport",
      "id": "1fbf56ab-6e60-4ce6-a1d5-b520382164bd",
      "meta": {
        "profile": [ "http://hl7.org/fhir/us/cqfmeasures/StructureDefinition/test-case-cqfm" ]
      },
      "contained": [ {
        "resourceType": "Parameters",
        "id": "6eb61307-b116-4d83-a4f4-b3873dffe428-parameters",
        "parameter": [ {
          "name": "subject",
          "valueString": "d9840e8c-3359-42c2-b354-4b236c3c1b15"
        } ]
      } ],
      "extension": [ {
        "url": "http://hl7.org/fhir/StructureDefinition/cqf-inputParameters",
        "valueReference": {
          "reference": "#6eb61307-b116-4d83-a4f4-b3873dffe428-parameters"
        }
      }, {
        "url": "http://hl7.org/fhir/us/cqfmeasures/StructureDefinition/cqfm-testCaseDescription",
        "valueMarkdown": "Communication for Edema Absent Not done and documented\n\n"
      } ],
      "modifierExtension": [ {
        "url": "http://hl7.org/fhir/us/cqfmeasures/StructureDefinition/cqfm-isTestCase",
        "valueBoolean": true
      } ],
      "status": "complete",
      "type": "individual",
      "measure": "https://madie.cms.gov/Measure/CMS142FHIRCommWithDrManagingDiab",
      "period": {
        "start": "2026-01-01",
        "end": "2026-12-31"
      },
      "group": [ {
        "id": "Group_1",
        "population": [ {
          "id": "InitialPopulation_1",
          "code": {
            "coding": [ {
              "system": "http://terminology.hl7.org/CodeSystem/measure-population",
              "code": "initial-population",
              "display": "Initial Population"
            } ]
          },
          "count": 1
        }, {
          "id": "Denominator_1",
          "code": {
            "coding": [ {
              "system": "http://terminology.hl7.org/CodeSystem/measure-population",
              "code": "denominator",
              "display": "Denominator"
            } ]
          },
          "count": 1
        }, {
          "id": "Numerator_1",
          "code": {
            "coding": [ {
              "system": "http://terminology.hl7.org/CodeSystem/measure-population",
              "code": "numerator",
              "display": "Numerator"
            } ]
          },
          "count": 0
        }, {
          "id": "DenominatorException_1",
          "code": {
            "coding": [ {
              "system": "http://terminology.hl7.org/CodeSystem/measure-population",
              "code": "denominator-exception",
              "display": "Denominator Exception"
            } ]
          },
          "count": 1
        } ],
        "measureScore": {
          "value": 1.0
        }
      } ],
      "evaluatedResource": [ {
        "reference": "Patient/d9840e8c-3359-42c2-b354-4b236c3c1b15"
      }, {
        "reference": "Communication/c5738c00-81f9-43b3-8c71-5a2c67f475e6"
      }, {
        "reference": "Condition/1c5e0b4c-918a-4d48-a51d-76d5e9935fbd"
      }, {
        "reference": "Observation/478c7e28-f1aa-43b9-8d35-94cb9768480c"
      }, {
        "reference": "Encounter/604fcea6-9a2f-4053-a243-0f431630cd99"
      }, {
        "reference": "Communication/f095d664-c11c-4a27-a9dd-c2c49047c737"
      } ]
    }
  } ]
}