{
  "resourceType": "Bundle",
  "id": "6179ed49ad1a790b7af75259",
  "type": "transaction",
  "entry": [ {
    "fullUrl": "https://madie.cms.gov/Patient/88d99809-90d6-4cbc-a4bb-d5d73375fc81",
    "resource": {
      "resourceType": "Patient",
      "id": "88d99809-90d6-4cbc-a4bb-d5d73375fc81",
      "meta": {
        "profile": [ "http://hl7.org/fhir/us/qicore/StructureDefinition/qicore-patient" ]
      },
      "extension": [ {
        "url": "http://hl7.org/fhir/us/core/StructureDefinition/us-core-race",
        "extension": [ {
          "url": "ombCategory",
          "valueCoding": {
            "system": "urn:oid:2.16.840.1.113883.6.238",
            "code": "2076-8",
            "display": "Native Hawaiian or Other Pacific Islander",
            "userSelected": true
          }
        }, {
          "url": "text",
          "valueString": "Native Hawaiian or Other Pacific Islander"
        } ]
      }, {
        "url": "http://hl7.org/fhir/us/core/StructureDefinition/us-core-ethnicity",
        "extension": [ {
          "url": "ombCategory",
          "valueCoding": {
            "system": "urn:oid:2.16.840.1.113883.6.238",
            "code": "2186-5",
            "display": "Not Hispanic or Latino",
            "userSelected": true
          }
        }, {
          "url": "text",
          "valueString": "Not Hispanic or Latino"
        } ]
      }, {
        "url": "http://hl7.org/fhir/us/core/StructureDefinition/us-core-sex",
        "valueCode": "248152002"
      } ],
      "identifier": [ {
        "type": {
          "coding": [ {
            "system": "http://terminology.hl7.org/CodeSystem/v2-0203",
            "code": "MR"
          } ]
        },
        "system": "https://bonnie-fhir.healthit.gov/",
        "value": "6179ed49ad1a790b7af75259"
      } ],
      "name": [ {
        "family": "DenExcl3Pass",
        "given": [ "PxStarts8DBeforeEDEndsAfterED" ]
      } ],
      "gender": "female",
      "birthDate": "1985-12-02"
    },
    "request": {
      "method": "PUT",
      "url": "Patient/88d99809-90d6-4cbc-a4bb-d5d73375fc81"
    }
  }, {
    "fullUrl": "https://madie.cms.gov/Encounter/e13d4f4e-4487-409e-9a34-0614af4ede9d",
    "resource": {
      "resourceType": "Encounter",
      "id": "e13d4f4e-4487-409e-9a34-0614af4ede9d",
      "meta": {
        "profile": [ "http://hl7.org/fhir/us/qicore/StructureDefinition/qicore-encounter" ]
      },
      "status": "finished",
      "class": {
        "system": "http://terminology.hl7.org/CodeSystem/v3-ActCode",
        "code": "EMER",
        "display": "emergency",
        "userSelected": true
      },
      "type": [ {
        "coding": [ {
          "system": "http://snomed.info/sct",
          "version": "2020-09",
          "code": "4525004",
          "display": "Emergency department patient visit (procedure)",
          "userSelected": true
        } ]
      } ],
      "subject": {
        "reference": "Patient/88d99809-90d6-4cbc-a4bb-d5d73375fc81"
      },
      "period": {
        "start": "2026-10-09T08:05:00.000+00:00",
        "end": "2026-10-10T07:15:00.000+00:00"
      },
      "reasonReference": [ {
        "reference": "Condition/f50729b3-805b-47f0-9b69-d1a576dca077"
      } ]
    },
    "request": {
      "method": "PUT",
      "url": "Encounter/e13d4f4e-4487-409e-9a34-0614af4ede9d"
    }
  }, {
    "fullUrl": "https://madie.cms.gov/Condition/f50729b3-805b-47f0-9b69-d1a576dca077",
    "resource": {
      "resourceType": "Condition",
      "id": "f50729b3-805b-47f0-9b69-d1a576dca077",
      "meta": {
        "profile": [ "http://hl7.org/fhir/us/qicore/StructureDefinition/qicore-condition-problems-health-concerns" ]
      },
      "clinicalStatus": {
        "coding": [ {
          "system": "http://terminology.hl7.org/CodeSystem/condition-clinical",
          "code": "active",
          "display": "active",
          "userSelected": true
        } ]
      },
      "category": [ {
        "coding": [ {
          "system": "http://terminology.hl7.org/CodeSystem/condition-category",
          "code": "problem-list-item",
          "display": "Problem List Item",
          "userSelected": true
        } ]
      } ],
      "code": {
        "coding": [ {
          "system": "http://snomed.info/sct",
          "version": "2020-09",
          "code": "401303003",
          "display": "Acute ST segment elevation myocardial infarction (disorder)",
          "userSelected": true
        } ]
      },
      "subject": {
        "reference": "Patient/88d99809-90d6-4cbc-a4bb-d5d73375fc81"
      },
      "onsetDateTime": "2026-10-09T08:30:00.000+00:00"
    },
    "request": {
      "method": "PUT",
      "url": "Condition/f50729b3-805b-47f0-9b69-d1a576dca077"
    }
  }, {
    "fullUrl": "https://madie.cms.gov/Procedure/9103e4ac-1b14-443b-b4fc-287e2cf05c9a",
    "resource": {
      "resourceType": "Procedure",
      "id": "9103e4ac-1b14-443b-b4fc-287e2cf05c9a",
      "meta": {
        "profile": [ "http://hl7.org/fhir/us/qicore/StructureDefinition/qicore-procedure" ]
      },
      "extension": [ {
        "url": "http://hl7.org/fhir/us/qicore/StructureDefinition/qicore-recorded",
        "valueDateTime": "2026-10-30T08:15:00.000+00:00"
      } ],
      "status": "completed",
      "category": {
        "coding": [ {
          "system": "http://snomed.info/sct",
          "code": "387713003",
          "display": "Surgical procedure",
          "userSelected": true
        } ]
      },
      "code": {
        "coding": [ {
          "system": "http://snomed.info/sct",
          "code": "10259007",
          "userSelected": true
        } ]
      },
      "subject": {
        "reference": "Patient/88d99809-90d6-4cbc-a4bb-d5d73375fc81"
      },
      "performedPeriod": {
        "start": "2026-10-01T08:00:00.000+00:00",
        "end": "2026-10-30T08:15:00.000+00:00"
      }
    },
    "request": {
      "method": "PUT",
      "url": "Procedure/9103e4ac-1b14-443b-b4fc-287e2cf05c9a"
    }
  }, {
    "fullUrl": "https://madie.cms.gov/MeasureReport/562b6c7d-126a-44e5-88e6-5e227ede0df0",
    "resource": {
      "resourceType": "MeasureReport",
      "id": "562b6c7d-126a-44e5-88e6-5e227ede0df0",
      "meta": {
        "profile": [ "http://hl7.org/fhir/us/cqfmeasures/StructureDefinition/test-case-cqfm" ]
      },
      "contained": [ {
        "resourceType": "Parameters",
        "id": "84ba7059-39ca-4fc7-9a37-f7fb15045068-parameters",
        "parameter": [ {
          "name": "subject",
          "valueString": "88d99809-90d6-4cbc-a4bb-d5d73375fc81"
        } ]
      } ],
      "extension": [ {
        "url": "http://hl7.org/fhir/StructureDefinition/cqf-inputParameters",
        "valueReference": {
          "reference": "#84ba7059-39ca-4fc7-9a37-f7fb15045068-parameters"
        }
      }, {
        "url": "http://hl7.org/fhir/us/cqfmeasures/StructureDefinition/cqfm-testCaseDescription",
        "valueMarkdown": "Patient has Major Surgical Procedure (exclusion Px) starts 8 days before ED visit and ends after ED"
      } ],
      "modifierExtension": [ {
        "url": "http://hl7.org/fhir/us/cqfmeasures/StructureDefinition/cqfm-isTestCase",
        "valueBoolean": true
      } ],
      "status": "complete",
      "type": "individual",
      "measure": "https://madie.cms.gov/Measure/CMS996FHIRAptTxforSTEMI",
      "period": {
        "start": "2026-01-01",
        "end": "2026-12-31"
      },
      "group": [ {
        "id": "Group_1",
        "population": [ {
          "id": "InitialPopulation_1",
          "code": {
            "coding": [ {
              "system": "http://terminology.hl7.org/CodeSystem/measure-population",
              "code": "initial-population",
              "display": "Initial Population"
            } ]
          },
          "count": 1
        }, {
          "id": "Denominator_1",
          "code": {
            "coding": [ {
              "system": "http://terminology.hl7.org/CodeSystem/measure-population",
              "code": "denominator",
              "display": "Denominator"
            } ]
          },
          "count": 1
        }, {
          "id": "DenominatorExclusion_1",
          "code": {
            "coding": [ {
              "system": "http://terminology.hl7.org/CodeSystem/measure-population",
              "code": "denominator-exclusion",
              "display": "Denominator Exclusion"
            } ]
          },
          "count": 1
        }, {
          "id": "Numerator_1",
          "code": {
            "coding": [ {
              "system": "http://terminology.hl7.org/CodeSystem/measure-population",
              "code": "numerator",
              "display": "Numerator"
            } ]
          },
          "count": 0
        }, {
          "id": "DenominatorException_1",
          "code": {
            "coding": [ {
              "system": "http://terminology.hl7.org/CodeSystem/measure-population",
              "code": "denominator-exception",
              "display": "Denominator Exception"
            } ]
          },
          "count": 0
        } ],
        "measureScore": {
          "value": 0.0
        }
      } ],
      "evaluatedResource": [ {
        "reference": "Patient/88d99809-90d6-4cbc-a4bb-d5d73375fc81"
      }, {
        "reference": "Encounter/e13d4f4e-4487-409e-9a34-0614af4ede9d"
      }, {
        "reference": "Condition/f50729b3-805b-47f0-9b69-d1a576dca077"
      }, {
        "reference": "Procedure/9103e4ac-1b14-443b-b4fc-287e2cf05c9a"
      } ]
    },
    "request": {
      "method": "PUT",
      "url": "MeasureReport/562b6c7d-126a-44e5-88e6-5e227ede0df0"
    }
  } ]
}