{
  "resourceType": "Bundle",
  "id": "33355550414ba67d4e1d144f",
  "type": "transaction",
  "entry": [ {
    "fullUrl": "https://madie.cms.gov/Patient/ac6b85a0-2e32-4591-8fd5-4db1840a802d",
    "resource": {
      "resourceType": "Patient",
      "id": "ac6b85a0-2e32-4591-8fd5-4db1840a802d",
      "meta": {
        "profile": [ "http://hl7.org/fhir/us/qicore/StructureDefinition/qicore-patient" ]
      },
      "extension": [ {
        "url": "http://hl7.org/fhir/us/core/StructureDefinition/us-core-race",
        "extension": [ {
          "url": "ombCategory",
          "valueCoding": {
            "system": "urn:oid:2.16.840.1.113883.6.238",
            "code": "2028-9",
            "display": "Asian",
            "userSelected": true
          }
        }, {
          "url": "text",
          "valueString": "Asian"
        } ]
      }, {
        "url": "http://hl7.org/fhir/us/core/StructureDefinition/us-core-ethnicity",
        "extension": [ {
          "url": "ombCategory",
          "valueCoding": {
            "system": "urn:oid:2.16.840.1.113883.6.238",
            "code": "2186-5",
            "display": "Not Hispanic or Latino",
            "userSelected": true
          }
        }, {
          "url": "text",
          "valueString": "Not Hispanic or Latino"
        } ]
      } ],
      "identifier": [ {
        "system": "http://hospital.smarthealthit.org",
        "value": "999999999"
      } ],
      "name": [ {
        "family": "DENEXFail",
        "given": [ "SickleDiseaseOnsetDayAfterEnc" ]
      } ],
      "gender": "female",
      "birthDate": "1984-02-01"
    },
    "request": {
      "method": "PUT",
      "url": "Patient/ac6b85a0-2e32-4591-8fd5-4db1840a802d"
    }
  }, {
    "fullUrl": "https://madie.cms.gov/Encounter/3035a817-f267-468d-937c-ddd345351ee5",
    "resource": {
      "resourceType": "Encounter",
      "id": "3035a817-f267-468d-937c-ddd345351ee5",
      "meta": {
        "profile": [ "http://hl7.org/fhir/us/qicore/StructureDefinition/qicore-encounter" ]
      },
      "status": "finished",
      "class": {
        "system": "http://terminology.hl7.org/CodeSystem/v3-ActCode",
        "code": "IMP",
        "display": "inpatient encounter"
      },
      "type": [ {
        "coding": [ {
          "system": "http://snomed.info/sct",
          "code": "183452005",
          "display": "Emergency hospital admission (procedure)",
          "userSelected": true
        } ]
      } ],
      "subject": {
        "reference": "Patient/ac6b85a0-2e32-4591-8fd5-4db1840a802d"
      },
      "period": {
        "start": "2026-05-01T11:45:00.000+00:00",
        "end": "2026-05-04T11:59:00.000+00:00"
      }
    },
    "request": {
      "method": "PUT",
      "url": "Encounter/3035a817-f267-468d-937c-ddd345351ee5"
    }
  }, {
    "fullUrl": "https://madie.cms.gov/MedicationRequest/2a32f286-2770-4a70-98f5-cca912244ac0",
    "resource": {
      "resourceType": "MedicationRequest",
      "id": "2a32f286-2770-4a70-98f5-cca912244ac0",
      "meta": {
        "profile": [ "http://hl7.org/fhir/us/qicore/StructureDefinition/qicore-medicationrequest" ]
      },
      "status": "completed",
      "intent": "order",
      "category": [ {
        "coding": [ {
          "system": "http://terminology.hl7.org/CodeSystem/medicationrequest-category",
          "code": "discharge",
          "display": "Discharge",
          "userSelected": true
        } ]
      } ],
      "doNotPerform": false,
      "medicationCodeableConcept": {
        "coding": [ {
          "system": "http://www.nlm.nih.gov/research/umls/rxnorm",
          "code": "2103192",
          "display": "sufentanil 0.03 MG Sublingual Tablet",
          "userSelected": true
        } ]
      },
      "subject": {
        "reference": "Patient/ac6b85a0-2e32-4591-8fd5-4db1840a802d"
      },
      "authoredOn": "2026-05-04T11:59:00.000+00:00",
      "requester": {
        "reference": "Practitioner/912c942b-c2b3-405b-9685-57283b26342b"
      }
    },
    "request": {
      "method": "PUT",
      "url": "MedicationRequest/2a32f286-2770-4a70-98f5-cca912244ac0"
    }
  }, {
    "fullUrl": "https://madie.cms.gov/Practitioner/912c942b-c2b3-405b-9685-57283b26342b",
    "resource": {
      "resourceType": "Practitioner",
      "id": "912c942b-c2b3-405b-9685-57283b26342b",
      "meta": {
        "profile": [ "http://hl7.org/fhir/us/qicore/StructureDefinition/qicore-practitioner" ]
      },
      "identifier": [ {
        "system": "http://hl7.org/fhir/sid/us-npi",
        "value": "9999999896"
      } ],
      "active": true,
      "name": [ {
        "family": "Ramires",
        "given": [ "Alma" ],
        "prefix": [ "Dr" ]
      } ],
      "address": [ {
        "use": "home",
        "line": [ "534 Erewhon St" ],
        "city": "Netherville",
        "state": "IN",
        "postalCode": "46131"
      } ],
      "qualification": [ {
        "identifier": [ {
          "system": "http://goodhealth.org/prIdentifier",
          "value": "12345"
        } ],
        "code": {
          "coding": [ {
            "system": "http://terminology.hl7.org/CodeSystem/v2-0360|2.7",
            "code": "BS",
            "display": "Bachelor of Science"
          } ],
          "text": "Bachelor of Science"
        },
        "period": {
          "start": "1995"
        },
        "issuer": {
          "display": "Example University"
        }
      } ]
    },
    "request": {
      "method": "PUT",
      "url": "Practitioner/912c942b-c2b3-405b-9685-57283b26342b"
    }
  }, {
    "fullUrl": "https://madie.cms.gov/Condition/6ad25cc5-befc-45a9-8e97-913252b88c90",
    "resource": {
      "resourceType": "Condition",
      "id": "6ad25cc5-befc-45a9-8e97-913252b88c90",
      "meta": {
        "profile": [ "http://hl7.org/fhir/us/qicore/StructureDefinition/qicore-condition-problems-health-concerns" ]
      },
      "clinicalStatus": {
        "coding": [ {
          "system": "http://terminology.hl7.org/CodeSystem/condition-clinical",
          "code": "active",
          "display": "active",
          "userSelected": true
        } ]
      },
      "verificationStatus": {
        "coding": [ {
          "system": "http://terminology.hl7.org/CodeSystem/condition-ver-status",
          "code": "confirmed",
          "display": "Confirmed",
          "userSelected": true
        } ]
      },
      "category": [ {
        "coding": [ {
          "system": "http://terminology.hl7.org/CodeSystem/condition-category",
          "code": "problem-list-item",
          "display": "Problem List Item"
        }, {
          "system": "http://snomed.info/sct",
          "code": "439401001",
          "display": "Diagnosis"
        } ]
      } ],
      "code": {
        "coding": [ {
          "system": "http://snomed.info/sct",
          "code": "417517009",
          "display": "Sickle cell-hemoglobin C disease with crisis (disorder)",
          "userSelected": true
        } ]
      },
      "subject": {
        "reference": "Patient/ac6b85a0-2e32-4591-8fd5-4db1840a802d"
      },
      "onsetPeriod": {
        "start": "2026-05-05T00:00:00.000+00:00"
      }
    },
    "request": {
      "method": "PUT",
      "url": "Condition/6ad25cc5-befc-45a9-8e97-913252b88c90"
    }
  }, {
    "fullUrl": "https://madie.cms.gov/Coverage/408e3783-97d7-4867-91fc-d1e998c4fad5",
    "resource": {
      "resourceType": "Coverage",
      "id": "408e3783-97d7-4867-91fc-d1e998c4fad5",
      "meta": {
        "profile": [ "http://hl7.org/fhir/us/qicore/StructureDefinition/qicore-coverage" ]
      },
      "status": "active",
      "subscriberId": "523435",
      "beneficiary": {
        "reference": "Patient/ac6b85a0-2e32-4591-8fd5-4db1840a802d"
      },
      "relationship": {
        "coding": [ {
          "system": "http://terminology.hl7.org/CodeSystem/subscriber-relationship",
          "code": "self"
        } ]
      },
      "payor": [ {
        "reference": "Organization/2197be3e-9c5f-44d5-b2ea-a4bb4cdb76a8"
      } ]
    },
    "request": {
      "method": "PUT",
      "url": "Coverage/408e3783-97d7-4867-91fc-d1e998c4fad5"
    }
  }, {
    "fullUrl": "https://madie.cms.gov/Organization/2197be3e-9c5f-44d5-b2ea-a4bb4cdb76a8",
    "resource": {
      "resourceType": "Organization",
      "id": "2197be3e-9c5f-44d5-b2ea-a4bb4cdb76a8",
      "meta": {
        "profile": [ "http://hl7.org/fhir/us/qicore/StructureDefinition/qicore-organization" ]
      },
      "identifier": [ {
        "use": "temp",
        "system": "urn:oid:2.16.840.1.113883.4.4",
        "value": "21-3259825"
      } ],
      "active": true,
      "type": [ {
        "coding": [ {
          "system": "http://terminology.hl7.org/CodeSystem/organization-type",
          "code": "pay",
          "display": "Payer"
        } ]
      } ],
      "name": "Blue Cross Blue Shield of Texas",
      "telecom": [ {
        "system": "phone",
        "value": "(+1) 972-766-6900"
      } ],
      "address": [ {
        "use": "billing",
        "type": "postal",
        "line": [ "P.O. Box 660044" ],
        "city": "Dallas",
        "state": "TX",
        "postalCode": "75266-0044",
        "country": "USA"
      } ]
    },
    "request": {
      "method": "PUT",
      "url": "Organization/2197be3e-9c5f-44d5-b2ea-a4bb4cdb76a8"
    }
  }, {
    "fullUrl": "https://madie.cms.gov/MeasureReport/9b7d3317-9c2e-474d-a85c-5b20f2fe42a3",
    "resource": {
      "resourceType": "MeasureReport",
      "id": "9b7d3317-9c2e-474d-a85c-5b20f2fe42a3",
      "meta": {
        "profile": [ "http://hl7.org/fhir/us/cqfmeasures/StructureDefinition/test-case-cqfm" ]
      },
      "contained": [ {
        "resourceType": "Parameters",
        "id": "3ff76dba-5dcf-4d9d-ae75-98435ac1c301-parameters",
        "parameter": [ {
          "name": "subject",
          "valueString": "ac6b85a0-2e32-4591-8fd5-4db1840a802d"
        } ]
      } ],
      "extension": [ {
        "url": "http://hl7.org/fhir/StructureDefinition/cqf-inputParameters",
        "valueReference": {
          "reference": "#3ff76dba-5dcf-4d9d-ae75-98435ac1c301-parameters"
        }
      }, {
        "url": "http://hl7.org/fhir/us/cqfmeasures/StructureDefinition/cqfm-testCaseDescription",
        "valueMarkdown": "Encounter 5/1 - 5/4 of MP, opioid at discharge\n\nDiagnosis of sickle cell disease with onset day after encounter discharge date\n"
      } ],
      "modifierExtension": [ {
        "url": "http://hl7.org/fhir/us/cqfmeasures/StructureDefinition/cqfm-isTestCase",
        "valueBoolean": true
      } ],
      "status": "complete",
      "type": "individual",
      "measure": "https://madie.cms.gov/Measure/CMS506FHIRSafeUseofOpioids",
      "period": {
        "start": "2026-01-01",
        "end": "2026-12-31"
      },
      "group": [ {
        "id": "Group_1",
        "population": [ {
          "id": "InitialPopulation_1",
          "code": {
            "coding": [ {
              "system": "http://terminology.hl7.org/CodeSystem/measure-population",
              "code": "initial-population",
              "display": "Initial Population"
            } ]
          },
          "count": 1
        }, {
          "id": "Denominator_1",
          "code": {
            "coding": [ {
              "system": "http://terminology.hl7.org/CodeSystem/measure-population",
              "code": "denominator",
              "display": "Denominator"
            } ]
          },
          "count": 1
        }, {
          "id": "DenominatorExclusion_1",
          "code": {
            "coding": [ {
              "system": "http://terminology.hl7.org/CodeSystem/measure-population",
              "code": "denominator-exclusion",
              "display": "Denominator Exclusion"
            } ]
          },
          "count": 0
        }, {
          "id": "Numerator_1",
          "code": {
            "coding": [ {
              "system": "http://terminology.hl7.org/CodeSystem/measure-population",
              "code": "numerator",
              "display": "Numerator"
            } ]
          },
          "count": 0
        } ],
        "measureScore": {
          "value": 0.0
        }
      } ],
      "evaluatedResource": [ {
        "reference": "Patient/ac6b85a0-2e32-4591-8fd5-4db1840a802d"
      }, {
        "reference": "Encounter/3035a817-f267-468d-937c-ddd345351ee5"
      }, {
        "reference": "MedicationRequest/2a32f286-2770-4a70-98f5-cca912244ac0"
      }, {
        "reference": "Practitioner/912c942b-c2b3-405b-9685-57283b26342b"
      }, {
        "reference": "Condition/6ad25cc5-befc-45a9-8e97-913252b88c90"
      }, {
        "reference": "Coverage/408e3783-97d7-4867-91fc-d1e998c4fad5"
      }, {
        "reference": "Organization/2197be3e-9c5f-44d5-b2ea-a4bb4cdb76a8"
      } ]
    },
    "request": {
      "method": "PUT",
      "url": "MeasureReport/9b7d3317-9c2e-474d-a85c-5b20f2fe42a3"
    }
  } ]
}