{
  "resourceType": "Bundle",
  "id": "6359776b6aee9629c8298235",
  "type": "transaction",
  "entry": [ {
    "fullUrl": "https://madie.cms.gov/Patient/d128dd74-b827-4442-99d6-d9437ad09e07",
    "resource": {
      "resourceType": "Patient",
      "id": "d128dd74-b827-4442-99d6-d9437ad09e07",
      "meta": {
        "profile": [ "http://hl7.org/fhir/us/qicore/StructureDefinition/qicore-patient" ]
      },
      "text": {
        "status": "generated",
        "div": "<div xmlns=\"http://www.w3.org/1999/xhtml\"><div class=\"hapiHeaderText\">2HCT1stMeets2ndDoesNot <b>RISKPass </b></div><table class=\"hapiPropertyTable\"><tbody><tr><td>Date of birth</td><td><span>01 February 2004</span></td></tr></tbody></table></div>"
      },
      "extension": [ {
        "url": "http://hl7.org/fhir/us/core/StructureDefinition/us-core-race",
        "extension": [ {
          "url": "ombCategory",
          "valueCoding": {
            "system": "urn:oid:2.16.840.1.113883.6.238",
            "code": "1002-5",
            "display": "American Indian or Alaska Native",
            "userSelected": true
          }
        }, {
          "url": "text",
          "valueString": "American Indian or Alaska Native"
        } ]
      }, {
        "url": "http://hl7.org/fhir/us/core/StructureDefinition/us-core-ethnicity",
        "extension": [ {
          "url": "ombCategory",
          "valueCoding": {
            "system": "urn:oid:2.16.840.1.113883.6.238",
            "code": "2135-2",
            "display": "Hispanic or Latino",
            "userSelected": true
          }
        }, {
          "url": "text",
          "valueString": "Hispanic or Latino"
        } ]
      } ],
      "identifier": [ {
        "type": {
          "coding": [ {
            "system": "http://terminology.hl7.org/CodeSystem/v2-0203",
            "code": "MR"
          } ]
        },
        "system": "https://bonnie-fhir.healthit.gov/",
        "value": "6359776b6aee9629c8298235"
      } ],
      "active": true,
      "name": [ {
        "use": "usual",
        "family": "RiskPass",
        "given": [ "2HCT1stMeets2ndDoesNot" ]
      } ],
      "gender": "female",
      "birthDate": "2005-02-01"
    },
    "request": {
      "method": "PUT",
      "url": "Patient/d128dd74-b827-4442-99d6-d9437ad09e07"
    }
  }, {
    "fullUrl": "https://madie.cms.gov/Observation/252526dd-020d-4211-bf18-b05ad9c1c946",
    "resource": {
      "resourceType": "Observation",
      "id": "252526dd-020d-4211-bf18-b05ad9c1c946",
      "meta": {
        "profile": [ "http://hl7.org/fhir/us/qicore/StructureDefinition/qicore-simple-observation" ]
      },
      "status": "final",
      "category": [ {
        "coding": [ {
          "system": "http://terminology.hl7.org/CodeSystem/observation-category",
          "code": "exam",
          "display": "exam",
          "userSelected": true
        } ]
      } ],
      "code": {
        "coding": [ {
          "system": "http://loinc.org",
          "code": "93857-1",
          "display": "Date and time of obstetric delivery"
        } ]
      },
      "subject": {
        "reference": "Patient/d128dd74-b827-4442-99d6-d9437ad09e07"
      },
      "effectiveDateTime": "2026-02-01T08:00:00.000+00:00",
      "performer": [ {
        "reference": "Organization/example1",
        "display": "Hendricks Country Hospital"
      } ],
      "valueDateTime": "2026-02-01T08:00:00.000+00:00"
    },
    "request": {
      "method": "PUT",
      "url": "Observation/252526dd-020d-4211-bf18-b05ad9c1c946"
    }
  }, {
    "fullUrl": "https://madie.cms.gov/Observation/4fb18dda-1ac6-4de5-be33-4b29a6e05311",
    "resource": {
      "resourceType": "Observation",
      "id": "4fb18dda-1ac6-4de5-be33-4b29a6e05311",
      "meta": {
        "profile": [ "http://hl7.org/fhir/us/qicore/StructureDefinition/qicore-simple-observation" ]
      },
      "status": "final",
      "category": [ {
        "coding": [ {
          "system": "http://terminology.hl7.org/CodeSystem/observation-category",
          "code": "exam",
          "display": "exam",
          "userSelected": true
        } ]
      } ],
      "code": {
        "coding": [ {
          "system": "http://loinc.org",
          "code": "11884-4",
          "display": "Date and time of obstetric delivery"
        } ]
      },
      "subject": {
        "reference": "Patient/d128dd74-b827-4442-99d6-d9437ad09e07"
      },
      "effectiveDateTime": "2026-02-01T08:00:00.000+00:00",
      "performer": [ {
        "reference": "Organization/example1",
        "display": "Hendricks Country Hospital"
      } ],
      "valueQuantity": {
        "value": 21,
        "system": "http://unitsofmeasure.org",
        "code": "wk"
      }
    },
    "request": {
      "method": "PUT",
      "url": "Observation/4fb18dda-1ac6-4de5-be33-4b29a6e05311"
    }
  }, {
    "fullUrl": "https://madie.cms.gov/Encounter/5e027756-7370-4224-b1ff-7799186c1431",
    "resource": {
      "resourceType": "Encounter",
      "id": "5e027756-7370-4224-b1ff-7799186c1431",
      "meta": {
        "profile": [ "http://hl7.org/fhir/us/qicore/StructureDefinition/qicore-encounter" ]
      },
      "status": "finished",
      "class": {
        "system": "http://terminology.hl7.org/CodeSystem/v3-ActCode",
        "code": "IMP",
        "display": "inpatient encounter"
      },
      "type": [ {
        "coding": [ {
          "system": "http://snomed.info/sct",
          "code": "183452005"
        } ]
      } ],
      "subject": {
        "reference": "Patient/d128dd74-b827-4442-99d6-d9437ad09e07"
      },
      "period": {
        "start": "2026-02-01T08:00:00.000+00:00",
        "end": "2026-02-05T08:15:00.000+00:00"
      }
    },
    "request": {
      "method": "PUT",
      "url": "Encounter/5e027756-7370-4224-b1ff-7799186c1431"
    }
  }, {
    "fullUrl": "https://madie.cms.gov/Encounter/02953d3f-4bb5-4118-bd88-9094537d153b",
    "resource": {
      "resourceType": "Encounter",
      "id": "02953d3f-4bb5-4118-bd88-9094537d153b",
      "meta": {
        "profile": [ "http://hl7.org/fhir/us/qicore/StructureDefinition/qicore-encounter" ]
      },
      "status": "finished",
      "class": {
        "system": "http://terminology.hl7.org/CodeSystem/v3-ActCode",
        "code": "EMER",
        "display": "emergency"
      },
      "type": [ {
        "coding": [ {
          "system": "http://snomed.info/sct",
          "code": "4525004"
        } ]
      } ],
      "subject": {
        "reference": "Patient/d128dd74-b827-4442-99d6-d9437ad09e07"
      },
      "period": {
        "start": "2026-02-01T07:00:00.000+00:00",
        "end": "2026-02-01T07:59:00.000+00:00"
      }
    },
    "request": {
      "method": "PUT",
      "url": "Encounter/02953d3f-4bb5-4118-bd88-9094537d153b"
    }
  }, {
    "fullUrl": "https://madie.cms.gov/Procedure/8f442eb3-18b4-4b17-a8f0-809e5f0415ed",
    "resource": {
      "resourceType": "Procedure",
      "id": "8f442eb3-18b4-4b17-a8f0-809e5f0415ed",
      "meta": {
        "profile": [ "http://hl7.org/fhir/us/qicore/StructureDefinition/qicore-procedure" ]
      },
      "extension": [ {
        "url": "http://hl7.org/fhir/us/qicore/StructureDefinition/qicore-recorded",
        "valueDateTime": "2026-02-04T13:35:00.000+00:00"
      } ],
      "status": "completed",
      "code": {
        "coding": [ {
          "system": "http://snomed.info/sct",
          "code": "10745001"
        } ]
      },
      "subject": {
        "reference": "Patient/d128dd74-b827-4442-99d6-d9437ad09e07"
      },
      "performedPeriod": {
        "start": "2026-02-01T08:00:00.000+00:00",
        "end": "2026-02-05T08:15:00.000+00:00"
      }
    },
    "request": {
      "method": "PUT",
      "url": "Procedure/8f442eb3-18b4-4b17-a8f0-809e5f0415ed"
    }
  }, {
    "fullUrl": "https://madie.cms.gov/Observation/e588015a-37c7-4fea-9e8e-9146f30bdd2f",
    "resource": {
      "resourceType": "Observation",
      "id": "e588015a-37c7-4fea-9e8e-9146f30bdd2f",
      "meta": {
        "profile": [ "http://hl7.org/fhir/us/qicore/StructureDefinition/qicore-observation-lab" ]
      },
      "status": "final",
      "category": [ {
        "coding": [ {
          "system": "http://terminology.hl7.org/CodeSystem/observation-category",
          "code": "laboratory",
          "display": "laboratory",
          "userSelected": true
        } ]
      } ],
      "code": {
        "coding": [ {
          "system": "http://loinc.org",
          "version": "2.73",
          "code": "20570-8",
          "display": "Hematocrit [Volume Fraction] in Blood",
          "userSelected": true
        } ]
      },
      "subject": {
        "reference": "Patient/d128dd74-b827-4442-99d6-d9437ad09e07"
      },
      "effectiveDateTime": "2026-02-01T07:59:00.000+00:00",
      "issued": "2026-02-01T07:59:00.000+00:00",
      "valueQuantity": {
        "value": 20,
        "unit": "%"
      }
    },
    "request": {
      "method": "PUT",
      "url": "Observation/e588015a-37c7-4fea-9e8e-9146f30bdd2f"
    }
  }, {
    "fullUrl": "https://madie.cms.gov/Observation/e588015a-37c7-4fea-9e8e-9146f30bdd2f-b",
    "resource": {
      "resourceType": "Observation",
      "id": "e588015a-37c7-4fea-9e8e-9146f30bdd2f-b",
      "meta": {
        "profile": [ "http://hl7.org/fhir/us/qicore/StructureDefinition/qicore-observation-lab" ]
      },
      "status": "final",
      "category": [ {
        "coding": [ {
          "system": "http://terminology.hl7.org/CodeSystem/observation-category",
          "code": "laboratory",
          "display": "laboratory",
          "userSelected": true
        } ]
      } ],
      "code": {
        "coding": [ {
          "system": "http://loinc.org",
          "version": "2.73",
          "code": "20570-8",
          "display": "Hematocrit [Volume Fraction] in Blood",
          "userSelected": true
        } ]
      },
      "subject": {
        "reference": "Patient/d128dd74-b827-4442-99d6-d9437ad09e07"
      },
      "effectiveDateTime": "2026-02-01T07:59:00.000+00:00",
      "issued": "2026-02-01T08:00:00.000+00:00",
      "valueQuantity": {
        "value": 20,
        "unit": "%"
      }
    },
    "request": {
      "method": "PUT",
      "url": "Observation/e588015a-37c7-4fea-9e8e-9146f30bdd2f-b"
    }
  }, {
    "fullUrl": "https://madie.cms.gov/MeasureReport/2fb43506-d2ad-447e-a6ce-83ae877672e3",
    "resource": {
      "resourceType": "MeasureReport",
      "id": "2fb43506-d2ad-447e-a6ce-83ae877672e3",
      "meta": {
        "profile": [ "http://hl7.org/fhir/us/cqfmeasures/StructureDefinition/test-case-cqfm" ]
      },
      "contained": [ {
        "resourceType": "Parameters",
        "id": "ae7ae5b7-2d89-4458-ac32-cbd8357f942c-parameters",
        "parameter": [ {
          "name": "subject",
          "valueString": "d128dd74-b827-4442-99d6-d9437ad09e07"
        } ]
      } ],
      "extension": [ {
        "url": "http://hl7.org/fhir/StructureDefinition/cqf-inputParameters",
        "valueReference": {
          "reference": "#ae7ae5b7-2d89-4458-ac32-cbd8357f942c-parameters"
        }
      }, {
        "url": "http://hl7.org/fhir/us/cqfmeasures/StructureDefinition/cqfm-testCaseDescription",
        "valueMarkdown": "Patient with 2 hematocrits during encounter.  1st one meets timing parameter, second does not.\n"
      } ],
      "modifierExtension": [ {
        "url": "http://hl7.org/fhir/us/cqfmeasures/StructureDefinition/cqfm-isTestCase",
        "valueBoolean": true
      } ],
      "status": "complete",
      "type": "individual",
      "measure": "https://madie.cms.gov/Measure/CMS1028FHIRPCSevereOBComps",
      "period": {
        "start": "2026-01-01",
        "end": "2026-12-31"
      },
      "group": [ {
        "id": "Group_1",
        "population": [ {
          "id": "InitialPopulation_1",
          "code": {
            "coding": [ {
              "system": "http://terminology.hl7.org/CodeSystem/measure-population",
              "code": "initial-population",
              "display": "Initial Population"
            } ]
          },
          "count": 1
        }, {
          "id": "Denominator_1",
          "code": {
            "coding": [ {
              "system": "http://terminology.hl7.org/CodeSystem/measure-population",
              "code": "denominator",
              "display": "Denominator"
            } ]
          },
          "count": 1
        }, {
          "id": "Numerator_1",
          "code": {
            "coding": [ {
              "system": "http://terminology.hl7.org/CodeSystem/measure-population",
              "code": "numerator",
              "display": "Numerator"
            } ]
          },
          "count": 0
        }, {
          "id": "NumeratorExclusion_1",
          "code": {
            "coding": [ {
              "system": "http://terminology.hl7.org/CodeSystem/measure-population",
              "code": "numerator-exclusion",
              "display": "Numerator Exclusion"
            } ]
          },
          "count": 0
        } ],
        "measureScore": {
          "value": 0.0
        }
      }, {
        "id": "Group_2",
        "population": [ {
          "id": "InitialPopulation_2",
          "code": {
            "coding": [ {
              "system": "http://terminology.hl7.org/CodeSystem/measure-population",
              "code": "initial-population",
              "display": "Initial Population"
            } ]
          },
          "count": 1
        }, {
          "id": "Denominator_2",
          "code": {
            "coding": [ {
              "system": "http://terminology.hl7.org/CodeSystem/measure-population",
              "code": "denominator",
              "display": "Denominator"
            } ]
          },
          "count": 1
        }, {
          "id": "Numerator_2",
          "code": {
            "coding": [ {
              "system": "http://terminology.hl7.org/CodeSystem/measure-population",
              "code": "numerator",
              "display": "Numerator"
            } ]
          },
          "count": 0
        }, {
          "id": "NumeratorExclusion_2",
          "code": {
            "coding": [ {
              "system": "http://terminology.hl7.org/CodeSystem/measure-population",
              "code": "numerator-exclusion",
              "display": "Numerator Exclusion"
            } ]
          },
          "count": 0
        } ],
        "measureScore": {
          "value": 0.0
        }
      } ],
      "evaluatedResource": [ {
        "reference": "Patient/d128dd74-b827-4442-99d6-d9437ad09e07"
      }, {
        "reference": "Observation/252526dd-020d-4211-bf18-b05ad9c1c946"
      }, {
        "reference": "Observation/4fb18dda-1ac6-4de5-be33-4b29a6e05311"
      }, {
        "reference": "Encounter/5e027756-7370-4224-b1ff-7799186c1431"
      }, {
        "reference": "Encounter/02953d3f-4bb5-4118-bd88-9094537d153b"
      }, {
        "reference": "Procedure/8f442eb3-18b4-4b17-a8f0-809e5f0415ed"
      }, {
        "reference": "Observation/e588015a-37c7-4fea-9e8e-9146f30bdd2f"
      }, {
        "reference": "Observation/e588015a-37c7-4fea-9e8e-9146f30bdd2f-b"
      } ]
    },
    "request": {
      "method": "PUT",
      "url": "MeasureReport/2fb43506-d2ad-447e-a6ce-83ae877672e3"
    }
  } ]
}