{
  "resourceType": "Bundle",
  "id": "tests-NumerPass-RVwithOpioidPlanAtAdmission-bundle",
  "type": "transaction",
  "entry": [ {
    "fullUrl": "https://madie.cms.gov/Encounter/b9dded2a-0bda-43f7-898c-38a066bb7154",
    "resource": {
      "resourceType": "Encounter",
      "id": "b9dded2a-0bda-43f7-898c-38a066bb7154",
      "meta": {
        "profile": [ "http://hl7.org/fhir/us/qicore/StructureDefinition/qicore-encounter" ]
      },
      "status": "finished",
      "class": {
        "system": "http://terminology.hl7.org/CodeSystem/v3-ActCode",
        "code": "IMP",
        "display": "inpatient encounter"
      },
      "type": [ {
        "coding": [ {
          "system": "http://snomed.info/sct",
          "code": "183452005"
        } ]
      } ],
      "subject": {
        "reference": "Patient/4402a9b9-3d48-4472-a000-579b7baa88fa"
      },
      "period": {
        "start": "2026-10-19T08:30:00.000Z",
        "end": "2026-10-31T08:15:00.000Z"
      },
      "reasonCode": [ {
        "coding": [ {
          "system": "http://snomed.info/sct",
          "code": "14047009"
        } ]
      }, {
        "coding": [ {
          "system": "http://snomed.info/sct",
          "code": "64859006"
        } ]
      } ]
    },
    "request": {
      "method": "PUT",
      "url": "Encounter/b9dded2a-0bda-43f7-898c-38a066bb7154"
    }
  }, {
    "fullUrl": "https://madie.cms.gov/Encounter/fb4d802d-fa17-4828-b138-c32b985a7dc2",
    "resource": {
      "resourceType": "Encounter",
      "id": "fb4d802d-fa17-4828-b138-c32b985a7dc2",
      "meta": {
        "profile": [ "http://hl7.org/fhir/us/qicore/StructureDefinition/qicore-encounter" ]
      },
      "status": "finished",
      "class": {
        "system": "http://terminology.hl7.org/CodeSystem/v3-ActCode",
        "code": "EMER",
        "display": "emergency encounter"
      },
      "type": [ {
        "coding": [ {
          "system": "http://snomed.info/sct",
          "code": "4525004"
        } ]
      } ],
      "subject": {
        "reference": "Patient/4402a9b9-3d48-4472-a000-579b7baa88fa"
      },
      "period": {
        "start": "2026-10-18T09:15:00.000Z",
        "end": "2026-10-19T08:15:00.000Z"
      }
    },
    "request": {
      "method": "PUT",
      "url": "Encounter/fb4d802d-fa17-4828-b138-c32b985a7dc2"
    }
  }, {
    "fullUrl": "https://madie.cms.gov/Patient/4402a9b9-3d48-4472-a000-579b7baa88fa",
    "resource": {
      "resourceType": "Patient",
      "id": "4402a9b9-3d48-4472-a000-579b7baa88fa",
      "meta": {
        "profile": [ "http://hl7.org/fhir/us/qicore/StructureDefinition/qicore-patient" ]
      },
      "extension": [ {
        "url": "http://hl7.org/fhir/us/core/StructureDefinition/us-core-race",
        "extension": [ {
          "url": "ombCategory",
          "valueCoding": {
            "system": "urn:oid:2.16.840.1.113883.6.238",
            "code": "2106-3",
            "display": "White"
          }
        }, {
          "url": "text",
          "valueString": "White"
        } ]
      }, {
        "url": "http://hl7.org/fhir/us/core/StructureDefinition/us-core-ethnicity",
        "extension": [ {
          "url": "ombCategory",
          "valueCoding": {
            "system": "urn:oid:2.16.840.1.113883.6.238",
            "code": "2135-2",
            "display": "Hispanic or Latino"
          }
        }, {
          "url": "text",
          "valueString": "Hispanic or Latino"
        } ]
      }, {
        "url": "http://hl7.org/fhir/us/core/StructureDefinition/us-core-sex",
        "valueCode": "248153007"
      } ],
      "identifier": [ {
        "system": "http://hospital.smarthealthit.org",
        "value": "999999999"
      } ],
      "name": [ {
        "family": "Example",
        "given": [ "Patient" ]
      } ],
      "gender": "female",
      "birthDate": "1956-01-01"
    },
    "request": {
      "method": "PUT",
      "url": "Patient/4402a9b9-3d48-4472-a000-579b7baa88fa"
    }
  }, {
    "fullUrl": "https://madie.cms.gov/Claim/bb4ee48e-74bf-49ff-be61-eaed772e6dc5",
    "resource": {
      "resourceType": "Claim",
      "id": "bb4ee48e-74bf-49ff-be61-eaed772e6dc5",
      "meta": {
        "profile": [ "http://hl7.org/fhir/us/qicore/StructureDefinition/qicore-claim" ]
      },
      "status": "active",
      "type": {
        "coding": [ {
          "system": "http://terminology.hl7.org/CodeSystem/claim-type",
          "code": "institutional",
          "display": "Institutional"
        } ]
      },
      "use": "claim",
      "patient": {
        "reference": "Patient/4402a9b9-3d48-4472-a000-579b7baa88fa"
      },
      "created": "2026-10-22",
      "provider": {
        "reference": "Practitioner/practitioner-1"
      },
      "priority": {
        "coding": [ {
          "system": "http://terminology.hl7.org/CodeSystem/processpriority",
          "code": "normal"
        } ]
      },
      "diagnosis": [ {
        "sequence": 1,
        "diagnosisCodeableConcept": {
          "coding": [ {
            "system": "http://snomed.info/sct",
            "code": "14047009"
          } ]
        }
      } ],
      "insurance": [ {
        "sequence": 1,
        "focal": true,
        "coverage": {
          "reference": "Coverage/coverage-1"
        }
      } ],
      "item": [ {
        "sequence": 1,
        "diagnosisSequence": [ 1, 2 ],
        "productOrService": {
          "coding": [ {
            "system": "http://terminology.hl7.org/CodeSystem/ex-USCLS",
            "code": "1101"
          } ]
        },
        "encounter": [ {
          "reference": "Encounter/b9dded2a-0bda-43f7-898c-38a066bb7154"
        } ]
      } ]
    },
    "request": {
      "method": "PUT",
      "url": "Claim/bb4ee48e-74bf-49ff-be61-eaed772e6dc5"
    }
  }, {
    "fullUrl": "https://madie.cms.gov/Claim/7c7c53bd-3f50-4763-a5ae-68516629afa1",
    "resource": {
      "resourceType": "Claim",
      "id": "7c7c53bd-3f50-4763-a5ae-68516629afa1",
      "meta": {
        "profile": [ "http://hl7.org/fhir/us/qicore/StructureDefinition/qicore-claim" ]
      },
      "status": "active",
      "type": {
        "coding": [ {
          "system": "http://terminology.hl7.org/CodeSystem/claim-type",
          "code": "institutional",
          "display": "Institutional"
        } ]
      },
      "use": "claim",
      "patient": {
        "reference": "Patient/4402a9b9-3d48-4472-a000-579b7baa88fa"
      },
      "created": "2026-11-01",
      "provider": {
        "reference": "Practitioner/practitioner-1"
      },
      "priority": {
        "coding": [ {
          "system": "http://terminology.hl7.org/CodeSystem/processpriority",
          "code": "normal"
        } ]
      },
      "diagnosis": [ {
        "sequence": 1,
        "diagnosisCodeableConcept": {
          "coding": [ {
            "system": "http://hl7.org/fhir/sid/icd-10-cm",
            "code": "M80.00XA",
            "display": "Age-related osteoporosis with current pathological fracture, unspecified site, initial encounter for fracture"
          } ]
        }
      } ],
      "insurance": [ {
        "sequence": 1,
        "focal": true,
        "coverage": {
          "reference": "Coverage/coverage-1"
        }
      } ],
      "item": [ {
        "sequence": 1,
        "diagnosisSequence": [ 1, 2 ],
        "productOrService": {
          "coding": [ {
            "system": "http://terminology.hl7.org/CodeSystem/ex-USCLS",
            "code": "1101"
          } ]
        },
        "encounter": [ {
          "reference": "Encounter/b9dded2a-0bda-43f7-898c-38a066bb7154"
        } ]
      } ]
    },
    "request": {
      "method": "PUT",
      "url": "Claim/7c7c53bd-3f50-4763-a5ae-68516629afa1"
    }
  }, {
    "fullUrl": "https://madie.cms.gov/MedicationRequest/fcdf22a6-31e5-4d23-9d87-09f35de64bc1",
    "resource": {
      "resourceType": "MedicationRequest",
      "id": "fcdf22a6-31e5-4d23-9d87-09f35de64bc1",
      "meta": {
        "profile": [ "http://hl7.org/fhir/us/qicore/StructureDefinition/qicore-medicationrequest" ]
      },
      "status": "active",
      "intent": "plan",
      "category": [ {
        "coding": [ {
          "system": "http://terminology.hl7.org/CodeSystem/medicationrequest-category",
          "code": "community",
          "display": "Community"
        } ]
      } ],
      "medicationCodeableConcept": {
        "coding": [ {
          "system": "http://www.nlm.nih.gov/research/umls/rxnorm",
          "code": "1010600"
        } ]
      },
      "subject": {
        "reference": "Patient/4402a9b9-3d48-4472-a000-579b7baa88fa"
      },
      "authoredOn": "2026-10-15",
      "requester": {
        "reference": "Practitioner/practitioner-1"
      },
      "dispenseRequest": {
        "quantity": {
          "value": 14,
          "unit": "tablet",
          "system": "http://unitsofmeasure.org",
          "code": "{tablet}"
        },
        "expectedSupplyDuration": {
          "value": 14,
          "unit": "days",
          "system": "http://unitsofmeasure.org",
          "code": "d"
        }
      }
    },
    "request": {
      "method": "PUT",
      "url": "MedicationRequest/fcdf22a6-31e5-4d23-9d87-09f35de64bc1"
    }
  }, {
    "fullUrl": "https://madie.cms.gov/Observation/9739aa82-7a24-4de3-94d3-b1a334f1d96a",
    "resource": {
      "resourceType": "Observation",
      "id": "9739aa82-7a24-4de3-94d3-b1a334f1d96a",
      "meta": {
        "profile": [ "http://hl7.org/fhir/us/core/StructureDefinition/us-core-bmi" ]
      },
      "status": "final",
      "category": [ {
        "coding": [ {
          "system": "http://terminology.hl7.org/CodeSystem/observation-category",
          "code": "vital-signs",
          "display": "Vital Signs"
        } ]
      } ],
      "code": {
        "coding": [ {
          "system": "http://loinc.org",
          "code": "39156-5",
          "display": "Body mass index (BMI) [Ratio]"
        } ],
        "text": "BMI"
      },
      "subject": {
        "reference": "Patient/4402a9b9-3d48-4472-a000-579b7baa88fa"
      },
      "effectiveDateTime": "2026-10-20T08:00:00.000Z",
      "valueQuantity": {
        "value": 28.3,
        "unit": "kg/m2",
        "system": "http://unitsofmeasure.org",
        "code": "kg/m2"
      }
    },
    "request": {
      "method": "PUT",
      "url": "Observation/9739aa82-7a24-4de3-94d3-b1a334f1d96a"
    }
  }, {
    "fullUrl": "https://madie.cms.gov/Practitioner/5442029e-2fc7-4c6c-a38e-7778b933f1aa",
    "resource": {
      "resourceType": "Practitioner",
      "id": "5442029e-2fc7-4c6c-a38e-7778b933f1aa",
      "identifier": [ {
        "system": "http://www.cms.gov/identifiers/pracitioners",
        "value": "P12345"
      } ],
      "name": [ {
        "use": "official",
        "family": "Smith",
        "given": [ "John" ]
      } ],
      "qualification": [ {
        "identifier": [ {
          "system": "http://hl7.org/fhir/sid/us-npi",
          "value": "1234567890"
        } ],
        "code": {
          "coding": [ {
            "system": "http://terminology.hl7.org/CodeSystem/v2-0203",
            "code": "MD",
            "display": "Medical License number"
          } ]
        }
      } ]
    },
    "request": {
      "method": "PUT",
      "url": "Practitioner/5442029e-2fc7-4c6c-a38e-7778b933f1aa"
    }
  }, {
    "fullUrl": "https://madie.cms.gov/Coverage/bc4ba3f0-28f0-4d74-bb2e-d882f5ffb545",
    "resource": {
      "resourceType": "Coverage",
      "id": "bc4ba3f0-28f0-4d74-bb2e-d882f5ffb545",
      "status": "active",
      "beneficiary": {
        "reference": "Patient/4402a9b9-3d48-4472-a000-579b7baa88fa"
      },
      "payor": [ {
        "reference": "Organization/9d19bc7d-b31f-40e9-85ff-dfc39edd89f4"
      } ]
    },
    "request": {
      "method": "PUT",
      "url": "Coverage/bc4ba3f0-28f0-4d74-bb2e-d882f5ffb545"
    }
  }, {
    "fullUrl": "https://madie.cms.gov/Organization/9d19bc7d-b31f-40e9-85ff-dfc39edd89f4",
    "resource": {
      "resourceType": "Organization",
      "id": "9d19bc7d-b31f-40e9-85ff-dfc39edd89f4",
      "identifier": [ {
        "system": "http://cms.gov/insurance-ids",
        "value": "AET12345"
      } ],
      "type": [ {
        "coding": [ {
          "system": "http://terminology.hl7.org/CodeSystem/organization-type",
          "code": "prov",
          "display": "Healthcare Provider"
        } ]
      } ],
      "name": "Aetna Insurance",
      "telecom": [ {
        "system": "phone",
        "value": "+1-800-123-4567"
      } ],
      "address": [ {
        "line": [ "123 Main Street" ],
        "city": "Cityville",
        "state": "CA",
        "postalCode": "12345",
        "country": "USA"
      } ]
    },
    "request": {
      "method": "PUT",
      "url": "Organization/9d19bc7d-b31f-40e9-85ff-dfc39edd89f4"
    }
  }, {
    "fullUrl": "https://madie.cms.gov/MeasureReport/58735c7c-d169-4918-b688-f5a907e09834",
    "resource": {
      "resourceType": "MeasureReport",
      "id": "58735c7c-d169-4918-b688-f5a907e09834",
      "meta": {
        "profile": [ "http://hl7.org/fhir/us/cqfmeasures/StructureDefinition/test-case-cqfm" ]
      },
      "contained": [ {
        "resourceType": "Parameters",
        "id": "6c550ff4-d50c-49be-b0d5-6a57fa5b7724-parameters",
        "parameter": [ {
          "name": "subject",
          "valueString": "4402a9b9-3d48-4472-a000-579b7baa88fa"
        } ]
      } ],
      "extension": [ {
        "url": "http://hl7.org/fhir/StructureDefinition/cqf-inputParameters",
        "valueReference": {
          "reference": "#6c550ff4-d50c-49be-b0d5-6a57fa5b7724-parameters"
        }
      }, {
        "url": "http://hl7.org/fhir/us/cqfmeasures/StructureDefinition/cqfm-testCaseDescription",
        "valueMarkdown": "RVariable Encounter With Opioid Plan At Admission"
      } ],
      "modifierExtension": [ {
        "url": "http://hl7.org/fhir/us/cqfmeasures/StructureDefinition/cqfm-isTestCase",
        "valueBoolean": true
      } ],
      "status": "complete",
      "type": "individual",
      "measure": "https://madie.cms.gov/Measure/CMS1017FHIRHHFI",
      "period": {
        "start": "2026-01-01",
        "end": "2026-12-31"
      },
      "group": [ {
        "id": "Group_1",
        "population": [ {
          "id": "InitialPopulation_1",
          "code": {
            "coding": [ {
              "system": "http://terminology.hl7.org/CodeSystem/measure-population",
              "code": "initial-population",
              "display": "Initial Population"
            } ]
          },
          "count": 1
        }, {
          "id": "Denominator_1",
          "code": {
            "coding": [ {
              "system": "http://terminology.hl7.org/CodeSystem/measure-population",
              "code": "denominator",
              "display": "Denominator"
            } ]
          },
          "count": 1
        }, {
          "id": "MeasureObservation_1_1_1",
          "code": {
            "coding": [ {
              "system": "http://terminology.hl7.org/CodeSystem/measure-population",
              "code": "measure-observation",
              "display": "Measure Observation"
            } ]
          },
          "count": 12
        }, {
          "id": "DenominatorExclusion_1",
          "code": {
            "coding": [ {
              "system": "http://terminology.hl7.org/CodeSystem/measure-population",
              "code": "denominator-exclusion",
              "display": "Denominator Exclusion"
            } ]
          },
          "count": 0
        }, {
          "id": "Numerator_1",
          "code": {
            "coding": [ {
              "system": "http://terminology.hl7.org/CodeSystem/measure-population",
              "code": "numerator",
              "display": "Numerator"
            } ]
          },
          "count": 1
        }, {
          "id": "MeasureObservation_1_2_1",
          "code": {
            "coding": [ {
              "system": "http://terminology.hl7.org/CodeSystem/measure-population",
              "code": "measure-observation",
              "display": "Measure Observation"
            } ]
          },
          "count": 1
        }, {
          "id": "NumeratorExclusion_1",
          "code": {
            "coding": [ {
              "system": "http://terminology.hl7.org/CodeSystem/measure-population",
              "code": "numerator-exclusion",
              "display": "Numerator Exclusion"
            } ]
          },
          "count": 0
        } ],
        "measureScore": {
          "value": 0.0
        }
      } ],
      "evaluatedResource": [ {
        "reference": "Encounter/b9dded2a-0bda-43f7-898c-38a066bb7154"
      }, {
        "reference": "Encounter/fb4d802d-fa17-4828-b138-c32b985a7dc2"
      }, {
        "reference": "Patient/4402a9b9-3d48-4472-a000-579b7baa88fa"
      }, {
        "reference": "Claim/bb4ee48e-74bf-49ff-be61-eaed772e6dc5"
      }, {
        "reference": "Claim/7c7c53bd-3f50-4763-a5ae-68516629afa1"
      }, {
        "reference": "MedicationRequest/fcdf22a6-31e5-4d23-9d87-09f35de64bc1"
      }, {
        "reference": "Observation/9739aa82-7a24-4de3-94d3-b1a334f1d96a"
      }, {
        "reference": "Practitioner/5442029e-2fc7-4c6c-a38e-7778b933f1aa"
      }, {
        "reference": "Coverage/bc4ba3f0-28f0-4d74-bb2e-d882f5ffb545"
      }, {
        "reference": "Organization/9d19bc7d-b31f-40e9-85ff-dfc39edd89f4"
      } ]
    },
    "request": {
      "method": "PUT",
      "url": "MeasureReport/58735c7c-d169-4918-b688-f5a907e09834"
    }
  } ]
}