{
  "resourceType": "Bundle",
  "id": "63231ae12a56ae63756a53ee",
  "type": "transaction",
  "entry": [ {
    "fullUrl": "https://madie.cms.gov/Patient/d2a44b64-1c9e-4e36-855b-8451803afcf2",
    "resource": {
      "resourceType": "Patient",
      "id": "d2a44b64-1c9e-4e36-855b-8451803afcf2",
      "meta": {
        "profile": [ "http://hl7.org/fhir/us/qicore/StructureDefinition/qicore-patient" ]
      },
      "extension": [ {
        "url": "http://hl7.org/fhir/us/core/StructureDefinition/us-core-sex",
        "valueCode": "184115007"
      }, {
        "url": "http://hl7.org/fhir/us/core/StructureDefinition/us-core-race",
        "extension": [ {
          "url": "ombCategory",
          "valueCoding": {
            "system": "urn:oid:2.16.840.1.113883.6.238",
            "code": "1002-5",
            "display": "American Indian or Alaska Native",
            "userSelected": true
          }
        }, {
          "url": "text",
          "valueString": "American Indian or Alaska Native"
        } ]
      }, {
        "url": "http://hl7.org/fhir/us/core/StructureDefinition/us-core-ethnicity",
        "extension": [ {
          "url": "ombCategory",
          "valueCoding": {
            "system": "urn:oid:2.16.840.1.113883.6.238",
            "code": "2135-2",
            "display": "Hispanic or Latino",
            "userSelected": true
          }
        }, {
          "url": "text",
          "valueString": "Hispanic or Latino"
        } ]
      } ],
      "identifier": [ {
        "system": "http://hospital.smarthealthit.org",
        "value": "999999999"
      } ],
      "name": [ {
        "family": "IPPFail",
        "given": [ "EncounterInProgress" ]
      } ],
      "gender": "unknown",
      "birthDate": "2006-12-31"
    },
    "request": {
      "method": "PUT",
      "url": "Patient/d2a44b64-1c9e-4e36-855b-8451803afcf2"
    }
  }, {
    "fullUrl": "https://madie.cms.gov/Encounter/ecd4330a-79b8-4c0d-9fa3-949a319b5be2",
    "resource": {
      "resourceType": "Encounter",
      "id": "ecd4330a-79b8-4c0d-9fa3-949a319b5be2",
      "meta": {
        "profile": [ "http://hl7.org/fhir/us/qicore/StructureDefinition/qicore-encounter" ]
      },
      "status": "in-progress",
      "class": {
        "system": "http://terminology.hl7.org/CodeSystem/v3-ActCode",
        "code": "IMP",
        "display": "inpatient encounter"
      },
      "type": [ {
        "coding": [ {
          "system": "http://snomed.info/sct",
          "code": "183452005",
          "display": "Emergency hospital admission (procedure)",
          "userSelected": true
        } ]
      } ],
      "subject": {
        "reference": "Patient/d2a44b64-1c9e-4e36-855b-8451803afcf2"
      },
      "period": {
        "start": "2026-01-01T00:01:00.000+00:00",
        "end": "2026-01-05T00:30:00.000+00:00"
      }
    },
    "request": {
      "method": "PUT",
      "url": "Encounter/ecd4330a-79b8-4c0d-9fa3-949a319b5be2"
    }
  }, {
    "fullUrl": "https://madie.cms.gov/MedicationRequest/e1626742-8b24-4139-a185-41daeeb2379b",
    "resource": {
      "resourceType": "MedicationRequest",
      "id": "e1626742-8b24-4139-a185-41daeeb2379b",
      "meta": {
        "profile": [ "http://hl7.org/fhir/us/qicore/StructureDefinition/qicore-medicationrequest" ]
      },
      "status": "active",
      "intent": "order",
      "category": [ {
        "coding": [ {
          "system": "http://terminology.hl7.org/CodeSystem/medicationrequest-category",
          "code": "discharge",
          "display": "Discharge",
          "userSelected": true
        } ]
      } ],
      "doNotPerform": false,
      "medicationCodeableConcept": {
        "coding": [ {
          "system": "http://www.nlm.nih.gov/research/umls/rxnorm",
          "code": "1014632",
          "display": "acetaminophen 300 MG / oxycodone hydrochloride 7.5 MG Oral Tablet",
          "userSelected": true
        } ]
      },
      "subject": {
        "reference": "Patient/d2a44b64-1c9e-4e36-855b-8451803afcf2"
      },
      "authoredOn": "2026-01-05T00:29:00.000+00:00",
      "requester": {
        "reference": "Practitioner/bc560621-fab1-4cf2-b590-f519672ffc4f"
      }
    },
    "request": {
      "method": "PUT",
      "url": "MedicationRequest/e1626742-8b24-4139-a185-41daeeb2379b"
    }
  }, {
    "fullUrl": "https://madie.cms.gov/Practitioner/bc560621-fab1-4cf2-b590-f519672ffc4f",
    "resource": {
      "resourceType": "Practitioner",
      "id": "bc560621-fab1-4cf2-b590-f519672ffc4f",
      "meta": {
        "profile": [ "http://hl7.org/fhir/us/qicore/StructureDefinition/qicore-practitioner" ]
      },
      "identifier": [ {
        "system": "http://hl7.org/fhir/sid/us-npi",
        "value": "9999999896"
      } ],
      "active": true,
      "name": [ {
        "family": "Ramires",
        "given": [ "Alma" ],
        "prefix": [ "Dr" ]
      } ],
      "address": [ {
        "use": "home",
        "line": [ "534 Erewhon St" ],
        "city": "Netherville",
        "state": "IN",
        "postalCode": "46131"
      } ],
      "qualification": [ {
        "identifier": [ {
          "system": "http://goodhealth.org/prIdentifier",
          "value": "12345"
        } ],
        "code": {
          "coding": [ {
            "system": "http://terminology.hl7.org/CodeSystem/v2-0360|2.7",
            "code": "BS",
            "display": "Bachelor of Science"
          } ],
          "text": "Bachelor of Science"
        },
        "period": {
          "start": "1995"
        },
        "issuer": {
          "display": "Example University"
        }
      } ]
    },
    "request": {
      "method": "PUT",
      "url": "Practitioner/bc560621-fab1-4cf2-b590-f519672ffc4f"
    }
  }, {
    "fullUrl": "https://madie.cms.gov/Coverage/f55a245b-a7d8-407e-adde-907f1228c45e",
    "resource": {
      "resourceType": "Coverage",
      "id": "f55a245b-a7d8-407e-adde-907f1228c45e",
      "meta": {
        "profile": [ "http://hl7.org/fhir/us/qicore/StructureDefinition/qicore-coverage" ]
      },
      "status": "active",
      "subscriberId": "523435",
      "beneficiary": {
        "reference": "Patient/d2a44b64-1c9e-4e36-855b-8451803afcf2"
      },
      "relationship": {
        "coding": [ {
          "system": "http://terminology.hl7.org/CodeSystem/subscriber-relationship",
          "code": "self"
        } ]
      },
      "payor": [ {
        "reference": "Organization/8529a90e-03d0-4f7d-9bb0-61f2ae886972"
      } ]
    },
    "request": {
      "method": "PUT",
      "url": "Coverage/f55a245b-a7d8-407e-adde-907f1228c45e"
    }
  }, {
    "fullUrl": "https://madie.cms.gov/Organization/8529a90e-03d0-4f7d-9bb0-61f2ae886972",
    "resource": {
      "resourceType": "Organization",
      "id": "8529a90e-03d0-4f7d-9bb0-61f2ae886972",
      "meta": {
        "profile": [ "http://hl7.org/fhir/us/qicore/StructureDefinition/qicore-organization" ]
      },
      "identifier": [ {
        "use": "temp",
        "system": "urn:oid:2.16.840.1.113883.4.4",
        "value": "21-3259825"
      } ],
      "active": true,
      "type": [ {
        "coding": [ {
          "system": "http://terminology.hl7.org/CodeSystem/organization-type",
          "code": "pay",
          "display": "Payer"
        } ]
      } ],
      "name": "Blue Cross Blue Shield of Texas",
      "telecom": [ {
        "system": "phone",
        "value": "(+1) 972-766-6900"
      } ],
      "address": [ {
        "use": "billing",
        "type": "postal",
        "line": [ "P.O. Box 660044" ],
        "city": "Dallas",
        "state": "TX",
        "postalCode": "75266-0044",
        "country": "USA"
      } ]
    },
    "request": {
      "method": "PUT",
      "url": "Organization/8529a90e-03d0-4f7d-9bb0-61f2ae886972"
    }
  }, {
    "fullUrl": "https://madie.cms.gov/MeasureReport/9af45856-d38e-424f-b09d-783e649484ff",
    "resource": {
      "resourceType": "MeasureReport",
      "id": "9af45856-d38e-424f-b09d-783e649484ff",
      "meta": {
        "profile": [ "http://hl7.org/fhir/us/cqfmeasures/StructureDefinition/test-case-cqfm" ]
      },
      "contained": [ {
        "resourceType": "Parameters",
        "id": "4f4842d0-5f96-41c7-b2b7-2dcb4020e8c4-parameters",
        "parameter": [ {
          "name": "subject",
          "valueString": "d2a44b64-1c9e-4e36-855b-8451803afcf2"
        } ]
      } ],
      "extension": [ {
        "url": "http://hl7.org/fhir/StructureDefinition/cqf-inputParameters",
        "valueReference": {
          "reference": "#4f4842d0-5f96-41c7-b2b7-2dcb4020e8c4-parameters"
        }
      }, {
        "url": "http://hl7.org/fhir/us/cqfmeasures/StructureDefinition/cqfm-testCaseDescription",
        "valueMarkdown": "Encounter during the MP but status is \"in-progress\", opioid prescribed day of encounter\n\nSDE Sex included"
      } ],
      "modifierExtension": [ {
        "url": "http://hl7.org/fhir/us/cqfmeasures/StructureDefinition/cqfm-isTestCase",
        "valueBoolean": true
      } ],
      "status": "complete",
      "type": "individual",
      "measure": "https://madie.cms.gov/Measure/CMS506FHIRSafeUseofOpioids",
      "period": {
        "start": "2026-01-01",
        "end": "2026-12-31"
      },
      "group": [ {
        "id": "Group_1",
        "population": [ {
          "id": "InitialPopulation_1",
          "code": {
            "coding": [ {
              "system": "http://terminology.hl7.org/CodeSystem/measure-population",
              "code": "initial-population",
              "display": "Initial Population"
            } ]
          },
          "count": 0
        }, {
          "id": "Denominator_1",
          "code": {
            "coding": [ {
              "system": "http://terminology.hl7.org/CodeSystem/measure-population",
              "code": "denominator",
              "display": "Denominator"
            } ]
          },
          "count": 0
        }, {
          "id": "DenominatorExclusion_1",
          "code": {
            "coding": [ {
              "system": "http://terminology.hl7.org/CodeSystem/measure-population",
              "code": "denominator-exclusion",
              "display": "Denominator Exclusion"
            } ]
          },
          "count": 0
        }, {
          "id": "Numerator_1",
          "code": {
            "coding": [ {
              "system": "http://terminology.hl7.org/CodeSystem/measure-population",
              "code": "numerator",
              "display": "Numerator"
            } ]
          },
          "count": 0
        } ],
        "measureScore": {
          "value": 0.0
        }
      } ],
      "evaluatedResource": [ {
        "reference": "Patient/d2a44b64-1c9e-4e36-855b-8451803afcf2"
      }, {
        "reference": "Encounter/ecd4330a-79b8-4c0d-9fa3-949a319b5be2"
      }, {
        "reference": "MedicationRequest/e1626742-8b24-4139-a185-41daeeb2379b"
      }, {
        "reference": "Practitioner/bc560621-fab1-4cf2-b590-f519672ffc4f"
      }, {
        "reference": "Coverage/f55a245b-a7d8-407e-adde-907f1228c45e"
      }, {
        "reference": "Organization/8529a90e-03d0-4f7d-9bb0-61f2ae886972"
      } ]
    },
    "request": {
      "method": "PUT",
      "url": "MeasureReport/9af45856-d38e-424f-b09d-783e649484ff"
    }
  } ]
}