{
  "resourceType": "Bundle",
  "id": "633b3f9f0968f80122503cdb",
  "type": "transaction",
  "entry": [ {
    "fullUrl": "https://madie.cms.gov/Patient/e0de8852-5685-4892-899c-a8e225f8eb92",
    "resource": {
      "resourceType": "Patient",
      "id": "e0de8852-5685-4892-899c-a8e225f8eb92",
      "meta": {
        "profile": [ "http://hl7.org/fhir/us/qicore/StructureDefinition/qicore-patient" ]
      },
      "text": {
        "status": "generated",
        "div": "<div xmlns=\"http://www.w3.org/1999/xhtml\"><div class=\"hapiHeaderText\">DischDispEQExpired<b>NUMERPass</b></div><table class=\"hapiPropertyTable\"><tbody><tr><td>Date of birth</td><td><span>01 February 2004</span></td></tr></tbody></table></div>"
      },
      "extension": [ {
        "url": "http://hl7.org/fhir/us/core/StructureDefinition/us-core-race",
        "extension": [ {
          "url": "ombCategory",
          "valueCoding": {
            "system": "urn:oid:2.16.840.1.113883.6.238",
            "code": "1002-5",
            "display": "American Indian or Alaska Native",
            "userSelected": true
          }
        }, {
          "url": "text",
          "valueString": "American Indian or Alaska Native"
        } ]
      }, {
        "url": "http://hl7.org/fhir/us/core/StructureDefinition/us-core-ethnicity",
        "extension": [ {
          "url": "ombCategory",
          "valueCoding": {
            "system": "urn:oid:2.16.840.1.113883.6.238",
            "code": "2135-2",
            "display": "Hispanic or Latino",
            "userSelected": true
          }
        }, {
          "url": "text",
          "valueString": "Hispanic or Latino"
        } ]
      } ],
      "identifier": [ {
        "type": {
          "coding": [ {
            "system": "http://terminology.hl7.org/CodeSystem/v2-0203",
            "code": "MR"
          } ]
        },
        "system": "https://bonnie-fhir.healthit.gov/",
        "value": "633b3f9f0968f80122503cdb"
      } ],
      "active": true,
      "name": [ {
        "use": "usual",
        "family": "NUMERPass",
        "given": [ "DischDispEQExpired" ]
      } ],
      "gender": "female",
      "birthDate": "2005-02-01"
    },
    "request": {
      "method": "PUT",
      "url": "Patient/e0de8852-5685-4892-899c-a8e225f8eb92"
    }
  }, {
    "fullUrl": "https://madie.cms.gov/Observation/72aaad00-3a58-4102-9701-06c1b4212d5c",
    "resource": {
      "resourceType": "Observation",
      "id": "72aaad00-3a58-4102-9701-06c1b4212d5c",
      "meta": {
        "profile": [ "http://hl7.org/fhir/us/qicore/StructureDefinition/qicore-simple-observation" ]
      },
      "status": "final",
      "category": [ {
        "coding": [ {
          "system": "http://terminology.hl7.org/CodeSystem/observation-category",
          "code": "exam",
          "display": "exam",
          "userSelected": true
        } ]
      } ],
      "code": {
        "coding": [ {
          "system": "http://loinc.org",
          "code": "93857-1"
        } ]
      },
      "subject": {
        "reference": "Patient/e0de8852-5685-4892-899c-a8e225f8eb92"
      },
      "effectiveDateTime": "2026-02-01T08:00:00.000+00:00",
      "performer": [ {
        "reference": "Organization/example1",
        "display": "Hendricks Country Hospital"
      } ],
      "valueDateTime": "2026-02-01T08:00:00.000+00:00"
    },
    "request": {
      "method": "PUT",
      "url": "Observation/72aaad00-3a58-4102-9701-06c1b4212d5c"
    }
  }, {
    "fullUrl": "https://madie.cms.gov/Condition/f3640bbb-d472-4a87-b29a-895ce16fea0d",
    "resource": {
      "resourceType": "Condition",
      "id": "f3640bbb-d472-4a87-b29a-895ce16fea0d",
      "meta": {
        "profile": [ "http://hl7.org/fhir/us/qicore/StructureDefinition/qicore-condition-encounter-diagnosis" ]
      },
      "category": [ {
        "coding": [ {
          "system": "http://terminology.hl7.org/CodeSystem/condition-category",
          "code": "encounter-diagnosis",
          "display": "Encounter Diagnosis"
        } ]
      } ],
      "code": {
        "coding": [ {
          "system": "http://hl7.org/fhir/sid/icd-10-cm",
          "version": "2023",
          "code": "Z3A.20",
          "display": "20 weeks gestation",
          "userSelected": true
        } ]
      },
      "subject": {
        "reference": "Patient/e0de8852-5685-4892-899c-a8e225f8eb92"
      },
      "recordedDate": "2026-10-26T08:00:00.000+00:00"
    },
    "request": {
      "method": "PUT",
      "url": "Condition/f3640bbb-d472-4a87-b29a-895ce16fea0d"
    }
  }, {
    "fullUrl": "https://madie.cms.gov/Encounter/ec3780c2-935f-4649-9d54-e9369d64fee2",
    "resource": {
      "resourceType": "Encounter",
      "id": "ec3780c2-935f-4649-9d54-e9369d64fee2",
      "meta": {
        "profile": [ "http://hl7.org/fhir/us/qicore/StructureDefinition/qicore-encounter" ]
      },
      "status": "finished",
      "class": {
        "system": "http://terminology.hl7.org/CodeSystem/v3-ActCode",
        "code": "IMP",
        "display": "inpatient encounter"
      },
      "type": [ {
        "coding": [ {
          "system": "http://snomed.info/sct",
          "code": "183452005"
        } ]
      } ],
      "subject": {
        "reference": "Patient/e0de8852-5685-4892-899c-a8e225f8eb92"
      },
      "period": {
        "start": "2026-02-01T08:00:00.000+00:00",
        "end": "2026-02-05T08:15:00.000+00:00"
      },
      "reasonReference": [ {
        "reference": "Condition/f3640bbb-d472-4a87-b29a-895ce16fea0d"
      } ],
      "hospitalization": {
        "dischargeDisposition": {
          "coding": [ {
            "system": "http://snomed.info/sct",
            "code": "371828006",
            "display": "Patient deceased during stay (discharge status = dead) (finding)"
          } ]
        }
      }
    },
    "request": {
      "method": "PUT",
      "url": "Encounter/ec3780c2-935f-4649-9d54-e9369d64fee2"
    }
  }, {
    "fullUrl": "https://madie.cms.gov/Coverage/b9bcf29c-517f-4bb8-a6a9-e161d4b319fc",
    "resource": {
      "resourceType": "Coverage",
      "id": "b9bcf29c-517f-4bb8-a6a9-e161d4b319fc",
      "status": "active",
      "beneficiary": {
        "reference": "Patient/e0de8852-5685-4892-899c-a8e225f8eb92"
      },
      "period": {
        "start": "2005-02-01T08:00:00.000+00:00"
      },
      "payor": [ {
        "reference": "Organization/de4fd630-df6f-4ea7-86ce-492f45957398"
      } ]
    },
    "request": {
      "method": "PUT",
      "url": "Coverage/b9bcf29c-517f-4bb8-a6a9-e161d4b319fc"
    }
  }, {
    "fullUrl": "https://madie.cms.gov/Procedure/8e640dc5-1a00-4fcd-a3c6-9644ec1d3055",
    "resource": {
      "resourceType": "Procedure",
      "id": "8e640dc5-1a00-4fcd-a3c6-9644ec1d3055",
      "meta": {
        "profile": [ "http://hl7.org/fhir/us/qicore/StructureDefinition/qicore-procedure" ]
      },
      "extension": [ {
        "url": "http://hl7.org/fhir/us/qicore/StructureDefinition/qicore-recorded",
        "valueDateTime": "2014-04-05T13:35:00.000+00:00"
      } ],
      "status": "completed",
      "code": {
        "coding": [ {
          "system": "http://snomed.info/sct",
          "code": "10745001"
        } ]
      },
      "subject": {
        "reference": "Patient/e0de8852-5685-4892-899c-a8e225f8eb92"
      },
      "performedPeriod": {
        "start": "2026-02-01T08:00:00.000+00:00",
        "end": "2026-02-05T08:15:00.000+00:00"
      }
    },
    "request": {
      "method": "PUT",
      "url": "Procedure/8e640dc5-1a00-4fcd-a3c6-9644ec1d3055"
    }
  }, {
    "fullUrl": "https://madie.cms.gov/Organization/de4fd630-df6f-4ea7-86ce-492f45957398",
    "resource": {
      "resourceType": "Organization",
      "id": "de4fd630-df6f-4ea7-86ce-492f45957398",
      "meta": {
        "profile": [ "http://hl7.org/fhir/us/qicore/StructureDefinition/qicore-organization" ]
      },
      "identifier": [ {
        "use": "temp",
        "system": "urn:oid:2.16.840.1.113883.4.4",
        "value": "21-3259825"
      } ],
      "active": true,
      "type": [ {
        "coding": [ {
          "system": "http://terminology.hl7.org/CodeSystem/organization-type",
          "code": "pay",
          "display": "Payer"
        } ]
      } ],
      "name": "Blue Cross Blue Shield of Texas",
      "telecom": [ {
        "system": "phone",
        "value": "(+1) 972-766-6900"
      } ],
      "address": [ {
        "use": "billing",
        "type": "postal",
        "line": [ "P.O. Box 660044" ],
        "city": "Dallas",
        "state": "TX",
        "postalCode": "75266-0044",
        "country": "USA"
      } ]
    },
    "request": {
      "method": "PUT",
      "url": "Organization/de4fd630-df6f-4ea7-86ce-492f45957398"
    }
  }, {
    "fullUrl": "https://madie.cms.gov/Practitioner/9ed1fd85-e353-47d0-a394-d41f5eff74e4",
    "resource": {
      "resourceType": "Practitioner",
      "id": "9ed1fd85-e353-47d0-a394-d41f5eff74e4",
      "identifier": [ {
        "system": "http://hl7.org/fhir/sid/us-npi",
        "value": "123456"
      } ],
      "name": [ {
        "family": "Evil",
        "prefix": [ "Dr" ]
      } ]
    },
    "request": {
      "method": "PUT",
      "url": "Practitioner/9ed1fd85-e353-47d0-a394-d41f5eff74e4"
    }
  }, {
    "fullUrl": "https://madie.cms.gov/MeasureReport/79c2cd64-5aae-422a-ad5b-4edc9afff54e",
    "resource": {
      "resourceType": "MeasureReport",
      "id": "79c2cd64-5aae-422a-ad5b-4edc9afff54e",
      "meta": {
        "profile": [ "http://hl7.org/fhir/us/cqfmeasures/StructureDefinition/test-case-cqfm" ]
      },
      "contained": [ {
        "resourceType": "Parameters",
        "id": "931175b5-f9c6-42e4-822a-963dca56a7b4-parameters",
        "parameter": [ {
          "name": "subject",
          "valueString": "e0de8852-5685-4892-899c-a8e225f8eb92"
        } ]
      } ],
      "extension": [ {
        "url": "http://hl7.org/fhir/StructureDefinition/cqf-inputParameters",
        "valueReference": {
          "reference": "#931175b5-f9c6-42e4-822a-963dca56a7b4-parameters"
        }
      }, {
        "url": "http://hl7.org/fhir/us/cqfmeasures/StructureDefinition/cqfm-testCaseDescription",
        "valueMarkdown": "Discharge Disposition = Expired \n"
      } ],
      "modifierExtension": [ {
        "url": "http://hl7.org/fhir/us/cqfmeasures/StructureDefinition/cqfm-isTestCase",
        "valueBoolean": true
      } ],
      "status": "complete",
      "type": "individual",
      "measure": "https://madie.cms.gov/Measure/CMS1028FHIRPCSevereOBComps",
      "period": {
        "start": "2026-01-01",
        "end": "2026-12-31"
      },
      "group": [ {
        "id": "Group_1",
        "population": [ {
          "id": "InitialPopulation_1",
          "code": {
            "coding": [ {
              "system": "http://terminology.hl7.org/CodeSystem/measure-population",
              "code": "initial-population",
              "display": "Initial Population"
            } ]
          },
          "count": 1
        }, {
          "id": "Denominator_1",
          "code": {
            "coding": [ {
              "system": "http://terminology.hl7.org/CodeSystem/measure-population",
              "code": "denominator",
              "display": "Denominator"
            } ]
          },
          "count": 1
        }, {
          "id": "Numerator_1",
          "code": {
            "coding": [ {
              "system": "http://terminology.hl7.org/CodeSystem/measure-population",
              "code": "numerator",
              "display": "Numerator"
            } ]
          },
          "count": 1
        }, {
          "id": "NumeratorExclusion_1",
          "code": {
            "coding": [ {
              "system": "http://terminology.hl7.org/CodeSystem/measure-population",
              "code": "numerator-exclusion",
              "display": "Numerator Exclusion"
            } ]
          },
          "count": 0
        } ],
        "measureScore": {
          "value": 0.0
        }
      }, {
        "id": "Group_2",
        "population": [ {
          "id": "InitialPopulation_2",
          "code": {
            "coding": [ {
              "system": "http://terminology.hl7.org/CodeSystem/measure-population",
              "code": "initial-population",
              "display": "Initial Population"
            } ]
          },
          "count": 1
        }, {
          "id": "Denominator_2",
          "code": {
            "coding": [ {
              "system": "http://terminology.hl7.org/CodeSystem/measure-population",
              "code": "denominator",
              "display": "Denominator"
            } ]
          },
          "count": 1
        }, {
          "id": "Numerator_2",
          "code": {
            "coding": [ {
              "system": "http://terminology.hl7.org/CodeSystem/measure-population",
              "code": "numerator",
              "display": "Numerator"
            } ]
          },
          "count": 1
        }, {
          "id": "NumeratorExclusion_2",
          "code": {
            "coding": [ {
              "system": "http://terminology.hl7.org/CodeSystem/measure-population",
              "code": "numerator-exclusion",
              "display": "Numerator Exclusion"
            } ]
          },
          "count": 0
        } ],
        "measureScore": {
          "value": 0.0
        }
      } ],
      "evaluatedResource": [ {
        "reference": "Patient/e0de8852-5685-4892-899c-a8e225f8eb92"
      }, {
        "reference": "Observation/72aaad00-3a58-4102-9701-06c1b4212d5c"
      }, {
        "reference": "Condition/f3640bbb-d472-4a87-b29a-895ce16fea0d"
      }, {
        "reference": "Encounter/ec3780c2-935f-4649-9d54-e9369d64fee2"
      }, {
        "reference": "Coverage/b9bcf29c-517f-4bb8-a6a9-e161d4b319fc"
      }, {
        "reference": "Procedure/8e640dc5-1a00-4fcd-a3c6-9644ec1d3055"
      }, {
        "reference": "Organization/de4fd630-df6f-4ea7-86ce-492f45957398"
      }, {
        "reference": "Practitioner/9ed1fd85-e353-47d0-a394-d41f5eff74e4"
      } ]
    },
    "request": {
      "method": "PUT",
      "url": "MeasureReport/79c2cd64-5aae-422a-ad5b-4edc9afff54e"
    }
  } ]
}