{
  "resourceType": "Bundle",
  "id": "tests-NumerPass-RVBMI-bundle",
  "type": "transaction",
  "entry": [ {
    "fullUrl": "https://madie.cms.gov/Patient/65163106-0b19-4548-a994-f44b35e162e0",
    "resource": {
      "resourceType": "Patient",
      "id": "65163106-0b19-4548-a994-f44b35e162e0",
      "meta": {
        "profile": [ "http://hl7.org/fhir/us/qicore/StructureDefinition/qicore-patient" ]
      },
      "extension": [ {
        "url": "http://hl7.org/fhir/us/core/StructureDefinition/us-core-race",
        "extension": [ {
          "url": "ombCategory",
          "valueCoding": {
            "system": "urn:oid:2.16.840.1.113883.6.238",
            "code": "2106-3",
            "display": "White"
          }
        }, {
          "url": "text",
          "valueString": "White"
        } ]
      }, {
        "url": "http://hl7.org/fhir/us/core/StructureDefinition/us-core-ethnicity",
        "extension": [ {
          "url": "ombCategory",
          "valueCoding": {
            "system": "urn:oid:2.16.840.1.113883.6.238",
            "code": "2135-2",
            "display": "Hispanic or Latino"
          }
        }, {
          "url": "text",
          "valueString": "Hispanic or Latino"
        } ]
      }, {
        "url": "http://hl7.org/fhir/us/core/StructureDefinition/us-core-sex",
        "valueCode": "248153007"
      } ],
      "identifier": [ {
        "system": "http://hospital.smarthealthit.org",
        "value": "999999999"
      } ],
      "name": [ {
        "family": "Example",
        "given": [ "Patient" ]
      } ],
      "gender": "female",
      "birthDate": "1956-01-01"
    },
    "request": {
      "method": "PUT",
      "url": "Patient/65163106-0b19-4548-a994-f44b35e162e0"
    }
  }, {
    "fullUrl": "https://madie.cms.gov/Encounter/d125c392-fe96-497f-aa99-8c1ad7971b10",
    "resource": {
      "resourceType": "Encounter",
      "id": "d125c392-fe96-497f-aa99-8c1ad7971b10",
      "meta": {
        "profile": [ "http://hl7.org/fhir/us/qicore/StructureDefinition/qicore-encounter" ]
      },
      "status": "finished",
      "class": {
        "system": "http://terminology.hl7.org/CodeSystem/v3-ActCode",
        "code": "IMP",
        "display": "inpatient encounter"
      },
      "type": [ {
        "coding": [ {
          "system": "http://snomed.info/sct",
          "code": "183452005",
          "display": "Emergency hospital admission (procedure)"
        } ]
      } ],
      "subject": {
        "reference": "Patient/65163106-0b19-4548-a994-f44b35e162e0"
      },
      "period": {
        "start": "2026-10-19T08:30:00.000+00:00",
        "end": "2026-10-21T08:15:00.000+00:00"
      },
      "reasonCode": [ {
        "coding": [ {
          "system": "http://snomed.info/sct",
          "code": "14047009"
        } ]
      }, {
        "coding": [ {
          "system": "http://snomed.info/sct",
          "code": "64859006"
        } ]
      } ]
    },
    "request": {
      "method": "PUT",
      "url": "Encounter/d125c392-fe96-497f-aa99-8c1ad7971b10"
    }
  }, {
    "fullUrl": "https://madie.cms.gov/Encounter/5067c745-8dfc-4a45-b5e9-430a25c4fd50",
    "resource": {
      "resourceType": "Encounter",
      "id": "5067c745-8dfc-4a45-b5e9-430a25c4fd50",
      "meta": {
        "profile": [ "http://hl7.org/fhir/us/qicore/StructureDefinition/qicore-encounter" ]
      },
      "status": "finished",
      "class": {
        "system": "http://terminology.hl7.org/CodeSystem/v3-ActCode",
        "code": "EMER",
        "display": "emergency encounter"
      },
      "type": [ {
        "coding": [ {
          "system": "http://snomed.info/sct",
          "code": "4525004",
          "display": "Emergency department patient visit (procedure)"
        } ]
      } ],
      "subject": {
        "reference": "Patient/65163106-0b19-4548-a994-f44b35e162e0"
      },
      "period": {
        "start": "2026-10-18T09:15:00.000+00:00",
        "end": "2026-10-19T08:15:00.000+00:00"
      }
    },
    "request": {
      "method": "PUT",
      "url": "Encounter/5067c745-8dfc-4a45-b5e9-430a25c4fd50"
    }
  }, {
    "fullUrl": "https://madie.cms.gov/Claim/47a0423e-b366-4d30-be6c-6507d610d4be",
    "resource": {
      "resourceType": "Claim",
      "id": "47a0423e-b366-4d30-be6c-6507d610d4be",
      "meta": {
        "profile": [ "http://hl7.org/fhir/us/qicore/StructureDefinition/qicore-claim" ]
      },
      "status": "active",
      "type": {
        "coding": [ {
          "system": "http://terminology.hl7.org/CodeSystem/claim-type",
          "code": "professional",
          "display": "Professional"
        } ]
      },
      "use": "claim",
      "patient": {
        "reference": "Patient/65163106-0b19-4548-a994-f44b35e162e0"
      },
      "created": "2026-10-22",
      "provider": {
        "reference": "Practitioner/practitioner-1"
      },
      "priority": {
        "coding": [ {
          "system": "http://terminology.hl7.org/CodeSystem/processpriority",
          "code": "normal"
        } ]
      },
      "diagnosis": [ {
        "sequence": 1,
        "diagnosisCodeableConcept": {
          "coding": [ {
            "system": "http://snomed.info/sct",
            "code": "14047009"
          } ]
        }
      } ],
      "insurance": [ {
        "sequence": 1,
        "focal": true,
        "coverage": {
          "reference": "Coverage/coverage-1"
        }
      } ],
      "item": [ {
        "sequence": 1,
        "diagnosisSequence": [ 1, 2 ],
        "productOrService": {
          "coding": [ {
            "system": "http://terminology.hl7.org/CodeSystem/ex-USCLS",
            "code": "1101"
          } ]
        },
        "encounter": [ {
          "reference": "Encounter/d125c392-fe96-497f-aa99-8c1ad7971b10"
        } ]
      } ]
    },
    "request": {
      "method": "PUT",
      "url": "Claim/47a0423e-b366-4d30-be6c-6507d610d4be"
    }
  }, {
    "fullUrl": "https://madie.cms.gov/Claim/f31a19dc-52d5-4502-8fa6-216ea1687601",
    "resource": {
      "resourceType": "Claim",
      "id": "f31a19dc-52d5-4502-8fa6-216ea1687601",
      "meta": {
        "profile": [ "http://hl7.org/fhir/us/qicore/StructureDefinition/qicore-claim" ]
      },
      "status": "active",
      "type": {
        "coding": [ {
          "system": "http://terminology.hl7.org/CodeSystem/claim-type",
          "code": "institutional",
          "display": "Institutional"
        } ]
      },
      "use": "claim",
      "patient": {
        "reference": "Patient/65163106-0b19-4548-a994-f44b35e162e0"
      },
      "created": "2026-11-01",
      "provider": {
        "reference": "Practitioner/practitioner-1"
      },
      "priority": {
        "coding": [ {
          "system": "http://terminology.hl7.org/CodeSystem/processpriority",
          "code": "normal"
        } ]
      },
      "diagnosis": [ {
        "sequence": 1,
        "diagnosisCodeableConcept": {
          "coding": [ {
            "system": "http://hl7.org/fhir/sid/icd-10-cm",
            "code": "M80.00XA",
            "display": "Age-related osteoporosis with current pathological fracture, unspecified site, initial encounter for fracture"
          } ]
        }
      } ],
      "insurance": [ {
        "sequence": 1,
        "focal": true,
        "coverage": {
          "reference": "Coverage/coverage-1"
        }
      } ],
      "item": [ {
        "sequence": 1,
        "diagnosisSequence": [ 1, 2 ],
        "productOrService": {
          "coding": [ {
            "system": "http://terminology.hl7.org/CodeSystem/ex-USCLS",
            "code": "1101"
          } ]
        },
        "encounter": [ {
          "reference": "Encounter/d125c392-fe96-497f-aa99-8c1ad7971b10"
        } ]
      } ]
    },
    "request": {
      "method": "PUT",
      "url": "Claim/f31a19dc-52d5-4502-8fa6-216ea1687601"
    }
  }, {
    "fullUrl": "https://madie.cms.gov/Observation/33fc93a7-bc9b-429a-9ddb-788353bfc91e",
    "resource": {
      "resourceType": "Observation",
      "id": "33fc93a7-bc9b-429a-9ddb-788353bfc91e",
      "meta": {
        "profile": [ "http://hl7.org/fhir/us/core/StructureDefinition/us-core-bmi" ]
      },
      "status": "final",
      "category": [ {
        "coding": [ {
          "system": "http://terminology.hl7.org/CodeSystem/observation-category",
          "code": "vital-signs",
          "display": "Vital Signs"
        } ]
      } ],
      "code": {
        "coding": [ {
          "system": "http://loinc.org",
          "code": "39156-5",
          "display": "Body mass index (BMI) [Ratio]"
        } ],
        "text": "BMI"
      },
      "subject": {
        "reference": "Patient/65163106-0b19-4548-a994-f44b35e162e0"
      },
      "effectiveDateTime": "2026-10-20T08:00:00.000+00:00",
      "valueQuantity": {
        "value": 28.3,
        "unit": "kg/m2",
        "system": "http://unitsofmeasure.org",
        "code": "kg/m2"
      }
    },
    "request": {
      "method": "PUT",
      "url": "Observation/33fc93a7-bc9b-429a-9ddb-788353bfc91e"
    }
  }, {
    "fullUrl": "https://madie.cms.gov/Practitioner/c6307019-8d9f-4d33-977c-6cea8f383d7b",
    "resource": {
      "resourceType": "Practitioner",
      "id": "c6307019-8d9f-4d33-977c-6cea8f383d7b",
      "identifier": [ {
        "system": "http://www.cms.gov/identifiers/pracitioners",
        "value": "P12345"
      } ],
      "name": [ {
        "use": "official",
        "family": "Smith",
        "given": [ "John" ]
      } ],
      "qualification": [ {
        "identifier": [ {
          "system": "http://hl7.org/fhir/sid/us-npi",
          "value": "1234567890"
        } ],
        "code": {
          "coding": [ {
            "system": "http://terminology.hl7.org/CodeSystem/v2-0203",
            "code": "MD",
            "display": "Medical License number"
          } ]
        }
      } ]
    },
    "request": {
      "method": "PUT",
      "url": "Practitioner/c6307019-8d9f-4d33-977c-6cea8f383d7b"
    }
  }, {
    "fullUrl": "https://madie.cms.gov/Coverage/0da33f92-4e5b-495d-9712-daee76442ab6",
    "resource": {
      "resourceType": "Coverage",
      "id": "0da33f92-4e5b-495d-9712-daee76442ab6",
      "status": "active",
      "beneficiary": {
        "reference": "Patient/65163106-0b19-4548-a994-f44b35e162e0"
      },
      "payor": [ {
        "reference": "Organization/6011193b-99d1-4e55-b646-54de077fcb6e"
      } ]
    },
    "request": {
      "method": "PUT",
      "url": "Coverage/0da33f92-4e5b-495d-9712-daee76442ab6"
    }
  }, {
    "fullUrl": "https://madie.cms.gov/Organization/6011193b-99d1-4e55-b646-54de077fcb6e",
    "resource": {
      "resourceType": "Organization",
      "id": "6011193b-99d1-4e55-b646-54de077fcb6e",
      "identifier": [ {
        "system": "http://cms.gov/insurance-ids",
        "value": "AET12345"
      } ],
      "type": [ {
        "coding": [ {
          "system": "http://terminology.hl7.org/CodeSystem/organization-type",
          "code": "prov",
          "display": "Healthcare Provider"
        } ]
      } ],
      "name": "Aetna Insurance",
      "telecom": [ {
        "system": "phone",
        "value": "+1-800-123-4567"
      } ],
      "address": [ {
        "line": [ "123 Main Street" ],
        "city": "Cityville",
        "state": "CA",
        "postalCode": "12345",
        "country": "USA"
      } ]
    },
    "request": {
      "method": "PUT",
      "url": "Organization/6011193b-99d1-4e55-b646-54de077fcb6e"
    }
  }, {
    "fullUrl": "https://madie.cms.gov/MeasureReport/a2537d3f-2d92-4e2d-9a9e-f228af25b987",
    "resource": {
      "resourceType": "MeasureReport",
      "id": "a2537d3f-2d92-4e2d-9a9e-f228af25b987",
      "meta": {
        "profile": [ "http://hl7.org/fhir/us/cqfmeasures/StructureDefinition/test-case-cqfm" ]
      },
      "contained": [ {
        "resourceType": "Parameters",
        "id": "dafc661d-2bb1-4522-bb6e-757e3a7d8050-parameters",
        "parameter": [ {
          "name": "subject",
          "valueString": "65163106-0b19-4548-a994-f44b35e162e0"
        } ]
      } ],
      "extension": [ {
        "url": "http://hl7.org/fhir/StructureDefinition/cqf-inputParameters",
        "valueReference": {
          "reference": "#dafc661d-2bb1-4522-bb6e-757e3a7d8050-parameters"
        }
      }, {
        "url": "http://hl7.org/fhir/us/cqfmeasures/StructureDefinition/cqfm-testCaseDescription",
        "valueMarkdown": "Encounter with a BMI Risk Variable"
      } ],
      "modifierExtension": [ {
        "url": "http://hl7.org/fhir/us/cqfmeasures/StructureDefinition/cqfm-isTestCase",
        "valueBoolean": true
      } ],
      "status": "complete",
      "type": "individual",
      "measure": "https://madie.cms.gov/Measure/CMS1017FHIRHHFI",
      "period": {
        "start": "2026-01-01",
        "end": "2026-12-31"
      },
      "group": [ {
        "id": "Group_1",
        "population": [ {
          "id": "InitialPopulation_1",
          "code": {
            "coding": [ {
              "system": "http://terminology.hl7.org/CodeSystem/measure-population",
              "code": "initial-population",
              "display": "Initial Population"
            } ]
          },
          "count": 1
        }, {
          "id": "Denominator_1",
          "code": {
            "coding": [ {
              "system": "http://terminology.hl7.org/CodeSystem/measure-population",
              "code": "denominator",
              "display": "Denominator"
            } ]
          },
          "count": 1
        }, {
          "id": "DenominatorExclusion_1",
          "code": {
            "coding": [ {
              "system": "http://terminology.hl7.org/CodeSystem/measure-population",
              "code": "denominator-exclusion",
              "display": "Denominator Exclusion"
            } ]
          },
          "count": 0
        }, {
          "id": "Numerator_1",
          "code": {
            "coding": [ {
              "system": "http://terminology.hl7.org/CodeSystem/measure-population",
              "code": "numerator",
              "display": "Numerator"
            } ]
          },
          "count": 1
        }, {
          "id": "NumeratorExclusion_1",
          "code": {
            "coding": [ {
              "system": "http://terminology.hl7.org/CodeSystem/measure-population",
              "code": "numerator-exclusion",
              "display": "Numerator Exclusion"
            } ]
          },
          "count": 0
        }, {
          "id": "MeasureObservation_1_1_1",
          "code": {
            "coding": [ {
              "system": "http://terminology.hl7.org/CodeSystem/measure-population",
              "code": "measure-observation",
              "display": "Measure Observation"
            } ]
          },
          "count": 2
        }, {
          "id": "MeasureObservation_1_2_1",
          "code": {
            "coding": [ {
              "system": "http://terminology.hl7.org/CodeSystem/measure-population",
              "code": "measure-observation",
              "display": "Measure Observation"
            } ]
          },
          "count": 1
        } ],
        "measureScore": {
          "value": 0.0
        }
      } ],
      "evaluatedResource": [ {
        "reference": "Patient/65163106-0b19-4548-a994-f44b35e162e0"
      }, {
        "reference": "Encounter/d125c392-fe96-497f-aa99-8c1ad7971b10"
      }, {
        "reference": "Encounter/5067c745-8dfc-4a45-b5e9-430a25c4fd50"
      }, {
        "reference": "Claim/47a0423e-b366-4d30-be6c-6507d610d4be"
      }, {
        "reference": "Claim/f31a19dc-52d5-4502-8fa6-216ea1687601"
      }, {
        "reference": "Observation/33fc93a7-bc9b-429a-9ddb-788353bfc91e"
      }, {
        "reference": "Practitioner/c6307019-8d9f-4d33-977c-6cea8f383d7b"
      }, {
        "reference": "Coverage/0da33f92-4e5b-495d-9712-daee76442ab6"
      }, {
        "reference": "Organization/6011193b-99d1-4e55-b646-54de077fcb6e"
      } ]
    },
    "request": {
      "method": "PUT",
      "url": "MeasureReport/a2537d3f-2d92-4e2d-9a9e-f228af25b987"
    }
  } ]
}