{
  "resourceType": "Bundle",
  "id": "633b3f9f0968f80122503ce3",
  "type": "transaction",
  "entry": [ {
    "fullUrl": "https://madie.cms.gov/Patient/258bd062-b042-4192-9e55-a66580eb135b",
    "resource": {
      "resourceType": "Patient",
      "id": "258bd062-b042-4192-9e55-a66580eb135b",
      "meta": {
        "profile": [ "http://hl7.org/fhir/us/qicore/StructureDefinition/qicore-patient" ]
      },
      "text": {
        "status": "generated",
        "div": "<div xmlns=\"http://www.w3.org/1999/xhtml\"><div class=\"hapiHeaderText\">EGAFirstAss20wkLastAss19wk<b>DENOMFAIL</b></div><table class=\"hapiPropertyTable\"><tbody><tr><td>Date of birth</td><td><span>01 February 2004</span></td></tr></tbody></table></div>"
      },
      "extension": [ {
        "url": "http://hl7.org/fhir/us/core/StructureDefinition/us-core-race",
        "extension": [ {
          "url": "ombCategory",
          "valueCoding": {
            "system": "urn:oid:2.16.840.1.113883.6.238",
            "code": "1002-5",
            "display": "American Indian or Alaska Native",
            "userSelected": true
          }
        }, {
          "url": "text",
          "valueString": "American Indian or Alaska Native"
        } ]
      }, {
        "url": "http://hl7.org/fhir/us/core/StructureDefinition/us-core-ethnicity",
        "extension": [ {
          "url": "ombCategory",
          "valueCoding": {
            "system": "urn:oid:2.16.840.1.113883.6.238",
            "code": "2135-2",
            "display": "Hispanic or Latino",
            "userSelected": true
          }
        }, {
          "url": "text",
          "valueString": "Hispanic or Latino"
        } ]
      } ],
      "identifier": [ {
        "type": {
          "coding": [ {
            "system": "http://terminology.hl7.org/CodeSystem/v2-0203",
            "code": "MR"
          } ]
        },
        "system": "https://bonnie-fhir.healthit.gov/",
        "value": "633b3f9f0968f80122503ce3"
      } ],
      "active": true,
      "name": [ {
        "use": "usual",
        "family": "DENOMFail",
        "given": [ "EGAFirstAss20wkLastAss19wk" ]
      } ],
      "gender": "female",
      "birthDate": "2005-02-01"
    },
    "request": {
      "method": "PUT",
      "url": "Patient/258bd062-b042-4192-9e55-a66580eb135b"
    }
  }, {
    "fullUrl": "https://madie.cms.gov/Observation/2b7274e3-6124-4ea3-9f8f-17f8344a7bb0",
    "resource": {
      "resourceType": "Observation",
      "id": "2b7274e3-6124-4ea3-9f8f-17f8344a7bb0",
      "meta": {
        "profile": [ "http://hl7.org/fhir/us/qicore/StructureDefinition/qicore-simple-observation" ]
      },
      "status": "final",
      "category": [ {
        "coding": [ {
          "system": "http://terminology.hl7.org/CodeSystem/observation-category",
          "code": "exam",
          "display": "exam",
          "userSelected": true
        } ]
      } ],
      "code": {
        "coding": [ {
          "system": "http://loinc.org",
          "code": "93857-1"
        } ]
      },
      "subject": {
        "reference": "Patient/258bd062-b042-4192-9e55-a66580eb135b"
      },
      "effectiveDateTime": "2026-02-01T08:00:00.000+00:00",
      "performer": [ {
        "reference": "Organization/example1",
        "display": "Hendricks Country Hospital"
      } ],
      "valueDateTime": "2026-02-01T08:00:00.000+00:00"
    },
    "request": {
      "method": "PUT",
      "url": "Observation/2b7274e3-6124-4ea3-9f8f-17f8344a7bb0"
    }
  }, {
    "fullUrl": "https://madie.cms.gov/Observation/c3b30963-646e-49aa-9547-67b9d421d7a0",
    "resource": {
      "resourceType": "Observation",
      "id": "c3b30963-646e-49aa-9547-67b9d421d7a0",
      "meta": {
        "profile": [ "http://hl7.org/fhir/us/qicore/StructureDefinition/qicore-simple-observation" ]
      },
      "status": "final",
      "category": [ {
        "coding": [ {
          "system": "http://terminology.hl7.org/CodeSystem/observation-category",
          "code": "exam",
          "display": "exam",
          "userSelected": true
        } ]
      } ],
      "code": {
        "coding": [ {
          "system": "http://loinc.org",
          "code": "11884-4"
        } ]
      },
      "subject": {
        "reference": "Patient/258bd062-b042-4192-9e55-a66580eb135b"
      },
      "effectiveDateTime": "2026-02-01T07:00:00.000+00:00",
      "performer": [ {
        "reference": "Organization/example1",
        "display": "Hendricks Country Hospital"
      } ],
      "valueQuantity": {
        "value": 20,
        "unit": "wk"
      }
    },
    "request": {
      "method": "PUT",
      "url": "Observation/c3b30963-646e-49aa-9547-67b9d421d7a0"
    }
  }, {
    "fullUrl": "https://madie.cms.gov/Observation/8e40f5f6-7181-4986-81fe-7cd08149c893",
    "resource": {
      "resourceType": "Observation",
      "id": "8e40f5f6-7181-4986-81fe-7cd08149c893",
      "meta": {
        "profile": [ "http://hl7.org/fhir/us/qicore/StructureDefinition/qicore-simple-observation" ]
      },
      "status": "final",
      "category": [ {
        "coding": [ {
          "system": "http://terminology.hl7.org/CodeSystem/observation-category",
          "code": "exam",
          "display": "exam",
          "userSelected": true
        } ]
      } ],
      "code": {
        "coding": [ {
          "system": "http://loinc.org",
          "code": "11884-4"
        } ]
      },
      "subject": {
        "reference": "Patient/258bd062-b042-4192-9e55-a66580eb135b"
      },
      "effectiveDateTime": "2026-02-01T08:00:00.000+00:00",
      "performer": [ {
        "reference": "Organization/example1",
        "display": "Hendricks Country Hospital"
      } ],
      "valueQuantity": {
        "value": 19,
        "unit": "wk"
      }
    },
    "request": {
      "method": "PUT",
      "url": "Observation/8e40f5f6-7181-4986-81fe-7cd08149c893"
    }
  }, {
    "fullUrl": "https://madie.cms.gov/Encounter/64d7e032-8f3d-4422-baa6-efc79e63a0c2",
    "resource": {
      "resourceType": "Encounter",
      "id": "64d7e032-8f3d-4422-baa6-efc79e63a0c2",
      "meta": {
        "profile": [ "http://hl7.org/fhir/us/qicore/StructureDefinition/qicore-encounter" ]
      },
      "status": "finished",
      "class": {
        "system": "http://terminology.hl7.org/CodeSystem/v3-ActCode",
        "code": "IMP",
        "display": "inpatient encounter"
      },
      "type": [ {
        "coding": [ {
          "system": "http://snomed.info/sct",
          "code": "183452005"
        } ]
      } ],
      "subject": {
        "reference": "Patient/258bd062-b042-4192-9e55-a66580eb135b"
      },
      "period": {
        "start": "2026-02-01T08:00:00.000+00:00",
        "end": "2026-02-05T08:15:00.000+00:00"
      },
      "reasonCode": [ {
        "coding": [ {
          "system": "http://snomed.info/sct",
          "code": "169826009",
          "display": "Single live birth from singleton pregnancy (finding)"
        } ]
      } ]
    },
    "request": {
      "method": "PUT",
      "url": "Encounter/64d7e032-8f3d-4422-baa6-efc79e63a0c2"
    }
  }, {
    "fullUrl": "https://madie.cms.gov/Coverage/48a9b322-b763-4060-aea9-aa4e78aad733",
    "resource": {
      "resourceType": "Coverage",
      "id": "48a9b322-b763-4060-aea9-aa4e78aad733",
      "status": "active",
      "subscriberId": "523435",
      "beneficiary": {
        "reference": "Patient/258bd062-b042-4192-9e55-a66580eb135b"
      },
      "relationship": {
        "coding": [ {
          "system": "http://terminology.hl7.org/CodeSystem/subscriber-relationship",
          "code": "self"
        } ]
      },
      "period": {
        "start": "2005-02-01T08:00:00.000+00:00"
      },
      "payor": [ {
        "reference": "Organization/114c07d9-8971-42c3-8f29-f4cdaec1c08d"
      } ]
    },
    "request": {
      "method": "PUT",
      "url": "Coverage/48a9b322-b763-4060-aea9-aa4e78aad733"
    }
  }, {
    "fullUrl": "https://madie.cms.gov/Procedure/a09752db-d18c-47d4-9337-73a77d28fbf1",
    "resource": {
      "resourceType": "Procedure",
      "id": "a09752db-d18c-47d4-9337-73a77d28fbf1",
      "meta": {
        "profile": [ "http://hl7.org/fhir/us/qicore/StructureDefinition/qicore-procedure" ]
      },
      "extension": [ {
        "url": "http://hl7.org/fhir/us/qicore/StructureDefinition/qicore-recorded",
        "valueDateTime": "2014-04-05T13:35:00.000+00:00"
      } ],
      "status": "completed",
      "code": {
        "coding": [ {
          "system": "http://snomed.info/sct",
          "code": "10745001"
        } ]
      },
      "subject": {
        "reference": "Patient/258bd062-b042-4192-9e55-a66580eb135b"
      },
      "performedPeriod": {
        "start": "2026-02-01T08:00:00.000+00:00",
        "end": "2026-02-05T08:15:00.000+00:00"
      }
    },
    "request": {
      "method": "PUT",
      "url": "Procedure/a09752db-d18c-47d4-9337-73a77d28fbf1"
    }
  }, {
    "fullUrl": "https://madie.cms.gov/Organization/114c07d9-8971-42c3-8f29-f4cdaec1c08d",
    "resource": {
      "resourceType": "Organization",
      "id": "114c07d9-8971-42c3-8f29-f4cdaec1c08d",
      "meta": {
        "profile": [ "http://hl7.org/fhir/us/qicore/StructureDefinition/qicore-organization" ]
      },
      "identifier": [ {
        "use": "temp",
        "system": "urn:oid:2.16.840.1.113883.4.4",
        "value": "21-3259825"
      } ],
      "active": true,
      "type": [ {
        "coding": [ {
          "system": "http://terminology.hl7.org/CodeSystem/organization-type",
          "code": "pay",
          "display": "Payer"
        } ]
      } ],
      "name": "Blue Cross Blue Shield of Texas",
      "telecom": [ {
        "system": "phone",
        "value": "(+1) 972-766-6900"
      } ],
      "address": [ {
        "use": "billing",
        "type": "postal",
        "line": [ "P.O. Box 660044" ],
        "city": "Dallas",
        "state": "TX",
        "postalCode": "75266-0044",
        "country": "USA"
      } ]
    },
    "request": {
      "method": "PUT",
      "url": "Organization/114c07d9-8971-42c3-8f29-f4cdaec1c08d"
    }
  }, {
    "fullUrl": "https://madie.cms.gov/Practitioner/b49ed33f-1be0-4c0e-b2eb-7e35c82c5e68",
    "resource": {
      "resourceType": "Practitioner",
      "id": "b49ed33f-1be0-4c0e-b2eb-7e35c82c5e68",
      "meta": {
        "profile": [ "http://hl7.org/fhir/us/qicore/StructureDefinition/qicore-practitioner" ]
      },
      "identifier": [ {
        "system": "http://hl7.org/fhir/sid/us-npi",
        "value": "1234567890"
      } ],
      "name": [ {
        "family": "Evil",
        "prefix": [ "Dr" ]
      } ]
    },
    "request": {
      "method": "PUT",
      "url": "Practitioner/b49ed33f-1be0-4c0e-b2eb-7e35c82c5e68"
    }
  }, {
    "fullUrl": "https://madie.cms.gov/MeasureReport/726bf5fd-9cce-41e4-9200-a054552a3859",
    "resource": {
      "resourceType": "MeasureReport",
      "id": "726bf5fd-9cce-41e4-9200-a054552a3859",
      "meta": {
        "profile": [ "http://hl7.org/fhir/us/cqfmeasures/StructureDefinition/test-case-cqfm" ]
      },
      "contained": [ {
        "resourceType": "Parameters",
        "id": "c98c5158-67d5-49d5-a11d-9e23bb9d6d43-parameters",
        "parameter": [ {
          "name": "subject",
          "valueString": "258bd062-b042-4192-9e55-a66580eb135b"
        } ]
      } ],
      "extension": [ {
        "url": "http://hl7.org/fhir/StructureDefinition/cqf-inputParameters",
        "valueReference": {
          "reference": "#c98c5158-67d5-49d5-a11d-9e23bb9d6d43-parameters"
        }
      }, {
        "url": "http://hl7.org/fhir/us/cqfmeasures/StructureDefinition/cqfm-testCaseDescription",
        "valueMarkdown": "Estimated Gestational Age is 20 on 1st assessment, 19 on last.\n"
      } ],
      "modifierExtension": [ {
        "url": "http://hl7.org/fhir/us/cqfmeasures/StructureDefinition/cqfm-isTestCase",
        "valueBoolean": true
      } ],
      "status": "complete",
      "type": "individual",
      "measure": "https://madie.cms.gov/Measure/CMS1028FHIRPCSevereOBComps",
      "period": {
        "start": "2026-01-01",
        "end": "2026-12-31"
      },
      "group": [ {
        "id": "Group_1",
        "population": [ {
          "id": "InitialPopulation_1",
          "code": {
            "coding": [ {
              "system": "http://terminology.hl7.org/CodeSystem/measure-population",
              "code": "initial-population",
              "display": "Initial Population"
            } ]
          },
          "count": 1
        }, {
          "id": "Denominator_1",
          "code": {
            "coding": [ {
              "system": "http://terminology.hl7.org/CodeSystem/measure-population",
              "code": "denominator",
              "display": "Denominator"
            } ]
          },
          "count": 0
        }, {
          "id": "Numerator_1",
          "code": {
            "coding": [ {
              "system": "http://terminology.hl7.org/CodeSystem/measure-population",
              "code": "numerator",
              "display": "Numerator"
            } ]
          },
          "count": 0
        }, {
          "id": "NumeratorExclusion_1",
          "code": {
            "coding": [ {
              "system": "http://terminology.hl7.org/CodeSystem/measure-population",
              "code": "numerator-exclusion",
              "display": "Numerator Exclusion"
            } ]
          },
          "count": 0
        } ],
        "measureScore": {
          "value": 0.0
        }
      }, {
        "id": "Group_2",
        "population": [ {
          "id": "InitialPopulation_2",
          "code": {
            "coding": [ {
              "system": "http://terminology.hl7.org/CodeSystem/measure-population",
              "code": "initial-population",
              "display": "Initial Population"
            } ]
          },
          "count": 1
        }, {
          "id": "Denominator_2",
          "code": {
            "coding": [ {
              "system": "http://terminology.hl7.org/CodeSystem/measure-population",
              "code": "denominator",
              "display": "Denominator"
            } ]
          },
          "count": 0
        }, {
          "id": "Numerator_2",
          "code": {
            "coding": [ {
              "system": "http://terminology.hl7.org/CodeSystem/measure-population",
              "code": "numerator",
              "display": "Numerator"
            } ]
          },
          "count": 0
        }, {
          "id": "NumeratorExclusion_2",
          "code": {
            "coding": [ {
              "system": "http://terminology.hl7.org/CodeSystem/measure-population",
              "code": "numerator-exclusion",
              "display": "Numerator Exclusion"
            } ]
          },
          "count": 0
        } ],
        "measureScore": {
          "value": 0.0
        }
      } ],
      "evaluatedResource": [ {
        "reference": "Patient/258bd062-b042-4192-9e55-a66580eb135b"
      }, {
        "reference": "Observation/2b7274e3-6124-4ea3-9f8f-17f8344a7bb0"
      }, {
        "reference": "Observation/c3b30963-646e-49aa-9547-67b9d421d7a0"
      }, {
        "reference": "Observation/8e40f5f6-7181-4986-81fe-7cd08149c893"
      }, {
        "reference": "Encounter/64d7e032-8f3d-4422-baa6-efc79e63a0c2"
      }, {
        "reference": "Coverage/48a9b322-b763-4060-aea9-aa4e78aad733"
      }, {
        "reference": "Procedure/a09752db-d18c-47d4-9337-73a77d28fbf1"
      }, {
        "reference": "Organization/114c07d9-8971-42c3-8f29-f4cdaec1c08d"
      }, {
        "reference": "Practitioner/b49ed33f-1be0-4c0e-b2eb-7e35c82c5e68"
      } ]
    },
    "request": {
      "method": "PUT",
      "url": "MeasureReport/726bf5fd-9cce-41e4-9200-a054552a3859"
    }
  } ]
}