{
  "resourceType": "Bundle",
  "id": "633b3f9e0968f80122503cca",
  "type": "transaction",
  "entry": [ {
    "fullUrl": "https://madie.cms.gov/Patient/d55a27c2-877b-471c-ad1d-92a9ea233c61",
    "resource": {
      "resourceType": "Patient",
      "id": "d55a27c2-877b-471c-ad1d-92a9ea233c61",
      "meta": {
        "profile": [ "http://hl7.org/fhir/us/qicore/StructureDefinition/qicore-patient" ]
      },
      "text": {
        "status": "generated",
        "div": "<div xmlns=\"http://www.w3.org/1999/xhtml\"><div class=\"hapiHeaderText\">AssPrfDelRelvDt1MinB4EncIPStarts<b>DENOMFAIL</b></div><table class=\"hapiPropertyTable\"><tbody><tr><td>Date of birth</td><td><span>01 February 2004</span></td></tr></tbody></table></div>"
      },
      "extension": [ {
        "url": "http://hl7.org/fhir/us/core/StructureDefinition/us-core-race",
        "extension": [ {
          "url": "ombCategory",
          "valueCoding": {
            "system": "urn:oid:2.16.840.1.113883.6.238",
            "code": "1002-5",
            "display": "American Indian or Alaska Native",
            "userSelected": true
          }
        }, {
          "url": "text",
          "valueString": "American Indian or Alaska Native"
        } ]
      }, {
        "url": "http://hl7.org/fhir/us/core/StructureDefinition/us-core-ethnicity",
        "extension": [ {
          "url": "ombCategory",
          "valueCoding": {
            "system": "urn:oid:2.16.840.1.113883.6.238",
            "code": "2135-2",
            "display": "Hispanic or Latino",
            "userSelected": true
          }
        }, {
          "url": "text",
          "valueString": "Hispanic or Latino"
        } ]
      } ],
      "identifier": [ {
        "type": {
          "coding": [ {
            "system": "http://terminology.hl7.org/CodeSystem/v2-0203",
            "code": "MR"
          } ]
        },
        "system": "https://bonnie-fhir.healthit.gov/",
        "value": "633b3f9e0968f80122503cca"
      } ],
      "active": true,
      "name": [ {
        "use": "usual",
        "family": "DENOMFail",
        "given": [ "AssPrfDelRelvDt1MinB4EncIPStarts" ]
      } ],
      "gender": "female",
      "birthDate": "2005-02-01"
    },
    "request": {
      "method": "PUT",
      "url": "Patient/d55a27c2-877b-471c-ad1d-92a9ea233c61"
    }
  }, {
    "fullUrl": "https://madie.cms.gov/Observation/fdb97cce-c7e7-40a4-9e2e-cd5dd23e38ea",
    "resource": {
      "resourceType": "Observation",
      "id": "fdb97cce-c7e7-40a4-9e2e-cd5dd23e38ea",
      "meta": {
        "profile": [ "http://hl7.org/fhir/us/qicore/StructureDefinition/qicore-simple-observation" ]
      },
      "status": "final",
      "category": [ {
        "coding": [ {
          "system": "http://terminology.hl7.org/CodeSystem/observation-category",
          "code": "exam",
          "display": "exam",
          "userSelected": true
        } ]
      } ],
      "code": {
        "coding": [ {
          "system": "http://loinc.org",
          "code": "93857-1"
        } ]
      },
      "subject": {
        "reference": "Patient/d55a27c2-877b-471c-ad1d-92a9ea233c61"
      },
      "effectiveDateTime": "2026-02-01T07:59:00.000+00:00",
      "performer": [ {
        "reference": "Organization/example1",
        "display": "Hendricks Country Hospital"
      } ],
      "valueDateTime": "2026-02-01T08:00:00.000+00:00"
    },
    "request": {
      "method": "PUT",
      "url": "Observation/fdb97cce-c7e7-40a4-9e2e-cd5dd23e38ea"
    }
  }, {
    "fullUrl": "https://madie.cms.gov/Observation/6f74ba90-d15b-4590-838f-b02ace4ccbd7",
    "resource": {
      "resourceType": "Observation",
      "id": "6f74ba90-d15b-4590-838f-b02ace4ccbd7",
      "meta": {
        "profile": [ "http://hl7.org/fhir/us/qicore/StructureDefinition/qicore-simple-observation" ]
      },
      "status": "final",
      "category": [ {
        "coding": [ {
          "system": "http://terminology.hl7.org/CodeSystem/observation-category",
          "code": "exam",
          "display": "exam",
          "userSelected": true
        } ]
      } ],
      "code": {
        "coding": [ {
          "system": "http://loinc.org",
          "code": "11778-8"
        } ]
      },
      "subject": {
        "reference": "Patient/d55a27c2-877b-471c-ad1d-92a9ea233c61"
      },
      "effectiveDateTime": "2026-02-01T08:00:00.000+00:00",
      "performer": [ {
        "reference": "Organization/example1",
        "display": "Hendricks Country Hospital"
      } ],
      "valueDateTime": "2026-02-01T08:00:00.000+00:00"
    },
    "request": {
      "method": "PUT",
      "url": "Observation/6f74ba90-d15b-4590-838f-b02ace4ccbd7"
    }
  }, {
    "fullUrl": "https://madie.cms.gov/Encounter/bc6ef1a8-3fbf-41dc-86a3-2cc812562adf",
    "resource": {
      "resourceType": "Encounter",
      "id": "bc6ef1a8-3fbf-41dc-86a3-2cc812562adf",
      "meta": {
        "profile": [ "http://hl7.org/fhir/us/qicore/StructureDefinition/qicore-encounter" ]
      },
      "status": "finished",
      "class": {
        "system": "http://terminology.hl7.org/CodeSystem/v3-ActCode",
        "code": "IMP",
        "display": "inpatient encounter"
      },
      "type": [ {
        "coding": [ {
          "system": "http://snomed.info/sct",
          "code": "183452005"
        } ]
      } ],
      "subject": {
        "reference": "Patient/d55a27c2-877b-471c-ad1d-92a9ea233c61"
      },
      "period": {
        "start": "2026-02-01T08:00:00.000+00:00",
        "end": "2026-02-05T08:15:00.000+00:00"
      },
      "reasonCode": [ {
        "coding": [ {
          "system": "http://snomed.info/sct",
          "code": "169826009",
          "display": "Single live birth from singleton pregnancy (finding)"
        } ]
      } ]
    },
    "request": {
      "method": "PUT",
      "url": "Encounter/bc6ef1a8-3fbf-41dc-86a3-2cc812562adf"
    }
  }, {
    "fullUrl": "https://madie.cms.gov/Coverage/f9728c66-1bdf-4b12-b142-ded1f53e5942",
    "resource": {
      "resourceType": "Coverage",
      "id": "f9728c66-1bdf-4b12-b142-ded1f53e5942",
      "status": "active",
      "subscriberId": "523435",
      "beneficiary": {
        "reference": "Patient/d55a27c2-877b-471c-ad1d-92a9ea233c61"
      },
      "relationship": {
        "coding": [ {
          "system": "http://terminology.hl7.org/CodeSystem/subscriber-relationship",
          "code": "self"
        } ]
      },
      "period": {
        "start": "2005-02-01T08:00:00.000+00:00"
      },
      "payor": [ {
        "reference": "Organization/a636dcd5-5005-4706-a3ef-05c80c5f11b6"
      } ]
    },
    "request": {
      "method": "PUT",
      "url": "Coverage/f9728c66-1bdf-4b12-b142-ded1f53e5942"
    }
  }, {
    "fullUrl": "https://madie.cms.gov/Procedure/737abf50-bda4-4a4a-b0f3-e0f50fcdc755",
    "resource": {
      "resourceType": "Procedure",
      "id": "737abf50-bda4-4a4a-b0f3-e0f50fcdc755",
      "meta": {
        "profile": [ "http://hl7.org/fhir/us/qicore/StructureDefinition/qicore-procedure" ]
      },
      "extension": [ {
        "url": "http://hl7.org/fhir/us/qicore/StructureDefinition/qicore-recorded",
        "valueDateTime": "2014-04-05T13:35:00.000+00:00"
      } ],
      "status": "completed",
      "code": {
        "coding": [ {
          "system": "http://snomed.info/sct",
          "code": "10745001"
        } ]
      },
      "subject": {
        "reference": "Patient/d55a27c2-877b-471c-ad1d-92a9ea233c61"
      },
      "performedPeriod": {
        "start": "2026-02-01T08:00:00.000+00:00",
        "end": "2026-02-05T08:15:00.000+00:00"
      }
    },
    "request": {
      "method": "PUT",
      "url": "Procedure/737abf50-bda4-4a4a-b0f3-e0f50fcdc755"
    }
  }, {
    "fullUrl": "https://madie.cms.gov/Organization/a636dcd5-5005-4706-a3ef-05c80c5f11b6",
    "resource": {
      "resourceType": "Organization",
      "id": "a636dcd5-5005-4706-a3ef-05c80c5f11b6",
      "meta": {
        "profile": [ "http://hl7.org/fhir/us/qicore/StructureDefinition/qicore-organization" ]
      },
      "identifier": [ {
        "use": "temp",
        "system": "urn:oid:2.16.840.1.113883.4.4",
        "value": "21-3259825"
      } ],
      "active": true,
      "type": [ {
        "coding": [ {
          "system": "http://terminology.hl7.org/CodeSystem/organization-type",
          "code": "pay",
          "display": "Payer"
        } ]
      } ],
      "name": "Blue Cross Blue Shield of Texas",
      "telecom": [ {
        "system": "phone",
        "value": "(+1) 972-766-6900"
      } ],
      "address": [ {
        "use": "billing",
        "type": "postal",
        "line": [ "P.O. Box 660044" ],
        "city": "Dallas",
        "state": "TX",
        "postalCode": "75266-0044",
        "country": "USA"
      } ]
    },
    "request": {
      "method": "PUT",
      "url": "Organization/a636dcd5-5005-4706-a3ef-05c80c5f11b6"
    }
  }, {
    "fullUrl": "https://madie.cms.gov/Practitioner/5cf858ec-af0e-4695-ab56-5e663095d26e",
    "resource": {
      "resourceType": "Practitioner",
      "id": "5cf858ec-af0e-4695-ab56-5e663095d26e",
      "meta": {
        "profile": [ "http://hl7.org/fhir/us/qicore/StructureDefinition/qicore-practitioner" ]
      },
      "identifier": [ {
        "system": "http://hl7.org/fhir/sid/us-npi",
        "value": "1234567890"
      } ],
      "name": [ {
        "family": "Evil",
        "prefix": [ "Dr" ]
      } ]
    },
    "request": {
      "method": "PUT",
      "url": "Practitioner/5cf858ec-af0e-4695-ab56-5e663095d26e"
    }
  }, {
    "fullUrl": "https://madie.cms.gov/MeasureReport/eaa95e45-5fc3-455f-8ce0-9704da6c5204",
    "resource": {
      "resourceType": "MeasureReport",
      "id": "eaa95e45-5fc3-455f-8ce0-9704da6c5204",
      "meta": {
        "profile": [ "http://hl7.org/fhir/us/cqfmeasures/StructureDefinition/test-case-cqfm" ]
      },
      "contained": [ {
        "resourceType": "Parameters",
        "id": "03026c8c-d3a4-4fe4-9d76-648d24953cc5-parameters",
        "parameter": [ {
          "name": "subject",
          "valueString": "d55a27c2-877b-471c-ad1d-92a9ea233c61"
        } ]
      } ],
      "extension": [ {
        "url": "http://hl7.org/fhir/StructureDefinition/cqf-inputParameters",
        "valueReference": {
          "reference": "#03026c8c-d3a4-4fe4-9d76-648d24953cc5-parameters"
        }
      }, {
        "url": "http://hl7.org/fhir/us/cqfmeasures/StructureDefinition/cqfm-testCaseDescription",
        "valueMarkdown": "Relevant date/Time of delivery (based on assessment performed) is equal to 1 minute before the encounter starts\n"
      } ],
      "modifierExtension": [ {
        "url": "http://hl7.org/fhir/us/cqfmeasures/StructureDefinition/cqfm-isTestCase",
        "valueBoolean": true
      } ],
      "status": "complete",
      "type": "individual",
      "measure": "https://madie.cms.gov/Measure/CMS1028FHIRPCSevereOBComps",
      "period": {
        "start": "2026-01-01",
        "end": "2026-12-31"
      },
      "group": [ {
        "id": "Group_1",
        "population": [ {
          "id": "InitialPopulation_1",
          "code": {
            "coding": [ {
              "system": "http://terminology.hl7.org/CodeSystem/measure-population",
              "code": "initial-population",
              "display": "Initial Population"
            } ]
          },
          "count": 1
        }, {
          "id": "Denominator_1",
          "code": {
            "coding": [ {
              "system": "http://terminology.hl7.org/CodeSystem/measure-population",
              "code": "denominator",
              "display": "Denominator"
            } ]
          },
          "count": 0
        }, {
          "id": "Numerator_1",
          "code": {
            "coding": [ {
              "system": "http://terminology.hl7.org/CodeSystem/measure-population",
              "code": "numerator",
              "display": "Numerator"
            } ]
          },
          "count": 0
        }, {
          "id": "NumeratorExclusion_1",
          "code": {
            "coding": [ {
              "system": "http://terminology.hl7.org/CodeSystem/measure-population",
              "code": "numerator-exclusion",
              "display": "Numerator Exclusion"
            } ]
          },
          "count": 0
        } ],
        "measureScore": {
          "value": 0.0
        }
      }, {
        "id": "Group_2",
        "population": [ {
          "id": "InitialPopulation_2",
          "code": {
            "coding": [ {
              "system": "http://terminology.hl7.org/CodeSystem/measure-population",
              "code": "initial-population",
              "display": "Initial Population"
            } ]
          },
          "count": 1
        }, {
          "id": "Denominator_2",
          "code": {
            "coding": [ {
              "system": "http://terminology.hl7.org/CodeSystem/measure-population",
              "code": "denominator",
              "display": "Denominator"
            } ]
          },
          "count": 0
        }, {
          "id": "Numerator_2",
          "code": {
            "coding": [ {
              "system": "http://terminology.hl7.org/CodeSystem/measure-population",
              "code": "numerator",
              "display": "Numerator"
            } ]
          },
          "count": 0
        }, {
          "id": "NumeratorExclusion_2",
          "code": {
            "coding": [ {
              "system": "http://terminology.hl7.org/CodeSystem/measure-population",
              "code": "numerator-exclusion",
              "display": "Numerator Exclusion"
            } ]
          },
          "count": 0
        } ],
        "measureScore": {
          "value": 0.0
        }
      } ],
      "evaluatedResource": [ {
        "reference": "Patient/d55a27c2-877b-471c-ad1d-92a9ea233c61"
      }, {
        "reference": "Observation/fdb97cce-c7e7-40a4-9e2e-cd5dd23e38ea"
      }, {
        "reference": "Observation/6f74ba90-d15b-4590-838f-b02ace4ccbd7"
      }, {
        "reference": "Encounter/bc6ef1a8-3fbf-41dc-86a3-2cc812562adf"
      }, {
        "reference": "Coverage/f9728c66-1bdf-4b12-b142-ded1f53e5942"
      }, {
        "reference": "Procedure/737abf50-bda4-4a4a-b0f3-e0f50fcdc755"
      }, {
        "reference": "Organization/a636dcd5-5005-4706-a3ef-05c80c5f11b6"
      }, {
        "reference": "Practitioner/5cf858ec-af0e-4695-ab56-5e663095d26e"
      } ]
    },
    "request": {
      "method": "PUT",
      "url": "MeasureReport/eaa95e45-5fc3-455f-8ce0-9704da6c5204"
    }
  } ]
}