{
  "resourceType": "Bundle",
  "id": "63487c2f0968f80122540194",
  "type": "transaction",
  "entry": [ {
    "fullUrl": "https://madie.cms.gov/Patient/1674703c-e336-42fc-9afd-9e199e3943e7",
    "resource": {
      "resourceType": "Patient",
      "id": "1674703c-e336-42fc-9afd-9e199e3943e7",
      "meta": {
        "profile": [ "http://hl7.org/fhir/us/qicore/StructureDefinition/qicore-patient" ]
      },
      "text": {
        "status": "generated",
        "div": "<div xmlns=\"http://www.w3.org/1999/xhtml\"><div class=\"hapiHeaderText\">AssessPreTerm0RelDtTimeAfterTimeOfDeliv<b>DENOMFail</b></div><table class=\"hapiPropertyTable\"><tbody><tr><td>Identifier</td><td>8b81c006ccabc24f5a7bf9da9ffdcfec03beba6c75ff746c3777d4c81ff57af3</td></tr><tr><td>Date of birth</td><td><span>14 February 1985</span></td></tr></tbody></table></div>"
      },
      "extension": [ {
        "url": "http://hl7.org/fhir/us/core/StructureDefinition/us-core-race",
        "extension": [ {
          "url": "ombCategory",
          "valueCoding": {
            "system": "urn:oid:2.16.840.1.113883.6.238",
            "code": "1002-5",
            "display": "American Indian or Alaska Native",
            "userSelected": true
          }
        }, {
          "url": "text",
          "valueString": "American Indian or Alaska Native"
        } ]
      }, {
        "url": "http://hl7.org/fhir/us/core/StructureDefinition/us-core-ethnicity",
        "extension": [ {
          "url": "ombCategory",
          "valueCoding": {
            "system": "urn:oid:2.16.840.1.113883.6.238",
            "code": "2135-2",
            "display": "Hispanic or Latino",
            "userSelected": true
          }
        }, {
          "url": "text",
          "valueString": "Hispanic or Latino"
        } ]
      } ],
      "identifier": [ {
        "type": {
          "coding": [ {
            "system": "http://terminology.hl7.org/CodeSystem/v2-0203",
            "code": "MR"
          } ]
        },
        "system": "https://bonnie-fhir.healthit.gov/",
        "value": "63487c2f0968f80122540194"
      } ],
      "active": true,
      "name": [ {
        "use": "usual",
        "family": "DENOMFail",
        "given": [ "AssessPreTerm0RelDtTimeAfterTimeOfDeliv" ]
      } ],
      "gender": "female",
      "birthDate": "1998-02-14"
    },
    "request": {
      "method": "PUT",
      "url": "Patient/1674703c-e336-42fc-9afd-9e199e3943e7"
    }
  }, {
    "fullUrl": "https://madie.cms.gov/Observation/bceda03b-12b3-464b-820b-9f670c160477",
    "resource": {
      "resourceType": "Observation",
      "id": "bceda03b-12b3-464b-820b-9f670c160477",
      "meta": {
        "profile": [ "http://hl7.org/fhir/us/qicore/StructureDefinition/qicore-simple-observation" ]
      },
      "status": "final",
      "category": [ {
        "coding": [ {
          "system": "http://terminology.hl7.org/CodeSystem/observation-category",
          "code": "exam",
          "display": "exam",
          "userSelected": true
        } ]
      } ],
      "code": {
        "coding": [ {
          "system": "http://loinc.org",
          "code": "11639-2"
        } ]
      },
      "subject": {
        "reference": "Patient/1674703c-e336-42fc-9afd-9e199e3943e7"
      },
      "effectiveDateTime": "2025-09-19T09:00:00.000+00:00",
      "valueInteger": 0
    },
    "request": {
      "method": "PUT",
      "url": "Observation/bceda03b-12b3-464b-820b-9f670c160477"
    }
  }, {
    "fullUrl": "https://madie.cms.gov/Observation/3640e942-b547-4d87-9f09-b60c48fdf982",
    "resource": {
      "resourceType": "Observation",
      "id": "3640e942-b547-4d87-9f09-b60c48fdf982",
      "meta": {
        "profile": [ "http://hl7.org/fhir/us/qicore/StructureDefinition/qicore-simple-observation" ]
      },
      "status": "final",
      "category": [ {
        "coding": [ {
          "system": "http://terminology.hl7.org/CodeSystem/observation-category",
          "code": "exam",
          "display": "exam",
          "userSelected": true
        } ]
      } ],
      "code": {
        "coding": [ {
          "system": "http://loinc.org",
          "code": "11884-4"
        } ]
      },
      "subject": {
        "reference": "Patient/1674703c-e336-42fc-9afd-9e199e3943e7"
      },
      "effectiveDateTime": "2026-06-08T20:00:00.000+00:00",
      "valueQuantity": {
        "value": 37,
        "system": "http://unitsofmeasure.org",
        "code": "wk"
      }
    },
    "request": {
      "method": "PUT",
      "url": "Observation/3640e942-b547-4d87-9f09-b60c48fdf982"
    }
  }, {
    "fullUrl": "https://madie.cms.gov/Observation/18762dd9-b18f-410f-80f1-270829e7648a",
    "resource": {
      "resourceType": "Observation",
      "id": "18762dd9-b18f-410f-80f1-270829e7648a",
      "meta": {
        "profile": [ "http://hl7.org/fhir/us/qicore/StructureDefinition/qicore-simple-observation" ]
      },
      "status": "final",
      "category": [ {
        "coding": [ {
          "system": "http://terminology.hl7.org/CodeSystem/observation-category",
          "code": "exam",
          "display": "exam",
          "userSelected": true
        } ]
      } ],
      "code": {
        "coding": [ {
          "system": "http://loinc.org",
          "code": "11637-6"
        } ]
      },
      "subject": {
        "reference": "Patient/1674703c-e336-42fc-9afd-9e199e3943e7"
      },
      "effectiveDateTime": "2026-06-08T20:01:00.000+00:00",
      "valueInteger": 0
    },
    "request": {
      "method": "PUT",
      "url": "Observation/18762dd9-b18f-410f-80f1-270829e7648a"
    }
  }, {
    "fullUrl": "https://madie.cms.gov/Observation/10c38d0b-1b17-4911-b142-5dc425b3dfd3",
    "resource": {
      "resourceType": "Observation",
      "id": "10c38d0b-1b17-4911-b142-5dc425b3dfd3",
      "meta": {
        "profile": [ "http://hl7.org/fhir/us/qicore/StructureDefinition/qicore-simple-observation" ]
      },
      "status": "final",
      "category": [ {
        "coding": [ {
          "system": "http://terminology.hl7.org/CodeSystem/observation-category",
          "code": "exam",
          "display": "exam",
          "userSelected": true
        } ]
      } ],
      "code": {
        "coding": [ {
          "system": "http://loinc.org",
          "code": "93857-1"
        } ]
      },
      "subject": {
        "reference": "Patient/1674703c-e336-42fc-9afd-9e199e3943e7"
      },
      "effectiveDateTime": "2026-06-08T20:00:00.000+00:00",
      "valueDateTime": "2026-06-08T20:00:00.000+00:00"
    },
    "request": {
      "method": "PUT",
      "url": "Observation/10c38d0b-1b17-4911-b142-5dc425b3dfd3"
    }
  }, {
    "fullUrl": "https://madie.cms.gov/Encounter/1f653360-22ae-4acf-9b06-20d87e0078f0",
    "resource": {
      "resourceType": "Encounter",
      "id": "1f653360-22ae-4acf-9b06-20d87e0078f0",
      "meta": {
        "profile": [ "http://hl7.org/fhir/us/qicore/StructureDefinition/qicore-encounter" ]
      },
      "status": "finished",
      "class": {
        "system": "http://terminology.hl7.org/CodeSystem/v3-ActCode",
        "code": "IMP",
        "display": "inpatient encounter"
      },
      "type": [ {
        "coding": [ {
          "system": "http://snomed.info/sct",
          "code": "8715000"
        } ]
      } ],
      "subject": {
        "reference": "Patient/1674703c-e336-42fc-9afd-9e199e3943e7"
      },
      "period": {
        "start": "2026-06-08T08:00:00.000+00:00",
        "end": "2026-06-10T08:15:00.000+00:00"
      },
      "length": {
        "value": 2,
        "unit": "days"
      },
      "reasonReference": [ {
        "reference": "Condition/7675d74d-53b2-4669-b1b1-96b812cce921"
      } ]
    },
    "request": {
      "method": "PUT",
      "url": "Encounter/1f653360-22ae-4acf-9b06-20d87e0078f0"
    }
  }, {
    "fullUrl": "https://madie.cms.gov/Procedure/84c3fcf3-679b-47eb-b906-c1b090238ed7",
    "resource": {
      "resourceType": "Procedure",
      "id": "84c3fcf3-679b-47eb-b906-c1b090238ed7",
      "meta": {
        "profile": [ "http://hl7.org/fhir/us/qicore/StructureDefinition/qicore-procedure" ]
      },
      "extension": [ {
        "url": "http://hl7.org/fhir/us/qicore/StructureDefinition/qicore-recorded",
        "valueDateTime": "2014-04-05T13:35:00.000+00:00"
      } ],
      "status": "completed",
      "code": {
        "coding": [ {
          "system": "http://www.cms.gov/Medicare/Coding/ICD10",
          "code": "10D00Z0"
        }, {
          "system": "http://snomed.info/sct",
          "code": "4504004"
        }, {
          "system": "http://www.icd10data.com/icd10pcs",
          "code": "10D00Z0",
          "userSelected": true
        } ]
      },
      "subject": {
        "reference": "Patient/1674703c-e336-42fc-9afd-9e199e3943e7"
      },
      "performedPeriod": {
        "start": "2026-06-08T20:00:00.000+00:00",
        "end": "2026-06-08T20:15:00.000+00:00"
      }
    },
    "request": {
      "method": "PUT",
      "url": "Procedure/84c3fcf3-679b-47eb-b906-c1b090238ed7"
    }
  }, {
    "fullUrl": "https://madie.cms.gov/Condition/7675d74d-53b2-4669-b1b1-96b812cce921",
    "resource": {
      "resourceType": "Condition",
      "id": "7675d74d-53b2-4669-b1b1-96b812cce921",
      "meta": {
        "profile": [ "http://hl7.org/fhir/us/qicore/StructureDefinition/qicore-condition-encounter-diagnosis" ]
      },
      "category": [ {
        "coding": [ {
          "system": "http://terminology.hl7.org/CodeSystem/condition-category",
          "code": "encounter-diagnosis",
          "display": "Encounter Diagnosis"
        } ]
      } ],
      "code": {
        "coding": [ {
          "system": "http://snomed.info/sct",
          "version": "2022-09",
          "code": "169826009",
          "display": "Single live birth from singleton pregnancy (finding)",
          "userSelected": true
        } ]
      },
      "subject": {
        "reference": "Patient/1674703c-e336-42fc-9afd-9e199e3943e7"
      },
      "encounter": {
        "reference": "Encounter/1f653360-22ae-4acf-9b06-20d87e0078f0"
      },
      "recordedDate": "2026-10-21T08:00:00.000+00:00"
    },
    "request": {
      "method": "PUT",
      "url": "Condition/7675d74d-53b2-4669-b1b1-96b812cce921"
    }
  }, {
    "fullUrl": "https://madie.cms.gov/Coverage/02a1a5f7-b92b-4be0-8527-76b32ead4260",
    "resource": {
      "resourceType": "Coverage",
      "id": "02a1a5f7-b92b-4be0-8527-76b32ead4260",
      "meta": {
        "profile": [ "http://hl7.org/fhir/us/qicore/StructureDefinition/qicore-coverage" ]
      },
      "status": "active",
      "subscriberId": "523435",
      "beneficiary": {
        "reference": "Patient/1674703c-e336-42fc-9afd-9e199e3943e7"
      },
      "relationship": {
        "coding": [ {
          "system": "http://terminology.hl7.org/CodeSystem/subscriber-relationship",
          "code": "self"
        } ]
      },
      "payor": [ {
        "reference": "Organization/fc58a424-6059-4ae9-b2a7-6db12f71a2e8"
      } ]
    },
    "request": {
      "method": "PUT",
      "url": "Coverage/02a1a5f7-b92b-4be0-8527-76b32ead4260"
    }
  }, {
    "fullUrl": "https://madie.cms.gov/Organization/fc58a424-6059-4ae9-b2a7-6db12f71a2e8",
    "resource": {
      "resourceType": "Organization",
      "id": "fc58a424-6059-4ae9-b2a7-6db12f71a2e8",
      "meta": {
        "profile": [ "http://hl7.org/fhir/us/qicore/StructureDefinition/qicore-organization" ]
      },
      "identifier": [ {
        "use": "temp",
        "system": "urn:oid:2.16.840.1.113883.4.4",
        "value": "21-3259825"
      } ],
      "active": true,
      "type": [ {
        "coding": [ {
          "system": "http://terminology.hl7.org/CodeSystem/organization-type",
          "code": "pay",
          "display": "Payer"
        } ]
      } ],
      "name": "Blue Cross Blue Shield of Texas",
      "telecom": [ {
        "system": "phone",
        "value": "(+1) 972-766-6900"
      } ],
      "address": [ {
        "use": "billing",
        "type": "postal",
        "line": [ "P.O. Box 660044" ],
        "city": "Dallas",
        "state": "TX",
        "postalCode": "75266-0044",
        "country": "USA"
      } ]
    },
    "request": {
      "method": "PUT",
      "url": "Organization/fc58a424-6059-4ae9-b2a7-6db12f71a2e8"
    }
  }, {
    "fullUrl": "https://madie.cms.gov/Practitioner/e92b5037-4bdc-4ccd-93bc-ef3ac2114252",
    "resource": {
      "resourceType": "Practitioner",
      "id": "e92b5037-4bdc-4ccd-93bc-ef3ac2114252",
      "meta": {
        "profile": [ "http://hl7.org/fhir/us/qicore/StructureDefinition/qicore-practitioner" ]
      },
      "identifier": [ {
        "system": "http://hl7.org/fhir/sid/us-npi",
        "value": "1234567890"
      } ],
      "name": [ {
        "family": "Evil",
        "prefix": [ "Dr" ]
      } ]
    },
    "request": {
      "method": "PUT",
      "url": "Practitioner/e92b5037-4bdc-4ccd-93bc-ef3ac2114252"
    }
  }, {
    "fullUrl": "https://madie.cms.gov/MeasureReport/039ecc50-5a8e-47ae-b6d9-250e4946fc08",
    "resource": {
      "resourceType": "MeasureReport",
      "id": "039ecc50-5a8e-47ae-b6d9-250e4946fc08",
      "meta": {
        "profile": [ "http://hl7.org/fhir/us/cqfmeasures/StructureDefinition/test-case-cqfm" ]
      },
      "contained": [ {
        "resourceType": "Parameters",
        "id": "6c358783-fb85-412d-b3a5-6d58f02e3e88-parameters",
        "parameter": [ {
          "name": "subject",
          "valueString": "1674703c-e336-42fc-9afd-9e199e3943e7"
        } ]
      } ],
      "extension": [ {
        "url": "http://hl7.org/fhir/StructureDefinition/cqf-inputParameters",
        "valueReference": {
          "reference": "#6c358783-fb85-412d-b3a5-6d58f02e3e88-parameters"
        }
      }, {
        "url": "http://hl7.org/fhir/us/cqfmeasures/StructureDefinition/cqfm-testCaseDescription",
        "valueMarkdown": "\"Term Newborn=0,  <42wks B4 Asse delivery.\nPreterm=0, rel date/time 1 min after delivery date/time\n\n"
      } ],
      "modifierExtension": [ {
        "url": "http://hl7.org/fhir/us/cqfmeasures/StructureDefinition/cqfm-isTestCase",
        "valueBoolean": true
      } ],
      "status": "complete",
      "type": "individual",
      "measure": "https://madie.cms.gov/Measure/CMS0334FHIRPCCesareanBirth",
      "period": {
        "start": "2026-01-01",
        "end": "2026-12-31"
      },
      "group": [ {
        "id": "Group_1",
        "population": [ {
          "id": "InitialPopulation_1",
          "code": {
            "coding": [ {
              "system": "http://terminology.hl7.org/CodeSystem/measure-population",
              "code": "initial-population",
              "display": "Initial Population"
            } ]
          },
          "count": 1
        }, {
          "id": "Denominator_1",
          "code": {
            "coding": [ {
              "system": "http://terminology.hl7.org/CodeSystem/measure-population",
              "code": "denominator",
              "display": "Denominator"
            } ]
          },
          "count": 0
        }, {
          "id": "DenominatorExclusion_1",
          "code": {
            "coding": [ {
              "system": "http://terminology.hl7.org/CodeSystem/measure-population",
              "code": "denominator-exclusion",
              "display": "Denominator Exclusion"
            } ]
          },
          "count": 0
        }, {
          "id": "Numerator_1",
          "code": {
            "coding": [ {
              "system": "http://terminology.hl7.org/CodeSystem/measure-population",
              "code": "numerator",
              "display": "Numerator"
            } ]
          },
          "count": 0
        } ],
        "measureScore": {
          "value": 0.0
        }
      } ],
      "evaluatedResource": [ {
        "reference": "Patient/1674703c-e336-42fc-9afd-9e199e3943e7"
      }, {
        "reference": "Observation/bceda03b-12b3-464b-820b-9f670c160477"
      }, {
        "reference": "Observation/3640e942-b547-4d87-9f09-b60c48fdf982"
      }, {
        "reference": "Observation/18762dd9-b18f-410f-80f1-270829e7648a"
      }, {
        "reference": "Observation/10c38d0b-1b17-4911-b142-5dc425b3dfd3"
      }, {
        "reference": "Encounter/1f653360-22ae-4acf-9b06-20d87e0078f0"
      }, {
        "reference": "Procedure/84c3fcf3-679b-47eb-b906-c1b090238ed7"
      }, {
        "reference": "Condition/7675d74d-53b2-4669-b1b1-96b812cce921"
      }, {
        "reference": "Coverage/02a1a5f7-b92b-4be0-8527-76b32ead4260"
      }, {
        "reference": "Organization/fc58a424-6059-4ae9-b2a7-6db12f71a2e8"
      }, {
        "reference": "Practitioner/e92b5037-4bdc-4ccd-93bc-ef3ac2114252"
      } ]
    },
    "request": {
      "method": "PUT",
      "url": "MeasureReport/039ecc50-5a8e-47ae-b6d9-250e4946fc08"
    }
  } ]
}