{
  "resourceType": "Bundle",
  "id": "60f82c3098086b570510e2de",
  "type": "transaction",
  "entry": [ {
    "fullUrl": "https://madie.cms.gov/Patient/fcfbed2b-7381-4b5f-8d42-a2c2de464dae",
    "resource": {
      "resourceType": "Patient",
      "id": "fcfbed2b-7381-4b5f-8d42-a2c2de464dae",
      "meta": {
        "profile": [ "http://hl7.org/fhir/us/qicore/StructureDefinition/qicore-patient" ]
      },
      "text": {
        "status": "generated",
        "div": "<div xmlns=\"http://www.w3.org/1999/xhtml\"><div class=\"hapiHeaderText\">CMP_DayOf_RelvDat_1minB4IPStart_EDEndLT1hrB4Obs_ObsEndLT1hrB4IP <b>DENEXPASS </b></div><table class=\"hapiPropertyTable\"><tbody><tr><td>Date of birth</td><td><span>01 January 1980</span></td></tr></tbody></table></div>"
      },
      "extension": [ {
        "url": "http://hl7.org/fhir/us/core/StructureDefinition/us-core-race",
        "extension": [ {
          "url": "ombCategory",
          "valueCoding": {
            "system": "urn:oid:2.16.840.1.113883.6.238",
            "code": "2106-3",
            "display": "White",
            "userSelected": true
          }
        }, {
          "url": "text",
          "valueString": "White"
        } ]
      }, {
        "url": "http://hl7.org/fhir/us/core/StructureDefinition/us-core-ethnicity",
        "extension": [ {
          "url": "ombCategory",
          "valueCoding": {
            "system": "urn:oid:2.16.840.1.113883.6.238",
            "code": "2186-5",
            "display": "Not Hispanic or Latino",
            "userSelected": true
          }
        }, {
          "url": "text",
          "valueString": "Not Hispanic or Latino"
        } ]
      } ],
      "identifier": [ {
        "type": {
          "coding": [ {
            "system": "http://terminology.hl7.org/CodeSystem/v2-0203",
            "code": "MR"
          } ]
        },
        "system": "https://bonnie-fhir.healthit.gov/",
        "value": "60f82c3098086b570510e2de"
      } ],
      "active": true,
      "name": [ {
        "use": "usual",
        "family": "DENEXPass",
        "given": [ "CMPDayOfRelvDat1minB4IPStartEDEndLT1hrB4ObsObsEndLT1hrB4IP" ]
      } ],
      "gender": "female",
      "birthDate": "1981-01-01"
    },
    "request": {
      "method": "PUT",
      "url": "Patient/fcfbed2b-7381-4b5f-8d42-a2c2de464dae"
    }
  }, {
    "fullUrl": "https://madie.cms.gov/Encounter/4a629db8-67bf-4afe-8bab-251b5a6ca37b",
    "resource": {
      "resourceType": "Encounter",
      "id": "4a629db8-67bf-4afe-8bab-251b5a6ca37b",
      "meta": {
        "profile": [ "http://hl7.org/fhir/us/qicore/StructureDefinition/qicore-encounter" ]
      },
      "status": "finished",
      "class": {
        "system": "http://terminology.hl7.org/CodeSystem/v3-ActCode",
        "code": "EMER",
        "display": "emergency"
      },
      "type": [ {
        "coding": [ {
          "system": "http://snomed.info/sct",
          "code": "4525004"
        } ]
      } ],
      "subject": {
        "reference": "Patient/fcfbed2b-7381-4b5f-8d42-a2c2de464dae"
      },
      "period": {
        "start": "2026-11-18T07:00:00.000+00:00",
        "end": "2026-11-18T08:01:00.000+00:00"
      }
    },
    "request": {
      "method": "PUT",
      "url": "Encounter/4a629db8-67bf-4afe-8bab-251b5a6ca37b"
    }
  }, {
    "fullUrl": "https://madie.cms.gov/Encounter/cffb990d-fe5b-4c2d-9ae7-1307593a73ba",
    "resource": {
      "resourceType": "Encounter",
      "id": "cffb990d-fe5b-4c2d-9ae7-1307593a73ba",
      "meta": {
        "profile": [ "http://hl7.org/fhir/us/qicore/StructureDefinition/qicore-encounter" ]
      },
      "status": "finished",
      "class": {
        "system": "http://terminology.hl7.org/CodeSystem/v3-ActCode",
        "code": "OBSENC",
        "display": "observation encounter"
      },
      "type": [ {
        "coding": [ {
          "system": "http://snomed.info/sct",
          "code": "448951000124107"
        } ]
      } ],
      "subject": {
        "reference": "Patient/fcfbed2b-7381-4b5f-8d42-a2c2de464dae"
      },
      "period": {
        "start": "2026-11-18T09:00:00.000+00:00",
        "end": "2026-11-18T10:01:00.000+00:00"
      }
    },
    "request": {
      "method": "PUT",
      "url": "Encounter/cffb990d-fe5b-4c2d-9ae7-1307593a73ba"
    }
  }, {
    "fullUrl": "https://madie.cms.gov/Encounter/d0f0cb5b-c88e-4906-b7ca-e47ec4db4075",
    "resource": {
      "resourceType": "Encounter",
      "id": "d0f0cb5b-c88e-4906-b7ca-e47ec4db4075",
      "meta": {
        "profile": [ "http://hl7.org/fhir/us/qicore/StructureDefinition/qicore-encounter" ]
      },
      "status": "finished",
      "class": {
        "system": "http://terminology.hl7.org/CodeSystem/v3-ActCode",
        "code": "IMP",
        "display": "inpatient encounter"
      },
      "type": [ {
        "coding": [ {
          "system": "http://snomed.info/sct",
          "code": "183452005"
        } ]
      } ],
      "subject": {
        "reference": "Patient/fcfbed2b-7381-4b5f-8d42-a2c2de464dae"
      },
      "period": {
        "start": "2026-11-18T11:00:00.000+00:00",
        "end": "2026-11-20T08:15:00.000+00:00"
      },
      "reasonReference": [ {
        "reference": "Condition/51a06a5a-b29c-44f1-b667-1ea904247d2b"
      } ]
    },
    "request": {
      "method": "PUT",
      "url": "Encounter/d0f0cb5b-c88e-4906-b7ca-e47ec4db4075"
    }
  }, {
    "fullUrl": "https://madie.cms.gov/claim/5ca62962b8484628b8de1ec5",
    "resource": {
      "resourceType": "Claim",
      "id": "5ca62962b8484628b8de1ec5",
      "meta": {
        "profile": [ "http://hl7.org/fhir/us/qicore/StructureDefinition/qicore-claim" ]
      },
      "status": "active",
      "type": {
        "coding": [ {
          "system": "http://terminology.hl7.org/CodeSystem/claim-type",
          "code": "institutional"
        } ]
      },
      "use": "claim",
      "patient": {
        "reference": "Patient/fcfbed2b-7381-4b5f-8d42-a2c2de464dae"
      },
      "created": "2026-12-01",
      "provider": {
        "reference": "Practitioner/practitioner-123456"
      },
      "priority": {
        "coding": [ {
          "system": "http://terminology.hl7.org/CodeSystem/processpriority",
          "code": "normal"
        } ]
      },
      "diagnosis": [ {
        "sequence": 1,
        "diagnosisCodeableConcept": {
          "coding": [ {
            "system": "http://hl7.org/fhir/sid/icd-10-cm",
            "code": "I63.00"
          } ]
        },
        "type": [ {
          "coding": [ {
            "system": "http://terminology.hl7.org/CodeSystem/ex-diagnosistype",
            "code": "principal"
          } ]
        } ]
      } ],
      "insurance": [ {
        "sequence": 1,
        "focal": true,
        "coverage": {
          "reference": "Coverage/ca782122-c887-4ac1-a06e-ce2ae6d763e1"
        }
      } ],
      "item": [ {
        "sequence": 1,
        "diagnosisSequence": [ 1 ],
        "productOrService": {
          "coding": [ {
            "system": "http://terminology.hl7.org/CodeSystem/ex-USCLS",
            "code": "99555"
          } ]
        },
        "encounter": [ {
          "reference": "Encounter/d0f0cb5b-c88e-4906-b7ca-e47ec4db4075"
        } ]
      } ]
    },
    "request": {
      "method": "PUT",
      "url": "Claim/5ca62962b8484628b8de1ec5"
    }
  }, {
    "fullUrl": "https://madie.cms.gov/Procedure/3f7d781d-491f-4e49-8af0-68f980a24fc8",
    "resource": {
      "resourceType": "Procedure",
      "id": "3f7d781d-491f-4e49-8af0-68f980a24fc8",
      "meta": {
        "profile": [ "http://hl7.org/fhir/us/qicore/StructureDefinition/qicore-procedure" ]
      },
      "extension": [ {
        "url": "http://hl7.org/fhir/us/qicore/StructureDefinition/qicore-recorded",
        "valueDateTime": "2026-11-18T10:59:00.000+00:00"
      } ],
      "status": "completed",
      "code": {
        "coding": [ {
          "system": "http://snomed.info/sct",
          "code": "133918004"
        } ]
      },
      "subject": {
        "reference": "Patient/fcfbed2b-7381-4b5f-8d42-a2c2de464dae"
      },
      "performedDateTime": "2026-11-18T10:59:00.000+00:00"
    },
    "request": {
      "method": "PUT",
      "url": "Procedure/3f7d781d-491f-4e49-8af0-68f980a24fc8"
    }
  }, {
    "fullUrl": "https://madie.cms.gov/Condition/51a06a5a-b29c-44f1-b667-1ea904247d2b",
    "resource": {
      "resourceType": "Condition",
      "id": "51a06a5a-b29c-44f1-b667-1ea904247d2b",
      "meta": {
        "profile": [ "http://hl7.org/fhir/us/qicore/StructureDefinition/qicore-condition-encounter-diagnosis" ]
      },
      "clinicalStatus": {
        "coding": [ {
          "system": "http://terminology.hl7.org/CodeSystem/condition-clinical",
          "code": "active"
        } ]
      },
      "verificationStatus": {
        "coding": [ {
          "system": "http://terminology.hl7.org/CodeSystem/condition-ver-status",
          "code": "confirmed"
        } ]
      },
      "category": [ {
        "coding": [ {
          "system": "http://terminology.hl7.org/CodeSystem/condition-category",
          "code": "encounter-diagnosis",
          "display": "Encounter Diagnosis"
        } ]
      } ],
      "code": {
        "coding": [ {
          "system": "http://snomed.info/sct",
          "version": "2020-09",
          "code": "111297002",
          "display": "Nonparalytic stroke (disorder)",
          "userSelected": true
        } ]
      },
      "subject": {
        "reference": "Patient/fcfbed2b-7381-4b5f-8d42-a2c2de464dae"
      },
      "recordedDate": "2026-08-13T08:00:00.000+00:00"
    },
    "request": {
      "method": "PUT",
      "url": "Condition/51a06a5a-b29c-44f1-b667-1ea904247d2b"
    }
  }, {
    "fullUrl": "https://madie.cms.gov/Coverage/ca782122-c887-4ac1-a06e-ce2ae6d763e1",
    "resource": {
      "resourceType": "Coverage",
      "id": "ca782122-c887-4ac1-a06e-ce2ae6d763e1",
      "meta": {
        "profile": [ "http://hl7.org/fhir/us/qicore/StructureDefinition/qicore-coverage" ]
      },
      "status": "active",
      "beneficiary": {
        "reference": "Patient/fcfbed2b-7381-4b5f-8d42-a2c2de464dae"
      },
      "payor": [ {
        "reference": "Organization/7ed14d9f-6ae7-46cf-8166-3c3196436f3f"
      } ]
    },
    "request": {
      "method": "PUT",
      "url": "Coverage/ca782122-c887-4ac1-a06e-ce2ae6d763e1"
    }
  }, {
    "fullUrl": "https://madie.cms.gov/Organization/7ed14d9f-6ae7-46cf-8166-3c3196436f3f",
    "resource": {
      "resourceType": "Organization",
      "id": "7ed14d9f-6ae7-46cf-8166-3c3196436f3f",
      "meta": {
        "profile": [ "http://hl7.org/fhir/us/qicore/StructureDefinition/qicore-organization" ]
      },
      "identifier": [ {
        "use": "temp",
        "system": "urn:oid:2.16.840.1.113883.4.4",
        "value": "21-3259825"
      } ],
      "active": true,
      "type": [ {
        "coding": [ {
          "system": "http://terminology.hl7.org/CodeSystem/organization-type",
          "code": "pay",
          "display": "Payer"
        } ]
      } ],
      "name": "Blue Cross Blue Shield of Texas",
      "telecom": [ {
        "system": "phone",
        "value": "(+1) 972-766-6900"
      } ],
      "address": [ {
        "use": "billing",
        "type": "postal",
        "line": [ "P.O. Box 660044" ],
        "city": "Dallas",
        "state": "TX",
        "postalCode": "75266-0044",
        "country": "USA"
      } ]
    },
    "request": {
      "method": "PUT",
      "url": "Organization/7ed14d9f-6ae7-46cf-8166-3c3196436f3f"
    }
  }, {
    "fullUrl": "https://madie.cms.gov/MeasureReport/cc24b8d7-7736-4b2d-a1b8-7f2e9bf0ce42",
    "resource": {
      "resourceType": "MeasureReport",
      "id": "cc24b8d7-7736-4b2d-a1b8-7f2e9bf0ce42",
      "meta": {
        "profile": [ "http://hl7.org/fhir/us/cqfmeasures/StructureDefinition/test-case-cqfm" ]
      },
      "contained": [ {
        "resourceType": "Parameters",
        "id": "4a6cd2bb-df93-4071-83f9-f1ec1540aaac-parameters",
        "parameter": [ {
          "name": "subject",
          "valueString": "fcfbed2b-7381-4b5f-8d42-a2c2de464dae"
        } ]
      } ],
      "extension": [ {
        "url": "http://hl7.org/fhir/StructureDefinition/cqf-inputParameters",
        "valueReference": {
          "reference": "#4a6cd2bb-df93-4071-83f9-f1ec1540aaac-parameters"
        }
      }, {
        "url": "http://hl7.org/fhir/us/cqfmeasures/StructureDefinition/cqfm-testCaseDescription",
        "valueMarkdown": "Patient receives comfort measures performed on the day of hospital arrival, 1 minute before IP start. ED ends less than 1 hour before Obs Start, Obs ends less than 1 hour before IP start.\n"
      } ],
      "modifierExtension": [ {
        "url": "http://hl7.org/fhir/us/cqfmeasures/StructureDefinition/cqfm-isTestCase",
        "valueBoolean": true
      } ],
      "status": "complete",
      "type": "individual",
      "measure": "https://madie.cms.gov/Measure/CMS72FHIRSTKAntithromboticDay2",
      "period": {
        "start": "2026-01-01",
        "end": "2026-12-31"
      },
      "group": [ {
        "id": "Group_1",
        "population": [ {
          "id": "InitialPopulation_1",
          "code": {
            "coding": [ {
              "system": "http://terminology.hl7.org/CodeSystem/measure-population",
              "code": "initial-population",
              "display": "Initial Population"
            } ]
          },
          "count": 1
        }, {
          "id": "Denominator_1",
          "code": {
            "coding": [ {
              "system": "http://terminology.hl7.org/CodeSystem/measure-population",
              "code": "denominator",
              "display": "Denominator"
            } ]
          },
          "count": 1
        }, {
          "id": "DenominatorExclusion_1",
          "code": {
            "coding": [ {
              "system": "http://terminology.hl7.org/CodeSystem/measure-population",
              "code": "denominator-exclusion",
              "display": "Denominator Exclusion"
            } ]
          },
          "count": 1
        }, {
          "id": "Numerator_1",
          "code": {
            "coding": [ {
              "system": "http://terminology.hl7.org/CodeSystem/measure-population",
              "code": "numerator",
              "display": "Numerator"
            } ]
          },
          "count": 0
        }, {
          "id": "DenominatorException_1",
          "code": {
            "coding": [ {
              "system": "http://terminology.hl7.org/CodeSystem/measure-population",
              "code": "denominator-exception",
              "display": "Denominator Exception"
            } ]
          },
          "count": 0
        } ],
        "measureScore": {
          "value": 0.0
        }
      } ],
      "evaluatedResource": [ {
        "reference": "Patient/fcfbed2b-7381-4b5f-8d42-a2c2de464dae"
      }, {
        "reference": "Encounter/4a629db8-67bf-4afe-8bab-251b5a6ca37b"
      }, {
        "reference": "Encounter/cffb990d-fe5b-4c2d-9ae7-1307593a73ba"
      }, {
        "reference": "Encounter/d0f0cb5b-c88e-4906-b7ca-e47ec4db4075"
      }, {
        "reference": "Claim/5ca62962b8484628b8de1ec5"
      }, {
        "reference": "Procedure/3f7d781d-491f-4e49-8af0-68f980a24fc8"
      }, {
        "reference": "Condition/51a06a5a-b29c-44f1-b667-1ea904247d2b"
      }, {
        "reference": "Coverage/ca782122-c887-4ac1-a06e-ce2ae6d763e1"
      }, {
        "reference": "Organization/7ed14d9f-6ae7-46cf-8166-3c3196436f3f"
      } ]
    },
    "request": {
      "method": "PUT",
      "url": "MeasureReport/cc24b8d7-7736-4b2d-a1b8-7f2e9bf0ce42"
    }
  } ]
}