{
  "resourceType": "Bundle",
  "id": "64d121911252352a0771c3c3",
  "type": "transaction",
  "entry": [ {
    "fullUrl": "https://madie.cms.gov/Patient/619d87b7-983d-4646-9a97-e50d28d35b44",
    "resource": {
      "resourceType": "Patient",
      "id": "619d87b7-983d-4646-9a97-e50d28d35b44",
      "meta": {
        "profile": [ "http://hl7.org/fhir/us/qicore/StructureDefinition/qicore-patient" ]
      },
      "extension": [ {
        "url": "http://hl7.org/fhir/us/core/StructureDefinition/us-core-race",
        "extension": [ {
          "url": "ombCategory",
          "valueCoding": {
            "system": "urn:oid:2.16.840.1.113883.6.238",
            "code": "1002-5",
            "display": "American Indian or Alaska Native",
            "userSelected": true
          }
        }, {
          "url": "text",
          "valueString": "American Indian or Alaska Native"
        } ]
      }, {
        "url": "http://hl7.org/fhir/us/core/StructureDefinition/us-core-ethnicity",
        "extension": [ {
          "url": "ombCategory",
          "valueCoding": {
            "system": "urn:oid:2.16.840.1.113883.6.238",
            "code": "2186-5",
            "display": "Not Hispanic or Latino",
            "userSelected": true
          }
        }, {
          "url": "text",
          "valueString": "Not Hispanic or Latino"
        } ]
      } ],
      "identifier": [ {
        "type": {
          "coding": [ {
            "system": "http://terminology.hl7.org/CodeSystem/v2-0203",
            "code": "MR"
          } ]
        },
        "system": "https://bonnie-fhir.healthit.gov/",
        "value": "64d121911252352a0771c3c3"
      } ],
      "name": [ {
        "family": "IPFail",
        "given": [ "Age6Yrs1DayNoEnc" ]
      } ],
      "gender": "female",
      "birthDate": "2018-12-31"
    },
    "request": {
      "method": "PUT",
      "url": "Patient/619d87b7-983d-4646-9a97-e50d28d35b44"
    }
  }, {
    "fullUrl": "https://madie.cms.gov/Coverage/20e2b123-e381-43d9-b6be-609a3b76c40b",
    "resource": {
      "resourceType": "Coverage",
      "id": "20e2b123-e381-43d9-b6be-609a3b76c40b",
      "meta": {
        "profile": [ "http://hl7.org/fhir/us/qicore/StructureDefinition/qicore-coverage" ]
      },
      "status": "active",
      "beneficiary": {
        "reference": "Patient/619d87b7-983d-4646-9a97-e50d28d35b44"
      },
      "payor": [ {
        "reference": "Organization/3b57a93d-61b5-4061-a150-bc48e4bc866a"
      } ]
    },
    "request": {
      "method": "PUT",
      "url": "Coverage/20e2b123-e381-43d9-b6be-609a3b76c40b"
    }
  }, {
    "fullUrl": "https://madie.cms.gov/Organization/3b57a93d-61b5-4061-a150-bc48e4bc866a",
    "resource": {
      "resourceType": "Organization",
      "id": "3b57a93d-61b5-4061-a150-bc48e4bc866a",
      "meta": {
        "profile": [ "http://hl7.org/fhir/us/qicore/StructureDefinition/qicore-organization" ]
      },
      "identifier": [ {
        "use": "temp",
        "system": "urn:oid:2.16.840.1.113883.4.4",
        "value": "21-3259825"
      } ],
      "active": true,
      "type": [ {
        "coding": [ {
          "system": "http://terminology.hl7.org/CodeSystem/organization-type",
          "code": "pay",
          "display": "Payer"
        } ]
      } ],
      "name": "Blue Cross Blue Shield of Texas",
      "telecom": [ {
        "system": "phone",
        "value": "(+1) 972-766-6900"
      } ],
      "address": [ {
        "use": "billing",
        "type": "postal",
        "line": [ "P.O. Box 660044" ],
        "city": "Dallas",
        "state": "TX",
        "postalCode": "75266-0044",
        "country": "USA"
      } ]
    },
    "request": {
      "method": "PUT",
      "url": "Organization/3b57a93d-61b5-4061-a150-bc48e4bc866a"
    }
  }, {
    "fullUrl": "https://madie.cms.gov/Practitioner/f5cf5fdd-e13f-4f1b-beea-1073c1b7643b",
    "resource": {
      "resourceType": "Practitioner",
      "id": "f5cf5fdd-e13f-4f1b-beea-1073c1b7643b",
      "identifier": [ {
        "system": "http://hl7.org/fhir/sid/us-npi",
        "value": "123456"
      } ],
      "name": [ {
        "family": "Evil",
        "prefix": [ "Dr" ]
      } ]
    },
    "request": {
      "method": "PUT",
      "url": "Practitioner/f5cf5fdd-e13f-4f1b-beea-1073c1b7643b"
    }
  }, {
    "fullUrl": "https://madie.cms.gov/MeasureReport/d8bd9ec6-ba5e-46eb-96f4-4a917a8df811",
    "resource": {
      "resourceType": "MeasureReport",
      "id": "d8bd9ec6-ba5e-46eb-96f4-4a917a8df811",
      "meta": {
        "profile": [ "http://hl7.org/fhir/us/cqfmeasures/StructureDefinition/test-case-cqfm" ]
      },
      "contained": [ {
        "resourceType": "Parameters",
        "id": "81e9fc3c-685f-44be-b7b4-a9eab0743158-parameters",
        "parameter": [ {
          "name": "subject",
          "valueString": "619d87b7-983d-4646-9a97-e50d28d35b44"
        } ]
      } ],
      "extension": [ {
        "url": "http://hl7.org/fhir/StructureDefinition/cqf-inputParameters",
        "valueReference": {
          "reference": "#81e9fc3c-685f-44be-b7b4-a9eab0743158-parameters"
        }
      }, {
        "url": "http://hl7.org/fhir/us/cqfmeasures/StructureDefinition/cqfm-testCaseDescription",
        "valueMarkdown": "Patient is 6 years and 1 day during MP, but no encounter entered "
      } ],
      "modifierExtension": [ {
        "url": "http://hl7.org/fhir/us/cqfmeasures/StructureDefinition/cqfm-isTestCase",
        "valueBoolean": true
      } ],
      "status": "complete",
      "type": "individual",
      "measure": "https://madie.cms.gov/Measure/CMS177FHIRChildMDDSuicideAssmt",
      "period": {
        "start": "2026-01-01",
        "end": "2026-12-31"
      },
      "group": [ {
        "id": "Group_1",
        "population": [ {
          "id": "InitialPopulation_1",
          "code": {
            "coding": [ {
              "system": "http://terminology.hl7.org/CodeSystem/measure-population",
              "code": "initial-population",
              "display": "Initial Population"
            } ]
          },
          "count": 0
        }, {
          "id": "Denominator_1",
          "code": {
            "coding": [ {
              "system": "http://terminology.hl7.org/CodeSystem/measure-population",
              "code": "denominator",
              "display": "Denominator"
            } ]
          },
          "count": 0
        }, {
          "id": "Numerator_1",
          "code": {
            "coding": [ {
              "system": "http://terminology.hl7.org/CodeSystem/measure-population",
              "code": "numerator",
              "display": "Numerator"
            } ]
          },
          "count": 0
        } ],
        "measureScore": {
          "value": 0.0
        }
      } ],
      "evaluatedResource": [ {
        "reference": "Patient/619d87b7-983d-4646-9a97-e50d28d35b44"
      }, {
        "reference": "Coverage/20e2b123-e381-43d9-b6be-609a3b76c40b"
      }, {
        "reference": "Organization/3b57a93d-61b5-4061-a150-bc48e4bc866a"
      }, {
        "reference": "Practitioner/f5cf5fdd-e13f-4f1b-beea-1073c1b7643b"
      } ]
    },
    "request": {
      "method": "PUT",
      "url": "MeasureReport/d8bd9ec6-ba5e-46eb-96f4-4a917a8df811"
    }
  } ]
}