{
  "resourceType": "Bundle",
  "id": "661476b015ed5841a5547ebf",
  "type": "transaction",
  "entry": [ {
    "fullUrl": "https://madie.cms.gov/Patient/d3a7a6b7-bbbc-4c08-bd8c-ce1e1cbdc8a8",
    "resource": {
      "resourceType": "Patient",
      "id": "d3a7a6b7-bbbc-4c08-bd8c-ce1e1cbdc8a8",
      "meta": {
        "profile": [ "http://hl7.org/fhir/us/qicore/StructureDefinition/qicore-patient" ]
      },
      "extension": [ {
        "url": "http://hl7.org/fhir/us/core/StructureDefinition/us-core-race",
        "extension": [ {
          "url": "ombCategory",
          "valueCoding": {
            "system": "urn:oid:2.16.840.1.113883.6.238",
            "code": "1002-5",
            "display": "American Indian or Alaska Native",
            "userSelected": true
          }
        }, {
          "url": "text",
          "valueString": "American Indian or Alaska Native"
        } ]
      }, {
        "url": "http://hl7.org/fhir/us/core/StructureDefinition/us-core-ethnicity",
        "extension": [ {
          "url": "ombCategory",
          "valueCoding": {
            "system": "urn:oid:2.16.840.1.113883.6.238",
            "code": "2135-2",
            "display": "Hispanic or Latino",
            "userSelected": true
          }
        }, {
          "url": "text",
          "valueString": "Hispanic or Latino"
        } ]
      }, {
        "url": "http://hl7.org/fhir/us/core/StructureDefinition/us-core-sex",
        "valueCode": "248153007"
      } ],
      "identifier": [ {
        "type": {
          "coding": [ {
            "system": "http://terminology.hl7.org/CodeSystem/v2-0203",
            "code": "MR"
          } ]
        },
        "system": "https://bonnie-fhir.healthit.gov/",
        "value": "661476b015ed5841a5547ebf"
      } ],
      "name": [ {
        "family": "NUMERStrat1Pass",
        "given": [ "MultipleEncTriageduringEM" ]
      } ],
      "gender": "male",
      "birthDate": "2010-01-01"
    },
    "request": {
      "method": "PUT",
      "url": "Patient/d3a7a6b7-bbbc-4c08-bd8c-ce1e1cbdc8a8"
    }
  }, {
    "fullUrl": "https://madie.cms.gov/Encounter/28493b0b-92ba-4639-be24-abc2b64360ae",
    "resource": {
      "resourceType": "Encounter",
      "id": "28493b0b-92ba-4639-be24-abc2b64360ae",
      "meta": {
        "profile": [ "http://hl7.org/fhir/us/qicore/StructureDefinition/qicore-encounter" ]
      },
      "status": "finished",
      "class": {
        "system": "http://terminology.hl7.org/CodeSystem/v3-ActCode",
        "code": "EMER",
        "display": "emergency"
      },
      "type": [ {
        "coding": [ {
          "system": "http://snomed.info/sct",
          "version": "2023-09",
          "code": "225390008",
          "display": "Triage (procedure)",
          "userSelected": true
        } ]
      } ],
      "subject": {
        "reference": "Patient/d3a7a6b7-bbbc-4c08-bd8c-ce1e1cbdc8a8"
      },
      "period": {
        "start": "2027-02-01T06:01:00.000+00:00",
        "end": "2027-02-01T13:15:00.000+00:00"
      },
      "location": [ {
        "location": {
          "reference": "Location/afc82ad0-d48e-4f35-b2ae-3cd77d76f976"
        },
        "period": {
          "start": "2027-02-01T06:01:00.000+00:00",
          "end": "2027-02-01T13:15:00.000+00:00"
        }
      } ]
    },
    "request": {
      "method": "PUT",
      "url": "Encounter/28493b0b-92ba-4639-be24-abc2b64360ae"
    }
  }, {
    "fullUrl": "https://madie.cms.gov/Encounter/993112d8-b6f8-485c-8bbd-856d14e681be",
    "resource": {
      "resourceType": "Encounter",
      "id": "993112d8-b6f8-485c-8bbd-856d14e681be",
      "meta": {
        "profile": [ "http://hl7.org/fhir/us/qicore/StructureDefinition/qicore-encounter" ]
      },
      "status": "finished",
      "class": {
        "system": "http://terminology.hl7.org/CodeSystem/v3-ActCode",
        "code": "EMER",
        "display": "emergency department"
      },
      "type": [ {
        "coding": [ {
          "system": "http://snomed.info/sct",
          "version": "2023-09",
          "code": "4525004",
          "display": "Emergency department patient visit (procedure)",
          "userSelected": true
        } ]
      } ],
      "subject": {
        "reference": "Patient/d3a7a6b7-bbbc-4c08-bd8c-ce1e1cbdc8a8"
      },
      "period": {
        "start": "2027-02-01T06:00:00.000+00:00",
        "end": "2027-02-01T14:02:00.000+00:00"
      },
      "diagnosis": [ {
        "condition": {
          "reference": "Condition/b5a974fc-e055-47cd-bedf-7a5a68a510d0"
        },
        "use": {
          "coding": [ {
            "system": "http://terminology.hl7.org/CodeSystem/diagnosis-role",
            "code": "billing"
          } ]
        },
        "rank": 1
      } ],
      "location": [ {
        "location": {
          "reference": "Location/0ca06120-c8cd-4c7f-b635-46708984ba0a"
        },
        "period": {
          "start": "2027-02-01T06:00:00.000+00:00",
          "end": "2027-02-01T14:02:00.000+00:00"
        }
      } ]
    },
    "request": {
      "method": "PUT",
      "url": "Encounter/993112d8-b6f8-485c-8bbd-856d14e681be"
    }
  }, {
    "fullUrl": "https://madie.cms.gov/Encounter/99cc0b6c-e16c-4687-9d99-d977b16eceed",
    "resource": {
      "resourceType": "Encounter",
      "id": "99cc0b6c-e16c-4687-9d99-d977b16eceed",
      "meta": {
        "profile": [ "http://hl7.org/fhir/us/qicore/StructureDefinition/qicore-encounter" ]
      },
      "status": "finished",
      "class": {
        "system": "http://terminology.hl7.org/CodeSystem/v3-ActCode",
        "code": "EMER",
        "display": "emergency department"
      },
      "type": [ {
        "coding": [ {
          "system": "http://snomed.info/sct",
          "version": "2023-09",
          "code": "4525004",
          "display": "Emergency department patient visit (procedure)",
          "userSelected": true
        } ]
      } ],
      "subject": {
        "reference": "Patient/d3a7a6b7-bbbc-4c08-bd8c-ce1e1cbdc8a8"
      },
      "period": {
        "start": "2027-04-01T06:00:00.000+00:00",
        "end": "2027-04-01T13:01:00.000+00:00"
      },
      "diagnosis": [ {
        "condition": {
          "reference": "Condition/b5a974fc-e055-47cd-bedf-7a5a68a510d0"
        },
        "use": {
          "coding": [ {
            "system": "http://terminology.hl7.org/CodeSystem/diagnosis-role",
            "code": "billing"
          } ]
        },
        "rank": 1
      } ],
      "location": [ {
        "location": {
          "reference": "Location/0ca06120-c8cd-4c7f-b635-46708984ba0a"
        },
        "period": {
          "start": "2027-04-01T06:00:00.000+00:00",
          "end": "2027-04-01T13:01:00.000+00:00"
        }
      } ]
    },
    "request": {
      "method": "PUT",
      "url": "Encounter/99cc0b6c-e16c-4687-9d99-d977b16eceed"
    }
  }, {
    "fullUrl": "https://madie.cms.gov/Condition/b5a974fc-e055-47cd-bedf-7a5a68a510d0",
    "resource": {
      "resourceType": "Condition",
      "id": "b5a974fc-e055-47cd-bedf-7a5a68a510d0",
      "meta": {
        "profile": [ "http://hl7.org/fhir/us/qicore/StructureDefinition/qicore-condition-encounter-diagnosis" ]
      },
      "category": [ {
        "coding": [ {
          "system": "http://terminology.hl7.org/CodeSystem/condition-category",
          "code": "encounter-diagnosis",
          "display": "Encounter Diagnosis"
        } ]
      } ],
      "code": {
        "coding": [ {
          "system": "http://snomed.info/sct",
          "version": "2023-09",
          "code": "10660471000119109",
          "display": "Ulcer of left foot due to type 2 diabetes mellitus (disorder)",
          "userSelected": true
        } ]
      },
      "subject": {
        "reference": "Patient/d3a7a6b7-bbbc-4c08-bd8c-ce1e1cbdc8a8"
      },
      "recordedDate": "2027-02-01T08:00:00.000+00:00"
    },
    "request": {
      "method": "PUT",
      "url": "Condition/b5a974fc-e055-47cd-bedf-7a5a68a510d0"
    }
  }, {
    "fullUrl": "https://madie.cms.gov/ServiceRequest/4170d64d-b655-41d4-a8cc-a86093e8d2bb",
    "resource": {
      "resourceType": "ServiceRequest",
      "id": "4170d64d-b655-41d4-a8cc-a86093e8d2bb",
      "meta": {
        "profile": [ "http://hl7.org/fhir/us/qicore/StructureDefinition/qicore-servicerequest" ]
      },
      "status": "completed",
      "intent": "order",
      "code": {
        "coding": [ {
          "system": "http://snomed.info/sct",
          "code": "19712007",
          "display": "Patient transfer, to another health care facility (procedure)",
          "userSelected": true
        } ]
      },
      "subject": {
        "reference": "Patient/d3a7a6b7-bbbc-4c08-bd8c-ce1e1cbdc8a8"
      },
      "authoredOn": "2027-11-01T08:59:00.000+00:00"
    },
    "request": {
      "method": "PUT",
      "url": "ServiceRequest/4170d64d-b655-41d4-a8cc-a86093e8d2bb"
    }
  }, {
    "fullUrl": "https://madie.cms.gov/Location/0ca06120-c8cd-4c7f-b635-46708984ba0a",
    "resource": {
      "resourceType": "Location",
      "id": "0ca06120-c8cd-4c7f-b635-46708984ba0a",
      "meta": {
        "profile": [ "http://hl7.org/fhir/us/qicore/StructureDefinition/qicore-location" ]
      },
      "identifier": [ {
        "use": "usual",
        "system": "http://exampleoflocation.com",
        "value": "B1-S.F2"
      } ],
      "name": "Medical Surgical East, first floor",
      "type": [ {
        "coding": [ {
          "system": "https://www.cdc.gov/nhsn/cdaportal/terminology/codesystem/hsloc.html",
          "version": "2022",
          "code": "1108-0",
          "display": "Emergency Department",
          "userSelected": true
        } ]
      } ]
    },
    "request": {
      "method": "PUT",
      "url": "Location/0ca06120-c8cd-4c7f-b635-46708984ba0a"
    }
  }, {
    "fullUrl": "https://madie.cms.gov/Location/afc82ad0-d48e-4f35-b2ae-3cd77d76f976",
    "resource": {
      "resourceType": "Location",
      "id": "afc82ad0-d48e-4f35-b2ae-3cd77d76f976",
      "meta": {
        "profile": [ "http://hl7.org/fhir/us/qicore/StructureDefinition/qicore-location" ]
      },
      "identifier": [ {
        "use": "usual",
        "system": "http://exampleoflocation.com",
        "value": "B1-S.F2"
      } ],
      "name": "Medical Surgical East, first floor",
      "type": [ {
        "coding": [ {
          "system": "https://www.cdc.gov/nhsn/cdaportal/terminology/codesystem/hsloc.html",
          "version": "2022",
          "code": "1108-0",
          "display": "Emergency Department",
          "userSelected": true
        } ]
      } ]
    },
    "request": {
      "method": "PUT",
      "url": "Location/afc82ad0-d48e-4f35-b2ae-3cd77d76f976"
    }
  }, {
    "fullUrl": "https://madie.cms.gov/claim/ClaimBehavior-NotSubsAbuse",
    "resource": {
      "resourceType": "Claim",
      "id": "ClaimBehavior-NotSubsAbuse",
      "meta": {
        "profile": [ "http://hl7.org/fhir/us/qicore/StructureDefinition/qicore-claim" ]
      },
      "status": "active",
      "type": {
        "coding": [ {
          "system": "http://terminology.hl7.org/CodeSystem/claim-type",
          "code": "institutional"
        } ]
      },
      "use": "claim",
      "patient": {
        "reference": "Patient/d3a7a6b7-bbbc-4c08-bd8c-ce1e1cbdc8a8"
      },
      "created": "2027-04-01",
      "provider": {
        "reference": "Practitioner/practitioner-123456"
      },
      "priority": {
        "coding": [ {
          "system": "http://terminology.hl7.org/CodeSystem/processpriority",
          "code": "normal"
        } ]
      },
      "diagnosis": [ {
        "sequence": 1,
        "diagnosisReference": {
          "reference": "Condition/b5a974fc-e055-47cd-bedf-7a5a68a510d0"
        },
        "type": [ {
          "coding": [ {
            "system": "http://terminology.hl7.org/CodeSystem/ex-diagnosistype",
            "code": "principal"
          } ]
        } ]
      } ],
      "insurance": [ {
        "sequence": 1,
        "focal": true,
        "coverage": {
          "reference": "Coverage/1"
        }
      } ],
      "item": [ {
        "sequence": 1,
        "diagnosisSequence": [ 1 ],
        "productOrService": {
          "coding": [ {
            "system": "http://terminology.hl7.org/CodeSystem/ex-USCLS",
            "code": "99555"
          } ]
        },
        "encounter": [ {
          "reference": "Encounter/993112d8-b6f8-485c-8bbd-856d14e681be"
        } ]
      } ]
    },
    "request": {
      "method": "PUT",
      "url": "Claim/ClaimBehavior-NotSubsAbuse"
    }
  }, {
    "fullUrl": "https://madie.cms.gov/claim/ClaimBehavior-NotSubsAbuse2",
    "resource": {
      "resourceType": "Claim",
      "id": "ClaimBehavior-NotSubsAbuse2",
      "meta": {
        "profile": [ "http://hl7.org/fhir/us/qicore/StructureDefinition/qicore-claim" ]
      },
      "status": "active",
      "type": {
        "coding": [ {
          "system": "http://terminology.hl7.org/CodeSystem/claim-type",
          "code": "institutional"
        } ]
      },
      "use": "claim",
      "patient": {
        "reference": "Patient/d3a7a6b7-bbbc-4c08-bd8c-ce1e1cbdc8a8"
      },
      "created": "2027-04-01",
      "provider": {
        "reference": "Practitioner/practitioner-123456"
      },
      "priority": {
        "coding": [ {
          "system": "http://terminology.hl7.org/CodeSystem/processpriority",
          "code": "normal"
        } ]
      },
      "diagnosis": [ {
        "sequence": 1,
        "diagnosisReference": {
          "reference": "Condition/b5a974fc-e055-47cd-bedf-7a5a68a510d0"
        },
        "type": [ {
          "coding": [ {
            "system": "http://terminology.hl7.org/CodeSystem/ex-diagnosistype",
            "code": "principal"
          } ]
        } ]
      } ],
      "insurance": [ {
        "sequence": 1,
        "focal": true,
        "coverage": {
          "reference": "Coverage/1"
        }
      } ],
      "item": [ {
        "sequence": 1,
        "diagnosisSequence": [ 1 ],
        "productOrService": {
          "coding": [ {
            "system": "http://terminology.hl7.org/CodeSystem/ex-USCLS",
            "code": "99555"
          } ]
        },
        "encounter": [ {
          "reference": "Encounter/99cc0b6c-e16c-4687-9d99-d977b16eceed"
        } ]
      } ]
    },
    "request": {
      "method": "PUT",
      "url": "Claim/ClaimBehavior-NotSubsAbuse2"
    }
  }, {
    "fullUrl": "https://madie.cms.gov/Coverage/072f6e32-9f3f-429f-8168-16789ec7123d",
    "resource": {
      "resourceType": "Coverage",
      "id": "072f6e32-9f3f-429f-8168-16789ec7123d",
      "meta": {
        "profile": [ "http://hl7.org/fhir/us/qicore/StructureDefinition/qicore-coverage" ]
      },
      "identifier": [ {
        "type": {
          "coding": [ {
            "system": "http://terminology.hl7.org/CodeSystem/v2-0203",
            "code": "MB"
          } ]
        }
      } ],
      "status": "active",
      "beneficiary": {
        "reference": "Patient/d3a7a6b7-bbbc-4c08-bd8c-ce1e1cbdc8a8"
      },
      "relationship": {
        "coding": [ {
          "system": "http://terminology.hl7.org/CodeSystem/subscriber-relationship",
          "code": "self"
        } ]
      },
      "payor": [ {
        "reference": "Organization/459d3b9a-9c53-445c-8bb0-0acdcb468c4e"
      } ]
    },
    "request": {
      "method": "PUT",
      "url": "Coverage/072f6e32-9f3f-429f-8168-16789ec7123d"
    }
  }, {
    "fullUrl": "https://madie.cms.gov/Organization/459d3b9a-9c53-445c-8bb0-0acdcb468c4e",
    "resource": {
      "resourceType": "Organization",
      "id": "459d3b9a-9c53-445c-8bb0-0acdcb468c4e",
      "meta": {
        "profile": [ "http://hl7.org/fhir/us/qicore/StructureDefinition/qicore-organization" ]
      },
      "identifier": [ {
        "use": "temp",
        "system": "urn:oid:2.16.840.1.113883.4.4",
        "value": "21-3259825"
      } ],
      "active": true,
      "type": [ {
        "coding": [ {
          "system": "http://terminology.hl7.org/CodeSystem/organization-type",
          "code": "pay",
          "display": "Payer"
        } ]
      } ],
      "name": "Blue Cross Blue Shield of Texas",
      "telecom": [ {
        "system": "phone",
        "value": "(+1) 972-766-6900"
      } ],
      "address": [ {
        "use": "billing",
        "type": "postal",
        "line": [ "P.O. Box 660044" ],
        "city": "Dallas",
        "state": "TX",
        "postalCode": "75266-0044",
        "country": "USA"
      } ]
    },
    "request": {
      "method": "PUT",
      "url": "Organization/459d3b9a-9c53-445c-8bb0-0acdcb468c4e"
    }
  }, {
    "fullUrl": "https://madie.cms.gov/Practitioner/6f210258-df94-4608-887a-de14b58d01fb",
    "resource": {
      "resourceType": "Practitioner",
      "id": "6f210258-df94-4608-887a-de14b58d01fb",
      "meta": {
        "profile": [ "http://hl7.org/fhir/us/qicore/StructureDefinition/qicore-practitioner" ]
      },
      "identifier": [ {
        "system": "http://hl7.org/fhir/sid/us-npi",
        "value": "9999999896"
      } ],
      "name": [ {
        "family": "Evil",
        "prefix": [ "Dr" ]
      } ]
    },
    "request": {
      "method": "PUT",
      "url": "Practitioner/6f210258-df94-4608-887a-de14b58d01fb"
    }
  }, {
    "fullUrl": "https://madie.cms.gov/MeasureReport/832050a0-5484-4e2c-b016-ebafcacb11b1",
    "resource": {
      "resourceType": "MeasureReport",
      "id": "832050a0-5484-4e2c-b016-ebafcacb11b1",
      "meta": {
        "profile": [ "http://hl7.org/fhir/us/cqfmeasures/StructureDefinition/test-case-cqfm" ]
      },
      "contained": [ {
        "resourceType": "Parameters",
        "id": "a5a05770-46c3-49d9-850d-90a472dbc4e0-parameters",
        "parameter": [ {
          "name": "subject",
          "valueString": "d3a7a6b7-bbbc-4c08-bd8c-ce1e1cbdc8a8"
        } ]
      } ],
      "extension": [ {
        "url": "http://hl7.org/fhir/StructureDefinition/cqf-inputParameters",
        "valueReference": {
          "reference": "#a5a05770-46c3-49d9-850d-90a472dbc4e0-parameters"
        }
      }, {
        "url": "http://hl7.org/fhir/us/cqfmeasures/StructureDefinition/cqfm-testCaseDescription",
        "valueMarkdown": "Multiple encounter with both E and M alongside Triage"
      } ],
      "modifierExtension": [ {
        "url": "http://hl7.org/fhir/us/cqfmeasures/StructureDefinition/cqfm-isTestCase",
        "valueBoolean": true
      } ],
      "status": "complete",
      "type": "individual",
      "measure": "https://madie.cms.gov/Measure/CMS1264FHIRECATREHQR",
      "period": {
        "start": "2027-01-01",
        "end": "2027-12-31"
      },
      "group": [ {
        "id": "Group_1",
        "population": [ {
          "id": "InitialPopulation_1",
          "code": {
            "coding": [ {
              "system": "http://terminology.hl7.org/CodeSystem/measure-population",
              "code": "initial-population",
              "display": "Initial Population"
            } ]
          },
          "count": 2
        }, {
          "id": "Denominator_1",
          "code": {
            "coding": [ {
              "system": "http://terminology.hl7.org/CodeSystem/measure-population",
              "code": "denominator",
              "display": "Denominator"
            } ]
          },
          "count": 2
        }, {
          "id": "Numerator_1",
          "code": {
            "coding": [ {
              "system": "http://terminology.hl7.org/CodeSystem/measure-population",
              "code": "numerator",
              "display": "Numerator"
            } ]
          },
          "count": 1
        } ],
        "measureScore": {
          "value": 0.0
        },
        "stratifier": [ {
          "id": "Stratification_1_1",
          "code": [ {
            "text": "Strata-1"
          } ],
          "stratum": [ {
            "value": {
              "text": "Strata-1"
            },
            "population": [ {
              "id": "InitialPopulation_1",
              "code": {
                "coding": [ {
                  "system": "http://terminology.hl7.org/CodeSystem/measure-population",
                  "code": "initial-population",
                  "display": "Initial Population"
                } ]
              },
              "count": 2
            }, {
              "id": "Denominator_1",
              "code": {
                "coding": [ {
                  "system": "http://terminology.hl7.org/CodeSystem/measure-population",
                  "code": "denominator",
                  "display": "Denominator"
                } ]
              },
              "count": 2
            }, {
              "id": "Numerator_1",
              "code": {
                "coding": [ {
                  "system": "http://terminology.hl7.org/CodeSystem/measure-population",
                  "code": "numerator",
                  "display": "Numerator"
                } ]
              },
              "count": 1
            } ]
          } ]
        }, {
          "id": "Stratification_1_2",
          "code": [ {
            "text": "Strata-2"
          } ],
          "stratum": [ {
            "value": {
              "text": "Strata-2"
            },
            "population": [ {
              "id": "InitialPopulation_1",
              "code": {
                "coding": [ {
                  "system": "http://terminology.hl7.org/CodeSystem/measure-population",
                  "code": "initial-population",
                  "display": "Initial Population"
                } ]
              },
              "count": 0
            }, {
              "id": "Denominator_1",
              "code": {
                "coding": [ {
                  "system": "http://terminology.hl7.org/CodeSystem/measure-population",
                  "code": "denominator",
                  "display": "Denominator"
                } ]
              },
              "count": 0
            }, {
              "id": "Numerator_1",
              "code": {
                "coding": [ {
                  "system": "http://terminology.hl7.org/CodeSystem/measure-population",
                  "code": "numerator",
                  "display": "Numerator"
                } ]
              },
              "count": 0
            } ]
          } ]
        }, {
          "id": "Stratification_1_3",
          "code": [ {
            "text": "Strata-3"
          } ],
          "stratum": [ {
            "value": {
              "text": "Strata-3"
            },
            "population": [ {
              "id": "InitialPopulation_1",
              "code": {
                "coding": [ {
                  "system": "http://terminology.hl7.org/CodeSystem/measure-population",
                  "code": "initial-population",
                  "display": "Initial Population"
                } ]
              },
              "count": 0
            }, {
              "id": "Denominator_1",
              "code": {
                "coding": [ {
                  "system": "http://terminology.hl7.org/CodeSystem/measure-population",
                  "code": "denominator",
                  "display": "Denominator"
                } ]
              },
              "count": 0
            }, {
              "id": "Numerator_1",
              "code": {
                "coding": [ {
                  "system": "http://terminology.hl7.org/CodeSystem/measure-population",
                  "code": "numerator",
                  "display": "Numerator"
                } ]
              },
              "count": 0
            } ]
          } ]
        }, {
          "id": "Stratification_1_4",
          "code": [ {
            "text": "Strata-4"
          } ],
          "stratum": [ {
            "value": {
              "text": "Strata-4"
            },
            "population": [ {
              "id": "InitialPopulation_1",
              "code": {
                "coding": [ {
                  "system": "http://terminology.hl7.org/CodeSystem/measure-population",
                  "code": "initial-population",
                  "display": "Initial Population"
                } ]
              },
              "count": 0
            }, {
              "id": "Denominator_1",
              "code": {
                "coding": [ {
                  "system": "http://terminology.hl7.org/CodeSystem/measure-population",
                  "code": "denominator",
                  "display": "Denominator"
                } ]
              },
              "count": 0
            }, {
              "id": "Numerator_1",
              "code": {
                "coding": [ {
                  "system": "http://terminology.hl7.org/CodeSystem/measure-population",
                  "code": "numerator",
                  "display": "Numerator"
                } ]
              },
              "count": 0
            } ]
          } ]
        } ]
      } ],
      "evaluatedResource": [ {
        "reference": "Patient/d3a7a6b7-bbbc-4c08-bd8c-ce1e1cbdc8a8"
      }, {
        "reference": "Encounter/28493b0b-92ba-4639-be24-abc2b64360ae"
      }, {
        "reference": "Encounter/993112d8-b6f8-485c-8bbd-856d14e681be"
      }, {
        "reference": "Encounter/99cc0b6c-e16c-4687-9d99-d977b16eceed"
      }, {
        "reference": "Condition/b5a974fc-e055-47cd-bedf-7a5a68a510d0"
      }, {
        "reference": "ServiceRequest/4170d64d-b655-41d4-a8cc-a86093e8d2bb"
      }, {
        "reference": "Location/0ca06120-c8cd-4c7f-b635-46708984ba0a"
      }, {
        "reference": "Location/afc82ad0-d48e-4f35-b2ae-3cd77d76f976"
      }, {
        "reference": "Claim/ClaimBehavior-NotSubsAbuse"
      }, {
        "reference": "Claim/ClaimBehavior-NotSubsAbuse2"
      }, {
        "reference": "Coverage/072f6e32-9f3f-429f-8168-16789ec7123d"
      }, {
        "reference": "Organization/459d3b9a-9c53-445c-8bb0-0acdcb468c4e"
      }, {
        "reference": "Practitioner/6f210258-df94-4608-887a-de14b58d01fb"
      } ]
    },
    "request": {
      "method": "PUT",
      "url": "MeasureReport/832050a0-5484-4e2c-b016-ebafcacb11b1"
    }
  } ]
}