{
  "resourceType": "Bundle",
  "id": "60f82c2e98086b570510e290",
  "type": "transaction",
  "entry": [ {
    "fullUrl": "https://madie.cms.gov/Patient/d0a59b97-c3ab-4028-9109-a31359a93c47",
    "resource": {
      "resourceType": "Patient",
      "id": "d0a59b97-c3ab-4028-9109-a31359a93c47",
      "meta": {
        "profile": [ "http://hl7.org/fhir/us/qicore/StructureDefinition/qicore-patient" ]
      },
      "text": {
        "status": "generated",
        "div": "<div xmlns=\"http://www.w3.org/1999/xhtml\"><div class=\"hapiHeaderText\">MedAntithromboticStart_eq0dayB4EdStart <b>NUMERPASS </b></div><table class=\"hapiPropertyTable\"><tbody><tr><td>Identifier</td><td>9d6a651043dc0df124664bf2c17e439c</td></tr><tr><td>Date of birth</td><td><span>26 September 1975</span></td></tr></tbody></table></div>"
      },
      "extension": [ {
        "url": "http://hl7.org/fhir/us/core/StructureDefinition/us-core-race",
        "extension": [ {
          "url": "ombCategory",
          "valueCoding": {
            "system": "urn:oid:2.16.840.1.113883.6.238",
            "code": "2054-5",
            "display": "Black or African American",
            "userSelected": true
          }
        }, {
          "url": "text",
          "valueString": "Black or African American"
        } ]
      }, {
        "url": "http://hl7.org/fhir/us/core/StructureDefinition/us-core-ethnicity",
        "extension": [ {
          "url": "ombCategory",
          "valueCoding": {
            "system": "urn:oid:2.16.840.1.113883.6.238",
            "code": "2186-5",
            "display": "Not Hispanic or Latino",
            "userSelected": true
          }
        }, {
          "url": "text",
          "valueString": "Not Hispanic or Latino"
        } ]
      } ],
      "identifier": [ {
        "type": {
          "coding": [ {
            "system": "http://terminology.hl7.org/CodeSystem/v2-0203",
            "code": "MR"
          } ]
        },
        "system": "https://bonnie-fhir.healthit.gov/",
        "value": "60f82c2e98086b570510e290"
      } ],
      "active": true,
      "name": [ {
        "use": "usual",
        "family": "NUMERPass",
        "given": [ "MedAntithromboticStart_eq0dayB4EdStart" ]
      } ],
      "gender": "female",
      "birthDate": "1976-09-26"
    },
    "request": {
      "method": "PUT",
      "url": "Patient/d0a59b97-c3ab-4028-9109-a31359a93c47"
    }
  }, {
    "fullUrl": "https://madie.cms.gov/Encounter/75d69cbf-cc04-40b0-9ab1-baca0fc90b7e",
    "resource": {
      "resourceType": "Encounter",
      "id": "75d69cbf-cc04-40b0-9ab1-baca0fc90b7e",
      "meta": {
        "profile": [ "http://hl7.org/fhir/us/qicore/StructureDefinition/qicore-encounter" ]
      },
      "status": "finished",
      "class": {
        "system": "http://terminology.hl7.org/CodeSystem/v3-ActCode",
        "code": "EMER",
        "display": "emergency"
      },
      "type": [ {
        "coding": [ {
          "system": "http://snomed.info/sct",
          "code": "4525004"
        } ]
      } ],
      "subject": {
        "reference": "Patient/d0a59b97-c3ab-4028-9109-a31359a93c47"
      },
      "period": {
        "start": "2026-10-10T06:00:00.000+00:00",
        "end": "2026-10-10T08:30:00.000+00:00"
      },
      "length": {
        "value": 0,
        "unit": "days"
      }
    },
    "request": {
      "method": "PUT",
      "url": "Encounter/75d69cbf-cc04-40b0-9ab1-baca0fc90b7e"
    }
  }, {
    "fullUrl": "https://madie.cms.gov/Encounter/e37385ec-a1dd-4567-a70a-a71ec50fc368",
    "resource": {
      "resourceType": "Encounter",
      "id": "e37385ec-a1dd-4567-a70a-a71ec50fc368",
      "meta": {
        "profile": [ "http://hl7.org/fhir/us/qicore/StructureDefinition/qicore-encounter" ]
      },
      "status": "finished",
      "class": {
        "system": "http://terminology.hl7.org/CodeSystem/v3-ActCode",
        "code": "IMP",
        "display": "inpatient encounter"
      },
      "type": [ {
        "coding": [ {
          "system": "http://snomed.info/sct",
          "code": "32485007"
        } ]
      } ],
      "subject": {
        "reference": "Patient/d0a59b97-c3ab-4028-9109-a31359a93c47"
      },
      "period": {
        "start": "2026-10-10T09:00:00.000+00:00",
        "end": "2026-10-12T11:30:00.000+00:00"
      },
      "length": {
        "value": 2,
        "unit": "days"
      },
      "reasonReference": [ {
        "reference": "Condition/892dc884-114a-4c2a-9e35-aa3e777a368c"
      } ]
    },
    "request": {
      "method": "PUT",
      "url": "Encounter/e37385ec-a1dd-4567-a70a-a71ec50fc368"
    }
  }, {
    "fullUrl": "https://madie.cms.gov/claim/5ca62962b8484628b8de1ec5",
    "resource": {
      "resourceType": "Claim",
      "id": "5ca62962b8484628b8de1ec5",
      "meta": {
        "profile": [ "http://hl7.org/fhir/us/qicore/StructureDefinition/qicore-claim" ]
      },
      "status": "active",
      "type": {
        "coding": [ {
          "system": "http://terminology.hl7.org/CodeSystem/claim-type",
          "code": "institutional"
        } ]
      },
      "use": "claim",
      "patient": {
        "reference": "Patient/d170a0a8-b5ad-4303-b6df-e304dd5f92ad"
      },
      "created": "2026-12-01",
      "provider": {
        "reference": "Practitioner/2f92705a-7752-4a55-9311-6fc0a91a6f01"
      },
      "priority": {
        "coding": [ {
          "system": "http://terminology.hl7.org/CodeSystem/processpriority",
          "code": "normal"
        } ]
      },
      "diagnosis": [ {
        "sequence": 1,
        "diagnosisCodeableConcept": {
          "coding": [ {
            "system": "http://hl7.org/fhir/sid/icd-10-cm",
            "code": "I63.00"
          } ]
        },
        "type": [ {
          "coding": [ {
            "system": "http://terminology.hl7.org/CodeSystem/ex-diagnosistype",
            "code": "principal"
          } ]
        } ]
      } ],
      "insurance": [ {
        "sequence": 1,
        "focal": true,
        "coverage": {
          "reference": "Coverage/5fa041661c76ba66d9959367"
        }
      } ],
      "item": [ {
        "sequence": 1,
        "diagnosisSequence": [ 1 ],
        "productOrService": {
          "coding": [ {
            "system": "http://terminology.hl7.org/CodeSystem/ex-USCLS",
            "code": "99555"
          } ]
        },
        "encounter": [ {
          "reference": "Encounter/e37385ec-a1dd-4567-a70a-a71ec50fc368"
        } ]
      } ]
    },
    "request": {
      "method": "PUT",
      "url": "Claim/5ca62962b8484628b8de1ec5"
    }
  }, {
    "fullUrl": "https://madie.cms.gov/MedicationAdministration/efabbe09-c781-4f8e-83f0-3b3182379bc2",
    "resource": {
      "resourceType": "MedicationAdministration",
      "id": "efabbe09-c781-4f8e-83f0-3b3182379bc2",
      "meta": {
        "profile": [ "http://hl7.org/fhir/us/qicore/StructureDefinition/qicore-medicationadministration" ]
      },
      "status": "completed",
      "medicationCodeableConcept": {
        "coding": [ {
          "system": "http://www.nlm.nih.gov/research/umls/rxnorm",
          "code": "1037045"
        } ]
      },
      "subject": {
        "reference": "Patient/d0a59b97-c3ab-4028-9109-a31359a93c47"
      },
      "effectivePeriod": {
        "start": "2026-10-10T05:00:00.000+00:00",
        "end": "2026-10-10T05:20:00.000+00:00"
      }
    },
    "request": {
      "method": "PUT",
      "url": "MedicationAdministration/efabbe09-c781-4f8e-83f0-3b3182379bc2"
    }
  }, {
    "fullUrl": "https://madie.cms.gov/Coverage/3f67587b-543a-4b9c-96a4-fdc4422540dc",
    "resource": {
      "resourceType": "Coverage",
      "id": "3f67587b-543a-4b9c-96a4-fdc4422540dc",
      "status": "active",
      "subscriberId": "523435",
      "beneficiary": {
        "reference": "Patient/d0a59b97-c3ab-4028-9109-a31359a93c47"
      },
      "relationship": {
        "coding": [ {
          "system": "http://terminology.hl7.org/CodeSystem/subscriber-relationship",
          "code": "self"
        } ]
      },
      "period": {
        "start": "1976-09-26T08:00:00.000+00:00"
      },
      "payor": [ {
        "reference": "Organization/fc830ca1-d977-44a6-9dbe-0ea8079e7395"
      } ]
    },
    "request": {
      "method": "PUT",
      "url": "Coverage/3f67587b-543a-4b9c-96a4-fdc4422540dc"
    }
  }, {
    "fullUrl": "https://madie.cms.gov/Condition/892dc884-114a-4c2a-9e35-aa3e777a368c",
    "resource": {
      "resourceType": "Condition",
      "id": "892dc884-114a-4c2a-9e35-aa3e777a368c",
      "meta": {
        "profile": [ "http://hl7.org/fhir/us/qicore/StructureDefinition/qicore-condition-problems-health-concerns" ]
      },
      "clinicalStatus": {
        "coding": [ {
          "system": "http://terminology.hl7.org/CodeSystem/condition-clinical",
          "code": "active"
        } ]
      },
      "verificationStatus": {
        "coding": [ {
          "system": "http://terminology.hl7.org/CodeSystem/condition-ver-status",
          "code": "confirmed"
        } ]
      },
      "category": [ {
        "coding": [ {
          "system": "http://terminology.hl7.org/CodeSystem/condition-category",
          "code": "encounter-diagnosis",
          "display": "Encounter Diagnosis"
        } ]
      } ],
      "code": {
        "coding": [ {
          "system": "http://snomed.info/sct",
          "version": "2020-09",
          "code": "111297002",
          "display": "Nonparalytic stroke (disorder)",
          "userSelected": true
        } ]
      },
      "subject": {
        "reference": "Patient/d0a59b97-c3ab-4028-9109-a31359a93c47"
      },
      "recordedDate": "2026-08-16T08:00:00.000+00:00"
    },
    "request": {
      "method": "PUT",
      "url": "Condition/892dc884-114a-4c2a-9e35-aa3e777a368c"
    }
  }, {
    "fullUrl": "https://madie.cms.gov/Organization/fc830ca1-d977-44a6-9dbe-0ea8079e7395",
    "resource": {
      "resourceType": "Organization",
      "id": "fc830ca1-d977-44a6-9dbe-0ea8079e7395",
      "meta": {
        "profile": [ "http://hl7.org/fhir/us/qicore/StructureDefinition/qicore-organization" ]
      },
      "identifier": [ {
        "use": "temp",
        "system": "urn:oid:2.16.840.1.113883.4.4",
        "value": "21-3259825"
      } ],
      "active": true,
      "type": [ {
        "coding": [ {
          "system": "http://terminology.hl7.org/CodeSystem/organization-type",
          "code": "pay",
          "display": "Payer"
        } ]
      } ],
      "name": "Blue Cross Blue Shield of Texas",
      "telecom": [ {
        "system": "phone",
        "value": "(+1) 972-766-6900"
      } ],
      "address": [ {
        "use": "billing",
        "type": "postal",
        "line": [ "P.O. Box 660044" ],
        "city": "Dallas",
        "state": "TX",
        "postalCode": "75266-0044",
        "country": "USA"
      } ]
    },
    "request": {
      "method": "PUT",
      "url": "Organization/fc830ca1-d977-44a6-9dbe-0ea8079e7395"
    }
  }, {
    "fullUrl": "https://madie.cms.gov/Practitioner/2f92705a-7752-4a55-9311-6fc0a91a6f01",
    "resource": {
      "resourceType": "Practitioner",
      "id": "2f92705a-7752-4a55-9311-6fc0a91a6f01",
      "meta": {
        "profile": [ "http://hl7.org/fhir/us/qicore/StructureDefinition/qicore-practitioner" ]
      },
      "identifier": [ {
        "system": "http://hl7.org/fhir/sid/us-npi",
        "value": "9999999896"
      } ],
      "name": [ {
        "family": "Evil",
        "prefix": [ "Dr" ]
      } ]
    },
    "request": {
      "method": "PUT",
      "url": "Practitioner/2f92705a-7752-4a55-9311-6fc0a91a6f01"
    }
  }, {
    "fullUrl": "https://madie.cms.gov/MeasureReport/c6094b42-4e90-4ca3-a776-b503ff17bc68",
    "resource": {
      "resourceType": "MeasureReport",
      "id": "c6094b42-4e90-4ca3-a776-b503ff17bc68",
      "meta": {
        "profile": [ "http://hl7.org/fhir/us/cqfmeasures/StructureDefinition/test-case-cqfm" ]
      },
      "contained": [ {
        "resourceType": "Parameters",
        "id": "31be4de0-61d2-417f-af86-8c6ad87b918a-parameters",
        "parameter": [ {
          "name": "subject",
          "valueString": "d0a59b97-c3ab-4028-9109-a31359a93c47"
        } ]
      } ],
      "extension": [ {
        "url": "http://hl7.org/fhir/StructureDefinition/cqf-inputParameters",
        "valueReference": {
          "reference": "#31be4de0-61d2-417f-af86-8c6ad87b918a-parameters"
        }
      }, {
        "url": "http://hl7.org/fhir/us/cqfmeasures/StructureDefinition/cqfm-testCaseDescription",
        "valueMarkdown": "\"Patient receives antithrombotic before ED , (=0day)\nglobal.\"\"Hospitalization\"\" =(Ed+IP)\"\n"
      } ],
      "modifierExtension": [ {
        "url": "http://hl7.org/fhir/us/cqfmeasures/StructureDefinition/cqfm-isTestCase",
        "valueBoolean": true
      } ],
      "status": "complete",
      "type": "individual",
      "measure": "https://madie.cms.gov/Measure/CMS72FHIRSTKAntithromboticDay2",
      "period": {
        "start": "2026-01-01",
        "end": "2026-12-31"
      },
      "group": [ {
        "id": "Group_1",
        "population": [ {
          "id": "InitialPopulation_1",
          "code": {
            "coding": [ {
              "system": "http://terminology.hl7.org/CodeSystem/measure-population",
              "code": "initial-population",
              "display": "Initial Population"
            } ]
          },
          "count": 1
        }, {
          "id": "Denominator_1",
          "code": {
            "coding": [ {
              "system": "http://terminology.hl7.org/CodeSystem/measure-population",
              "code": "denominator",
              "display": "Denominator"
            } ]
          },
          "count": 1
        }, {
          "id": "DenominatorExclusion_1",
          "code": {
            "coding": [ {
              "system": "http://terminology.hl7.org/CodeSystem/measure-population",
              "code": "denominator-exclusion",
              "display": "Denominator Exclusion"
            } ]
          },
          "count": 0
        }, {
          "id": "Numerator_1",
          "code": {
            "coding": [ {
              "system": "http://terminology.hl7.org/CodeSystem/measure-population",
              "code": "numerator",
              "display": "Numerator"
            } ]
          },
          "count": 1
        }, {
          "id": "DenominatorException_1",
          "code": {
            "coding": [ {
              "system": "http://terminology.hl7.org/CodeSystem/measure-population",
              "code": "denominator-exception",
              "display": "Denominator Exception"
            } ]
          },
          "count": 0
        } ],
        "measureScore": {
          "value": 0.0
        }
      } ],
      "evaluatedResource": [ {
        "reference": "Patient/d0a59b97-c3ab-4028-9109-a31359a93c47"
      }, {
        "reference": "Encounter/75d69cbf-cc04-40b0-9ab1-baca0fc90b7e"
      }, {
        "reference": "Encounter/e37385ec-a1dd-4567-a70a-a71ec50fc368"
      }, {
        "reference": "Claim/5ca62962b8484628b8de1ec5"
      }, {
        "reference": "MedicationAdministration/efabbe09-c781-4f8e-83f0-3b3182379bc2"
      }, {
        "reference": "Coverage/3f67587b-543a-4b9c-96a4-fdc4422540dc"
      }, {
        "reference": "Condition/892dc884-114a-4c2a-9e35-aa3e777a368c"
      }, {
        "reference": "Organization/fc830ca1-d977-44a6-9dbe-0ea8079e7395"
      }, {
        "reference": "Practitioner/2f92705a-7752-4a55-9311-6fc0a91a6f01"
      } ]
    },
    "request": {
      "method": "PUT",
      "url": "MeasureReport/c6094b42-4e90-4ca3-a776-b503ff17bc68"
    }
  } ]
}