{
  "resourceType": "Bundle",
  "id": "60f82c2f98086b570510e2af",
  "type": "transaction",
  "entry": [ {
    "fullUrl": "https://madie.cms.gov/Patient/1216ea1e-aee7-4c75-8e5d-7f712f6ba3f7",
    "resource": {
      "resourceType": "Patient",
      "id": "1216ea1e-aee7-4c75-8e5d-7f712f6ba3f7",
      "meta": {
        "profile": [ "http://hl7.org/fhir/us/qicore/StructureDefinition/qicore-patient" ]
      },
      "text": {
        "status": "generated",
        "div": "<div xmlns=\"http://www.w3.org/1999/xhtml\"><div class=\"hapiHeaderText\">INRDayOfObs_ED&lt;1hrDayOfObs&gt;1hrDayAftBFEnc2DayAft <b>DENEXCEPFAIL </b></div><table class=\"hapiPropertyTable\"><tbody><tr><td>Identifier</td><td>5057820c9f8087deb980c05c7852ae7b709590e0ebc4e0ba69449350b68c9e65</td></tr><tr><td>Date of birth</td><td><span>26 September 1975</span></td></tr></tbody></table></div>"
      },
      "extension": [ {
        "url": "http://hl7.org/fhir/us/core/StructureDefinition/us-core-race",
        "extension": [ {
          "url": "ombCategory",
          "valueCoding": {
            "system": "urn:oid:2.16.840.1.113883.6.238",
            "code": "2054-5",
            "display": "Black or African American",
            "userSelected": true
          }
        }, {
          "url": "text",
          "valueString": "Black or African American"
        } ]
      }, {
        "url": "http://hl7.org/fhir/us/core/StructureDefinition/us-core-ethnicity",
        "extension": [ {
          "url": "ombCategory",
          "valueCoding": {
            "system": "urn:oid:2.16.840.1.113883.6.238",
            "code": "2186-5",
            "display": "Not Hispanic or Latino",
            "userSelected": true
          }
        }, {
          "url": "text",
          "valueString": "Not Hispanic or Latino"
        } ]
      } ],
      "identifier": [ {
        "type": {
          "coding": [ {
            "system": "http://terminology.hl7.org/CodeSystem/v2-0203",
            "code": "MR"
          } ]
        },
        "system": "https://bonnie-fhir.healthit.gov/",
        "value": "60f82c2f98086b570510e2af"
      } ],
      "active": true,
      "name": [ {
        "use": "usual",
        "family": "DENEXCEPFail",
        "given": [ "INRDayOfObs_ED<1hrDayOfObs>1hrDayAftBFEnc2DayAft" ]
      } ],
      "gender": "female",
      "birthDate": "1976-09-26"
    },
    "request": {
      "method": "PUT",
      "url": "Patient/1216ea1e-aee7-4c75-8e5d-7f712f6ba3f7"
    }
  }, {
    "fullUrl": "https://madie.cms.gov/Encounter/8abec26a-cd2e-4d9e-b428-e7243d852d98",
    "resource": {
      "resourceType": "Encounter",
      "id": "8abec26a-cd2e-4d9e-b428-e7243d852d98",
      "meta": {
        "profile": [ "http://hl7.org/fhir/us/qicore/StructureDefinition/qicore-encounter" ]
      },
      "status": "finished",
      "class": {
        "system": "http://terminology.hl7.org/CodeSystem/v3-ActCode",
        "code": "EMER",
        "display": "emergency"
      },
      "type": [ {
        "coding": [ {
          "system": "http://snomed.info/sct",
          "code": "4525004"
        } ]
      } ],
      "subject": {
        "reference": "Patient/1216ea1e-aee7-4c75-8e5d-7f712f6ba3f7"
      },
      "period": {
        "start": "2026-10-10T06:15:00.000+00:00",
        "end": "2026-10-10T23:59:00.000+00:00"
      },
      "length": {
        "value": 0,
        "unit": "days"
      }
    },
    "request": {
      "method": "PUT",
      "url": "Encounter/8abec26a-cd2e-4d9e-b428-e7243d852d98"
    }
  }, {
    "fullUrl": "https://madie.cms.gov/Encounter/3d260748-6c36-4924-a818-91407594ded1",
    "resource": {
      "resourceType": "Encounter",
      "id": "3d260748-6c36-4924-a818-91407594ded1",
      "meta": {
        "profile": [ "http://hl7.org/fhir/us/qicore/StructureDefinition/qicore-encounter" ]
      },
      "status": "finished",
      "class": {
        "system": "http://terminology.hl7.org/CodeSystem/v3-ActCode",
        "code": "OBSENC",
        "display": "observation encounter"
      },
      "type": [ {
        "coding": [ {
          "system": "http://snomed.info/sct",
          "code": "448851000124103"
        } ]
      } ],
      "subject": {
        "reference": "Patient/1216ea1e-aee7-4c75-8e5d-7f712f6ba3f7"
      },
      "period": {
        "start": "2026-10-11T01:00:00.000+00:00",
        "end": "2026-10-11T23:59:00.000+00:00"
      },
      "length": {
        "value": 0,
        "unit": "days"
      }
    },
    "request": {
      "method": "PUT",
      "url": "Encounter/3d260748-6c36-4924-a818-91407594ded1"
    }
  }, {
    "fullUrl": "https://madie.cms.gov/Encounter/9a0fef1f-9f67-4005-88aa-52c3fa9d882d",
    "resource": {
      "resourceType": "Encounter",
      "id": "9a0fef1f-9f67-4005-88aa-52c3fa9d882d",
      "meta": {
        "profile": [ "http://hl7.org/fhir/us/qicore/StructureDefinition/qicore-encounter" ]
      },
      "status": "finished",
      "class": {
        "system": "http://terminology.hl7.org/CodeSystem/v3-ActCode",
        "code": "IMP",
        "display": "inpatient encounter",
        "userSelected": true
      },
      "type": [ {
        "coding": [ {
          "system": "http://snomed.info/sct",
          "code": "32485007"
        } ]
      } ],
      "subject": {
        "reference": "Patient/1216ea1e-aee7-4c75-8e5d-7f712f6ba3f7"
      },
      "period": {
        "start": "2026-10-12T01:00:00.000+00:00",
        "end": "2026-10-15T11:30:00.000+00:00"
      },
      "length": {
        "value": 3,
        "unit": "days"
      },
      "reasonReference": [ {
        "reference": "Condition/29adee0c-d853-420f-b74c-f1bcff1479a7"
      } ]
    },
    "request": {
      "method": "PUT",
      "url": "Encounter/9a0fef1f-9f67-4005-88aa-52c3fa9d882d"
    }
  }, {
    "fullUrl": "https://madie.cms.gov/claim/5ca62962b8484628b8de1ec5",
    "resource": {
      "resourceType": "Claim",
      "id": "5ca62962b8484628b8de1ec5",
      "meta": {
        "profile": [ "http://hl7.org/fhir/us/qicore/StructureDefinition/qicore-claim" ]
      },
      "status": "active",
      "type": {
        "coding": [ {
          "system": "http://terminology.hl7.org/CodeSystem/claim-type",
          "code": "institutional"
        } ]
      },
      "use": "claim",
      "patient": {
        "reference": "Patient/d170a0a8-b5ad-4303-b6df-e304dd5f92ad"
      },
      "created": "2026-12-01",
      "provider": {
        "reference": "Practitioner/practitioner-123456"
      },
      "priority": {
        "coding": [ {
          "system": "http://terminology.hl7.org/CodeSystem/processpriority",
          "code": "normal"
        } ]
      },
      "diagnosis": [ {
        "sequence": 1,
        "diagnosisCodeableConcept": {
          "coding": [ {
            "system": "http://hl7.org/fhir/sid/icd-10-cm",
            "code": "I63.00"
          } ]
        },
        "type": [ {
          "coding": [ {
            "system": "http://terminology.hl7.org/CodeSystem/ex-diagnosistype",
            "code": "principal"
          } ]
        } ]
      } ],
      "insurance": [ {
        "sequence": 1,
        "focal": true,
        "coverage": {
          "reference": "Coverage/5fa041661c76ba66d9959367"
        }
      } ],
      "item": [ {
        "sequence": 1,
        "diagnosisSequence": [ 1 ],
        "productOrService": {
          "coding": [ {
            "system": "http://terminology.hl7.org/CodeSystem/ex-USCLS",
            "code": "99555"
          } ]
        },
        "encounter": [ {
          "reference": "Encounter/9a0fef1f-9f67-4005-88aa-52c3fa9d882d"
        } ]
      } ]
    },
    "request": {
      "method": "PUT",
      "url": "Claim/5ca62962b8484628b8de1ec5"
    }
  }, {
    "fullUrl": "https://madie.cms.gov/Observation/f9a5929c-f89c-4536-8b7f-b1fc8b985049",
    "resource": {
      "resourceType": "Observation",
      "id": "f9a5929c-f89c-4536-8b7f-b1fc8b985049",
      "meta": {
        "profile": [ "http://hl7.org/fhir/us/qicore/StructureDefinition/qicore-observation-lab" ]
      },
      "status": "final",
      "category": [ {
        "coding": [ {
          "system": "http://terminology.hl7.org/CodeSystem/observation-category",
          "code": "laboratory",
          "display": "Laboratory"
        } ]
      } ],
      "code": {
        "coding": [ {
          "system": "http://loinc.org",
          "code": "34714-6"
        } ]
      },
      "subject": {
        "reference": "Patient/1216ea1e-aee7-4c75-8e5d-7f712f6ba3f7"
      },
      "effectiveDateTime": "2026-10-11T08:00:00.000+00:00",
      "issued": "2026-10-11T01:00:00.000+00:00",
      "valueQuantity": {
        "value": 3.6
      }
    },
    "request": {
      "method": "PUT",
      "url": "Observation/f9a5929c-f89c-4536-8b7f-b1fc8b985049"
    }
  }, {
    "fullUrl": "https://madie.cms.gov/Coverage/34eaaaa3-a885-4fc0-b55a-d9392bdd235d",
    "resource": {
      "resourceType": "Coverage",
      "id": "34eaaaa3-a885-4fc0-b55a-d9392bdd235d",
      "status": "active",
      "subscriberId": "523435",
      "beneficiary": {
        "reference": "Patient/1216ea1e-aee7-4c75-8e5d-7f712f6ba3f7"
      },
      "relationship": {
        "coding": [ {
          "system": "http://terminology.hl7.org/CodeSystem/subscriber-relationship",
          "code": "self"
        } ]
      },
      "period": {
        "start": "1976-09-26T08:00:00.000+00:00"
      },
      "payor": [ {
        "reference": "Organization/4eada9c8-0c89-4eba-8425-1b4ef6544a05"
      } ]
    },
    "request": {
      "method": "PUT",
      "url": "Coverage/34eaaaa3-a885-4fc0-b55a-d9392bdd235d"
    }
  }, {
    "fullUrl": "https://madie.cms.gov/Condition/29adee0c-d853-420f-b74c-f1bcff1479a7",
    "resource": {
      "resourceType": "Condition",
      "id": "29adee0c-d853-420f-b74c-f1bcff1479a7",
      "meta": {
        "profile": [ "http://hl7.org/fhir/us/qicore/StructureDefinition/qicore-condition-encounter-diagnosis" ]
      },
      "clinicalStatus": {
        "coding": [ {
          "system": "http://terminology.hl7.org/CodeSystem/condition-clinical",
          "code": "active"
        } ]
      },
      "verificationStatus": {
        "coding": [ {
          "system": "http://terminology.hl7.org/CodeSystem/condition-ver-status",
          "code": "confirmed"
        } ]
      },
      "category": [ {
        "coding": [ {
          "system": "http://terminology.hl7.org/CodeSystem/condition-category",
          "code": "encounter-diagnosis",
          "display": "Encounter Diagnosis"
        } ]
      } ],
      "code": {
        "coding": [ {
          "system": "http://snomed.info/sct",
          "version": "2020-09",
          "code": "111297002",
          "display": "Nonparalytic stroke (disorder)",
          "userSelected": true
        } ]
      },
      "subject": {
        "reference": "Patient/1216ea1e-aee7-4c75-8e5d-7f712f6ba3f7"
      },
      "recordedDate": "2026-07-28T08:00:00.000+00:00"
    },
    "request": {
      "method": "PUT",
      "url": "Condition/29adee0c-d853-420f-b74c-f1bcff1479a7"
    }
  }, {
    "fullUrl": "https://madie.cms.gov/Organization/4eada9c8-0c89-4eba-8425-1b4ef6544a05",
    "resource": {
      "resourceType": "Organization",
      "id": "4eada9c8-0c89-4eba-8425-1b4ef6544a05",
      "meta": {
        "profile": [ "http://hl7.org/fhir/us/qicore/StructureDefinition/qicore-organization" ]
      },
      "identifier": [ {
        "use": "temp",
        "system": "urn:oid:2.16.840.1.113883.4.4",
        "value": "21-3259825"
      } ],
      "active": true,
      "type": [ {
        "coding": [ {
          "system": "http://terminology.hl7.org/CodeSystem/organization-type",
          "code": "pay",
          "display": "Payer"
        } ]
      } ],
      "name": "Blue Cross Blue Shield of Texas",
      "telecom": [ {
        "system": "phone",
        "value": "(+1) 972-766-6900"
      } ],
      "address": [ {
        "use": "billing",
        "type": "postal",
        "line": [ "P.O. Box 660044" ],
        "city": "Dallas",
        "state": "TX",
        "postalCode": "75266-0044",
        "country": "USA"
      } ]
    },
    "request": {
      "method": "PUT",
      "url": "Organization/4eada9c8-0c89-4eba-8425-1b4ef6544a05"
    }
  }, {
    "fullUrl": "https://madie.cms.gov/MeasureReport/5b03374a-1074-4389-8774-e78a7e4c5b97",
    "resource": {
      "resourceType": "MeasureReport",
      "id": "5b03374a-1074-4389-8774-e78a7e4c5b97",
      "meta": {
        "profile": [ "http://hl7.org/fhir/us/cqfmeasures/StructureDefinition/test-case-cqfm" ]
      },
      "contained": [ {
        "resourceType": "Parameters",
        "id": "d5afb908-921b-4ece-a08c-db0a0df19141-parameters",
        "parameter": [ {
          "name": "subject",
          "valueString": "1216ea1e-aee7-4c75-8e5d-7f712f6ba3f7"
        } ]
      } ],
      "extension": [ {
        "url": "http://hl7.org/fhir/StructureDefinition/cqf-inputParameters",
        "valueReference": {
          "reference": "#d5afb908-921b-4ece-a08c-db0a0df19141-parameters"
        }
      }, {
        "url": "http://hl7.org/fhir/us/cqfmeasures/StructureDefinition/cqfm-testCaseDescription",
        "valueMarkdown": "Patient receives INR day of Obs, ED ends 1 min before Obs start at midnight, Obs ends 61 min before IP start at midnight the next day. Testing Day of operator with HospitalizationWithObservation function.\n"
      } ],
      "modifierExtension": [ {
        "url": "http://hl7.org/fhir/us/cqfmeasures/StructureDefinition/cqfm-isTestCase",
        "valueBoolean": true
      } ],
      "status": "complete",
      "type": "individual",
      "measure": "https://madie.cms.gov/Measure/CMS72FHIRSTKAntithromboticDay2",
      "period": {
        "start": "2026-01-01",
        "end": "2026-12-31"
      },
      "group": [ {
        "id": "Group_1",
        "population": [ {
          "id": "InitialPopulation_1",
          "code": {
            "coding": [ {
              "system": "http://terminology.hl7.org/CodeSystem/measure-population",
              "code": "initial-population",
              "display": "Initial Population"
            } ]
          },
          "count": 1
        }, {
          "id": "Denominator_1",
          "code": {
            "coding": [ {
              "system": "http://terminology.hl7.org/CodeSystem/measure-population",
              "code": "denominator",
              "display": "Denominator"
            } ]
          },
          "count": 1
        }, {
          "id": "DenominatorExclusion_1",
          "code": {
            "coding": [ {
              "system": "http://terminology.hl7.org/CodeSystem/measure-population",
              "code": "denominator-exclusion",
              "display": "Denominator Exclusion"
            } ]
          },
          "count": 0
        }, {
          "id": "Numerator_1",
          "code": {
            "coding": [ {
              "system": "http://terminology.hl7.org/CodeSystem/measure-population",
              "code": "numerator",
              "display": "Numerator"
            } ]
          },
          "count": 0
        }, {
          "id": "DenominatorException_1",
          "code": {
            "coding": [ {
              "system": "http://terminology.hl7.org/CodeSystem/measure-population",
              "code": "denominator-exception",
              "display": "Denominator Exception"
            } ]
          },
          "count": 0
        } ],
        "measureScore": {
          "value": 0.0
        }
      } ],
      "evaluatedResource": [ {
        "reference": "Patient/1216ea1e-aee7-4c75-8e5d-7f712f6ba3f7"
      }, {
        "reference": "Encounter/8abec26a-cd2e-4d9e-b428-e7243d852d98"
      }, {
        "reference": "Encounter/3d260748-6c36-4924-a818-91407594ded1"
      }, {
        "reference": "Encounter/9a0fef1f-9f67-4005-88aa-52c3fa9d882d"
      }, {
        "reference": "Claim/5ca62962b8484628b8de1ec5"
      }, {
        "reference": "Observation/f9a5929c-f89c-4536-8b7f-b1fc8b985049"
      }, {
        "reference": "Coverage/34eaaaa3-a885-4fc0-b55a-d9392bdd235d"
      }, {
        "reference": "Condition/29adee0c-d853-420f-b74c-f1bcff1479a7"
      }, {
        "reference": "Organization/4eada9c8-0c89-4eba-8425-1b4ef6544a05"
      } ]
    },
    "request": {
      "method": "PUT",
      "url": "MeasureReport/5b03374a-1074-4389-8774-e78a7e4c5b97"
    }
  } ]
}