{
  "resourceType": "Bundle",
  "id": "657cbdc9b4f1f0343662347a",
  "type": "transaction",
  "entry": [ {
    "fullUrl": "https://madie.cms.gov/Patient/16a98469-0589-4cc4-964d-d37f043cd11b",
    "resource": {
      "resourceType": "Patient",
      "id": "16a98469-0589-4cc4-964d-d37f043cd11b",
      "meta": {
        "profile": [ "http://hl7.org/fhir/us/qicore/StructureDefinition/qicore-patient" ]
      },
      "extension": [ {
        "url": "http://hl7.org/fhir/us/core/StructureDefinition/us-core-race",
        "extension": [ {
          "url": "ombCategory",
          "valueCoding": {
            "system": "urn:oid:2.16.840.1.113883.6.238",
            "code": "2106-3",
            "display": "White",
            "userSelected": true
          }
        }, {
          "url": "text",
          "valueString": "White"
        } ]
      }, {
        "url": "http://hl7.org/fhir/us/core/StructureDefinition/us-core-ethnicity",
        "extension": [ {
          "url": "ombCategory",
          "valueCoding": {
            "system": "urn:oid:2.16.840.1.113883.6.238",
            "code": "2186-5",
            "display": "Not Hispanic or Latino",
            "userSelected": true
          }
        }, {
          "url": "text",
          "valueString": "Not Hispanic or Latino"
        } ]
      } ],
      "identifier": [ {
        "type": {
          "coding": [ {
            "system": "http://terminology.hl7.org/CodeSystem/v2-0203",
            "code": "MR"
          } ]
        },
        "system": "https://bonnie-fhir.healthit.gov/",
        "value": "657cbdc9b4f1f0343662347a"
      } ],
      "name": [ {
        "family": "LocationPass",
        "given": [ "LocationICU" ]
      } ],
      "gender": "female",
      "birthDate": "2008-01-01"
    },
    "request": {
      "method": "PUT",
      "url": "Patient/16a98469-0589-4cc4-964d-d37f043cd11b"
    }
  }, {
    "fullUrl": "https://madie.cms.gov/Encounter/aa87bc5b-6042-47d5-aa90-3a7ccad93f58",
    "resource": {
      "resourceType": "Encounter",
      "id": "aa87bc5b-6042-47d5-aa90-3a7ccad93f58",
      "meta": {
        "profile": [ "http://hl7.org/fhir/us/qicore/StructureDefinition/qicore-encounter" ]
      },
      "status": "entered-in-error",
      "class": {
        "system": "http://terminology.hl7.org/CodeSystem/v3-ActCode",
        "code": "ACUTE",
        "display": "inpatient acute"
      },
      "type": [ {
        "coding": [ {
          "system": "http://snomed.info/sct",
          "version": "2024",
          "code": "32485007",
          "display": "Hospital admission (procedure)",
          "userSelected": true
        } ]
      } ],
      "subject": {
        "reference": "Patient/16a98469-0589-4cc4-964d-d37f043cd11b"
      },
      "period": {
        "start": "2026-01-01T08:00:00.000+00:00",
        "end": "2026-01-02T09:15:00.000+00:00"
      },
      "location": [ {
        "location": {
          "reference": "Location/intensive-care-unit-0a0e"
        },
        "period": {
          "start": "2026-01-01T08:00:00.000+00:00",
          "end": "2026-01-01T10:01:00.000+00:00"
        }
      } ]
    },
    "request": {
      "method": "PUT",
      "url": "Encounter/aa87bc5b-6042-47d5-aa90-3a7ccad93f58"
    }
  }, {
    "fullUrl": "https://madie.cms.gov/MedicationAdministration/1608b2fc-d195-4096-97a0-616a3a624f0c",
    "resource": {
      "resourceType": "MedicationAdministration",
      "id": "1608b2fc-d195-4096-97a0-616a3a624f0c",
      "meta": {
        "profile": [ "http://hl7.org/fhir/us/qicore/StructureDefinition/qicore-medicationadministration" ]
      },
      "status": "completed",
      "medicationCodeableConcept": {
        "coding": [ {
          "system": "http://www.nlm.nih.gov/research/umls/rxnorm",
          "code": "1007184",
          "display": "insulin aspart protamine, human / insulin aspart, human"
        } ]
      },
      "subject": {
        "reference": "Patient/16a98469-0589-4cc4-964d-d37f043cd11b"
      },
      "effectivePeriod": {
        "start": "2026-01-01T08:00:00.000+00:00",
        "end": "2026-01-01T08:15:00.000+00:00"
      }
    },
    "request": {
      "method": "PUT",
      "url": "MedicationAdministration/1608b2fc-d195-4096-97a0-616a3a624f0c"
    }
  }, {
    "fullUrl": "https://madie.cms.gov/Coverage/7d84ac32-960a-4ecf-9883-46902cb85c82",
    "resource": {
      "resourceType": "Coverage",
      "id": "7d84ac32-960a-4ecf-9883-46902cb85c82",
      "meta": {
        "profile": [ "http://hl7.org/fhir/us/qicore/StructureDefinition/qicore-coverage" ]
      },
      "identifier": [ {
        "system": "http://benefitsinc.com/certificate",
        "value": "12345"
      } ],
      "status": "active",
      "type": {
        "coding": [ {
          "system": "https://nahdo.org/sopt",
          "version": "1.0.1",
          "code": "1",
          "display": "MEDICARE",
          "userSelected": true
        } ]
      },
      "subscriberId": "AB9876",
      "beneficiary": {
        "reference": "Patient/16a98469-0589-4cc4-964d-d37f043cd11b"
      },
      "relationship": {
        "coding": [ {
          "system": "http://terminology.hl7.org/CodeSystem/subscriber-relationship",
          "code": "self"
        } ]
      },
      "payor": [ {
        "reference": "Organization/6bec5613-73de-4360-811b-a8e061d0a533"
      } ]
    },
    "request": {
      "method": "PUT",
      "url": "Coverage/7d84ac32-960a-4ecf-9883-46902cb85c82"
    }
  }, {
    "fullUrl": "https://madie.cms.gov/Organization/6bec5613-73de-4360-811b-a8e061d0a533",
    "resource": {
      "resourceType": "Organization",
      "id": "6bec5613-73de-4360-811b-a8e061d0a533",
      "meta": {
        "profile": [ "http://hl7.org/fhir/us/qicore/StructureDefinition/qicore-organization" ]
      },
      "identifier": [ {
        "use": "temp",
        "system": "urn:oid:2.16.840.1.113883.4.4",
        "value": "21-3259825"
      } ],
      "active": true,
      "type": [ {
        "coding": [ {
          "system": "http://terminology.hl7.org/CodeSystem/organization-type",
          "code": "pay",
          "display": "Payer"
        } ]
      } ],
      "name": "Blue Cross Blue Shield of Texas",
      "telecom": [ {
        "system": "phone",
        "value": "(+1) 972-766-6900"
      } ],
      "address": [ {
        "use": "billing",
        "type": "postal",
        "line": [ "P.O. Box 660044" ],
        "city": "Dallas",
        "state": "TX",
        "postalCode": "75266-0044",
        "country": "USA"
      } ]
    },
    "request": {
      "method": "PUT",
      "url": "Organization/6bec5613-73de-4360-811b-a8e061d0a533"
    }
  }, {
    "fullUrl": "https://madie.cms.gov/Practitioner/7cd16069-d9d1-437b-953d-fa2881ecf98c",
    "resource": {
      "resourceType": "Practitioner",
      "id": "7cd16069-d9d1-437b-953d-fa2881ecf98c",
      "meta": {
        "profile": [ "http://hl7.org/fhir/us/qicore/StructureDefinition/qicore-practitioner" ]
      },
      "identifier": [ {
        "system": "http://hl7.org/fhir/sid/us-npi",
        "value": "0723660813"
      } ],
      "name": [ {
        "family": "Evil",
        "prefix": [ "Dr" ]
      } ]
    },
    "request": {
      "method": "PUT",
      "url": "Practitioner/7cd16069-d9d1-437b-953d-fa2881ecf98c"
    }
  }, {
    "fullUrl": "https://madie.cms.gov/MeasureReport/a21f9e2a-6ded-41fb-89be-77e57e221749",
    "resource": {
      "resourceType": "MeasureReport",
      "id": "a21f9e2a-6ded-41fb-89be-77e57e221749",
      "meta": {
        "profile": [ "http://hl7.org/fhir/us/cqfmeasures/StructureDefinition/test-case-cqfm" ]
      },
      "contained": [ {
        "resourceType": "Parameters",
        "id": "6d7c6adc-9db2-4002-968a-79770b5a14da-parameters",
        "parameter": [ {
          "name": "subject",
          "valueString": "16a98469-0589-4cc4-964d-d37f043cd11b"
        } ]
      } ],
      "extension": [ {
        "url": "http://hl7.org/fhir/StructureDefinition/cqf-inputParameters",
        "valueReference": {
          "reference": "#6d7c6adc-9db2-4002-968a-79770b5a14da-parameters"
        }
      }, {
        "url": "http://hl7.org/fhir/us/cqfmeasures/StructureDefinition/cqfm-testCaseDescription",
        "valueMarkdown": "Inpatient encounter in ICU with antidiabetic medication administered, missing location resource"
      } ],
      "modifierExtension": [ {
        "url": "http://hl7.org/fhir/us/cqfmeasures/StructureDefinition/cqfm-isTestCase",
        "valueBoolean": true
      } ],
      "status": "complete",
      "type": "individual",
      "measure": "https://madie.cms.gov/Measure/NHSNGlycemicControlHypoglycemiaInitialPopulation",
      "period": {
        "start": "2026-01-01",
        "end": "2026-12-31"
      },
      "group": [ {
        "id": "Group_1",
        "population": [ {
          "id": "InitialPopulation_1",
          "code": {
            "coding": [ {
              "system": "http://terminology.hl7.org/CodeSystem/measure-population",
              "code": "initial-population",
              "display": "Initial Population"
            } ]
          },
          "count": 1
        } ],
        "measureScore": {
          "value": 0.0
        }
      } ],
      "evaluatedResource": [ {
        "reference": "Patient/16a98469-0589-4cc4-964d-d37f043cd11b"
      }, {
        "reference": "Encounter/aa87bc5b-6042-47d5-aa90-3a7ccad93f58"
      }, {
        "reference": "MedicationAdministration/1608b2fc-d195-4096-97a0-616a3a624f0c"
      }, {
        "reference": "Coverage/7d84ac32-960a-4ecf-9883-46902cb85c82"
      }, {
        "reference": "Organization/6bec5613-73de-4360-811b-a8e061d0a533"
      }, {
        "reference": "Practitioner/7cd16069-d9d1-437b-953d-fa2881ecf98c"
      } ]
    },
    "request": {
      "method": "PUT",
      "url": "MeasureReport/a21f9e2a-6ded-41fb-89be-77e57e221749"
    }
  } ]
}