{
  "resourceType": "Bundle",
  "id": "tests-NUMERPass-LabLT80within5minutes-bundle",
  "type": "transaction",
  "entry": [ {
    "fullUrl": "https://madie.cms.gov/Encounter/f7a06cc2-ac54-437c-8b31-e8ffc567bcfc",
    "resource": {
      "resourceType": "Encounter",
      "id": "f7a06cc2-ac54-437c-8b31-e8ffc567bcfc",
      "meta": {
        "profile": [ "http://hl7.org/fhir/us/qicore/StructureDefinition/qicore-encounter" ]
      },
      "status": "finished",
      "class": {
        "system": "http://terminology.hl7.org/CodeSystem/v3-ActCode",
        "code": "IMP",
        "display": "Inpatient encounter"
      },
      "type": [ {
        "coding": [ {
          "system": "http://snomed.info/sct",
          "code": "183452005",
          "display": "Emergency hospital admission (procedure)"
        } ]
      } ],
      "subject": {
        "reference": "Patient/205dcfc1-5483-48eb-a54a-8648d130d73a"
      },
      "period": {
        "start": "2026-01-16T08:00:00.000Z",
        "end": "2026-01-19T09:00:00.000Z"
      }
    },
    "request": {
      "method": "PUT",
      "url": "Encounter/f7a06cc2-ac54-437c-8b31-e8ffc567bcfc"
    }
  }, {
    "fullUrl": "https://madie.cms.gov/MedicationAdministration/ca535110-c0ca-4687-8c66-962cf73961f8",
    "resource": {
      "resourceType": "MedicationAdministration",
      "id": "ca535110-c0ca-4687-8c66-962cf73961f8",
      "meta": {
        "profile": [ "http://hl7.org/fhir/us/qicore/StructureDefinition/qicore-medicationadministration" ]
      },
      "status": "completed",
      "medicationCodeableConcept": {
        "coding": [ {
          "system": "http://www.nlm.nih.gov/research/umls/rxnorm",
          "code": "1543202",
          "display": "insulin, regular, human 4 UNT Inhalation Powder"
        } ]
      },
      "subject": {
        "reference": "Patient/205dcfc1-5483-48eb-a54a-8648d130d73a"
      },
      "effectivePeriod": {
        "start": "2026-01-16T08:00:00.000Z",
        "end": "2026-01-16T09:00:00.000Z"
      }
    },
    "request": {
      "method": "PUT",
      "url": "MedicationAdministration/ca535110-c0ca-4687-8c66-962cf73961f8"
    }
  }, {
    "fullUrl": "https://madie.cms.gov/Observation/4d04c3c2-2419-4f74-acad-2fa680e0cc27",
    "resource": {
      "resourceType": "Observation",
      "id": "4d04c3c2-2419-4f74-acad-2fa680e0cc27",
      "meta": {
        "profile": [ "http://hl7.org/fhir/us/qicore/StructureDefinition/qicore-observation-lab" ]
      },
      "status": "final",
      "category": [ {
        "coding": [ {
          "system": "http://terminology.hl7.org/CodeSystem/observation-category",
          "code": "laboratory",
          "display": "Laboratory"
        } ],
        "text": "Laboratory"
      } ],
      "code": {
        "coding": [ {
          "system": "http://loinc.org",
          "code": "1556-0",
          "display": "Fasting glucose [Mass/volume] in Capillary blood"
        } ]
      },
      "subject": {
        "reference": "Patient/205dcfc1-5483-48eb-a54a-8648d130d73a"
      },
      "effectivePeriod": {
        "start": "2026-01-16T08:00:00.000Z",
        "end": "2026-01-16T08:00:00.000Z"
      },
      "issued": "2026-01-16T08:00:00.000Z",
      "valueQuantity": {
        "value": 39.9,
        "unit": "mg/dL"
      }
    },
    "request": {
      "method": "PUT",
      "url": "Observation/4d04c3c2-2419-4f74-acad-2fa680e0cc27"
    }
  }, {
    "fullUrl": "https://madie.cms.gov/Observation/c1fd5c44-afe4-4e7c-8eee-504c68b61b9f",
    "resource": {
      "resourceType": "Observation",
      "id": "c1fd5c44-afe4-4e7c-8eee-504c68b61b9f",
      "meta": {
        "profile": [ "http://hl7.org/fhir/us/qicore/StructureDefinition/qicore-observation-lab" ]
      },
      "status": "final",
      "category": [ {
        "coding": [ {
          "system": "http://terminology.hl7.org/CodeSystem/observation-category",
          "code": "laboratory",
          "display": "Laboratory"
        } ],
        "text": "Laboratory"
      } ],
      "code": {
        "coding": [ {
          "system": "http://loinc.org",
          "code": "1556-0",
          "display": "Fasting glucose [Mass/volume] in Capillary blood"
        } ]
      },
      "subject": {
        "reference": "Patient/205dcfc1-5483-48eb-a54a-8648d130d73a"
      },
      "effectivePeriod": {
        "start": "2026-01-16T08:05:00.000Z",
        "end": "2026-01-16T08:05:00.000Z"
      },
      "issued": "2026-01-16T08:05:00.000Z",
      "valueQuantity": {
        "value": 70,
        "unit": "mg/dL"
      }
    },
    "request": {
      "method": "PUT",
      "url": "Observation/c1fd5c44-afe4-4e7c-8eee-504c68b61b9f"
    }
  }, {
    "fullUrl": "https://madie.cms.gov/Patient/205dcfc1-5483-48eb-a54a-8648d130d73a",
    "resource": {
      "resourceType": "Patient",
      "id": "205dcfc1-5483-48eb-a54a-8648d130d73a",
      "meta": {
        "profile": [ "http://hl7.org/fhir/us/qicore/StructureDefinition/qicore-patient" ]
      },
      "extension": [ {
        "url": "http://hl7.org/fhir/us/core/StructureDefinition/us-core-race",
        "extension": [ {
          "url": "ombCategory",
          "valueCoding": {
            "system": "urn:oid:2.16.840.1.113883.6.238",
            "code": "2106-3",
            "display": "White"
          }
        }, {
          "url": "text",
          "valueString": "White"
        } ]
      }, {
        "url": "http://hl7.org/fhir/us/core/StructureDefinition/us-core-ethnicity",
        "extension": [ {
          "url": "ombCategory",
          "valueCoding": {
            "system": "urn:oid:2.16.840.1.113883.6.238",
            "code": "2135-2",
            "display": "Hispanic or Latino"
          }
        }, {
          "url": "text",
          "valueString": "Hispanic or Latino"
        } ]
      }, {
        "url": "http://hl7.org/fhir/us/core/StructureDefinition/us-core-sex",
        "valueCode": "248153007"
      } ],
      "identifier": [ {
        "system": "http://hospital.smarthealthit.org",
        "value": "999999999"
      } ],
      "name": [ {
        "family": "CMSNUMERPass",
        "given": [ "LabLT80within5minutes" ]
      } ],
      "gender": "female",
      "birthDate": "2000-07-11"
    },
    "request": {
      "method": "PUT",
      "url": "Patient/205dcfc1-5483-48eb-a54a-8648d130d73a"
    }
  }, {
    "fullUrl": "https://madie.cms.gov/MeasureReport/6ac55fc8-0cf3-4b36-87c9-050f3eb6c4bc",
    "resource": {
      "resourceType": "MeasureReport",
      "id": "6ac55fc8-0cf3-4b36-87c9-050f3eb6c4bc",
      "meta": {
        "profile": [ "http://hl7.org/fhir/us/cqfmeasures/StructureDefinition/test-case-cqfm" ]
      },
      "contained": [ {
        "resourceType": "Parameters",
        "id": "43f1063f-bf01-4d13-a671-90df276a8f00-parameters",
        "parameter": [ {
          "name": "subject",
          "valueString": "205dcfc1-5483-48eb-a54a-8648d130d73a"
        } ]
      } ],
      "extension": [ {
        "url": "http://hl7.org/fhir/StructureDefinition/cqf-inputParameters",
        "valueReference": {
          "reference": "#43f1063f-bf01-4d13-a671-90df276a8f00-parameters"
        }
      }, {
        "url": "http://hl7.org/fhir/us/cqfmeasures/StructureDefinition/cqfm-testCaseDescription",
        "valueMarkdown": "IP Encounter with med. Lab LT 40, followed by lab LT 80 within 5 minutes. Meets Numerator. \n\n(CMS #25)"
      } ],
      "modifierExtension": [ {
        "url": "http://hl7.org/fhir/us/cqfmeasures/StructureDefinition/cqfm-isTestCase",
        "valueBoolean": true
      } ],
      "status": "complete",
      "type": "individual",
      "measure": "https://madie.cms.gov/Measure/NHSNGlycemicControlHypoglycemiaInitialPopulation",
      "period": {
        "start": "2026-01-01",
        "end": "2026-12-31"
      },
      "group": [ {
        "id": "Group_1",
        "population": [ {
          "id": "InitialPopulation_1",
          "code": {
            "coding": [ {
              "system": "http://terminology.hl7.org/CodeSystem/measure-population",
              "code": "initial-population",
              "display": "Initial Population"
            } ]
          },
          "count": 1
        } ],
        "measureScore": {
          "value": 0.0
        }
      } ],
      "evaluatedResource": [ {
        "reference": "Encounter/f7a06cc2-ac54-437c-8b31-e8ffc567bcfc"
      }, {
        "reference": "MedicationAdministration/ca535110-c0ca-4687-8c66-962cf73961f8"
      }, {
        "reference": "Observation/4d04c3c2-2419-4f74-acad-2fa680e0cc27"
      }, {
        "reference": "Observation/c1fd5c44-afe4-4e7c-8eee-504c68b61b9f"
      }, {
        "reference": "Patient/205dcfc1-5483-48eb-a54a-8648d130d73a"
      } ]
    },
    "request": {
      "method": "PUT",
      "url": "MeasureReport/6ac55fc8-0cf3-4b36-87c9-050f3eb6c4bc"
    }
  } ]
}