{
  "resourceType": "Bundle",
  "id": "633c9d040968f8012250fcb3",
  "type": "transaction",
  "entry": [ {
    "fullUrl": "https://madie.cms.gov/Patient/0daf2fdb-6abc-4b7c-9417-3972c4813295",
    "resource": {
      "resourceType": "Patient",
      "id": "0daf2fdb-6abc-4b7c-9417-3972c4813295",
      "meta": {
        "profile": [ "http://hl7.org/fhir/us/qicore/StructureDefinition/qicore-patient" ]
      },
      "text": {
        "status": "generated",
        "div": "<div xmlns=\"http://www.w3.org/1999/xhtml\"><div class=\"hapiHeaderText\">AtrialAblAfterEncStartDateTime <b>DENOMFAIL </b></div><table class=\"hapiPropertyTable\"><tbody><tr><td>Identifier</td><td>0ab8a288462c493a0716bd9a93a37855</td></tr><tr><td>Date of birth</td><td><span>01 December 1960</span></td></tr></tbody></table></div>"
      },
      "extension": [ {
        "url": "http://hl7.org/fhir/us/core/StructureDefinition/us-core-race",
        "extension": [ {
          "url": "ombCategory",
          "valueCoding": {
            "system": "urn:oid:2.16.840.1.113883.6.238",
            "code": "1002-5",
            "display": "American Indian or Alaska Native",
            "userSelected": true
          }
        }, {
          "url": "text",
          "valueString": "American Indian or Alaska Native"
        } ]
      }, {
        "url": "http://hl7.org/fhir/us/core/StructureDefinition/us-core-ethnicity",
        "extension": [ {
          "url": "ombCategory",
          "valueCoding": {
            "system": "urn:oid:2.16.840.1.113883.6.238",
            "code": "2135-2",
            "display": "Hispanic or Latino",
            "userSelected": true
          }
        }, {
          "url": "text",
          "valueString": "Hispanic or Latino"
        } ]
      } ],
      "identifier": [ {
        "type": {
          "coding": [ {
            "system": "http://terminology.hl7.org/CodeSystem/v2-0203",
            "code": "MR"
          } ]
        },
        "system": "https://bonnie-fhir.healthit.gov/",
        "value": "633c9d040968f8012250fcb3"
      } ],
      "active": true,
      "name": [ {
        "use": "usual",
        "family": "DENOMFail",
        "given": [ "AtrialAblAfterEncStartDateTime" ]
      } ],
      "gender": "male",
      "birthDate": "1961-12-01"
    },
    "request": {
      "method": "PUT",
      "url": "Patient/0daf2fdb-6abc-4b7c-9417-3972c4813295"
    }
  }, {
    "fullUrl": "https://madie.cms.gov/claim/5ca62962b8484628b8de1ec5",
    "resource": {
      "resourceType": "Claim",
      "id": "5ca62962b8484628b8de1ec5",
      "meta": {
        "profile": [ "http://hl7.org/fhir/us/qicore/StructureDefinition/qicore-claim" ]
      },
      "status": "active",
      "type": {
        "coding": [ {
          "system": "http://terminology.hl7.org/CodeSystem/claim-type",
          "code": "institutional"
        } ]
      },
      "use": "claim",
      "patient": {
        "reference": "Patient/d170a0a8-b5ad-4303-b6df-e304dd5f92ad"
      },
      "created": "2026-12-01",
      "provider": {
        "reference": "Practitioner/0e9f85a4-fb89-4de3-9d10-5c4fd2a2996b"
      },
      "priority": {
        "coding": [ {
          "system": "http://terminology.hl7.org/CodeSystem/processpriority",
          "code": "normal"
        } ]
      },
      "diagnosis": [ {
        "sequence": 1,
        "diagnosisCodeableConcept": {
          "coding": [ {
            "system": "http://hl7.org/fhir/sid/icd-10-cm",
            "code": "I63.00"
          } ]
        },
        "type": [ {
          "coding": [ {
            "system": "http://terminology.hl7.org/CodeSystem/ex-diagnosistype",
            "code": "principal"
          } ]
        } ]
      } ],
      "insurance": [ {
        "sequence": 1,
        "focal": true,
        "coverage": {
          "reference": "Coverage/5fa041661c76ba66d9959367"
        }
      } ],
      "item": [ {
        "sequence": 1,
        "diagnosisSequence": [ 1 ],
        "productOrService": {
          "coding": [ {
            "system": "http://terminology.hl7.org/CodeSystem/ex-USCLS",
            "code": "99555"
          } ]
        },
        "encounter": [ {
          "reference": "Encounter/10e12e22-3ca3-46dd-b0e6-9cfc3a3b60ca"
        } ]
      } ]
    },
    "request": {
      "method": "PUT",
      "url": "Claim/5ca62962b8484628b8de1ec5"
    }
  }, {
    "fullUrl": "https://madie.cms.gov/Encounter/10e12e22-3ca3-46dd-b0e6-9cfc3a3b60ca",
    "resource": {
      "resourceType": "Encounter",
      "id": "10e12e22-3ca3-46dd-b0e6-9cfc3a3b60ca",
      "meta": {
        "profile": [ "http://hl7.org/fhir/us/qicore/StructureDefinition/qicore-encounter" ]
      },
      "status": "finished",
      "class": {
        "system": "http://terminology.hl7.org/CodeSystem/v3-ActCode",
        "code": "IMP",
        "display": "inpatient encounter"
      },
      "type": [ {
        "coding": [ {
          "system": "http://snomed.info/sct",
          "code": "32485007"
        } ]
      } ],
      "subject": {
        "reference": "Patient/0daf2fdb-6abc-4b7c-9417-3972c4813295"
      },
      "period": {
        "start": "2026-02-08T08:00:00.000+00:00",
        "end": "2026-02-10T08:15:00.000+00:00"
      },
      "length": {
        "value": 2,
        "unit": "days"
      },
      "reasonReference": [ {
        "reference": "Condition/c93eb50b-dfcb-4936-b624-da726c434e83"
      } ]
    },
    "request": {
      "method": "PUT",
      "url": "Encounter/10e12e22-3ca3-46dd-b0e6-9cfc3a3b60ca"
    }
  }, {
    "fullUrl": "https://madie.cms.gov/Coverage/ec415dc0-4dfb-41fe-9a07-84132617a78e",
    "resource": {
      "resourceType": "Coverage",
      "id": "ec415dc0-4dfb-41fe-9a07-84132617a78e",
      "status": "active",
      "subscriberId": "523435",
      "beneficiary": {
        "reference": "Patient/0daf2fdb-6abc-4b7c-9417-3972c4813295"
      },
      "relationship": {
        "coding": [ {
          "system": "http://terminology.hl7.org/CodeSystem/subscriber-relationship",
          "code": "self"
        } ]
      },
      "period": {
        "start": "1961-12-01T08:00:00.000+00:00"
      },
      "payor": [ {
        "reference": "Organization/9250bc8d-f7f3-4129-b852-311ffeb7db55"
      } ]
    },
    "request": {
      "method": "PUT",
      "url": "Coverage/ec415dc0-4dfb-41fe-9a07-84132617a78e"
    }
  }, {
    "fullUrl": "https://madie.cms.gov/Procedure/b74c6bc1-7b38-4d71-b9c7-8275dc381acd",
    "resource": {
      "resourceType": "Procedure",
      "id": "b74c6bc1-7b38-4d71-b9c7-8275dc381acd",
      "meta": {
        "profile": [ "http://hl7.org/fhir/us/qicore/StructureDefinition/qicore-procedure" ]
      },
      "extension": [ {
        "url": "http://hl7.org/fhir/us/qicore/StructureDefinition/qicore-recorded",
        "valueDateTime": "2026-11-19T13:35:00.000+00:00"
      } ],
      "status": "completed",
      "code": {
        "coding": [ {
          "system": "http://www.cms.gov/Medicare/Coding/ICD10",
          "code": "02560ZZ"
        }, {
          "system": "http://snomed.info/sct",
          "code": "175095005"
        } ]
      },
      "subject": {
        "reference": "Patient/0daf2fdb-6abc-4b7c-9417-3972c4813295"
      },
      "performedPeriod": {
        "start": "2026-02-08T09:00:00.000+00:00",
        "end": "2026-02-08T10:00:00.000+00:00"
      }
    },
    "request": {
      "method": "PUT",
      "url": "Procedure/b74c6bc1-7b38-4d71-b9c7-8275dc381acd"
    }
  }, {
    "fullUrl": "https://madie.cms.gov/Condition/c93eb50b-dfcb-4936-b624-da726c434e83",
    "resource": {
      "resourceType": "Condition",
      "id": "c93eb50b-dfcb-4936-b624-da726c434e83",
      "meta": {
        "profile": [ "http://hl7.org/fhir/us/qicore/StructureDefinition/qicore-condition-problems-health-concerns" ]
      },
      "clinicalStatus": {
        "coding": [ {
          "system": "http://terminology.hl7.org/CodeSystem/condition-clinical",
          "code": "active"
        } ]
      },
      "verificationStatus": {
        "coding": [ {
          "system": "http://terminology.hl7.org/CodeSystem/condition-ver-status",
          "code": "confirmed"
        } ]
      },
      "category": [ {
        "coding": [ {
          "system": "http://terminology.hl7.org/CodeSystem/condition-category",
          "code": "encounter-diagnosis",
          "display": "Encounter Diagnosis"
        } ]
      } ],
      "code": {
        "coding": [ {
          "system": "http://snomed.info/sct",
          "version": "2021-09",
          "code": "111297002",
          "display": "Nonparalytic stroke (disorder)",
          "userSelected": true
        } ]
      },
      "subject": {
        "reference": "Patient/0daf2fdb-6abc-4b7c-9417-3972c4813295"
      },
      "recordedDate": "2026-10-13T08:00:00.000+00:00"
    },
    "request": {
      "method": "PUT",
      "url": "Condition/c93eb50b-dfcb-4936-b624-da726c434e83"
    }
  }, {
    "fullUrl": "https://madie.cms.gov/Organization/9250bc8d-f7f3-4129-b852-311ffeb7db55",
    "resource": {
      "resourceType": "Organization",
      "id": "9250bc8d-f7f3-4129-b852-311ffeb7db55",
      "meta": {
        "profile": [ "http://hl7.org/fhir/us/qicore/StructureDefinition/qicore-organization" ]
      },
      "identifier": [ {
        "use": "temp",
        "system": "urn:oid:2.16.840.1.113883.4.4",
        "value": "21-3259825"
      } ],
      "active": true,
      "type": [ {
        "coding": [ {
          "system": "http://terminology.hl7.org/CodeSystem/organization-type",
          "code": "pay",
          "display": "Payer"
        } ]
      } ],
      "name": "Blue Cross Blue Shield of Texas",
      "telecom": [ {
        "system": "phone",
        "value": "(+1) 972-766-6900"
      } ],
      "address": [ {
        "use": "billing",
        "type": "postal",
        "line": [ "P.O. Box 660044" ],
        "city": "Dallas",
        "state": "TX",
        "postalCode": "75266-0044",
        "country": "USA"
      } ]
    },
    "request": {
      "method": "PUT",
      "url": "Organization/9250bc8d-f7f3-4129-b852-311ffeb7db55"
    }
  }, {
    "fullUrl": "https://madie.cms.gov/Practitioner/0e9f85a4-fb89-4de3-9d10-5c4fd2a2996b",
    "resource": {
      "resourceType": "Practitioner",
      "id": "0e9f85a4-fb89-4de3-9d10-5c4fd2a2996b",
      "meta": {
        "profile": [ "http://hl7.org/fhir/us/qicore/StructureDefinition/qicore-practitioner" ]
      },
      "identifier": [ {
        "system": "http://hl7.org/fhir/sid/us-npi",
        "value": "9999999896"
      } ],
      "name": [ {
        "family": "Evil",
        "prefix": [ "Dr" ]
      } ]
    },
    "request": {
      "method": "PUT",
      "url": "Practitioner/0e9f85a4-fb89-4de3-9d10-5c4fd2a2996b"
    }
  }, {
    "fullUrl": "https://madie.cms.gov/MeasureReport/2394e3f4-28f6-41ca-8529-b49312c69a5b",
    "resource": {
      "resourceType": "MeasureReport",
      "id": "2394e3f4-28f6-41ca-8529-b49312c69a5b",
      "meta": {
        "profile": [ "http://hl7.org/fhir/us/cqfmeasures/StructureDefinition/test-case-cqfm" ]
      },
      "contained": [ {
        "resourceType": "Parameters",
        "id": "4f8363c3-12ea-4d19-9e83-adc9fbabf7fe-parameters",
        "parameter": [ {
          "name": "subject",
          "valueString": "0daf2fdb-6abc-4b7c-9417-3972c4813295"
        } ]
      } ],
      "extension": [ {
        "url": "http://hl7.org/fhir/StructureDefinition/cqf-inputParameters",
        "valueReference": {
          "reference": "#4f8363c3-12ea-4d19-9e83-adc9fbabf7fe-parameters"
        }
      }, {
        "url": "http://hl7.org/fhir/us/cqfmeasures/StructureDefinition/cqfm-testCaseDescription",
        "valueMarkdown": "Atrial Ablation starts after OccA Enc start time using Date Time. \n"
      } ],
      "modifierExtension": [ {
        "url": "http://hl7.org/fhir/us/cqfmeasures/StructureDefinition/cqfm-isTestCase",
        "valueBoolean": true
      } ],
      "status": "complete",
      "type": "individual",
      "measure": "https://madie.cms.gov/Measure/CMS71FHIRSTKAnticoagAFFlutter",
      "period": {
        "start": "2026-01-01",
        "end": "2026-12-31"
      },
      "group": [ {
        "id": "Group_1",
        "population": [ {
          "id": "InitialPopulation_1",
          "code": {
            "coding": [ {
              "system": "http://terminology.hl7.org/CodeSystem/measure-population",
              "code": "initial-population",
              "display": "Initial Population"
            } ]
          },
          "count": 1
        }, {
          "id": "Denominator_1",
          "code": {
            "coding": [ {
              "system": "http://terminology.hl7.org/CodeSystem/measure-population",
              "code": "denominator",
              "display": "Denominator"
            } ]
          },
          "count": 0
        }, {
          "id": "DenominatorExclusion_1",
          "code": {
            "coding": [ {
              "system": "http://terminology.hl7.org/CodeSystem/measure-population",
              "code": "denominator-exclusion",
              "display": "Denominator Exclusion"
            } ]
          },
          "count": 0
        }, {
          "id": "Numerator_1",
          "code": {
            "coding": [ {
              "system": "http://terminology.hl7.org/CodeSystem/measure-population",
              "code": "numerator",
              "display": "Numerator"
            } ]
          },
          "count": 0
        }, {
          "id": "DenominatorException_1",
          "code": {
            "coding": [ {
              "system": "http://terminology.hl7.org/CodeSystem/measure-population",
              "code": "denominator-exception",
              "display": "Denominator Exception"
            } ]
          },
          "count": 0
        } ],
        "measureScore": {
          "value": 0.0
        }
      } ],
      "evaluatedResource": [ {
        "reference": "Patient/0daf2fdb-6abc-4b7c-9417-3972c4813295"
      }, {
        "reference": "Claim/5ca62962b8484628b8de1ec5"
      }, {
        "reference": "Encounter/10e12e22-3ca3-46dd-b0e6-9cfc3a3b60ca"
      }, {
        "reference": "Coverage/ec415dc0-4dfb-41fe-9a07-84132617a78e"
      }, {
        "reference": "Procedure/b74c6bc1-7b38-4d71-b9c7-8275dc381acd"
      }, {
        "reference": "Condition/c93eb50b-dfcb-4936-b624-da726c434e83"
      }, {
        "reference": "Organization/9250bc8d-f7f3-4129-b852-311ffeb7db55"
      }, {
        "reference": "Practitioner/0e9f85a4-fb89-4de3-9d10-5c4fd2a2996b"
      } ]
    },
    "request": {
      "method": "PUT",
      "url": "MeasureReport/2394e3f4-28f6-41ca-8529-b49312c69a5b"
    }
  } ]
}