{
  "resourceType": "Bundle",
  "id": "62fd2c9e32e2f917c3627d87",
  "type": "collection",
  "entry": [ {
    "fullUrl": "https://madie.cms.gov/Patient/2ae1ab8a-7ef3-407f-a218-d6b304c8c298",
    "resource": {
      "resourceType": "Patient",
      "id": "2ae1ab8a-7ef3-407f-a218-d6b304c8c298",
      "meta": {
        "profile": [ "http://hl7.org/fhir/us/qicore/StructureDefinition/qicore-patient" ]
      },
      "extension": [ {
        "url": "http://hl7.org/fhir/us/core/StructureDefinition/us-core-race",
        "extension": [ {
          "url": "ombCategory",
          "valueCoding": {
            "system": "urn:oid:2.16.840.1.113883.6.238",
            "code": "1002-5",
            "display": "American Indian or Alaska Native",
            "userSelected": true
          }
        }, {
          "url": "text",
          "valueString": "American Indian or Alaska Native"
        } ]
      }, {
        "url": "http://hl7.org/fhir/us/core/StructureDefinition/us-core-ethnicity",
        "extension": [ {
          "url": "ombCategory",
          "valueCoding": {
            "system": "urn:oid:2.16.840.1.113883.6.238",
            "code": "2135-2",
            "display": "Hispanic or Latino",
            "userSelected": true
          }
        }, {
          "url": "text",
          "valueString": "Hispanic or Latino"
        } ]
      } ],
      "identifier": [ {
        "type": {
          "coding": [ {
            "system": "http://terminology.hl7.org/CodeSystem/v2-0203",
            "code": "MR"
          } ]
        },
        "system": "https://bonnie-fhir.healthit.gov/",
        "value": "62fd2c9e32e2f917c3627d87"
      } ],
      "name": [ {
        "family": "NUMERPass",
        "given": [ "BoneScanBeforeMP" ]
      } ],
      "gender": "male",
      "birthDate": "1987-02-27"
    }
  }, {
    "fullUrl": "https://madie.cms.gov/Condition/a3c3fbe4-19ea-452d-bd22-d72c53263c66",
    "resource": {
      "resourceType": "Condition",
      "id": "a3c3fbe4-19ea-452d-bd22-d72c53263c66",
      "meta": {
        "profile": [ "http://hl7.org/fhir/us/qicore/StructureDefinition/qicore-condition-problems-health-concerns" ]
      },
      "clinicalStatus": {
        "coding": [ {
          "system": "http://terminology.hl7.org/CodeSystem/condition-clinical",
          "code": "active",
          "display": "active",
          "userSelected": true
        } ]
      },
      "category": [ {
        "coding": [ {
          "system": "http://terminology.hl7.org/CodeSystem/condition-category",
          "code": "problem-list-item",
          "display": "Problem List Item"
        }, {
          "system": "http://snomed.info/sct",
          "code": "439401001",
          "display": "Diagnosis"
        } ]
      } ],
      "code": {
        "coding": [ {
          "system": "http://snomed.info/sct",
          "code": "254900004",
          "display": "Carcinoma of prostate (disorder)",
          "userSelected": true
        } ]
      },
      "subject": {
        "reference": "Patient/2ae1ab8a-7ef3-407f-a218-d6b304c8c298"
      },
      "onsetDateTime": "2026-01-07T08:00:00.000+00:00",
      "recordedDate": "2026-06-02T08:00:00.000+00:00"
    }
  }, {
    "fullUrl": "https://madie.cms.gov/Condition/5abad642-2215-4e49-a56d-21a61a19f01f",
    "resource": {
      "resourceType": "Condition",
      "id": "5abad642-2215-4e49-a56d-21a61a19f01f",
      "meta": {
        "profile": [ "http://hl7.org/fhir/us/qicore/StructureDefinition/qicore-condition-encounter-diagnosis" ]
      },
      "clinicalStatus": {
        "coding": [ {
          "system": "http://terminology.hl7.org/CodeSystem/condition-clinical",
          "code": "active",
          "display": "active",
          "userSelected": true
        } ]
      },
      "category": [ {
        "coding": [ {
          "system": "http://terminology.hl7.org/CodeSystem/condition-category",
          "code": "encounter-diagnosis",
          "display": "Encounter Diagnosis"
        }, {
          "system": "http://snomed.info/sct",
          "code": "439401001",
          "display": "Diagnosis"
        } ]
      } ],
      "code": {
        "coding": [ {
          "system": "http://snomed.info/sct",
          "code": "254900004",
          "display": "Carcinoma of prostate (disorder)",
          "userSelected": true
        } ]
      },
      "subject": {
        "reference": "Patient/2ae1ab8a-7ef3-407f-a218-d6b304c8c298"
      },
      "onsetDateTime": "2026-01-07T08:00:00.000+00:00",
      "recordedDate": "2026-06-02T08:00:00.000+00:00"
    }
  }, {
    "fullUrl": "https://madie.cms.gov/Procedure/ee6a1be7-a06d-4bcf-a93f-e9c299b289f5",
    "resource": {
      "resourceType": "Procedure",
      "id": "ee6a1be7-a06d-4bcf-a93f-e9c299b289f5",
      "meta": {
        "profile": [ "http://hl7.org/fhir/us/qicore/StructureDefinition/qicore-procedure" ]
      },
      "extension": [ {
        "url": "http://hl7.org/fhir/us/qicore/StructureDefinition/qicore-recorded",
        "valueDateTime": "2026-02-01T09:00:00.000+00:00"
      } ],
      "status": "completed",
      "code": {
        "coding": [ {
          "system": "http://snomed.info/sct",
          "code": "38915000",
          "display": "Radionuclide therapy for gland ablation (procedure)",
          "userSelected": true
        } ]
      },
      "subject": {
        "reference": "Patient/2ae1ab8a-7ef3-407f-a218-d6b304c8c298"
      },
      "performedDateTime": "2026-06-02T08:00:00.000+00:00"
    }
  }, {
    "fullUrl": "https://madie.cms.gov/Observation/ffa1dcb0-5c11-40e4-a251-98d958ac736f",
    "resource": {
      "resourceType": "Observation",
      "id": "ffa1dcb0-5c11-40e4-a251-98d958ac736f",
      "meta": {
        "profile": [ "http://hl7.org/fhir/us/qicore/StructureDefinition/qicore-observation-lab" ]
      },
      "status": "final",
      "category": [ {
        "coding": [ {
          "system": "http://terminology.hl7.org/CodeSystem/observation-category",
          "code": "laboratory",
          "display": "Laboratory"
        } ]
      } ],
      "code": {
        "coding": [ {
          "system": "http://loinc.org",
          "version": "2.72",
          "code": "2857-1",
          "display": "Prostate specific Ag [Mass/volume] in Serum or Plasma",
          "userSelected": true
        } ]
      },
      "subject": {
        "reference": "Patient/2ae1ab8a-7ef3-407f-a218-d6b304c8c298"
      },
      "effectiveDateTime": "2026-01-07T08:00:00.000+00:00",
      "issued": "2026-04-02T08:00:00.000+00:00",
      "valueQuantity": {
        "value": 8,
        "system": "http://unitsofmeasure.org",
        "code": "ng/mL"
      }
    }
  }, {
    "fullUrl": "https://madie.cms.gov/Observation/ae690d66-2181-4999-a62b-07316479bcd9",
    "resource": {
      "resourceType": "Observation",
      "id": "ae690d66-2181-4999-a62b-07316479bcd9",
      "meta": {
        "profile": [ "http://hl7.org/fhir/us/qicore/StructureDefinition/qicore-observation-clinical-result" ]
      },
      "status": "final",
      "category": [ {
        "coding": [ {
          "system": "http://terminology.hl7.org/CodeSystem/observation-category",
          "code": "procedure",
          "display": "Procedure"
        } ]
      } ],
      "code": {
        "coding": [ {
          "system": "http://loinc.org",
          "code": "35266-6",
          "display": "Gleason score in Specimen Qualitative",
          "userSelected": true
        } ]
      },
      "subject": {
        "reference": "Patient/2ae1ab8a-7ef3-407f-a218-d6b304c8c298"
      },
      "effectivePeriod": {
        "start": "2026-04-02T08:00:00.000+00:00"
      },
      "issued": "2026-04-02T08:00:00.000+00:00",
      "valueInteger": 5
    }
  }, {
    "fullUrl": "https://madie.cms.gov/Observation/9ad58ee9-e026-4128-a5da-ad04e38ff756",
    "resource": {
      "resourceType": "Observation",
      "id": "9ad58ee9-e026-4128-a5da-ad04e38ff756",
      "meta": {
        "profile": [ "http://hl7.org/fhir/us/qicore/StructureDefinition/qicore-observation-clinical-result" ]
      },
      "status": "final",
      "category": [ {
        "coding": [ {
          "system": "http://terminology.hl7.org/CodeSystem/observation-category",
          "code": "procedure",
          "display": "Procedure"
        } ]
      } ],
      "code": {
        "coding": [ {
          "system": "http://snomed.info/sct",
          "code": "254292007",
          "display": "Tumor staging (tumor staging)",
          "userSelected": true
        } ]
      },
      "subject": {
        "reference": "Patient/2ae1ab8a-7ef3-407f-a218-d6b304c8c298"
      },
      "focus": [ {
        "reference": "Condition/a3c3fbe4-19ea-452d-bd22-d72c53263c66"
      } ],
      "effectivePeriod": {
        "start": "2026-02-07T08:00:00.000+00:00"
      },
      "issued": "2026-02-02T08:00:00.000+00:00",
      "valueCodeableConcept": {
        "coding": [ {
          "system": "http://snomed.info/sct",
          "code": "1228892002",
          "display": "American Joint Committee on Cancer cT1a (qualifier value)",
          "userSelected": true
        } ]
      }
    }
  }, {
    "fullUrl": "https://madie.cms.gov/Observation/dbd604d5-4c37-459e-b4e1-2fc550b7f009",
    "resource": {
      "resourceType": "Observation",
      "id": "dbd604d5-4c37-459e-b4e1-2fc550b7f009",
      "meta": {
        "profile": [ "http://hl7.org/fhir/us/qicore/StructureDefinition/qicore-observation-clinical-result" ]
      },
      "status": "final",
      "category": [ {
        "coding": [ {
          "system": "http://terminology.hl7.org/CodeSystem/observation-category",
          "code": "procedure",
          "display": "Procedure"
        } ]
      } ],
      "code": {
        "coding": [ {
          "system": "http://loinc.org",
          "version": "2.72",
          "code": "25031-6",
          "display": "NM Bone Views",
          "userSelected": true
        } ]
      },
      "subject": {
        "reference": "Patient/2ae1ab8a-7ef3-407f-a218-d6b304c8c298"
      },
      "effectiveDateTime": "2025-12-31T08:00:00.000+00:00",
      "issued": "2026-02-02T08:00:00.000+00:00",
      "valueString": "Normal results found"
    }
  }, {
    "fullUrl": "https://madie.cms.gov/Coverage/3fe34862-c4ba-44bd-81fe-aff6f903444a",
    "resource": {
      "resourceType": "Coverage",
      "id": "3fe34862-c4ba-44bd-81fe-aff6f903444a",
      "meta": {
        "profile": [ "http://hl7.org/fhir/us/qicore/StructureDefinition/qicore-coverage" ]
      },
      "status": "active",
      "subscriberId": "123456789",
      "beneficiary": {
        "reference": "Patient/2ae1ab8a-7ef3-407f-a218-d6b304c8c298"
      },
      "relationship": {
        "coding": [ {
          "system": "http://terminology.hl7.org/CodeSystem/subscriber-relationship",
          "code": "self",
          "display": "Self",
          "userSelected": true
        } ]
      },
      "payor": [ {
        "reference": "Organization/a30311c2-a472-4dd9-809a-5c4c0606c49d"
      } ]
    }
  }, {
    "fullUrl": "https://madie.cms.gov/Organization/a30311c2-a472-4dd9-809a-5c4c0606c49d",
    "resource": {
      "resourceType": "Organization",
      "id": "a30311c2-a472-4dd9-809a-5c4c0606c49d",
      "meta": {
        "profile": [ "http://hl7.org/fhir/us/qicore/StructureDefinition/qicore-organization" ]
      },
      "identifier": [ {
        "use": "temp",
        "system": "urn:oid:2.16.840.1.113883.4.4",
        "value": "21-3259825"
      } ],
      "active": true,
      "type": [ {
        "coding": [ {
          "system": "http://terminology.hl7.org/CodeSystem/organization-type",
          "code": "pay",
          "display": "Payer"
        } ]
      } ],
      "name": "Blue Cross Blue Shield of Texas",
      "telecom": [ {
        "system": "phone",
        "value": "(+1) 972-766-6900"
      } ],
      "address": [ {
        "use": "billing",
        "type": "postal",
        "line": [ "P.O. Box 660044" ],
        "city": "Dallas",
        "state": "TX",
        "postalCode": "75266-0044",
        "country": "USA"
      } ]
    }
  }, {
    "fullUrl": "https://madie.cms.gov/Practitioner/569e0ad9-f55d-43fc-b6bc-ebdeb98bf8c8",
    "resource": {
      "resourceType": "Practitioner",
      "id": "569e0ad9-f55d-43fc-b6bc-ebdeb98bf8c8",
      "meta": {
        "profile": [ "http://hl7.org/fhir/us/qicore/StructureDefinition/qicore-practitioner" ]
      },
      "identifier": [ {
        "system": "http://hl7.org/fhir/sid/us-npi",
        "value": "1234567893"
      } ],
      "name": [ {
        "family": "Evil",
        "prefix": [ "Dr" ]
      } ]
    }
  }, {
    "fullUrl": "https://madie.cms.gov/MeasureReport/0a4eab76-b264-4518-92a4-c843a1cd43bc",
    "resource": {
      "resourceType": "MeasureReport",
      "id": "0a4eab76-b264-4518-92a4-c843a1cd43bc",
      "meta": {
        "profile": [ "http://hl7.org/fhir/us/cqfmeasures/StructureDefinition/test-case-cqfm" ]
      },
      "contained": [ {
        "resourceType": "Parameters",
        "id": "ed5e9679-4632-458d-bc2d-77a200fa65b3-parameters",
        "parameter": [ {
          "name": "subject",
          "valueString": "2ae1ab8a-7ef3-407f-a218-d6b304c8c298"
        } ]
      } ],
      "extension": [ {
        "url": "http://hl7.org/fhir/StructureDefinition/cqf-inputParameters",
        "valueReference": {
          "reference": "#ed5e9679-4632-458d-bc2d-77a200fa65b3-parameters"
        }
      }, {
        "url": "http://hl7.org/fhir/us/cqfmeasures/StructureDefinition/cqfm-testCaseDescription",
        "valueMarkdown": "Bone Scan performed 1 minute before Prostate Cancer Diagnosis"
      } ],
      "modifierExtension": [ {
        "url": "http://hl7.org/fhir/us/cqfmeasures/StructureDefinition/cqfm-isTestCase",
        "valueBoolean": true
      } ],
      "status": "complete",
      "type": "individual",
      "measure": "https://madie.cms.gov/Measure/CMS129FHIRProstCaBoneScanUse",
      "period": {
        "start": "2026-01-01",
        "end": "2026-12-31"
      },
      "group": [ {
        "id": "Group_1",
        "population": [ {
          "id": "InitialPopulation_1",
          "code": {
            "coding": [ {
              "system": "http://terminology.hl7.org/CodeSystem/measure-population",
              "code": "initial-population",
              "display": "Initial Population"
            } ]
          },
          "count": 1
        }, {
          "id": "Denominator_1",
          "code": {
            "coding": [ {
              "system": "http://terminology.hl7.org/CodeSystem/measure-population",
              "code": "denominator",
              "display": "Denominator"
            } ]
          },
          "count": 1
        }, {
          "id": "Numerator_1",
          "code": {
            "coding": [ {
              "system": "http://terminology.hl7.org/CodeSystem/measure-population",
              "code": "numerator",
              "display": "Numerator"
            } ]
          },
          "count": 1
        }, {
          "id": "DenominatorException_1",
          "code": {
            "coding": [ {
              "system": "http://terminology.hl7.org/CodeSystem/measure-population",
              "code": "denominator-exception",
              "display": "Denominator Exception"
            } ]
          },
          "count": 0
        } ],
        "measureScore": {
          "value": 1.0
        }
      } ],
      "evaluatedResource": [ {
        "reference": "Patient/2ae1ab8a-7ef3-407f-a218-d6b304c8c298"
      }, {
        "reference": "Condition/a3c3fbe4-19ea-452d-bd22-d72c53263c66"
      }, {
        "reference": "Condition/5abad642-2215-4e49-a56d-21a61a19f01f"
      }, {
        "reference": "Procedure/ee6a1be7-a06d-4bcf-a93f-e9c299b289f5"
      }, {
        "reference": "Observation/ffa1dcb0-5c11-40e4-a251-98d958ac736f"
      }, {
        "reference": "Observation/ae690d66-2181-4999-a62b-07316479bcd9"
      }, {
        "reference": "Observation/9ad58ee9-e026-4128-a5da-ad04e38ff756"
      }, {
        "reference": "Observation/dbd604d5-4c37-459e-b4e1-2fc550b7f009"
      }, {
        "reference": "Coverage/3fe34862-c4ba-44bd-81fe-aff6f903444a"
      }, {
        "reference": "Organization/a30311c2-a472-4dd9-809a-5c4c0606c49d"
      }, {
        "reference": "Practitioner/569e0ad9-f55d-43fc-b6bc-ebdeb98bf8c8"
      } ]
    }
  } ]
}