{
  "resourceType": "Bundle",
  "id": "63487c2e0968f8012254017e",
  "type": "transaction",
  "entry": [ {
    "fullUrl": "https://madie.cms.gov/Patient/eb0241e2-ec13-4ce0-8221-4de320f5a3a1",
    "resource": {
      "resourceType": "Patient",
      "id": "eb0241e2-ec13-4ce0-8221-4de320f5a3a1",
      "meta": {
        "profile": [ "http://hl7.org/fhir/us/qicore/StructureDefinition/qicore-patient" ]
      },
      "text": {
        "status": "generated",
        "div": "<div xmlns=\"http://www.w3.org/1999/xhtml\"><div class=\"hapiHeaderText\">AgeEQ65<b>IPOPFail</b></div><table class=\"hapiPropertyTable\"><tbody><tr><td>Identifier</td><td>069a58fe05a5273ab198ba9d4cab60df263b71300a48a650d6186814d5cabb6c</td></tr><tr><td>Date of birth</td><td><span>01 January 1947</span></td></tr></tbody></table></div>"
      },
      "extension": [ {
        "url": "http://hl7.org/fhir/us/core/StructureDefinition/us-core-race",
        "extension": [ {
          "url": "ombCategory",
          "valueCoding": {
            "system": "urn:oid:2.16.840.1.113883.6.238",
            "code": "1002-5",
            "display": "American Indian or Alaska Native",
            "userSelected": true
          }
        }, {
          "url": "text",
          "valueString": "American Indian or Alaska Native"
        } ]
      }, {
        "url": "http://hl7.org/fhir/us/core/StructureDefinition/us-core-ethnicity",
        "extension": [ {
          "url": "ombCategory",
          "valueCoding": {
            "system": "urn:oid:2.16.840.1.113883.6.238",
            "code": "2135-2",
            "display": "Hispanic or Latino",
            "userSelected": true
          }
        }, {
          "url": "text",
          "valueString": "Hispanic or Latino"
        } ]
      } ],
      "identifier": [ {
        "type": {
          "coding": [ {
            "system": "http://terminology.hl7.org/CodeSystem/v2-0203",
            "code": "MR"
          } ]
        },
        "system": "https://bonnie-fhir.healthit.gov/",
        "value": "63487c2e0968f8012254017e"
      } ],
      "active": true,
      "name": [ {
        "use": "usual",
        "family": "IPOPFail",
        "given": [ "AgeEQ65" ]
      } ],
      "gender": "female",
      "birthDate": "1948-06-08"
    },
    "request": {
      "method": "PUT",
      "url": "Patient/eb0241e2-ec13-4ce0-8221-4de320f5a3a1"
    }
  }, {
    "fullUrl": "https://madie.cms.gov/Encounter/398ab230-c176-448e-9134-73f520a566be",
    "resource": {
      "resourceType": "Encounter",
      "id": "398ab230-c176-448e-9134-73f520a566be",
      "meta": {
        "profile": [ "http://hl7.org/fhir/us/qicore/StructureDefinition/qicore-encounter" ]
      },
      "status": "finished",
      "class": {
        "system": "http://terminology.hl7.org/CodeSystem/v3-ActCode",
        "code": "IMP",
        "display": "inpatient encounter"
      },
      "type": [ {
        "coding": [ {
          "system": "http://snomed.info/sct",
          "code": "8715000"
        } ]
      } ],
      "subject": {
        "reference": "Patient/eb0241e2-ec13-4ce0-8221-4de320f5a3a1"
      },
      "period": {
        "start": "2026-06-08T08:00:00.000+00:00",
        "end": "2026-06-09T08:15:00.000+00:00"
      },
      "reasonCode": [ {
        "coding": [ {
          "system": "http://snomed.info/sct",
          "code": "169826009",
          "display": "Single live birth from singleton pregnancy (finding)"
        } ]
      } ]
    },
    "request": {
      "method": "PUT",
      "url": "Encounter/398ab230-c176-448e-9134-73f520a566be"
    }
  }, {
    "fullUrl": "https://madie.cms.gov/Procedure/b2f3cdbe-7fde-435e-a948-d1434cecd040",
    "resource": {
      "resourceType": "Procedure",
      "id": "b2f3cdbe-7fde-435e-a948-d1434cecd040",
      "meta": {
        "profile": [ "http://hl7.org/fhir/us/qicore/StructureDefinition/qicore-procedure" ]
      },
      "extension": [ {
        "url": "http://hl7.org/fhir/us/qicore/StructureDefinition/qicore-recorded",
        "valueDateTime": "2014-04-05T13:35:00.000+00:00"
      } ],
      "status": "completed",
      "code": {
        "coding": [ {
          "system": "http://www.cms.gov/Medicare/Coding/ICD10",
          "code": "10D00Z0"
        }, {
          "system": "http://www.icd10data.com/icd10pcs",
          "code": "10D00Z0",
          "userSelected": true
        }, {
          "system": "http://snomed.info/sct",
          "code": "11466000"
        } ]
      },
      "subject": {
        "reference": "Patient/eb0241e2-ec13-4ce0-8221-4de320f5a3a1"
      },
      "performedPeriod": {
        "start": "2026-06-08T08:00:00.000+00:00",
        "end": "2026-06-09T08:15:00.000+00:00"
      }
    },
    "request": {
      "method": "PUT",
      "url": "Procedure/b2f3cdbe-7fde-435e-a948-d1434cecd040"
    }
  }, {
    "fullUrl": "https://madie.cms.gov/Coverage/7163faa2-1416-4906-b860-31259f21a45a",
    "resource": {
      "resourceType": "Coverage",
      "id": "7163faa2-1416-4906-b860-31259f21a45a",
      "meta": {
        "profile": [ "http://hl7.org/fhir/us/qicore/StructureDefinition/qicore-coverage" ]
      },
      "status": "active",
      "subscriberId": "523435",
      "beneficiary": {
        "reference": "Patient/eb0241e2-ec13-4ce0-8221-4de320f5a3a1"
      },
      "relationship": {
        "coding": [ {
          "system": "http://terminology.hl7.org/CodeSystem/subscriber-relationship",
          "code": "self"
        } ]
      },
      "payor": [ {
        "reference": "Organization/2fbfd5f5-1d71-4121-8915-b8fd8b4eaf5d"
      } ]
    },
    "request": {
      "method": "PUT",
      "url": "Coverage/7163faa2-1416-4906-b860-31259f21a45a"
    }
  }, {
    "fullUrl": "https://madie.cms.gov/Organization/2fbfd5f5-1d71-4121-8915-b8fd8b4eaf5d",
    "resource": {
      "resourceType": "Organization",
      "id": "2fbfd5f5-1d71-4121-8915-b8fd8b4eaf5d",
      "meta": {
        "profile": [ "http://hl7.org/fhir/us/qicore/StructureDefinition/qicore-organization" ]
      },
      "identifier": [ {
        "use": "temp",
        "system": "urn:oid:2.16.840.1.113883.4.4",
        "value": "21-3259825"
      } ],
      "active": true,
      "type": [ {
        "coding": [ {
          "system": "http://terminology.hl7.org/CodeSystem/organization-type",
          "code": "pay",
          "display": "Payer"
        } ]
      } ],
      "name": "Blue Cross Blue Shield of Texas",
      "telecom": [ {
        "system": "phone",
        "value": "(+1) 972-766-6900"
      } ],
      "address": [ {
        "use": "billing",
        "type": "postal",
        "line": [ "P.O. Box 660044" ],
        "city": "Dallas",
        "state": "TX",
        "postalCode": "75266-0044",
        "country": "USA"
      } ]
    },
    "request": {
      "method": "PUT",
      "url": "Organization/2fbfd5f5-1d71-4121-8915-b8fd8b4eaf5d"
    }
  }, {
    "fullUrl": "https://madie.cms.gov/Practitioner/70fa5fee-49ae-4019-9d96-b147c6e9ac6c",
    "resource": {
      "resourceType": "Practitioner",
      "id": "70fa5fee-49ae-4019-9d96-b147c6e9ac6c",
      "meta": {
        "profile": [ "http://hl7.org/fhir/us/qicore/StructureDefinition/qicore-practitioner" ]
      },
      "identifier": [ {
        "system": "http://hl7.org/fhir/sid/us-npi",
        "value": "1234567890"
      } ],
      "name": [ {
        "family": "Evil",
        "prefix": [ "Dr" ]
      } ]
    },
    "request": {
      "method": "PUT",
      "url": "Practitioner/70fa5fee-49ae-4019-9d96-b147c6e9ac6c"
    }
  }, {
    "fullUrl": "https://madie.cms.gov/MeasureReport/f2127309-b4e3-49d6-9838-ed65c6dd74bb",
    "resource": {
      "resourceType": "MeasureReport",
      "id": "f2127309-b4e3-49d6-9838-ed65c6dd74bb",
      "meta": {
        "profile": [ "http://hl7.org/fhir/us/cqfmeasures/StructureDefinition/test-case-cqfm" ]
      },
      "contained": [ {
        "resourceType": "Parameters",
        "id": "0c54195b-ba87-40e3-8d15-2645a9fdfe7d-parameters",
        "parameter": [ {
          "name": "subject",
          "valueString": "eb0241e2-ec13-4ce0-8221-4de320f5a3a1"
        } ]
      } ],
      "extension": [ {
        "url": "http://hl7.org/fhir/StructureDefinition/cqf-inputParameters",
        "valueReference": {
          "reference": "#0c54195b-ba87-40e3-8d15-2645a9fdfe7d-parameters"
        }
      }, {
        "url": "http://hl7.org/fhir/us/cqfmeasures/StructureDefinition/cqfm-testCaseDescription",
        "valueMarkdown": "Pt =65 years of age .  This  is an intentional fail \n"
      } ],
      "modifierExtension": [ {
        "url": "http://hl7.org/fhir/us/cqfmeasures/StructureDefinition/cqfm-isTestCase",
        "valueBoolean": true
      } ],
      "status": "complete",
      "type": "individual",
      "measure": "https://madie.cms.gov/Measure/CMS0334FHIRPCCesareanBirth",
      "period": {
        "start": "2026-01-01",
        "end": "2026-12-31"
      },
      "group": [ {
        "id": "Group_1",
        "population": [ {
          "id": "InitialPopulation_1",
          "code": {
            "coding": [ {
              "system": "http://terminology.hl7.org/CodeSystem/measure-population",
              "code": "initial-population",
              "display": "Initial Population"
            } ]
          },
          "count": 0
        }, {
          "id": "Denominator_1",
          "code": {
            "coding": [ {
              "system": "http://terminology.hl7.org/CodeSystem/measure-population",
              "code": "denominator",
              "display": "Denominator"
            } ]
          },
          "count": 0
        }, {
          "id": "DenominatorExclusion_1",
          "code": {
            "coding": [ {
              "system": "http://terminology.hl7.org/CodeSystem/measure-population",
              "code": "denominator-exclusion",
              "display": "Denominator Exclusion"
            } ]
          },
          "count": 0
        }, {
          "id": "Numerator_1",
          "code": {
            "coding": [ {
              "system": "http://terminology.hl7.org/CodeSystem/measure-population",
              "code": "numerator",
              "display": "Numerator"
            } ]
          },
          "count": 0
        } ],
        "measureScore": {
          "value": 0.0
        }
      } ],
      "evaluatedResource": [ {
        "reference": "Patient/eb0241e2-ec13-4ce0-8221-4de320f5a3a1"
      }, {
        "reference": "Encounter/398ab230-c176-448e-9134-73f520a566be"
      }, {
        "reference": "Procedure/b2f3cdbe-7fde-435e-a948-d1434cecd040"
      }, {
        "reference": "Coverage/7163faa2-1416-4906-b860-31259f21a45a"
      }, {
        "reference": "Organization/2fbfd5f5-1d71-4121-8915-b8fd8b4eaf5d"
      }, {
        "reference": "Practitioner/70fa5fee-49ae-4019-9d96-b147c6e9ac6c"
      } ]
    },
    "request": {
      "method": "PUT",
      "url": "MeasureReport/f2127309-b4e3-49d6-9838-ed65c6dd74bb"
    }
  } ]
}