{
  "resourceType": "Bundle",
  "id": "712e6f1402c62a011f2f0ad9",
  "type": "transaction",
  "entry": [ {
    "fullUrl": "https://madie.cms.gov/Patient/39215b49-af59-45a7-a773-65e8353dfafd",
    "resource": {
      "resourceType": "Patient",
      "id": "39215b49-af59-45a7-a773-65e8353dfafd",
      "meta": {
        "profile": [ "http://hl7.org/fhir/us/qicore/StructureDefinition/qicore-patient" ]
      },
      "text": {
        "status": "generated",
        "div": "<div xmlns=\"http://www.w3.org/1999/xhtml\"><div class=\"hapiHeaderText\">EncPrinDxObstetrics <b>IPFAIL </b></div><table class=\"hapiPropertyTable\"><tbody><tr><td>Identifier</td><td>73dfd43c47660281c0a5408728e85897</td></tr><tr><td>Date of birth</td><td><span>03 March 1974</span></td></tr></tbody></table></div>"
      },
      "extension": [ {
        "url": "http://hl7.org/fhir/us/core/StructureDefinition/us-core-race",
        "extension": [ {
          "url": "ombCategory",
          "valueCoding": {
            "system": "urn:oid:2.16.840.1.113883.6.238",
            "code": "1002-5",
            "display": "American Indian or Alaska Native",
            "userSelected": true
          }
        }, {
          "url": "text",
          "valueString": "American Indian or Alaska Native"
        } ]
      }, {
        "url": "http://hl7.org/fhir/us/core/StructureDefinition/us-core-ethnicity",
        "extension": [ {
          "url": "ombCategory",
          "valueCoding": {
            "system": "urn:oid:2.16.840.1.113883.6.238",
            "code": "2186-5",
            "display": "Not Hispanic or Latino",
            "userSelected": true
          }
        }, {
          "url": "text",
          "valueString": "Not Hispanic or Latino"
        } ]
      } ],
      "identifier": [ {
        "type": {
          "coding": [ {
            "system": "http://terminology.hl7.org/CodeSystem/v2-0203",
            "code": "MR"
          } ]
        },
        "system": "https://bonnie-fhir.healthit.gov/",
        "value": "712e6f1402c62a011f2f0ad9"
      } ],
      "active": true,
      "name": [ {
        "use": "usual",
        "family": "IPFail",
        "given": [ "EncPrinDxObstetrics" ]
      } ],
      "gender": "female",
      "birthDate": "1975-03-03"
    },
    "request": {
      "method": "PUT",
      "url": "Patient/39215b49-af59-45a7-a773-65e8353dfafd"
    }
  }, {
    "fullUrl": "https://madie.cms.gov/Encounter/a524132b-fe80-4df3-828d-6e2dde790a01",
    "resource": {
      "resourceType": "Encounter",
      "id": "a524132b-fe80-4df3-828d-6e2dde790a01",
      "meta": {
        "profile": [ "http://hl7.org/fhir/us/qicore/StructureDefinition/qicore-encounter" ]
      },
      "status": "finished",
      "class": {
        "system": "http://terminology.hl7.org/CodeSystem/v3-ActCode",
        "code": "IMP",
        "display": "inpatient encounter"
      },
      "type": [ {
        "coding": [ {
          "system": "http://snomed.info/sct",
          "code": "8715000"
        } ]
      } ],
      "subject": {
        "reference": "Patient/39215b49-af59-45a7-a773-65e8353dfafd"
      },
      "period": {
        "start": "2026-12-04T08:00:00.000+00:00",
        "end": "2026-12-30T08:15:00.000+00:00"
      },
      "length": {
        "value": 26,
        "unit": "days"
      },
      "reasonReference": [ {
        "reference": "Condition/85297158-1b40-4b70-bc9a-204220113238"
      } ],
      "location": [ {
        "location": {
          "reference": "Location/b9da75bf-6e52-4d1f-b3b7-83d2533ea0b8"
        },
        "period": {
          "start": "2026-12-06T08:00:00.000+00:00",
          "end": "2026-12-08T08:15:00.000+00:00"
        }
      } ]
    },
    "request": {
      "method": "PUT",
      "url": "Encounter/a524132b-fe80-4df3-828d-6e2dde790a01"
    }
  }, {
    "fullUrl": "https://madie.cms.gov/claim/5ca62962b8484628b8de1ec5",
    "resource": {
      "resourceType": "Claim",
      "id": "5ca62962b8484628b8de1ec5",
      "meta": {
        "profile": [ "http://hl7.org/fhir/us/qicore/StructureDefinition/qicore-claim" ]
      },
      "status": "active",
      "type": {
        "coding": [ {
          "system": "http://terminology.hl7.org/CodeSystem/claim-type",
          "code": "institutional"
        } ]
      },
      "use": "claim",
      "patient": {
        "reference": "Patient/39215b49-af59-45a7-a773-65e8353dfafd"
      },
      "created": "2026-12-01",
      "provider": {
        "reference": "Practitioner/1df3d6d1-3988-4e88-923e-a9a1471816b4"
      },
      "priority": {
        "coding": [ {
          "system": "http://terminology.hl7.org/CodeSystem/processpriority",
          "code": "normal"
        } ]
      },
      "diagnosis": [ {
        "sequence": 1,
        "diagnosisCodeableConcept": {
          "coding": [ {
            "system": "http://hl7.org/fhir/sid/icd-10-cm",
            "code": "O99.340"
          } ]
        },
        "type": [ {
          "coding": [ {
            "system": "http://terminology.hl7.org/CodeSystem/ex-diagnosistype",
            "code": "principal"
          } ]
        } ]
      } ],
      "insurance": [ {
        "sequence": 1,
        "focal": true,
        "coverage": {
          "reference": "Coverage/fd4b7320-06e0-44fa-bd16-73f7da6a840e"
        }
      } ],
      "item": [ {
        "sequence": 1,
        "diagnosisSequence": [ 1 ],
        "productOrService": {
          "coding": [ {
            "system": "http://terminology.hl7.org/CodeSystem/ex-USCLS",
            "code": "99555"
          } ]
        },
        "encounter": [ {
          "reference": "Encounter/a524132b-fe80-4df3-828d-6e2dde790a01"
        } ]
      } ]
    },
    "request": {
      "method": "PUT",
      "url": "Claim/5ca62962b8484628b8de1ec5"
    }
  }, {
    "fullUrl": "https://madie.cms.gov/Coverage/fd4b7320-06e0-44fa-bd16-73f7da6a840e",
    "resource": {
      "resourceType": "Coverage",
      "id": "fd4b7320-06e0-44fa-bd16-73f7da6a840e",
      "status": "active",
      "beneficiary": {
        "reference": "Patient/39215b49-af59-45a7-a773-65e8353dfafd"
      },
      "period": {
        "start": "1975-03-03T08:00:00.000+00:00"
      },
      "payor": [ {
        "reference": "Organization/0afdd7ad-608d-4614-94d0-d938c6cd8f25"
      } ]
    },
    "request": {
      "method": "PUT",
      "url": "Coverage/fd4b7320-06e0-44fa-bd16-73f7da6a840e"
    }
  }, {
    "fullUrl": "https://madie.cms.gov/Condition/85297158-1b40-4b70-bc9a-204220113238",
    "resource": {
      "resourceType": "Condition",
      "id": "85297158-1b40-4b70-bc9a-204220113238",
      "meta": {
        "profile": [ "http://hl7.org/fhir/us/qicore/StructureDefinition/qicore-condition-encounter-diagnosis" ]
      },
      "category": [ {
        "coding": [ {
          "system": "http://terminology.hl7.org/CodeSystem/condition-category",
          "code": "encounter-diagnosis",
          "display": "Encounter Diagnosis"
        } ]
      } ],
      "code": {
        "coding": [ {
          "system": "http://hl7.org/fhir/sid/icd-10-cm",
          "code": "O99.340"
        } ]
      },
      "subject": {
        "reference": "Patient/39215b49-af59-45a7-a773-65e8353dfafd"
      },
      "recordedDate": "2026-09-09T08:00:00.000+00:00"
    },
    "request": {
      "method": "PUT",
      "url": "Condition/85297158-1b40-4b70-bc9a-204220113238"
    }
  }, {
    "fullUrl": "https://madie.cms.gov/Location/b9da75bf-6e52-4d1f-b3b7-83d2533ea0b8",
    "resource": {
      "resourceType": "Location",
      "id": "b9da75bf-6e52-4d1f-b3b7-83d2533ea0b8",
      "meta": {
        "profile": [ "http://hl7.org/fhir/us/qicore/StructureDefinition/qicore-location" ]
      },
      "identifier": [ {
        "use": "usual",
        "system": "http://exampleoflocation.com",
        "value": "B1-S.F2"
      } ],
      "name": "Medical Surgical East, first floor",
      "type": [ {
        "coding": [ {
          "system": "https://www.cdc.gov/nhsn/cdaportal/terminology/codesystem/hsloc.html",
          "code": "1025-6",
          "display": "Trauma Critical Care",
          "userSelected": true
        } ]
      } ]
    },
    "request": {
      "method": "PUT",
      "url": "Location/b9da75bf-6e52-4d1f-b3b7-83d2533ea0b8"
    }
  }, {
    "fullUrl": "https://madie.cms.gov/Organization/0afdd7ad-608d-4614-94d0-d938c6cd8f25",
    "resource": {
      "resourceType": "Organization",
      "id": "0afdd7ad-608d-4614-94d0-d938c6cd8f25",
      "meta": {
        "profile": [ "http://hl7.org/fhir/us/qicore/StructureDefinition/qicore-organization" ]
      },
      "identifier": [ {
        "use": "temp",
        "system": "urn:oid:2.16.840.1.113883.4.4",
        "value": "21-3259825"
      } ],
      "active": true,
      "type": [ {
        "coding": [ {
          "system": "http://terminology.hl7.org/CodeSystem/organization-type",
          "code": "pay",
          "display": "Payer"
        } ]
      } ],
      "name": "Blue Cross Blue Shield of Texas",
      "telecom": [ {
        "system": "phone",
        "value": "(+1) 972-766-6900"
      } ],
      "address": [ {
        "use": "billing",
        "type": "postal",
        "line": [ "P.O. Box 660044" ],
        "city": "Dallas",
        "state": "TX",
        "postalCode": "75266-0044",
        "country": "USA"
      } ]
    },
    "request": {
      "method": "PUT",
      "url": "Organization/0afdd7ad-608d-4614-94d0-d938c6cd8f25"
    }
  }, {
    "fullUrl": "https://madie.cms.gov/Practitioner/1df3d6d1-3988-4e88-923e-a9a1471816b4",
    "resource": {
      "resourceType": "Practitioner",
      "id": "1df3d6d1-3988-4e88-923e-a9a1471816b4",
      "identifier": [ {
        "system": "http://hl7.org/fhir/sid/us-npi",
        "value": "123456"
      } ],
      "name": [ {
        "family": "Evil",
        "prefix": [ "Dr" ]
      } ]
    },
    "request": {
      "method": "PUT",
      "url": "Practitioner/1df3d6d1-3988-4e88-923e-a9a1471816b4"
    }
  }, {
    "fullUrl": "https://madie.cms.gov/MeasureReport/4358ad9b-1c93-4569-9985-0f388fe56ebe",
    "resource": {
      "resourceType": "MeasureReport",
      "id": "4358ad9b-1c93-4569-9985-0f388fe56ebe",
      "meta": {
        "profile": [ "http://hl7.org/fhir/us/cqfmeasures/StructureDefinition/test-case-cqfm" ]
      },
      "contained": [ {
        "resourceType": "Parameters",
        "id": "8a4ac271-1557-4a27-b8c8-290f3407d7c9-parameters",
        "parameter": [ {
          "name": "subject",
          "valueString": "39215b49-af59-45a7-a773-65e8353dfafd"
        } ]
      } ],
      "extension": [ {
        "url": "http://hl7.org/fhir/StructureDefinition/cqf-inputParameters",
        "valueReference": {
          "reference": "#8a4ac271-1557-4a27-b8c8-290f3407d7c9-parameters"
        }
      }, {
        "url": "http://hl7.org/fhir/us/cqfmeasures/StructureDefinition/cqfm-testCaseDescription",
        "valueMarkdown": "To test if EncIP PrinDxObstetrics . should be treated as same as Encounter Dx as well\n"
      } ],
      "modifierExtension": [ {
        "url": "http://hl7.org/fhir/us/cqfmeasures/StructureDefinition/cqfm-isTestCase",
        "valueBoolean": true
      } ],
      "status": "complete",
      "type": "individual",
      "measure": "https://madie.cms.gov/Measure/CMS190FHIRVTEProphylaxisICU",
      "period": {
        "start": "2026-01-01",
        "end": "2026-12-31"
      },
      "group": [ {
        "id": "Group_1",
        "population": [ {
          "id": "InitialPopulation_1",
          "code": {
            "coding": [ {
              "system": "http://terminology.hl7.org/CodeSystem/measure-population",
              "code": "initial-population",
              "display": "Initial Population"
            } ]
          },
          "count": 0
        }, {
          "id": "Denominator_1",
          "code": {
            "coding": [ {
              "system": "http://terminology.hl7.org/CodeSystem/measure-population",
              "code": "denominator",
              "display": "Denominator"
            } ]
          },
          "count": 0
        }, {
          "id": "DenominatorExclusion_1",
          "code": {
            "coding": [ {
              "system": "http://terminology.hl7.org/CodeSystem/measure-population",
              "code": "denominator-exclusion",
              "display": "Denominator Exclusion"
            } ]
          },
          "count": 0
        }, {
          "id": "Numerator_1",
          "code": {
            "coding": [ {
              "system": "http://terminology.hl7.org/CodeSystem/measure-population",
              "code": "numerator",
              "display": "Numerator"
            } ]
          },
          "count": 0
        }, {
          "id": "DenominatorException_1",
          "code": {
            "coding": [ {
              "system": "http://terminology.hl7.org/CodeSystem/measure-population",
              "code": "denominator-exception",
              "display": "Denominator Exception"
            } ]
          },
          "count": 0
        } ],
        "measureScore": {
          "value": 0.0
        }
      } ],
      "evaluatedResource": [ {
        "reference": "Patient/39215b49-af59-45a7-a773-65e8353dfafd"
      }, {
        "reference": "Encounter/a524132b-fe80-4df3-828d-6e2dde790a01"
      }, {
        "reference": "Claim/5ca62962b8484628b8de1ec5"
      }, {
        "reference": "Coverage/fd4b7320-06e0-44fa-bd16-73f7da6a840e"
      }, {
        "reference": "Condition/85297158-1b40-4b70-bc9a-204220113238"
      }, {
        "reference": "Location/b9da75bf-6e52-4d1f-b3b7-83d2533ea0b8"
      }, {
        "reference": "Organization/0afdd7ad-608d-4614-94d0-d938c6cd8f25"
      }, {
        "reference": "Practitioner/1df3d6d1-3988-4e88-923e-a9a1471816b4"
      } ]
    },
    "request": {
      "method": "PUT",
      "url": "MeasureReport/4358ad9b-1c93-4569-9985-0f388fe56ebe"
    }
  } ]
}