{
  "resourceType": "Bundle",
  "id": "633c9d030968f8012250fc71",
  "type": "transaction",
  "entry": [ {
    "fullUrl": "https://madie.cms.gov/Patient/aedf9576-e1ce-4777-8e3a-5089076b50f4",
    "resource": {
      "resourceType": "Patient",
      "id": "aedf9576-e1ce-4777-8e3a-5089076b50f4",
      "meta": {
        "profile": [ "http://hl7.org/fhir/us/qicore/StructureDefinition/qicore-patient" ]
      },
      "text": {
        "status": "generated",
        "div": "<div xmlns=\"http://www.w3.org/1999/xhtml\"><div class=\"hapiHeaderText\">Age=18ondayOfEnc <b>IPPPASS </b></div><table class=\"hapiPropertyTable\"><tbody><tr><td>Identifier</td><td>384b0a61298e7a9ca56a87b5bee0a043</td></tr><tr><td>Date of birth</td><td><span>08 February 1994</span></td></tr></tbody></table></div>"
      },
      "extension": [ {
        "url": "http://hl7.org/fhir/us/core/StructureDefinition/us-core-race",
        "extension": [ {
          "url": "ombCategory",
          "valueCoding": {
            "system": "urn:oid:2.16.840.1.113883.6.238",
            "code": "1002-5",
            "display": "American Indian or Alaska Native",
            "userSelected": true
          }
        }, {
          "url": "text",
          "valueString": "American Indian or Alaska Native"
        } ]
      }, {
        "url": "http://hl7.org/fhir/us/core/StructureDefinition/us-core-ethnicity",
        "extension": [ {
          "url": "ombCategory",
          "valueCoding": {
            "system": "urn:oid:2.16.840.1.113883.6.238",
            "code": "2135-2",
            "display": "Hispanic or Latino",
            "userSelected": true
          }
        }, {
          "url": "text",
          "valueString": "Hispanic or Latino"
        } ]
      } ],
      "identifier": [ {
        "type": {
          "coding": [ {
            "system": "http://terminology.hl7.org/CodeSystem/v2-0203",
            "code": "MR"
          } ]
        },
        "system": "https://bonnie-fhir.healthit.gov/",
        "value": "633c9d030968f8012250fc71"
      } ],
      "active": true,
      "name": [ {
        "use": "usual",
        "family": "IPPPass",
        "given": [ "Age=18ondayOfEnc" ]
      } ],
      "gender": "male",
      "birthDate": "2007-02-08"
    },
    "request": {
      "method": "PUT",
      "url": "Patient/aedf9576-e1ce-4777-8e3a-5089076b50f4"
    }
  }, {
    "fullUrl": "https://madie.cms.gov/Encounter/49ff1346-9a69-4d2d-ae61-1f5833a0098f",
    "resource": {
      "resourceType": "Encounter",
      "id": "49ff1346-9a69-4d2d-ae61-1f5833a0098f",
      "meta": {
        "profile": [ "http://hl7.org/fhir/us/qicore/StructureDefinition/qicore-encounter" ]
      },
      "status": "finished",
      "class": {
        "system": "http://terminology.hl7.org/CodeSystem/v3-ActCode",
        "code": "IMP",
        "display": "inpatient encounter"
      },
      "type": [ {
        "coding": [ {
          "system": "http://snomed.info/sct",
          "code": "32485007"
        } ]
      } ],
      "subject": {
        "reference": "Patient/aedf9576-e1ce-4777-8e3a-5089076b50f4"
      },
      "period": {
        "start": "2026-02-08T08:00:00.000+00:00",
        "end": "2026-02-10T08:15:00.000+00:00"
      },
      "length": {
        "value": 2,
        "unit": "days"
      },
      "diagnosis": [ {
        "condition": {
          "reference": "Condition/45d6996d-f6f8-4060-828a-c8be3b4c0c8c"
        },
        "use": {
          "coding": [ {
            "system": "http://terminology.hl7.org/CodeSystem/diagnosis-role",
            "code": "billing",
            "display": "Billing"
          } ]
        },
        "rank": 1
      } ]
    },
    "request": {
      "method": "PUT",
      "url": "Encounter/49ff1346-9a69-4d2d-ae61-1f5833a0098f"
    }
  }, {
    "fullUrl": "https://madie.cms.gov/Coverage/b0957597-e47d-4cca-aee9-622eecdf71fd",
    "resource": {
      "resourceType": "Coverage",
      "id": "b0957597-e47d-4cca-aee9-622eecdf71fd",
      "status": "active",
      "beneficiary": {
        "reference": "Patient/aedf9576-e1ce-4777-8e3a-5089076b50f4"
      },
      "period": {
        "start": "1995-02-08T08:00:00.000+00:00"
      },
      "payor": [ {
        "reference": "Organization/34dc54f5-d2fb-4297-b8fc-55e9b5874772"
      } ]
    },
    "request": {
      "method": "PUT",
      "url": "Coverage/b0957597-e47d-4cca-aee9-622eecdf71fd"
    }
  }, {
    "fullUrl": "https://madie.cms.gov/claim/5ca62962b8484628b8de1ec5",
    "resource": {
      "resourceType": "Claim",
      "id": "5ca62962b8484628b8de1ec5",
      "meta": {
        "profile": [ "http://hl7.org/fhir/us/qicore/StructureDefinition/qicore-claim" ]
      },
      "status": "active",
      "type": {
        "coding": [ {
          "system": "http://terminology.hl7.org/CodeSystem/claim-type",
          "code": "institutional"
        } ]
      },
      "use": "claim",
      "patient": {
        "reference": "Patient/d170a0a8-b5ad-4303-b6df-e304dd5f92ad"
      },
      "created": "2026-12-01",
      "provider": {
        "reference": "Practitioner/caf33f72-3fc1-4e88-9932-29e6592e5b4f"
      },
      "priority": {
        "coding": [ {
          "system": "http://terminology.hl7.org/CodeSystem/processpriority",
          "code": "normal"
        } ]
      },
      "diagnosis": [ {
        "sequence": 1,
        "diagnosisCodeableConcept": {
          "coding": [ {
            "system": "http://hl7.org/fhir/sid/icd-10-cm",
            "code": "I63.00"
          } ]
        },
        "type": [ {
          "coding": [ {
            "system": "http://terminology.hl7.org/CodeSystem/ex-diagnosistype",
            "code": "principal"
          } ]
        } ]
      } ],
      "insurance": [ {
        "sequence": 1,
        "focal": true,
        "coverage": {
          "reference": "Coverage/5fa041661c76ba66d9959367"
        }
      } ],
      "item": [ {
        "sequence": 1,
        "diagnosisSequence": [ 1 ],
        "productOrService": {
          "coding": [ {
            "system": "http://terminology.hl7.org/CodeSystem/ex-USCLS",
            "code": "99555"
          } ]
        },
        "encounter": [ {
          "reference": "Encounter/49ff1346-9a69-4d2d-ae61-1f5833a0098f"
        } ]
      } ]
    },
    "request": {
      "method": "PUT",
      "url": "Claim/5ca62962b8484628b8de1ec5"
    }
  }, {
    "fullUrl": "https://madie.cms.gov/Condition/45d6996d-f6f8-4060-828a-c8be3b4c0c8c",
    "resource": {
      "resourceType": "Condition",
      "id": "45d6996d-f6f8-4060-828a-c8be3b4c0c8c",
      "meta": {
        "profile": [ "http://hl7.org/fhir/us/qicore/StructureDefinition/qicore-condition" ]
      },
      "clinicalStatus": {
        "coding": [ {
          "system": "http://terminology.hl7.org/CodeSystem/condition-clinical",
          "code": "active"
        } ]
      },
      "verificationStatus": {
        "coding": [ {
          "system": "http://terminology.hl7.org/CodeSystem/condition-ver-status",
          "code": "confirmed"
        } ]
      },
      "category": [ {
        "coding": [ {
          "system": "http://terminology.hl7.org/CodeSystem/condition-category",
          "code": "encounter-diagnosis",
          "display": "Encounter Diagnosis"
        } ]
      } ],
      "code": {
        "coding": [ {
          "system": "http://snomed.info/sct",
          "version": "2021-09",
          "code": "111297002",
          "display": "Nonparalytic stroke (disorder)",
          "userSelected": true
        } ]
      },
      "subject": {
        "reference": "Patient/aedf9576-e1ce-4777-8e3a-5089076b50f4"
      },
      "recordedDate": "2026-10-13T08:00:00.000+00:00"
    },
    "request": {
      "method": "PUT",
      "url": "Condition/45d6996d-f6f8-4060-828a-c8be3b4c0c8c"
    }
  }, {
    "fullUrl": "https://madie.cms.gov/Organization/34dc54f5-d2fb-4297-b8fc-55e9b5874772",
    "resource": {
      "resourceType": "Organization",
      "id": "34dc54f5-d2fb-4297-b8fc-55e9b5874772",
      "meta": {
        "profile": [ "http://hl7.org/fhir/us/qicore/StructureDefinition/qicore-organization" ]
      },
      "identifier": [ {
        "use": "temp",
        "system": "urn:oid:2.16.840.1.113883.4.4",
        "value": "21-3259825"
      } ],
      "active": true,
      "type": [ {
        "coding": [ {
          "system": "http://terminology.hl7.org/CodeSystem/organization-type",
          "code": "pay",
          "display": "Payer"
        } ]
      } ],
      "name": "Blue Cross Blue Shield of Texas",
      "telecom": [ {
        "system": "phone",
        "value": "(+1) 972-766-6900"
      } ],
      "address": [ {
        "use": "billing",
        "type": "postal",
        "line": [ "P.O. Box 660044" ],
        "city": "Dallas",
        "state": "TX",
        "postalCode": "75266-0044",
        "country": "USA"
      } ]
    },
    "request": {
      "method": "PUT",
      "url": "Organization/34dc54f5-d2fb-4297-b8fc-55e9b5874772"
    }
  }, {
    "fullUrl": "https://madie.cms.gov/Practitioner/caf33f72-3fc1-4e88-9932-29e6592e5b4f",
    "resource": {
      "resourceType": "Practitioner",
      "id": "caf33f72-3fc1-4e88-9932-29e6592e5b4f",
      "identifier": [ {
        "system": "http://hl7.org/fhir/sid/us-npi",
        "value": "123456"
      } ],
      "name": [ {
        "family": "Evil",
        "prefix": [ "Dr" ]
      } ]
    },
    "request": {
      "method": "PUT",
      "url": "Practitioner/caf33f72-3fc1-4e88-9932-29e6592e5b4f"
    }
  }, {
    "fullUrl": "https://madie.cms.gov/MeasureReport/2e515fbf-e09f-4c5a-90c6-50edf2cf95dd",
    "resource": {
      "resourceType": "MeasureReport",
      "id": "2e515fbf-e09f-4c5a-90c6-50edf2cf95dd",
      "meta": {
        "profile": [ "http://hl7.org/fhir/us/cqfmeasures/StructureDefinition/test-case-cqfm" ]
      },
      "contained": [ {
        "resourceType": "Parameters",
        "id": "0e255703-461a-4cf1-88df-670dfdc72645-parameters",
        "parameter": [ {
          "name": "subject",
          "valueString": "aedf9576-e1ce-4777-8e3a-5089076b50f4"
        } ]
      } ],
      "extension": [ {
        "url": "http://hl7.org/fhir/StructureDefinition/cqf-inputParameters",
        "valueReference": {
          "reference": "#0e255703-461a-4cf1-88df-670dfdc72645-parameters"
        }
      }, {
        "url": "http://hl7.org/fhir/us/cqfmeasures/StructureDefinition/cqfm-testCaseDescription",
        "valueMarkdown": "Principal diagnosis = ischemic stroke, patient turns 18 on OccurA starts\n"
      } ],
      "modifierExtension": [ {
        "url": "http://hl7.org/fhir/us/cqfmeasures/StructureDefinition/cqfm-isTestCase",
        "valueBoolean": true
      } ],
      "status": "complete",
      "type": "individual",
      "measure": "https://madie.cms.gov/Measure/CMS71FHIRSTKAnticoagAFFlutter",
      "period": {
        "start": "2026-01-01",
        "end": "2026-12-31"
      },
      "group": [ {
        "id": "Group_1",
        "population": [ {
          "id": "InitialPopulation_1",
          "code": {
            "coding": [ {
              "system": "http://terminology.hl7.org/CodeSystem/measure-population",
              "code": "initial-population",
              "display": "Initial Population"
            } ]
          },
          "count": 1
        }, {
          "id": "Denominator_1",
          "code": {
            "coding": [ {
              "system": "http://terminology.hl7.org/CodeSystem/measure-population",
              "code": "denominator",
              "display": "Denominator"
            } ]
          },
          "count": 0
        }, {
          "id": "DenominatorExclusion_1",
          "code": {
            "coding": [ {
              "system": "http://terminology.hl7.org/CodeSystem/measure-population",
              "code": "denominator-exclusion",
              "display": "Denominator Exclusion"
            } ]
          },
          "count": 0
        }, {
          "id": "Numerator_1",
          "code": {
            "coding": [ {
              "system": "http://terminology.hl7.org/CodeSystem/measure-population",
              "code": "numerator",
              "display": "Numerator"
            } ]
          },
          "count": 0
        }, {
          "id": "DenominatorException_1",
          "code": {
            "coding": [ {
              "system": "http://terminology.hl7.org/CodeSystem/measure-population",
              "code": "denominator-exception",
              "display": "Denominator Exception"
            } ]
          },
          "count": 0
        } ],
        "measureScore": {
          "value": 0.0
        }
      } ],
      "evaluatedResource": [ {
        "reference": "Patient/aedf9576-e1ce-4777-8e3a-5089076b50f4"
      }, {
        "reference": "Encounter/49ff1346-9a69-4d2d-ae61-1f5833a0098f"
      }, {
        "reference": "Coverage/b0957597-e47d-4cca-aee9-622eecdf71fd"
      }, {
        "reference": "Claim/5ca62962b8484628b8de1ec5"
      }, {
        "reference": "Condition/45d6996d-f6f8-4060-828a-c8be3b4c0c8c"
      }, {
        "reference": "Organization/34dc54f5-d2fb-4297-b8fc-55e9b5874772"
      }, {
        "reference": "Practitioner/caf33f72-3fc1-4e88-9932-29e6592e5b4f"
      } ]
    },
    "request": {
      "method": "PUT",
      "url": "MeasureReport/2e515fbf-e09f-4c5a-90c6-50edf2cf95dd"
    }
  } ]
}