{
  "resourceType": "Bundle",
  "id": "612e6a6602c62a011f2e9f67",
  "type": "transaction",
  "entry": [ {
    "fullUrl": "https://madie.cms.gov/Patient/5741c41a-04ec-4967-83b2-b0d746bd0ed5",
    "resource": {
      "resourceType": "Patient",
      "id": "5741c41a-04ec-4967-83b2-b0d746bd0ed5",
      "meta": {
        "profile": [ "http://hl7.org/fhir/us/qicore/StructureDefinition/qicore-patient" ]
      },
      "text": {
        "status": "generated",
        "div": "<div xmlns=\"http://www.w3.org/1999/xhtml\"><div class=\"hapiHeaderText\">INRGT3_1DayAFEnc <b>NUMERPASS </b></div><table class=\"hapiPropertyTable\"><tbody><tr><td>Identifier</td><td>349f9a26f7e54660aa55a3feeea5c73c</td></tr><tr><td>Date of birth</td><td><span>02 January 1974</span></td></tr></tbody></table></div>"
      },
      "extension": [ {
        "url": "http://hl7.org/fhir/us/core/StructureDefinition/us-core-race",
        "extension": [ {
          "url": "ombCategory",
          "valueCoding": {
            "system": "urn:oid:2.16.840.1.113883.6.238",
            "code": "1002-5",
            "display": "American Indian or Alaska Native",
            "userSelected": true
          }
        }, {
          "url": "text",
          "valueString": "American Indian or Alaska Native"
        } ]
      }, {
        "url": "http://hl7.org/fhir/us/core/StructureDefinition/us-core-ethnicity",
        "extension": [ {
          "url": "ombCategory",
          "valueCoding": {
            "system": "urn:oid:2.16.840.1.113883.6.238",
            "code": "2135-2",
            "display": "Hispanic or Latino",
            "userSelected": true
          }
        }, {
          "url": "text",
          "valueString": "Hispanic or Latino"
        } ]
      } ],
      "identifier": [ {
        "type": {
          "coding": [ {
            "system": "http://terminology.hl7.org/CodeSystem/v2-0203",
            "code": "MR"
          } ]
        },
        "system": "https://bonnie-fhir.healthit.gov/",
        "value": "612e6a6602c62a011f2e9f67"
      } ],
      "active": true,
      "name": [ {
        "use": "usual",
        "family": "NUMERPass",
        "given": [ "INRGT31DayAFEnc" ]
      } ],
      "gender": "male",
      "birthDate": "1975-01-02"
    },
    "request": {
      "method": "PUT",
      "url": "Patient/5741c41a-04ec-4967-83b2-b0d746bd0ed5"
    }
  }, {
    "fullUrl": "https://madie.cms.gov/Encounter/d4dde6da-5ff5-472a-9f7a-b160ecefa94e",
    "resource": {
      "resourceType": "Encounter",
      "id": "d4dde6da-5ff5-472a-9f7a-b160ecefa94e",
      "meta": {
        "profile": [ "http://hl7.org/fhir/us/qicore/StructureDefinition/qicore-encounter" ]
      },
      "status": "finished",
      "class": {
        "system": "http://terminology.hl7.org/CodeSystem/v3-ActCode",
        "code": "IMP",
        "display": "inpatient encounter"
      },
      "type": [ {
        "coding": [ {
          "system": "http://snomed.info/sct",
          "code": "8715000"
        } ]
      } ],
      "subject": {
        "reference": "Patient/5741c41a-04ec-4967-83b2-b0d746bd0ed5"
      },
      "period": {
        "start": "2026-11-01T08:00:00.000+00:00",
        "end": "2026-11-26T08:15:00.000+00:00"
      },
      "length": {
        "value": 25,
        "unit": "days"
      }
    },
    "request": {
      "method": "PUT",
      "url": "Encounter/d4dde6da-5ff5-472a-9f7a-b160ecefa94e"
    }
  }, {
    "fullUrl": "https://madie.cms.gov/Coverage/0e048ee7-66e7-44ea-90cc-11ebfc7dabb8",
    "resource": {
      "resourceType": "Coverage",
      "id": "0e048ee7-66e7-44ea-90cc-11ebfc7dabb8",
      "status": "active",
      "beneficiary": {
        "reference": "Patient/5741c41a-04ec-4967-83b2-b0d746bd0ed5"
      },
      "period": {
        "start": "1975-01-02T08:00:00.000+00:00"
      },
      "payor": [ {
        "reference": "Organization/e7ef986d-a617-484a-9085-f048c19646b3"
      } ]
    },
    "request": {
      "method": "PUT",
      "url": "Coverage/0e048ee7-66e7-44ea-90cc-11ebfc7dabb8"
    }
  }, {
    "fullUrl": "https://madie.cms.gov/Observation/807213e4-5a29-4a16-b982-6eea77d85b0b",
    "resource": {
      "resourceType": "Observation",
      "id": "807213e4-5a29-4a16-b982-6eea77d85b0b",
      "meta": {
        "profile": [ "http://hl7.org/fhir/us/qicore/StructureDefinition/qicore-observation-lab" ]
      },
      "status": "amended",
      "category": [ {
        "coding": [ {
          "system": "http://terminology.hl7.org/CodeSystem/observation-category",
          "code": "laboratory",
          "display": "Laboratory"
        } ]
      } ],
      "code": {
        "coding": [ {
          "system": "http://loinc.org",
          "code": "34714-6"
        } ]
      },
      "subject": {
        "reference": "Patient/5741c41a-04ec-4967-83b2-b0d746bd0ed5"
      },
      "issued": "2026-11-01T09:00:00.000+00:00",
      "valueQuantity": {
        "value": 3.5,
        "unit": "{INR}"
      }
    },
    "request": {
      "method": "PUT",
      "url": "Observation/807213e4-5a29-4a16-b982-6eea77d85b0b"
    }
  }, {
    "fullUrl": "https://madie.cms.gov/Organization/e7ef986d-a617-484a-9085-f048c19646b3",
    "resource": {
      "resourceType": "Organization",
      "id": "e7ef986d-a617-484a-9085-f048c19646b3",
      "meta": {
        "profile": [ "http://hl7.org/fhir/us/qicore/StructureDefinition/qicore-organization" ]
      },
      "identifier": [ {
        "use": "temp",
        "system": "urn:oid:2.16.840.1.113883.4.4",
        "value": "21-3259825"
      } ],
      "active": true,
      "type": [ {
        "coding": [ {
          "system": "http://terminology.hl7.org/CodeSystem/organization-type",
          "code": "pay",
          "display": "Payer"
        } ]
      } ],
      "name": "Blue Cross Blue Shield of Texas",
      "telecom": [ {
        "system": "phone",
        "value": "(+1) 972-766-6900"
      } ],
      "address": [ {
        "use": "billing",
        "type": "postal",
        "line": [ "P.O. Box 660044" ],
        "city": "Dallas",
        "state": "TX",
        "postalCode": "75266-0044",
        "country": "USA"
      } ]
    },
    "request": {
      "method": "PUT",
      "url": "Organization/e7ef986d-a617-484a-9085-f048c19646b3"
    }
  }, {
    "fullUrl": "https://madie.cms.gov/Practitioner/781ef005-a458-4614-835a-1f66d1ea20ca",
    "resource": {
      "resourceType": "Practitioner",
      "id": "781ef005-a458-4614-835a-1f66d1ea20ca",
      "identifier": [ {
        "system": "http://hl7.org/fhir/sid/us-npi",
        "value": "123456"
      } ],
      "name": [ {
        "family": "Evil",
        "prefix": [ "Dr" ]
      } ]
    },
    "request": {
      "method": "PUT",
      "url": "Practitioner/781ef005-a458-4614-835a-1f66d1ea20ca"
    }
  }, {
    "fullUrl": "https://madie.cms.gov/MeasureReport/10dddf5e-f066-457d-b056-01329b17c73e",
    "resource": {
      "resourceType": "MeasureReport",
      "id": "10dddf5e-f066-457d-b056-01329b17c73e",
      "meta": {
        "profile": [ "http://hl7.org/fhir/us/cqfmeasures/StructureDefinition/test-case-cqfm" ]
      },
      "contained": [ {
        "resourceType": "Parameters",
        "id": "bf910946-8694-42d1-b7cc-d77949fed8f0-parameters",
        "parameter": [ {
          "name": "subject",
          "valueString": "5741c41a-04ec-4967-83b2-b0d746bd0ed5"
        } ]
      } ],
      "extension": [ {
        "url": "http://hl7.org/fhir/StructureDefinition/cqf-inputParameters",
        "valueReference": {
          "reference": "#bf910946-8694-42d1-b7cc-d77949fed8f0-parameters"
        }
      }, {
        "url": "http://hl7.org/fhir/us/cqfmeasures/StructureDefinition/cqfm-testCaseDescription",
        "valueMarkdown": "INR > 3 = 1 day after start of IP encounter\n"
      } ],
      "modifierExtension": [ {
        "url": "http://hl7.org/fhir/us/cqfmeasures/StructureDefinition/cqfm-isTestCase",
        "valueBoolean": true
      } ],
      "status": "complete",
      "type": "individual",
      "measure": "https://madie.cms.gov/Measure/CMS108FHIRVTEProphylaxis",
      "period": {
        "start": "2026-01-01",
        "end": "2026-12-31"
      },
      "group": [ {
        "id": "Group_1",
        "population": [ {
          "id": "InitialPopulation_1",
          "code": {
            "coding": [ {
              "system": "http://terminology.hl7.org/CodeSystem/measure-population",
              "code": "initial-population",
              "display": "Initial Population"
            } ]
          },
          "count": 1
        }, {
          "id": "Denominator_1",
          "code": {
            "coding": [ {
              "system": "http://terminology.hl7.org/CodeSystem/measure-population",
              "code": "denominator",
              "display": "Denominator"
            } ]
          },
          "count": 1
        }, {
          "id": "DenominatorExclusion_1",
          "code": {
            "coding": [ {
              "system": "http://terminology.hl7.org/CodeSystem/measure-population",
              "code": "denominator-exclusion",
              "display": "Denominator Exclusion"
            } ]
          },
          "count": 0
        }, {
          "id": "Numerator_1",
          "code": {
            "coding": [ {
              "system": "http://terminology.hl7.org/CodeSystem/measure-population",
              "code": "numerator",
              "display": "Numerator"
            } ]
          },
          "count": 1
        } ],
        "measureScore": {
          "value": 0.0
        }
      } ],
      "evaluatedResource": [ {
        "reference": "Patient/5741c41a-04ec-4967-83b2-b0d746bd0ed5"
      }, {
        "reference": "Encounter/d4dde6da-5ff5-472a-9f7a-b160ecefa94e"
      }, {
        "reference": "Coverage/0e048ee7-66e7-44ea-90cc-11ebfc7dabb8"
      }, {
        "reference": "Observation/807213e4-5a29-4a16-b982-6eea77d85b0b"
      }, {
        "reference": "Organization/e7ef986d-a617-484a-9085-f048c19646b3"
      }, {
        "reference": "Practitioner/781ef005-a458-4614-835a-1f66d1ea20ca"
      } ]
    },
    "request": {
      "method": "PUT",
      "url": "MeasureReport/10dddf5e-f066-457d-b056-01329b17c73e"
    }
  } ]
}