{
  "resourceType": "Bundle",
  "id": "DENEXPass-66yoWAIFrailEncOnJan1OfYrB4MP",
  "type": "transaction",
  "entry": [ {
    "fullUrl": "https://madie.cms.gov/Patient/0c9d7ae1-4643-4c50-bc48-0274a3f2d234",
    "resource": {
      "resourceType": "Patient",
      "id": "0c9d7ae1-4643-4c50-bc48-0274a3f2d234",
      "meta": {
        "profile": [ "http://hl7.org/fhir/us/qicore/StructureDefinition/qicore-patient" ]
      },
      "extension": [ {
        "url": "http://hl7.org/fhir/us/core/StructureDefinition/us-core-race",
        "extension": [ {
          "url": "ombCategory",
          "valueCoding": {
            "system": "urn:oid:2.16.840.1.113883.6.238",
            "code": "2028-9",
            "display": "Asian"
          }
        }, {
          "url": "text",
          "valueString": "Asian"
        } ]
      }, {
        "url": "http://hl7.org/fhir/us/core/StructureDefinition/us-core-ethnicity",
        "extension": [ {
          "url": "ombCategory",
          "valueCoding": {
            "system": "urn:oid:2.16.840.1.113883.6.238",
            "code": "2135-2",
            "display": "Hispanic or Latino"
          }
        }, {
          "url": "text",
          "valueString": "Hispanic or Latino"
        } ]
      } ],
      "identifier": [ {
        "system": "http://hospital.smarthealthit.org",
        "value": "999999995"
      } ],
      "name": [ {
        "family": "Bertha",
        "given": [ "Betty" ]
      } ],
      "gender": "female",
      "birthDate": "1959-12-31"
    },
    "request": {
      "method": "PUT",
      "url": "Patient/0c9d7ae1-4643-4c50-bc48-0274a3f2d234"
    }
  }, {
    "fullUrl": "https://madie.cms.gov/Encounter/938833c2-8201-43b0-87e2-147343c87173",
    "resource": {
      "resourceType": "Encounter",
      "id": "938833c2-8201-43b0-87e2-147343c87173",
      "meta": {
        "profile": [ "http://hl7.org/fhir/us/qicore/StructureDefinition/qicore-encounter" ]
      },
      "status": "finished",
      "class": {
        "system": "http://terminology.hl7.org/CodeSystem/v3-ActCode",
        "code": "AMB",
        "display": "ambulatory"
      },
      "type": [ {
        "coding": [ {
          "system": "http://snomed.info/sct",
          "code": "185463005",
          "display": "Visit out of hours (procedure)"
        } ]
      } ],
      "subject": {
        "reference": "Patient/0c9d7ae1-4643-4c50-bc48-0274a3f2d234"
      },
      "period": {
        "start": "2026-01-01T00:00:00.000+00:00",
        "end": "2026-01-01T00:00:00.000+00:00"
      }
    },
    "request": {
      "method": "PUT",
      "url": "Encounter/938833c2-8201-43b0-87e2-147343c87173"
    }
  }, {
    "fullUrl": "https://madie.cms.gov/Condition/4fd57c29-9427-40dd-8b22-4b9a3b521c28",
    "resource": {
      "resourceType": "Condition",
      "id": "4fd57c29-9427-40dd-8b22-4b9a3b521c28",
      "meta": {
        "profile": [ "http://hl7.org/fhir/us/qicore/StructureDefinition/qicore-condition-encounter-diagnosis" ]
      },
      "clinicalStatus": {
        "coding": [ {
          "system": "http://terminology.hl7.org/CodeSystem/condition-clinical",
          "code": "active"
        } ]
      },
      "category": [ {
        "coding": [ {
          "system": "http://terminology.hl7.org/CodeSystem/condition-category",
          "code": "encounter-diagnosis",
          "display": "Encounter Diagnosis"
        } ]
      } ],
      "code": {
        "coding": [ {
          "system": "http://snomed.info/sct",
          "code": "102781000119107",
          "display": "Sensory neuropathy due to type 1 diabetes mellitus (disorder)"
        } ]
      },
      "subject": {
        "reference": "Patient/0c9d7ae1-4643-4c50-bc48-0274a3f2d234"
      },
      "onsetDateTime": "2026-01-01T00:00:00.000+00:00"
    },
    "request": {
      "method": "PUT",
      "url": "Condition/4fd57c29-9427-40dd-8b22-4b9a3b521c28"
    }
  }, {
    "fullUrl": "https://madie.cms.gov/Encounter/938833c2-8201-43b0-87e2-147343c87173.1",
    "resource": {
      "resourceType": "Encounter",
      "id": "938833c2-8201-43b0-87e2-147343c87173.1",
      "meta": {
        "profile": [ "http://hl7.org/fhir/us/qicore/StructureDefinition/qicore-encounter" ]
      },
      "status": "finished",
      "class": {
        "system": "http://terminology.hl7.org/CodeSystem/v3-ActCode",
        "code": "AMB",
        "display": "ambulatory"
      },
      "type": [ {
        "coding": [ {
          "system": "http://snomed.info/sct",
          "code": "10378005",
          "display": "Hospital admission, emergency, from emergency room, accidental injury (procedure)"
        } ]
      } ],
      "subject": {
        "reference": "Patient/0c9d7ae1-4643-4c50-bc48-0274a3f2d234"
      },
      "period": {
        "start": "2024-01-01T00:00:00.000+00:00",
        "end": "2024-01-01T00:00:00.000+00:00"
      },
      "diagnosis": [ {
        "condition": {
          "reference": "Condition/af146d17-aa60-4800-a120-308dde18d380"
        }
      } ]
    },
    "request": {
      "method": "PUT",
      "url": "Encounter/938833c2-8201-43b0-87e2-147343c87173.1"
    }
  }, {
    "fullUrl": "https://madie.cms.gov/Condition/af146d17-aa60-4800-a120-308dde18d380",
    "resource": {
      "resourceType": "Condition",
      "id": "af146d17-aa60-4800-a120-308dde18d380",
      "meta": {
        "profile": [ "http://hl7.org/fhir/us/qicore/StructureDefinition/qicore-condition-encounter-diagnosis" ]
      },
      "clinicalStatus": {
        "coding": [ {
          "system": "http://terminology.hl7.org/CodeSystem/condition-clinical",
          "code": "active"
        } ]
      },
      "category": [ {
        "coding": [ {
          "system": "http://terminology.hl7.org/CodeSystem/condition-category",
          "code": "encounter-diagnosis",
          "display": "Encounter Diagnosis"
        } ]
      } ],
      "code": {
        "coding": [ {
          "system": "http://snomed.info/sct",
          "code": "100721000119109",
          "display": "High grade astrocytoma of brain (disorder)"
        } ]
      },
      "subject": {
        "reference": "Patient/0c9d7ae1-4643-4c50-bc48-0274a3f2d234"
      },
      "onsetDateTime": "2026-01-01T00:00:00.000+00:00"
    },
    "request": {
      "method": "PUT",
      "url": "Condition/af146d17-aa60-4800-a120-308dde18d380"
    }
  }, {
    "fullUrl": "https://madie.cms.gov/DeviceRequest/2aa6f51f-15fb-443d-8236-1df83a7239f5",
    "resource": {
      "resourceType": "DeviceRequest",
      "id": "2aa6f51f-15fb-443d-8236-1df83a7239f5",
      "meta": {
        "profile": [ "http://hl7.org/fhir/us/qicore/StructureDefinition/qicore-devicerequest" ]
      },
      "modifierExtension": [ {
        "url": "http://hl7.org/fhir/5.0/StructureDefinition/extension-DeviceRequest.doNotPerform",
        "valueBoolean": false
      } ],
      "status": "completed",
      "intent": "order",
      "codeCodeableConcept": {
        "coding": [ {
          "system": "http://snomed.info/sct",
          "code": "183240000",
          "display": "Self-propelled wheelchair (physical object)"
        } ]
      },
      "subject": {
        "reference": "Patient/0c9d7ae1-4643-4c50-bc48-0274a3f2d234"
      },
      "authoredOn": "2026-01-01T00:00:00.000+00:00"
    },
    "request": {
      "method": "PUT",
      "url": "DeviceRequest/2aa6f51f-15fb-443d-8236-1df83a7239f5"
    }
  }, {
    "fullUrl": "https://madie.cms.gov/MeasureReport/bde81f56-68a5-4cff-849e-d768bd2e48a1",
    "resource": {
      "resourceType": "MeasureReport",
      "id": "bde81f56-68a5-4cff-849e-d768bd2e48a1",
      "meta": {
        "profile": [ "http://hl7.org/fhir/us/cqfmeasures/StructureDefinition/test-case-cqfm" ]
      },
      "contained": [ {
        "resourceType": "Parameters",
        "id": "d525801f-50a0-439d-995b-2a9629c05da1-parameters",
        "parameter": [ {
          "name": "subject",
          "valueString": "0c9d7ae1-4643-4c50-bc48-0274a3f2d234"
        } ]
      } ],
      "extension": [ {
        "url": "http://hl7.org/fhir/StructureDefinition/cqf-inputParameters",
        "valueReference": {
          "reference": "#d525801f-50a0-439d-995b-2a9629c05da1-parameters"
        }
      }, {
        "url": "http://hl7.org/fhir/us/cqfmeasures/StructureDefinition/cqfm-testCaseDescription",
        "valueMarkdown": "Patient 66yo w/ an Office Visit  Encounter 1/1 of the MP, Diabetes Condition ending 1/1 during the MP, & an Advanced Illness & Frailty Encounter that starts on 1/1 of the year before the MP."
      } ],
      "modifierExtension": [ {
        "url": "http://hl7.org/fhir/us/cqfmeasures/StructureDefinition/cqfm-isTestCase",
        "valueBoolean": true
      } ],
      "status": "complete",
      "type": "individual",
      "measure": "https://madie.cms.gov/Measure/CMS131FHIRDiabetesEyeExam",
      "period": {
        "start": "2026-01-01",
        "end": "2026-12-31"
      },
      "group": [ {
        "id": "Group_1",
        "population": [ {
          "id": "InitialPopulation_1",
          "code": {
            "coding": [ {
              "system": "http://terminology.hl7.org/CodeSystem/measure-population",
              "code": "initial-population",
              "display": "Initial Population"
            } ]
          },
          "count": 1
        }, {
          "id": "Denominator_1",
          "code": {
            "coding": [ {
              "system": "http://terminology.hl7.org/CodeSystem/measure-population",
              "code": "denominator",
              "display": "Denominator"
            } ]
          },
          "count": 1
        }, {
          "id": "DenominatorExclusion_1",
          "code": {
            "coding": [ {
              "system": "http://terminology.hl7.org/CodeSystem/measure-population",
              "code": "denominator-exclusion",
              "display": "Denominator Exclusion"
            } ]
          },
          "count": 1
        }, {
          "id": "Numerator_1",
          "code": {
            "coding": [ {
              "system": "http://terminology.hl7.org/CodeSystem/measure-population",
              "code": "numerator",
              "display": "Numerator"
            } ]
          },
          "count": 0
        } ],
        "measureScore": {
          "value": 1.0
        }
      } ],
      "evaluatedResource": [ {
        "reference": "Patient/0c9d7ae1-4643-4c50-bc48-0274a3f2d234"
      }, {
        "reference": "Encounter/938833c2-8201-43b0-87e2-147343c87173"
      }, {
        "reference": "Condition/4fd57c29-9427-40dd-8b22-4b9a3b521c28"
      }, {
        "reference": "Encounter/938833c2-8201-43b0-87e2-147343c87173.1"
      }, {
        "reference": "Condition/af146d17-aa60-4800-a120-308dde18d380"
      }, {
        "reference": "DeviceRequest/2aa6f51f-15fb-443d-8236-1df83a7239f5"
      } ]
    },
    "request": {
      "method": "PUT",
      "url": "MeasureReport/bde81f56-68a5-4cff-849e-d768bd2e48a1"
    }
  } ]
}