{
  "resourceType": "Bundle",
  "id": "6109658e98086b538055b9db",
  "type": "collection",
  "entry": [ {
    "fullUrl": "https://madie.cms.gov/Patient/2e8da2d1-f38b-4c84-af43-51378f5af1c5",
    "resource": {
      "resourceType": "Patient",
      "id": "2e8da2d1-f38b-4c84-af43-51378f5af1c5",
      "meta": {
        "profile": [ "http://hl7.org/fhir/us/qicore/StructureDefinition/qicore-patient" ]
      },
      "extension": [ {
        "url": "http://hl7.org/fhir/us/core/StructureDefinition/us-core-race",
        "extension": [ {
          "url": "ombCategory",
          "valueCoding": {
            "system": "urn:oid:2.16.840.1.113883.6.238",
            "code": "2054-5",
            "display": "Black or African American",
            "userSelected": true
          }
        }, {
          "url": "text",
          "valueString": "Black or African American"
        } ]
      }, {
        "url": "http://hl7.org/fhir/us/core/StructureDefinition/us-core-ethnicity",
        "extension": [ {
          "url": "ombCategory",
          "valueCoding": {
            "system": "urn:oid:2.16.840.1.113883.6.238",
            "code": "2186-5",
            "display": "Not Hispanic or Latino",
            "userSelected": true
          }
        }, {
          "url": "text",
          "valueString": "Not Hispanic or Latino"
        } ]
      } ],
      "identifier": [ {
        "type": {
          "coding": [ {
            "system": "http://terminology.hl7.org/CodeSystem/v2-0203",
            "code": "MR"
          } ]
        },
        "system": "https://GoodHealthCare.com",
        "value": "6109658e98086b538055b9db"
      } ],
      "active": true,
      "name": [ {
        "use": "usual",
        "family": "DENEXCEPFail",
        "given": [ "OpticExamMRB4EncEdge" ]
      } ],
      "gender": "male",
      "birthDate": "1984-08-12"
    }
  }, {
    "fullUrl": "https://madie.cms.gov/Condition/49e10dec-82be-46f7-b5f9-fd52e90cbdaf",
    "resource": {
      "resourceType": "Condition",
      "id": "49e10dec-82be-46f7-b5f9-fd52e90cbdaf",
      "meta": {
        "profile": [ "http://hl7.org/fhir/us/qicore/StructureDefinition/qicore-condition-problems-health-concerns" ]
      },
      "clinicalStatus": {
        "coding": [ {
          "system": "http://terminology.hl7.org/CodeSystem/condition-clinical",
          "code": "active",
          "display": "active",
          "userSelected": true
        } ]
      },
      "category": [ {
        "coding": [ {
          "system": "http://terminology.hl7.org/CodeSystem/condition-category",
          "code": "problem-list-item",
          "display": "Problem List Item",
          "userSelected": true
        } ]
      } ],
      "code": {
        "coding": [ {
          "system": "http://snomed.info/sct",
          "version": "http://snomed.info/sct/731000124108/version/20250301",
          "code": "50485007",
          "display": "Low tension glaucoma (disorder)"
        } ]
      },
      "subject": {
        "reference": "Patient/2e8da2d1-f38b-4c84-af43-51378f5af1c5"
      },
      "onsetDateTime": "2021-01-02T08:00:00.000+00:00"
    }
  }, {
    "fullUrl": "https://madie.cms.gov/Observation/23406614-51b1-47af-890e-cda80c79f8d1",
    "resource": {
      "resourceType": "Observation",
      "id": "23406614-51b1-47af-890e-cda80c79f8d1",
      "meta": {
        "profile": [ "http://hl7.org/fhir/us/qicore/StructureDefinition/qicore-observation-clinical-result" ]
      },
      "status": "final",
      "category": [ {
        "coding": [ {
          "system": "http://terminology.hl7.org/CodeSystem/observation-category",
          "code": "laboratory",
          "display": "Laboratory",
          "userSelected": true
        } ]
      }, {
        "coding": [ {
          "system": "http://terminology.hl7.org/CodeSystem/observation-category",
          "code": "survey"
        } ]
      } ],
      "code": {
        "coding": [ {
          "system": "http://loinc.org",
          "code": "71487-3"
        } ]
      },
      "subject": {
        "reference": "Patient/2e8da2d1-f38b-4c84-af43-51378f5af1c5"
      },
      "effectivePeriod": {
        "start": "2026-08-27T13:00:00.000+00:00",
        "end": "2026-08-27T13:15:00.000+00:00"
      },
      "valueString": "Documented, progressive thinning of the neuroretinal rim with an associated increase in cupping of the optic disc"
    }
  }, {
    "fullUrl": "https://madie.cms.gov/Observation/a68a2ee7-1574-4dd4-bfcd-17dbeec5bda0",
    "resource": {
      "resourceType": "Observation",
      "id": "a68a2ee7-1574-4dd4-bfcd-17dbeec5bda0",
      "meta": {
        "profile": [ "http://hl7.org/fhir/us/qicore/StructureDefinition/qicore-observationcancelled" ]
      },
      "extension": [ {
        "url": "http://hl7.org/fhir/us/qicore/StructureDefinition/qicore-notDoneReason",
        "valueCodeableConcept": {
          "coding": [ {
            "system": "http://snomed.info/sct",
            "version": "http://snomed.info/sct/731000124108/version/202303",
            "code": "410536001",
            "display": "Contraindicated (qualifier value)"
          } ]
        }
      } ],
      "status": "cancelled",
      "category": [ {
        "coding": [ {
          "system": "http://snomed.info/sct",
          "version": "http://snomed.info/sct/731000124108/version/202303",
          "code": "428119001",
          "display": "Procedure not indicated (situation)",
          "userSelected": true
        } ]
      }, {
        "coding": [ {
          "system": "http://terminology.hl7.org/CodeSystem/observation-category",
          "code": "survey"
        } ]
      } ],
      "code": {
        "coding": [ {
          "system": "http://loinc.org",
          "version": "2.73",
          "code": "71487-3"
        } ]
      },
      "subject": {
        "reference": "Patient/2e8da2d1-f38b-4c84-af43-51378f5af1c5"
      },
      "effectiveDateTime": "2026-05-05T04:59:00.000+00:00",
      "issued": "2026-05-05T04:59:00.000+00:00",
      "dataAbsentReason": {
        "coding": [ {
          "system": "http://terminology.hl7.org/CodeSystem/data-absent-reason",
          "code": "unknown",
          "display": "Unknown"
        } ]
      }
    }
  }, {
    "fullUrl": "https://madie.cms.gov/Encounter/378a71ec-23c2-4f6e-8a61-a28f75f1fe8c",
    "resource": {
      "resourceType": "Encounter",
      "id": "378a71ec-23c2-4f6e-8a61-a28f75f1fe8c",
      "meta": {
        "profile": [ "http://hl7.org/fhir/us/qicore/StructureDefinition/qicore-encounter" ]
      },
      "status": "finished",
      "class": {
        "system": "http://terminology.hl7.org/CodeSystem/v3-ActCode",
        "code": "AMB",
        "display": "ambulatory",
        "userSelected": true
      },
      "type": [ {
        "coding": [ {
          "system": "http://www.ama-assn.org/go/cpt",
          "code": "92002"
        } ]
      } ],
      "subject": {
        "reference": "Patient/2e8da2d1-f38b-4c84-af43-51378f5af1c5"
      },
      "period": {
        "start": "2026-05-05T05:00:00.000+00:00",
        "end": "2026-05-05T05:45:00.000+00:00"
      },
      "length": {
        "value": 0,
        "unit": "days"
      }
    }
  }, {
    "fullUrl": "https://madie.cms.gov/MeasureReport/cbebec6d-2855-4073-ab18-5c5b044727fc",
    "resource": {
      "resourceType": "MeasureReport",
      "id": "cbebec6d-2855-4073-ab18-5c5b044727fc",
      "meta": {
        "profile": [ "http://hl7.org/fhir/us/cqfmeasures/StructureDefinition/test-case-cqfm" ]
      },
      "contained": [ {
        "resourceType": "Parameters",
        "id": "3132ea97-bba0-4520-8871-57ad23ef4e82-parameters",
        "parameter": [ {
          "name": "subject",
          "valueString": "2e8da2d1-f38b-4c84-af43-51378f5af1c5"
        } ]
      } ],
      "extension": [ {
        "url": "http://hl7.org/fhir/StructureDefinition/cqf-inputParameters",
        "valueReference": {
          "reference": "#3132ea97-bba0-4520-8871-57ad23ef4e82-parameters"
        }
      }, {
        "url": "http://hl7.org/fhir/us/cqfmeasures/StructureDefinition/cqfm-testCaseDescription",
        "valueMarkdown": "Medical Reason for not performing required Optic Exam is 1 minute before Encounter"
      } ],
      "modifierExtension": [ {
        "url": "http://hl7.org/fhir/us/cqfmeasures/StructureDefinition/cqfm-isTestCase",
        "valueBoolean": true
      } ],
      "status": "complete",
      "type": "individual",
      "measure": "https://madie.cms.gov/Measure/CMS143FHIRPOAGOpticNerveEval",
      "period": {
        "start": "2026-01-01",
        "end": "2026-12-31"
      },
      "group": [ {
        "id": "Group_1",
        "population": [ {
          "id": "InitialPopulation_1",
          "code": {
            "coding": [ {
              "system": "http://terminology.hl7.org/CodeSystem/measure-population",
              "code": "initial-population",
              "display": "Initial Population"
            } ]
          },
          "count": 1
        }, {
          "id": "Denominator_1",
          "code": {
            "coding": [ {
              "system": "http://terminology.hl7.org/CodeSystem/measure-population",
              "code": "denominator",
              "display": "Denominator"
            } ]
          },
          "count": 1
        }, {
          "id": "Numerator_1",
          "code": {
            "coding": [ {
              "system": "http://terminology.hl7.org/CodeSystem/measure-population",
              "code": "numerator",
              "display": "Numerator"
            } ]
          },
          "count": 0
        }, {
          "id": "DenominatorException_1",
          "code": {
            "coding": [ {
              "system": "http://terminology.hl7.org/CodeSystem/measure-population",
              "code": "denominator-exception",
              "display": "Denominator Exception"
            } ]
          },
          "count": 1
        } ],
        "measureScore": {
          "value": 1.0
        }
      } ],
      "evaluatedResource": [ {
        "reference": "Patient/2e8da2d1-f38b-4c84-af43-51378f5af1c5"
      }, {
        "reference": "Condition/49e10dec-82be-46f7-b5f9-fd52e90cbdaf"
      }, {
        "reference": "Observation/23406614-51b1-47af-890e-cda80c79f8d1"
      }, {
        "reference": "Observation/a68a2ee7-1574-4dd4-bfcd-17dbeec5bda0"
      }, {
        "reference": "Encounter/378a71ec-23c2-4f6e-8a61-a28f75f1fe8c"
      } ]
    }
  } ]
}