{
  "resourceType": "Bundle",
  "id": "6323489059967e30c06d0774",
  "type": "transaction",
  "entry": [ {
    "fullUrl": "https://madie.cms.gov/Patient/5c316557-a562-48e4-94fd-76c02ddc388f",
    "resource": {
      "resourceType": "Patient",
      "id": "5c316557-a562-48e4-94fd-76c02ddc388f",
      "meta": {
        "profile": [ "http://hl7.org/fhir/us/qicore/StructureDefinition/qicore-patient" ]
      },
      "extension": [ {
        "url": "http://hl7.org/fhir/us/core/StructureDefinition/us-core-race",
        "extension": [ {
          "url": "ombCategory",
          "valueCoding": {
            "system": "urn:oid:2.16.840.1.113883.6.238",
            "code": "1002-5",
            "display": "American Indian or Alaska Native",
            "userSelected": true
          }
        }, {
          "url": "text",
          "valueString": "American Indian or Alaska Native"
        } ]
      }, {
        "url": "http://hl7.org/fhir/us/core/StructureDefinition/us-core-ethnicity",
        "extension": [ {
          "url": "ombCategory",
          "valueCoding": {
            "system": "urn:oid:2.16.840.1.113883.6.238",
            "code": "2135-2",
            "display": "Hispanic or Latino",
            "userSelected": true
          }
        }, {
          "url": "text",
          "valueString": "Hispanic or Latino"
        } ]
      } ],
      "identifier": [ {
        "system": "http://hospital.smarthealthit.org",
        "value": "999999999"
      } ],
      "name": [ {
        "family": "NUMERPass",
        "given": [ "2OpioidsAtDischarge" ]
      } ],
      "gender": "male",
      "birthDate": "2006-09-15"
    },
    "request": {
      "method": "PUT",
      "url": "Patient/5c316557-a562-48e4-94fd-76c02ddc388f"
    }
  }, {
    "fullUrl": "https://madie.cms.gov/Encounter/9be3a827-8f3d-4c9b-ba07-0f3ae0ba7858",
    "resource": {
      "resourceType": "Encounter",
      "id": "9be3a827-8f3d-4c9b-ba07-0f3ae0ba7858",
      "meta": {
        "profile": [ "http://hl7.org/fhir/us/qicore/StructureDefinition/qicore-encounter" ]
      },
      "status": "finished",
      "class": {
        "system": "http://terminology.hl7.org/CodeSystem/v3-ActCode",
        "code": "IMP",
        "display": "inpatient encounter"
      },
      "type": [ {
        "coding": [ {
          "system": "http://snomed.info/sct",
          "code": "183452005",
          "display": "Emergency hospital admission (procedure)",
          "userSelected": true
        } ]
      } ],
      "subject": {
        "reference": "Patient/5c316557-a562-48e4-94fd-76c02ddc388f"
      },
      "period": {
        "start": "2026-01-01T00:00:00.000+00:00",
        "end": "2026-01-03T00:00:00.000+00:00"
      }
    },
    "request": {
      "method": "PUT",
      "url": "Encounter/9be3a827-8f3d-4c9b-ba07-0f3ae0ba7858"
    }
  }, {
    "fullUrl": "https://madie.cms.gov/MedicationRequest/22be7a39-7e36-4062-8d5f-363bd7090e32",
    "resource": {
      "resourceType": "MedicationRequest",
      "id": "22be7a39-7e36-4062-8d5f-363bd7090e32",
      "meta": {
        "profile": [ "http://hl7.org/fhir/us/qicore/StructureDefinition/qicore-medicationrequest" ]
      },
      "status": "active",
      "intent": "order",
      "category": [ {
        "coding": [ {
          "system": "http://terminology.hl7.org/CodeSystem/medicationrequest-category",
          "code": "discharge",
          "display": "Discharge",
          "userSelected": true
        } ]
      } ],
      "doNotPerform": false,
      "medicationCodeableConcept": {
        "coding": [ {
          "system": "http://www.nlm.nih.gov/research/umls/rxnorm",
          "code": "1014632",
          "display": "acetaminophen 300 MG / oxycodone hydrochloride 7.5 MG Oral Tablet",
          "userSelected": true
        } ]
      },
      "subject": {
        "reference": "Patient/5c316557-a562-48e4-94fd-76c02ddc388f"
      },
      "authoredOn": "2026-01-03T00:00:00.000+00:00",
      "requester": {
        "reference": "Practitioner/c51923d6-2d88-4931-92e0-4f093bb02029"
      }
    },
    "request": {
      "method": "PUT",
      "url": "MedicationRequest/22be7a39-7e36-4062-8d5f-363bd7090e32"
    }
  }, {
    "fullUrl": "https://madie.cms.gov/Practitioner/c51923d6-2d88-4931-92e0-4f093bb02029",
    "resource": {
      "resourceType": "Practitioner",
      "id": "c51923d6-2d88-4931-92e0-4f093bb02029",
      "meta": {
        "profile": [ "http://hl7.org/fhir/us/qicore/StructureDefinition/qicore-practitioner" ]
      },
      "identifier": [ {
        "system": "http://hl7.org/fhir/sid/us-npi",
        "value": "9999999896"
      } ],
      "active": true,
      "name": [ {
        "family": "Ramires",
        "given": [ "Alma" ],
        "prefix": [ "Dr" ]
      } ],
      "address": [ {
        "use": "home",
        "line": [ "534 Erewhon St" ],
        "city": "Netherville",
        "state": "IN",
        "postalCode": "46131"
      } ],
      "qualification": [ {
        "identifier": [ {
          "system": "http://goodhealth.org/prIdentifier",
          "value": "12345"
        } ],
        "code": {
          "coding": [ {
            "system": "http://terminology.hl7.org/CodeSystem/v2-0360|2.7",
            "code": "BS",
            "display": "Bachelor of Science"
          } ],
          "text": "Bachelor of Science"
        },
        "period": {
          "start": "1995"
        },
        "issuer": {
          "display": "Example University"
        }
      } ]
    },
    "request": {
      "method": "PUT",
      "url": "Practitioner/c51923d6-2d88-4931-92e0-4f093bb02029"
    }
  }, {
    "fullUrl": "https://madie.cms.gov/MedicationRequest/54a85821-cf51-444c-9543-8c58e72f4b29",
    "resource": {
      "resourceType": "MedicationRequest",
      "id": "54a85821-cf51-444c-9543-8c58e72f4b29",
      "meta": {
        "profile": [ "http://hl7.org/fhir/us/qicore/StructureDefinition/qicore-medicationrequest" ]
      },
      "status": "active",
      "intent": "order",
      "category": [ {
        "coding": [ {
          "system": "http://terminology.hl7.org/CodeSystem/medicationrequest-category",
          "code": "discharge",
          "display": "Discharge",
          "userSelected": true
        } ]
      } ],
      "doNotPerform": false,
      "medicationCodeableConcept": {
        "coding": [ {
          "system": "http://www.nlm.nih.gov/research/umls/rxnorm",
          "code": "863845",
          "display": "Abuse-Deterrent morphine sulfate 100 MG / naltrexone hydrochloride 4 MG Extended Release Oral Capsule",
          "userSelected": true
        } ]
      },
      "subject": {
        "reference": "Patient/5c316557-a562-48e4-94fd-76c02ddc388f"
      },
      "authoredOn": "2026-01-03T00:00:00.000+00:00",
      "requester": {
        "reference": "Practitioner/c51923d6-2d88-4931-92e0-4f093bb02029"
      }
    },
    "request": {
      "method": "PUT",
      "url": "MedicationRequest/54a85821-cf51-444c-9543-8c58e72f4b29"
    }
  }, {
    "fullUrl": "https://madie.cms.gov/Coverage/1e653a65-5950-4bfa-b0dc-2a73e2af71fb",
    "resource": {
      "resourceType": "Coverage",
      "id": "1e653a65-5950-4bfa-b0dc-2a73e2af71fb",
      "meta": {
        "profile": [ "http://hl7.org/fhir/us/qicore/StructureDefinition/qicore-coverage" ]
      },
      "status": "active",
      "subscriberId": "523435",
      "beneficiary": {
        "reference": "Patient/5c316557-a562-48e4-94fd-76c02ddc388f"
      },
      "relationship": {
        "coding": [ {
          "system": "http://terminology.hl7.org/CodeSystem/subscriber-relationship",
          "code": "self"
        } ]
      },
      "payor": [ {
        "reference": "Organization/0e2cc9c0-b5d2-46de-a2fa-c04673baf663"
      } ]
    },
    "request": {
      "method": "PUT",
      "url": "Coverage/1e653a65-5950-4bfa-b0dc-2a73e2af71fb"
    }
  }, {
    "fullUrl": "https://madie.cms.gov/Organization/0e2cc9c0-b5d2-46de-a2fa-c04673baf663",
    "resource": {
      "resourceType": "Organization",
      "id": "0e2cc9c0-b5d2-46de-a2fa-c04673baf663",
      "meta": {
        "profile": [ "http://hl7.org/fhir/us/qicore/StructureDefinition/qicore-organization" ]
      },
      "identifier": [ {
        "use": "temp",
        "system": "urn:oid:2.16.840.1.113883.4.4",
        "value": "21-3259825"
      } ],
      "active": true,
      "type": [ {
        "coding": [ {
          "system": "http://terminology.hl7.org/CodeSystem/organization-type",
          "code": "pay",
          "display": "Payer"
        } ]
      } ],
      "name": "Blue Cross Blue Shield of Texas",
      "telecom": [ {
        "system": "phone",
        "value": "(+1) 972-766-6900"
      } ],
      "address": [ {
        "use": "billing",
        "type": "postal",
        "line": [ "P.O. Box 660044" ],
        "city": "Dallas",
        "state": "TX",
        "postalCode": "75266-0044",
        "country": "USA"
      } ]
    },
    "request": {
      "method": "PUT",
      "url": "Organization/0e2cc9c0-b5d2-46de-a2fa-c04673baf663"
    }
  }, {
    "fullUrl": "https://madie.cms.gov/MeasureReport/6eeca8b8-f74f-4a65-a3fb-63826b5b4b07",
    "resource": {
      "resourceType": "MeasureReport",
      "id": "6eeca8b8-f74f-4a65-a3fb-63826b5b4b07",
      "meta": {
        "profile": [ "http://hl7.org/fhir/us/cqfmeasures/StructureDefinition/test-case-cqfm" ]
      },
      "contained": [ {
        "resourceType": "Parameters",
        "id": "40060e36-8241-4b18-ab21-d2e48073f029-parameters",
        "parameter": [ {
          "name": "subject",
          "valueString": "5c316557-a562-48e4-94fd-76c02ddc388f"
        } ]
      } ],
      "extension": [ {
        "url": "http://hl7.org/fhir/StructureDefinition/cqf-inputParameters",
        "valueReference": {
          "reference": "#40060e36-8241-4b18-ab21-d2e48073f029-parameters"
        }
      }, {
        "url": "http://hl7.org/fhir/us/cqfmeasures/StructureDefinition/cqfm-testCaseDescription",
        "valueMarkdown": "Encounter 1/1 0000 - 1/3 0000;  age 18, 2 opioids at discharge "
      } ],
      "modifierExtension": [ {
        "url": "http://hl7.org/fhir/us/cqfmeasures/StructureDefinition/cqfm-isTestCase",
        "valueBoolean": true
      } ],
      "status": "complete",
      "type": "individual",
      "measure": "https://madie.cms.gov/Measure/CMS506FHIRSafeUseofOpioids",
      "period": {
        "start": "2026-01-01",
        "end": "2026-12-31"
      },
      "group": [ {
        "id": "Group_1",
        "population": [ {
          "id": "InitialPopulation_1",
          "code": {
            "coding": [ {
              "system": "http://terminology.hl7.org/CodeSystem/measure-population",
              "code": "initial-population",
              "display": "Initial Population"
            } ]
          },
          "count": 1
        }, {
          "id": "Denominator_1",
          "code": {
            "coding": [ {
              "system": "http://terminology.hl7.org/CodeSystem/measure-population",
              "code": "denominator",
              "display": "Denominator"
            } ]
          },
          "count": 1
        }, {
          "id": "DenominatorExclusion_1",
          "code": {
            "coding": [ {
              "system": "http://terminology.hl7.org/CodeSystem/measure-population",
              "code": "denominator-exclusion",
              "display": "Denominator Exclusion"
            } ]
          },
          "count": 0
        }, {
          "id": "Numerator_1",
          "code": {
            "coding": [ {
              "system": "http://terminology.hl7.org/CodeSystem/measure-population",
              "code": "numerator",
              "display": "Numerator"
            } ]
          },
          "count": 1
        } ],
        "measureScore": {
          "value": 0.0
        }
      } ],
      "evaluatedResource": [ {
        "reference": "Patient/5c316557-a562-48e4-94fd-76c02ddc388f"
      }, {
        "reference": "Encounter/9be3a827-8f3d-4c9b-ba07-0f3ae0ba7858"
      }, {
        "reference": "MedicationRequest/22be7a39-7e36-4062-8d5f-363bd7090e32"
      }, {
        "reference": "Practitioner/c51923d6-2d88-4931-92e0-4f093bb02029"
      }, {
        "reference": "MedicationRequest/54a85821-cf51-444c-9543-8c58e72f4b29"
      }, {
        "reference": "Coverage/1e653a65-5950-4bfa-b0dc-2a73e2af71fb"
      }, {
        "reference": "Organization/0e2cc9c0-b5d2-46de-a2fa-c04673baf663"
      } ]
    },
    "request": {
      "method": "PUT",
      "url": "MeasureReport/6eeca8b8-f74f-4a65-a3fb-63826b5b4b07"
    }
  } ]
}