{
  "resourceType": "Bundle",
  "id": "l1f044ef3e654daa5921",
  "type": "transaction",
  "entry": [ {
    "fullUrl": "https://madie.cms.gov/Patient/ccc7deaf-98b7-4dad-b190-8fee10f2cf77",
    "resource": {
      "resourceType": "Patient",
      "id": "ccc7deaf-98b7-4dad-b190-8fee10f2cf77",
      "meta": {
        "profile": [ "http://hl7.org/fhir/us/qicore/StructureDefinition/qicore-patient" ]
      },
      "extension": [ {
        "url": "http://hl7.org/fhir/us/core/StructureDefinition/us-core-race",
        "extension": [ {
          "url": "ombCategory",
          "valueCoding": {
            "system": "urn:oid:2.16.840.1.113883.6.238",
            "code": "2028-9",
            "display": "Asian",
            "userSelected": true
          }
        }, {
          "url": "text",
          "valueString": "Asian"
        } ]
      }, {
        "url": "http://hl7.org/fhir/us/core/StructureDefinition/us-core-ethnicity",
        "extension": [ {
          "url": "ombCategory",
          "valueCoding": {
            "system": "urn:oid:2.16.840.1.113883.6.238",
            "code": "2186-5",
            "display": "Not Hispanic or Latino",
            "userSelected": true
          }
        }, {
          "url": "text",
          "valueString": "Not Hispanic or Latino"
        } ]
      }, {
        "url": "http://hl7.org/fhir/us/core/StructureDefinition/us-core-sex",
        "valueCode": "248152002"
      } ],
      "identifier": [ {
        "type": {
          "coding": [ {
            "system": "http://terminology.hl7.org/CodeSystem/v2-0203",
            "code": "MR"
          } ]
        },
        "system": "https://bonnie-fhir.healthit.gov/",
        "value": "l1f044ef3e654daa5921"
      } ],
      "name": [ {
        "family": "DENEXCEP2PASS",
        "given": [ "MedicalReasonForNoPClDuringED" ]
      } ],
      "gender": "female",
      "birthDate": "1981-09-05"
    },
    "request": {
      "method": "PUT",
      "url": "Patient/ccc7deaf-98b7-4dad-b190-8fee10f2cf77"
    }
  }, {
    "fullUrl": "https://madie.cms.gov/Encounter/73a94d9c-6256-4d66-a0ed-3055e336e12b",
    "resource": {
      "resourceType": "Encounter",
      "id": "73a94d9c-6256-4d66-a0ed-3055e336e12b",
      "meta": {
        "profile": [ "http://hl7.org/fhir/us/qicore/StructureDefinition/qicore-encounter" ]
      },
      "status": "finished",
      "class": {
        "system": "http://terminology.hl7.org/CodeSystem/v3-ActCode",
        "code": "EMER",
        "display": "emergency",
        "userSelected": true
      },
      "type": [ {
        "coding": [ {
          "system": "http://snomed.info/sct",
          "version": "2020-09",
          "code": "4525004",
          "display": "Emergency department patient visit",
          "userSelected": true
        } ]
      } ],
      "subject": {
        "reference": "Patient/ccc7deaf-98b7-4dad-b190-8fee10f2cf77"
      },
      "period": {
        "start": "2026-10-09T05:00:00.000+00:00",
        "end": "2026-10-13T17:00:00.000+00:00"
      },
      "reasonReference": [ {
        "reference": "Condition/eeb63b34-aebf-4a45-9af7-d9e229800133"
      } ]
    },
    "request": {
      "method": "PUT",
      "url": "Encounter/73a94d9c-6256-4d66-a0ed-3055e336e12b"
    }
  }, {
    "fullUrl": "https://madie.cms.gov/Condition/eeb63b34-aebf-4a45-9af7-d9e229800133",
    "resource": {
      "resourceType": "Condition",
      "id": "eeb63b34-aebf-4a45-9af7-d9e229800133",
      "meta": {
        "profile": [ "http://hl7.org/fhir/us/qicore/StructureDefinition/qicore-condition-problems-health-concerns" ]
      },
      "clinicalStatus": {
        "coding": [ {
          "system": "http://terminology.hl7.org/CodeSystem/condition-clinical",
          "code": "active",
          "display": "Active",
          "userSelected": true
        } ]
      },
      "category": [ {
        "coding": [ {
          "system": "http://terminology.hl7.org/CodeSystem/condition-category",
          "code": "problem-list-item",
          "display": "Problem List Item",
          "userSelected": true
        } ]
      } ],
      "code": {
        "coding": [ {
          "system": "http://hl7.org/fhir/sid/icd-10-cm",
          "code": "I21.21",
          "display": "ST elevation (STEMI) myocardial infarction involving left circumflex coronary artery",
          "userSelected": true
        } ]
      },
      "subject": {
        "reference": "Patient/ccc7deaf-98b7-4dad-b190-8fee10f2cf77"
      },
      "encounter": {
        "reference": "Encounter/73a94d9c-6256-4d66-a0ed-3055e336e12b"
      },
      "onsetPeriod": {
        "start": "2026-10-09T05:00:00.000+00:00",
        "end": "2026-10-09T17:00:00.000+00:00"
      }
    },
    "request": {
      "method": "PUT",
      "url": "Condition/eeb63b34-aebf-4a45-9af7-d9e229800133"
    }
  }, {
    "fullUrl": "https://madie.cms.gov/Procedure/bfd473c1-4b5b-47dc-847c-6b580d693663",
    "resource": {
      "resourceType": "Procedure",
      "id": "bfd473c1-4b5b-47dc-847c-6b580d693663",
      "meta": {
        "profile": [ "http://hl7.org/fhir/us/qicore/StructureDefinition/qicore-procedurenotdone" ]
      },
      "extension": [ {
        "url": "http://hl7.org/fhir/us/qicore/StructureDefinition/qicore-recorded",
        "valueDateTime": "2026-10-11T17:30:00.000+00:00"
      } ],
      "status": "not-done",
      "statusReason": {
        "coding": [ {
          "system": "http://snomed.info/sct",
          "code": "183932001",
          "display": "Procedure contraindicated (situation)",
          "userSelected": true
        } ]
      },
      "code": {
        "coding": [ {
          "system": "http://www.cms.gov/Medicare/Coding/ICD10",
          "code": "0270346",
          "display": "Dilation of Coronary Artery, One Artery, Bifurcation, with Drug-eluting Intraluminal Device, Percutaneous Approach",
          "userSelected": true
        } ]
      },
      "subject": {
        "reference": "Patient/ccc7deaf-98b7-4dad-b190-8fee10f2cf77"
      },
      "_performedDateTime": {
        "extension": [ {
          "url": "http://hl7.org/fhir/StructureDefinition/data-absent-reason",
          "valueCode": "not-performed"
        } ]
      }
    },
    "request": {
      "method": "PUT",
      "url": "Procedure/bfd473c1-4b5b-47dc-847c-6b580d693663"
    }
  }, {
    "fullUrl": "https://madie.cms.gov/MeasureReport/ae7eab21-a636-454f-b69e-a2cace8f4fd2",
    "resource": {
      "resourceType": "MeasureReport",
      "id": "ae7eab21-a636-454f-b69e-a2cace8f4fd2",
      "meta": {
        "profile": [ "http://hl7.org/fhir/us/cqfmeasures/StructureDefinition/test-case-cqfm" ]
      },
      "contained": [ {
        "resourceType": "Parameters",
        "id": "7a003c16-f8e4-4f0e-9b3e-7572097bba11-parameters",
        "parameter": [ {
          "name": "subject",
          "valueString": "ccc7deaf-98b7-4dad-b190-8fee10f2cf77"
        } ]
      } ],
      "extension": [ {
        "url": "http://hl7.org/fhir/StructureDefinition/cqf-inputParameters",
        "valueReference": {
          "reference": "#7a003c16-f8e4-4f0e-9b3e-7572097bba11-parameters"
        }
      }, {
        "url": "http://hl7.org/fhir/us/cqfmeasures/StructureDefinition/cqfm-testCaseDescription",
        "valueMarkdown": "Patient has valid medical reason for no PCI during ED\n"
      } ],
      "modifierExtension": [ {
        "url": "http://hl7.org/fhir/us/cqfmeasures/StructureDefinition/cqfm-isTestCase",
        "valueBoolean": true
      } ],
      "status": "complete",
      "type": "individual",
      "measure": "https://madie.cms.gov/Measure/CMS996FHIRAptTxforSTEMI",
      "period": {
        "start": "2026-01-01",
        "end": "2026-12-31"
      },
      "group": [ {
        "id": "Group_1",
        "population": [ {
          "id": "InitialPopulation_1",
          "code": {
            "coding": [ {
              "system": "http://terminology.hl7.org/CodeSystem/measure-population",
              "code": "initial-population",
              "display": "Initial Population"
            } ]
          },
          "count": 1
        }, {
          "id": "Denominator_1",
          "code": {
            "coding": [ {
              "system": "http://terminology.hl7.org/CodeSystem/measure-population",
              "code": "denominator",
              "display": "Denominator"
            } ]
          },
          "count": 1
        }, {
          "id": "DenominatorExclusion_1",
          "code": {
            "coding": [ {
              "system": "http://terminology.hl7.org/CodeSystem/measure-population",
              "code": "denominator-exclusion",
              "display": "Denominator Exclusion"
            } ]
          },
          "count": 0
        }, {
          "id": "Numerator_1",
          "code": {
            "coding": [ {
              "system": "http://terminology.hl7.org/CodeSystem/measure-population",
              "code": "numerator",
              "display": "Numerator"
            } ]
          },
          "count": 0
        }, {
          "id": "DenominatorException_1",
          "code": {
            "coding": [ {
              "system": "http://terminology.hl7.org/CodeSystem/measure-population",
              "code": "denominator-exception",
              "display": "Denominator Exception"
            } ]
          },
          "count": 1
        } ],
        "measureScore": {
          "value": 0.0
        }
      } ],
      "evaluatedResource": [ {
        "reference": "Patient/ccc7deaf-98b7-4dad-b190-8fee10f2cf77"
      }, {
        "reference": "Encounter/73a94d9c-6256-4d66-a0ed-3055e336e12b"
      }, {
        "reference": "Condition/eeb63b34-aebf-4a45-9af7-d9e229800133"
      }, {
        "reference": "Procedure/bfd473c1-4b5b-47dc-847c-6b580d693663"
      } ]
    },
    "request": {
      "method": "PUT",
      "url": "MeasureReport/ae7eab21-a636-454f-b69e-a2cace8f4fd2"
    }
  } ]
}