{
  "resourceType": "Bundle",
  "id": "NUMERPass-MLHFQResulted180Days",
  "type": "collection",
  "entry": [ {
    "fullUrl": "https://madie.cms.gov/Patient/fbc2546d-c004-493c-b38b-8d088c6514d4",
    "resource": {
      "resourceType": "Patient",
      "id": "fbc2546d-c004-493c-b38b-8d088c6514d4",
      "meta": {
        "profile": [ "http://hl7.org/fhir/us/qicore/StructureDefinition/qicore-patient" ]
      },
      "extension": [ {
        "url": "http://hl7.org/fhir/us/core/StructureDefinition/us-core-race",
        "extension": [ {
          "url": "ombCategory",
          "valueCoding": {
            "system": "urn:oid:2.16.840.1.113883.6.238",
            "code": "2028-9",
            "display": "Asian"
          }
        }, {
          "url": "text",
          "valueString": "Asian"
        } ]
      }, {
        "url": "http://hl7.org/fhir/us/core/StructureDefinition/us-core-ethnicity",
        "extension": [ {
          "url": "ombCategory",
          "valueCoding": {
            "system": "urn:oid:2.16.840.1.113883.6.238",
            "code": "2135-2",
            "display": "Hispanic or Latino"
          }
        }, {
          "url": "text",
          "valueString": "Hispanic or Latino"
        } ]
      } ],
      "identifier": [ {
        "system": "http://hospital.smarthealthit.org",
        "value": "999999995"
      } ],
      "name": [ {
        "family": "Bertha",
        "given": [ "Betty" ]
      } ],
      "gender": "female",
      "birthDate": "2008-01-01"
    }
  }, {
    "fullUrl": "https://madie.cms.gov/Encounter/db93ae3a-d44d-46f8-9443-16fcdfc898a4",
    "resource": {
      "resourceType": "Encounter",
      "id": "db93ae3a-d44d-46f8-9443-16fcdfc898a4",
      "meta": {
        "profile": [ "http://hl7.org/fhir/us/qicore/StructureDefinition/qicore-encounter" ]
      },
      "status": "finished",
      "class": {
        "system": "http://terminology.hl7.org/CodeSystem/v3-ActCode",
        "code": "AMB",
        "display": "ambulatory"
      },
      "type": [ {
        "coding": [ {
          "system": "http://snomed.info/sct",
          "code": "185317003",
          "display": "Telephone encounter (procedure)"
        } ]
      } ],
      "subject": {
        "reference": "Patient/fbc2546d-c004-493c-b38b-8d088c6514d4"
      },
      "period": {
        "start": "2026-01-01T01:00:00.000+00:00",
        "end": "2026-01-01T01:15:00.000+00:00"
      }
    }
  }, {
    "fullUrl": "https://madie.cms.gov/Encounter/9ab354e3-ff71-4120-84a6-d2ed89423cd7",
    "resource": {
      "resourceType": "Encounter",
      "id": "9ab354e3-ff71-4120-84a6-d2ed89423cd7",
      "meta": {
        "profile": [ "http://hl7.org/fhir/us/qicore/StructureDefinition/qicore-encounter" ]
      },
      "status": "finished",
      "class": {
        "system": "http://terminology.hl7.org/CodeSystem/v3-ActCode",
        "code": "AMB",
        "display": "ambulatory"
      },
      "type": [ {
        "coding": [ {
          "system": "http://snomed.info/sct",
          "code": "185317003",
          "display": "Telephone encounter (procedure)"
        } ]
      } ],
      "subject": {
        "reference": "Patient/fbc2546d-c004-493c-b38b-8d088c6514d4"
      },
      "period": {
        "start": "2026-01-02T01:00:00.000+00:00",
        "end": "2026-01-02T01:15:00.000+00:00"
      }
    }
  }, {
    "fullUrl": "https://madie.cms.gov/Condition/4b0f187a-ac4c-46b3-ab25-88b07532b75b",
    "resource": {
      "resourceType": "Condition",
      "id": "4b0f187a-ac4c-46b3-ab25-88b07532b75b",
      "meta": {
        "profile": [ "http://hl7.org/fhir/us/qicore/StructureDefinition/qicore-condition-problems-health-concerns" ]
      },
      "clinicalStatus": {
        "coding": [ {
          "system": "http://terminology.hl7.org/CodeSystem/condition-clinical",
          "code": "active"
        } ]
      },
      "category": [ {
        "coding": [ {
          "system": "http://terminology.hl7.org/CodeSystem/condition-category",
          "code": "problem-list-item",
          "display": "Problem List Item"
        } ]
      } ],
      "code": {
        "coding": [ {
          "system": "http://snomed.info/sct",
          "version": "http://snomed.info/sct/731000124108/version/20250301",
          "code": "10091002",
          "display": "High output heart failure (disorder)"
        } ]
      },
      "subject": {
        "reference": "Patient/fbc2546d-c004-493c-b38b-8d088c6514d4"
      },
      "onsetDateTime": "2025-12-31T23:59:00.000+00:00"
    }
  }, {
    "fullUrl": "https://madie.cms.gov/Observation/a635fba5-e30d-4a99-8b2b-da09eb5d0361",
    "resource": {
      "resourceType": "Observation",
      "id": "a635fba5-e30d-4a99-8b2b-da09eb5d0361",
      "meta": {
        "profile": [ "http://hl7.org/fhir/us/qicore/StructureDefinition/qicore-observation-screening-assessment" ]
      },
      "status": "final",
      "category": [ {
        "coding": [ {
          "system": "http://terminology.hl7.org/CodeSystem/observation-category",
          "code": "survey",
          "display": "survey"
        } ],
        "text": "survey"
      } ],
      "code": {
        "coding": [ {
          "system": "http://loinc.org",
          "code": "85609-6",
          "display": "Emotional score [MLHFQ]"
        } ]
      },
      "subject": {
        "reference": "Patient/fbc2546d-c004-493c-b38b-8d088c6514d4"
      },
      "effectivePeriod": {
        "start": "2026-01-01T23:00:00.000+00:00",
        "end": "2026-01-01T23:59:00.000+00:00"
      },
      "valueInteger": 4
    }
  }, {
    "fullUrl": "https://madie.cms.gov/Observation/a148707c-abf7-4cae-9017-a23fb39154f6",
    "resource": {
      "resourceType": "Observation",
      "id": "a148707c-abf7-4cae-9017-a23fb39154f6",
      "meta": {
        "profile": [ "http://hl7.org/fhir/us/qicore/StructureDefinition/qicore-observation-screening-assessment" ]
      },
      "status": "final",
      "category": [ {
        "coding": [ {
          "system": "http://terminology.hl7.org/CodeSystem/observation-category",
          "code": "survey",
          "display": "survey"
        } ],
        "text": "survey"
      } ],
      "code": {
        "coding": [ {
          "system": "http://loinc.org",
          "code": "85609-6",
          "display": "Emotional score [MLHFQ]"
        } ]
      },
      "subject": {
        "reference": "Patient/fbc2546d-c004-493c-b38b-8d088c6514d4"
      },
      "effectivePeriod": {
        "start": "2026-06-29T23:00:00.000+00:00",
        "end": "2026-06-29T23:59:00.000+00:00"
      },
      "valueInteger": 4
    }
  }, {
    "fullUrl": "https://madie.cms.gov/Observation/51f23815-8c43-4ed9-ac70-0956de82a0e9",
    "resource": {
      "resourceType": "Observation",
      "id": "51f23815-8c43-4ed9-ac70-0956de82a0e9",
      "meta": {
        "profile": [ "http://hl7.org/fhir/us/qicore/StructureDefinition/qicore-observation-screening-assessment" ]
      },
      "status": "final",
      "category": [ {
        "coding": [ {
          "system": "http://terminology.hl7.org/CodeSystem/observation-category",
          "code": "survey",
          "display": "survey"
        } ],
        "text": "survey"
      } ],
      "code": {
        "coding": [ {
          "system": "http://loinc.org",
          "code": "85618-7",
          "display": "Physical score [MLHFQ]"
        } ]
      },
      "subject": {
        "reference": "Patient/fbc2546d-c004-493c-b38b-8d088c6514d4"
      },
      "effectivePeriod": {
        "start": "2026-01-01T23:00:00.000+00:00",
        "end": "2026-01-01T23:59:00.000+00:00"
      },
      "valueInteger": 4
    }
  }, {
    "fullUrl": "https://madie.cms.gov/Observation/fb41c17e-5cc6-4e45-ae4a-f750086f6d97",
    "resource": {
      "resourceType": "Observation",
      "id": "fb41c17e-5cc6-4e45-ae4a-f750086f6d97",
      "meta": {
        "profile": [ "http://hl7.org/fhir/us/qicore/StructureDefinition/qicore-observation-screening-assessment" ]
      },
      "status": "final",
      "category": [ {
        "coding": [ {
          "system": "http://terminology.hl7.org/CodeSystem/observation-category",
          "code": "survey",
          "display": "survey"
        } ],
        "text": "survey"
      } ],
      "code": {
        "coding": [ {
          "system": "http://loinc.org",
          "code": "85618-7",
          "display": "Physical score [MLHFQ]"
        } ]
      },
      "subject": {
        "reference": "Patient/fbc2546d-c004-493c-b38b-8d088c6514d4"
      },
      "effectivePeriod": {
        "start": "2026-06-29T23:00:00.000+00:00",
        "end": "2026-06-29T23:59:00.000+00:00"
      },
      "valueInteger": 4
    }
  }, {
    "fullUrl": "https://madie.cms.gov/MeasureReport/f7dacbc6-4da6-4c84-90eb-bc8795cc3f9a",
    "resource": {
      "resourceType": "MeasureReport",
      "id": "f7dacbc6-4da6-4c84-90eb-bc8795cc3f9a",
      "meta": {
        "profile": [ "http://hl7.org/fhir/us/cqfmeasures/StructureDefinition/test-case-cqfm" ]
      },
      "contained": [ {
        "resourceType": "Parameters",
        "id": "27843238-72b4-4bed-9a1f-44739a57b7f7-parameters",
        "parameter": [ {
          "name": "subject",
          "valueString": "fbc2546d-c004-493c-b38b-8d088c6514d4"
        } ]
      } ],
      "extension": [ {
        "url": "http://hl7.org/fhir/StructureDefinition/cqf-inputParameters",
        "valueReference": {
          "reference": "#27843238-72b4-4bed-9a1f-44739a57b7f7-parameters"
        }
      }, {
        "url": "http://hl7.org/fhir/us/cqfmeasures/StructureDefinition/cqfm-testCaseDescription",
        "valueMarkdown": "Patient has all MLHFQ with results during the correct timeframe. Testing the 180 days boundary."
      } ],
      "modifierExtension": [ {
        "url": "http://hl7.org/fhir/us/cqfmeasures/StructureDefinition/cqfm-isTestCase",
        "valueBoolean": true
      } ],
      "status": "complete",
      "type": "individual",
      "measure": "https://madie.cms.gov/Measure/CMS90FHIRFSAforHeartFailure",
      "period": {
        "start": "2026-01-01",
        "end": "2026-12-31"
      },
      "group": [ {
        "id": "Group_1",
        "population": [ {
          "id": "InitialPopulation_1",
          "code": {
            "coding": [ {
              "system": "http://terminology.hl7.org/CodeSystem/measure-population",
              "code": "initial-population",
              "display": "Initial Population"
            } ]
          },
          "count": 1
        }, {
          "id": "Denominator_1",
          "code": {
            "coding": [ {
              "system": "http://terminology.hl7.org/CodeSystem/measure-population",
              "code": "denominator",
              "display": "Denominator"
            } ]
          },
          "count": 1
        }, {
          "id": "DenominatorExclusion_1",
          "code": {
            "coding": [ {
              "system": "http://terminology.hl7.org/CodeSystem/measure-population",
              "code": "denominator-exclusion",
              "display": "Denominator Exclusion"
            } ]
          },
          "count": 0
        }, {
          "id": "Numerator_1",
          "code": {
            "coding": [ {
              "system": "http://terminology.hl7.org/CodeSystem/measure-population",
              "code": "numerator",
              "display": "Numerator"
            } ]
          },
          "count": 1
        } ],
        "measureScore": {
          "value": 1.0
        }
      } ],
      "evaluatedResource": [ {
        "reference": "Patient/fbc2546d-c004-493c-b38b-8d088c6514d4"
      }, {
        "reference": "Encounter/db93ae3a-d44d-46f8-9443-16fcdfc898a4"
      }, {
        "reference": "Encounter/9ab354e3-ff71-4120-84a6-d2ed89423cd7"
      }, {
        "reference": "Condition/4b0f187a-ac4c-46b3-ab25-88b07532b75b"
      }, {
        "reference": "Observation/a635fba5-e30d-4a99-8b2b-da09eb5d0361"
      }, {
        "reference": "Observation/a148707c-abf7-4cae-9017-a23fb39154f6"
      }, {
        "reference": "Observation/51f23815-8c43-4ed9-ac70-0956de82a0e9"
      }, {
        "reference": "Observation/fb41c17e-5cc6-4e45-ae4a-f750086f6d97"
      } ]
    }
  } ]
}