{
  "resourceType": "Bundle",
  "id": "63487c2e0968f8012254018b",
  "type": "transaction",
  "entry": [ {
    "fullUrl": "https://madie.cms.gov/Patient/30990946-5aea-4270-afef-182cc05f05f3",
    "resource": {
      "resourceType": "Patient",
      "id": "30990946-5aea-4270-afef-182cc05f05f3",
      "meta": {
        "profile": [ "http://hl7.org/fhir/us/qicore/StructureDefinition/qicore-patient" ]
      },
      "text": {
        "status": "generated",
        "div": "<div xmlns=\"http://www.w3.org/1999/xhtml\"><div class=\"hapiHeaderText\">EncDxPlacentaPrevia<b>DENEXPASS</b></div><table class=\"hapiPropertyTable\"><tbody><tr><td>Identifier</td><td>26ae2095ae359d33c45002ef417f38a5e4f6a61da3ea75d0332f68a4cb93137e</td></tr><tr><td>Date of birth</td><td><span>14 February 1985</span></td></tr></tbody></table></div>"
      },
      "extension": [ {
        "url": "http://hl7.org/fhir/us/core/StructureDefinition/us-core-race",
        "extension": [ {
          "url": "ombCategory",
          "valueCoding": {
            "system": "urn:oid:2.16.840.1.113883.6.238",
            "code": "1002-5",
            "display": "American Indian or Alaska Native",
            "userSelected": true
          }
        }, {
          "url": "text",
          "valueString": "American Indian or Alaska Native"
        } ]
      }, {
        "url": "http://hl7.org/fhir/us/core/StructureDefinition/us-core-ethnicity",
        "extension": [ {
          "url": "ombCategory",
          "valueCoding": {
            "system": "urn:oid:2.16.840.1.113883.6.238",
            "code": "2135-2",
            "display": "Hispanic or Latino",
            "userSelected": true
          }
        }, {
          "url": "text",
          "valueString": "Hispanic or Latino"
        } ]
      } ],
      "identifier": [ {
        "type": {
          "coding": [ {
            "system": "http://terminology.hl7.org/CodeSystem/v2-0203",
            "code": "MR"
          } ]
        },
        "system": "https://bonnie-fhir.healthit.gov/",
        "value": "63487c2e0968f8012254018b"
      } ],
      "active": true,
      "name": [ {
        "use": "usual",
        "family": "DENEXPass",
        "given": [ "EncDxPlacentaPrevia" ]
      } ],
      "gender": "female",
      "birthDate": "1998-02-14"
    },
    "request": {
      "method": "PUT",
      "url": "Patient/30990946-5aea-4270-afef-182cc05f05f3"
    }
  }, {
    "fullUrl": "https://madie.cms.gov/Observation/2ff2e989-bfd1-4832-85b5-1cb98a39e37f",
    "resource": {
      "resourceType": "Observation",
      "id": "2ff2e989-bfd1-4832-85b5-1cb98a39e37f",
      "meta": {
        "profile": [ "http://hl7.org/fhir/us/qicore/StructureDefinition/qicore-simple-observation" ]
      },
      "status": "final",
      "category": [ {
        "coding": [ {
          "system": "http://terminology.hl7.org/CodeSystem/observation-category",
          "code": "exam",
          "display": "exam",
          "userSelected": true
        } ]
      } ],
      "code": {
        "coding": [ {
          "system": "http://loinc.org",
          "code": "11996-6"
        } ]
      },
      "subject": {
        "reference": "Patient/30990946-5aea-4270-afef-182cc05f05f3"
      },
      "effectiveDateTime": "2026-06-08T08:00:00.000+00:00",
      "performer": [ {
        "reference": "Organization/example1",
        "display": "Hendricks Country Hospital"
      } ],
      "valueInteger": 1
    },
    "request": {
      "method": "PUT",
      "url": "Observation/2ff2e989-bfd1-4832-85b5-1cb98a39e37f"
    }
  }, {
    "fullUrl": "https://madie.cms.gov/Observation/c3c9836b-22f3-4928-ba1d-6163eecffd3d",
    "resource": {
      "resourceType": "Observation",
      "id": "c3c9836b-22f3-4928-ba1d-6163eecffd3d",
      "meta": {
        "profile": [ "http://hl7.org/fhir/us/qicore/StructureDefinition/qicore-simple-observation" ]
      },
      "status": "final",
      "category": [ {
        "coding": [ {
          "system": "http://terminology.hl7.org/CodeSystem/observation-category",
          "code": "exam",
          "display": "exam",
          "userSelected": true
        } ]
      } ],
      "code": {
        "coding": [ {
          "system": "http://loinc.org",
          "code": "11884-4"
        } ]
      },
      "subject": {
        "reference": "Patient/30990946-5aea-4270-afef-182cc05f05f3"
      },
      "effectiveDateTime": "2026-06-08T08:00:00.000+00:00",
      "performer": [ {
        "reference": "Organization/example1",
        "display": "Hendricks Country Hospital"
      } ],
      "valueQuantity": {
        "value": 43,
        "system": "http://unitsofmeasure.org",
        "code": "wk"
      }
    },
    "request": {
      "method": "PUT",
      "url": "Observation/c3c9836b-22f3-4928-ba1d-6163eecffd3d"
    }
  }, {
    "fullUrl": "https://madie.cms.gov/Observation/10171611-516e-462a-b244-b05c8b810d4f",
    "resource": {
      "resourceType": "Observation",
      "id": "10171611-516e-462a-b244-b05c8b810d4f",
      "meta": {
        "profile": [ "http://hl7.org/fhir/us/qicore/StructureDefinition/qicore-simple-observation" ]
      },
      "status": "final",
      "category": [ {
        "coding": [ {
          "system": "http://terminology.hl7.org/CodeSystem/observation-category",
          "code": "exam",
          "display": "exam",
          "userSelected": true
        } ]
      } ],
      "code": {
        "coding": [ {
          "system": "http://loinc.org",
          "code": "93857-1"
        } ]
      },
      "subject": {
        "reference": "Patient/30990946-5aea-4270-afef-182cc05f05f3"
      },
      "effectiveDateTime": "2026-06-08T20:00:00.000+00:00",
      "performer": [ {
        "reference": "Organization/example1",
        "display": "Hendricks Country Hospital"
      } ],
      "valueDateTime": "2026-06-08T20:00:00.000+00:00"
    },
    "request": {
      "method": "PUT",
      "url": "Observation/10171611-516e-462a-b244-b05c8b810d4f"
    }
  }, {
    "fullUrl": "https://madie.cms.gov/Encounter/89479313-3a31-47ef-bf3f-43f4fb1abd84",
    "resource": {
      "resourceType": "Encounter",
      "id": "89479313-3a31-47ef-bf3f-43f4fb1abd84",
      "meta": {
        "profile": [ "http://hl7.org/fhir/us/qicore/StructureDefinition/qicore-encounter" ]
      },
      "status": "finished",
      "class": {
        "system": "http://terminology.hl7.org/CodeSystem/v3-ActCode",
        "code": "IMP",
        "display": "inpatient encounter"
      },
      "type": [ {
        "coding": [ {
          "system": "http://snomed.info/sct",
          "code": "8715000"
        } ]
      } ],
      "subject": {
        "reference": "Patient/30990946-5aea-4270-afef-182cc05f05f3"
      },
      "period": {
        "start": "2026-06-08T08:00:00.000+00:00",
        "end": "2026-06-10T08:15:00.000+00:00"
      },
      "reasonCode": [ {
        "coding": [ {
          "system": "http://snomed.info/sct",
          "code": "169826009",
          "display": "Single live birth from singleton pregnancy (finding)"
        } ]
      } ],
      "reasonReference": [ {
        "reference": "Condition/5974b10e-625a-4597-b558-7580577b8456"
      } ]
    },
    "request": {
      "method": "PUT",
      "url": "Encounter/89479313-3a31-47ef-bf3f-43f4fb1abd84"
    }
  }, {
    "fullUrl": "https://madie.cms.gov/Procedure/623929bc-f97e-4aee-a18b-6a9692cbe7ca",
    "resource": {
      "resourceType": "Procedure",
      "id": "623929bc-f97e-4aee-a18b-6a9692cbe7ca",
      "meta": {
        "profile": [ "http://hl7.org/fhir/us/qicore/StructureDefinition/qicore-procedure" ]
      },
      "extension": [ {
        "url": "http://hl7.org/fhir/us/qicore/StructureDefinition/qicore-recorded",
        "valueDateTime": "2014-04-05T13:35:00.000+00:00"
      } ],
      "status": "completed",
      "code": {
        "coding": [ {
          "system": "http://snomed.info/sct",
          "code": "4504004"
        } ]
      },
      "subject": {
        "reference": "Patient/30990946-5aea-4270-afef-182cc05f05f3"
      },
      "performedPeriod": {
        "start": "2026-06-08T20:00:00.000+00:00",
        "end": "2026-06-18T20:00:00.000+00:00"
      }
    },
    "request": {
      "method": "PUT",
      "url": "Procedure/623929bc-f97e-4aee-a18b-6a9692cbe7ca"
    }
  }, {
    "fullUrl": "https://madie.cms.gov/Condition/b5b4af77-ed8b-48db-8e93-6ba0586d68bb",
    "resource": {
      "resourceType": "Condition",
      "id": "b5b4af77-ed8b-48db-8e93-6ba0586d68bb",
      "meta": {
        "profile": [ "http://hl7.org/fhir/us/qicore/StructureDefinition/qicore-condition-encounter-diagnosis" ]
      },
      "category": [ {
        "coding": [ {
          "system": "http://terminology.hl7.org/CodeSystem/condition-category",
          "code": "encounter-diagnosis",
          "display": "Encounter Diagnosis"
        } ]
      } ],
      "code": {
        "coding": [ {
          "system": "http://snomed.info/sct",
          "version": "2022-09",
          "code": "169826009",
          "display": "Single live birth (finding)",
          "userSelected": true
        } ]
      },
      "subject": {
        "reference": "Patient/30990946-5aea-4270-afef-182cc05f05f3"
      },
      "encounter": {
        "reference": "Encounter/89479313-3a31-47ef-bf3f-43f4fb1abd84"
      },
      "recordedDate": "2026-10-17T08:00:00.000+00:00"
    },
    "request": {
      "method": "PUT",
      "url": "Condition/b5b4af77-ed8b-48db-8e93-6ba0586d68bb"
    }
  }, {
    "fullUrl": "https://madie.cms.gov/Condition/5974b10e-625a-4597-b558-7580577b8456",
    "resource": {
      "resourceType": "Condition",
      "id": "5974b10e-625a-4597-b558-7580577b8456",
      "meta": {
        "profile": [ "http://hl7.org/fhir/us/qicore/StructureDefinition/qicore-condition-problems-health-concerns" ]
      },
      "category": [ {
        "coding": [ {
          "system": "http://terminology.hl7.org/CodeSystem/condition-category",
          "code": "encounter-diagnosis",
          "display": "Encounter Diagnosis"
        } ]
      } ],
      "code": {
        "coding": [ {
          "system": "http://snomed.info/sct",
          "version": "2022-09",
          "code": "15663008",
          "display": "Placenta previa centralis (disorder)",
          "userSelected": true
        } ]
      },
      "subject": {
        "reference": "Patient/30990946-5aea-4270-afef-182cc05f05f3"
      },
      "encounter": {
        "reference": "Encounter/89479313-3a31-47ef-bf3f-43f4fb1abd84"
      },
      "recordedDate": "2026-10-17T08:00:00.000+00:00"
    },
    "request": {
      "method": "PUT",
      "url": "Condition/5974b10e-625a-4597-b558-7580577b8456"
    }
  }, {
    "fullUrl": "https://madie.cms.gov/Coverage/b7ba655a-3568-4620-b54e-1ec0d93818f9",
    "resource": {
      "resourceType": "Coverage",
      "id": "b7ba655a-3568-4620-b54e-1ec0d93818f9",
      "meta": {
        "profile": [ "http://hl7.org/fhir/us/qicore/StructureDefinition/qicore-coverage" ]
      },
      "status": "active",
      "subscriberId": "523435",
      "beneficiary": {
        "reference": "Patient/30990946-5aea-4270-afef-182cc05f05f3"
      },
      "relationship": {
        "coding": [ {
          "system": "http://terminology.hl7.org/CodeSystem/subscriber-relationship",
          "code": "self"
        } ]
      },
      "payor": [ {
        "reference": "Organization/47df969f-e0a4-4a84-9cfb-50b847d75411"
      } ]
    },
    "request": {
      "method": "PUT",
      "url": "Coverage/b7ba655a-3568-4620-b54e-1ec0d93818f9"
    }
  }, {
    "fullUrl": "https://madie.cms.gov/Organization/47df969f-e0a4-4a84-9cfb-50b847d75411",
    "resource": {
      "resourceType": "Organization",
      "id": "47df969f-e0a4-4a84-9cfb-50b847d75411",
      "meta": {
        "profile": [ "http://hl7.org/fhir/us/qicore/StructureDefinition/qicore-organization" ]
      },
      "identifier": [ {
        "use": "temp",
        "system": "urn:oid:2.16.840.1.113883.4.4",
        "value": "21-3259825"
      } ],
      "active": true,
      "type": [ {
        "coding": [ {
          "system": "http://terminology.hl7.org/CodeSystem/organization-type",
          "code": "pay",
          "display": "Payer"
        } ]
      } ],
      "name": "Blue Cross Blue Shield of Texas",
      "telecom": [ {
        "system": "phone",
        "value": "(+1) 972-766-6900"
      } ],
      "address": [ {
        "use": "billing",
        "type": "postal",
        "line": [ "P.O. Box 660044" ],
        "city": "Dallas",
        "state": "TX",
        "postalCode": "75266-0044",
        "country": "USA"
      } ]
    },
    "request": {
      "method": "PUT",
      "url": "Organization/47df969f-e0a4-4a84-9cfb-50b847d75411"
    }
  }, {
    "fullUrl": "https://madie.cms.gov/Practitioner/ce5fea32-3bd6-4935-b8bc-9da7af968281",
    "resource": {
      "resourceType": "Practitioner",
      "id": "ce5fea32-3bd6-4935-b8bc-9da7af968281",
      "meta": {
        "profile": [ "http://hl7.org/fhir/us/qicore/StructureDefinition/qicore-practitioner" ]
      },
      "identifier": [ {
        "system": "http://hl7.org/fhir/sid/us-npi",
        "value": "1234567890"
      } ],
      "name": [ {
        "family": "Evil",
        "prefix": [ "Dr" ]
      } ]
    },
    "request": {
      "method": "PUT",
      "url": "Practitioner/ce5fea32-3bd6-4935-b8bc-9da7af968281"
    }
  }, {
    "fullUrl": "https://madie.cms.gov/MeasureReport/2ef3ffa1-7ae6-45d8-9fb2-6ba9f72c2462",
    "resource": {
      "resourceType": "MeasureReport",
      "id": "2ef3ffa1-7ae6-45d8-9fb2-6ba9f72c2462",
      "meta": {
        "profile": [ "http://hl7.org/fhir/us/cqfmeasures/StructureDefinition/test-case-cqfm" ]
      },
      "contained": [ {
        "resourceType": "Parameters",
        "id": "1d45012d-1d1f-400e-988d-f4c881a7ea51-parameters",
        "parameter": [ {
          "name": "subject",
          "valueString": "30990946-5aea-4270-afef-182cc05f05f3"
        } ]
      } ],
      "extension": [ {
        "url": "http://hl7.org/fhir/StructureDefinition/cqf-inputParameters",
        "valueReference": {
          "reference": "#1d45012d-1d1f-400e-988d-f4c881a7ea51-parameters"
        }
      }, {
        "url": "http://hl7.org/fhir/us/cqfmeasures/StructureDefinition/cqfm-testCaseDescription",
        "valueMarkdown": "EGA 43 weeks, gravida 1; Placenta previa encounter dx\n"
      } ],
      "modifierExtension": [ {
        "url": "http://hl7.org/fhir/us/cqfmeasures/StructureDefinition/cqfm-isTestCase",
        "valueBoolean": true
      } ],
      "status": "complete",
      "type": "individual",
      "measure": "https://madie.cms.gov/Measure/CMS0334FHIRPCCesareanBirth",
      "period": {
        "start": "2026-01-01",
        "end": "2026-12-31"
      },
      "group": [ {
        "id": "Group_1",
        "population": [ {
          "id": "InitialPopulation_1",
          "code": {
            "coding": [ {
              "system": "http://terminology.hl7.org/CodeSystem/measure-population",
              "code": "initial-population",
              "display": "Initial Population"
            } ]
          },
          "count": 1
        }, {
          "id": "Denominator_1",
          "code": {
            "coding": [ {
              "system": "http://terminology.hl7.org/CodeSystem/measure-population",
              "code": "denominator",
              "display": "Denominator"
            } ]
          },
          "count": 1
        }, {
          "id": "DenominatorExclusion_1",
          "code": {
            "coding": [ {
              "system": "http://terminology.hl7.org/CodeSystem/measure-population",
              "code": "denominator-exclusion",
              "display": "Denominator Exclusion"
            } ]
          },
          "count": 1
        }, {
          "id": "Numerator_1",
          "code": {
            "coding": [ {
              "system": "http://terminology.hl7.org/CodeSystem/measure-population",
              "code": "numerator",
              "display": "Numerator"
            } ]
          },
          "count": 0
        } ],
        "measureScore": {
          "value": 0.0
        }
      } ],
      "evaluatedResource": [ {
        "reference": "Patient/30990946-5aea-4270-afef-182cc05f05f3"
      }, {
        "reference": "Observation/2ff2e989-bfd1-4832-85b5-1cb98a39e37f"
      }, {
        "reference": "Observation/c3c9836b-22f3-4928-ba1d-6163eecffd3d"
      }, {
        "reference": "Observation/10171611-516e-462a-b244-b05c8b810d4f"
      }, {
        "reference": "Encounter/89479313-3a31-47ef-bf3f-43f4fb1abd84"
      }, {
        "reference": "Procedure/623929bc-f97e-4aee-a18b-6a9692cbe7ca"
      }, {
        "reference": "Condition/b5b4af77-ed8b-48db-8e93-6ba0586d68bb"
      }, {
        "reference": "Condition/5974b10e-625a-4597-b558-7580577b8456"
      }, {
        "reference": "Coverage/b7ba655a-3568-4620-b54e-1ec0d93818f9"
      }, {
        "reference": "Organization/47df969f-e0a4-4a84-9cfb-50b847d75411"
      }, {
        "reference": "Practitioner/ce5fea32-3bd6-4935-b8bc-9da7af968281"
      } ]
    },
    "request": {
      "method": "PUT",
      "url": "MeasureReport/2ef3ffa1-7ae6-45d8-9fb2-6ba9f72c2462"
    }
  } ]
}