{
  "resourceType": "Bundle",
  "id": "Patient-12-DENEXPass-FrailtyEncOverlapsMP",
  "type": "transaction",
  "entry": [ {
    "fullUrl": "https://madie.cms.gov/Patient/9cba6cfa-9671-4850-803d-e286c7d59ee7",
    "resource": {
      "resourceType": "Patient",
      "id": "9cba6cfa-9671-4850-803d-e286c7d59ee7",
      "meta": {
        "profile": [ "http://hl7.org/fhir/us/qicore/StructureDefinition/qicore-patient" ]
      },
      "extension": [ {
        "url": "http://hl7.org/fhir/us/core/StructureDefinition/us-core-race",
        "extension": [ {
          "url": "ombCategory",
          "valueCoding": {
            "system": "urn:oid:2.16.840.1.113883.6.238",
            "code": "2028-9",
            "display": "Asian"
          }
        }, {
          "url": "text",
          "valueString": "Asian"
        } ]
      }, {
        "url": "http://hl7.org/fhir/us/core/StructureDefinition/us-core-ethnicity",
        "extension": [ {
          "url": "ombCategory",
          "valueCoding": {
            "system": "urn:oid:2.16.840.1.113883.6.238",
            "code": "2135-2",
            "display": "Hispanic or Latino"
          }
        }, {
          "url": "text",
          "valueString": "Hispanic or Latino"
        } ]
      } ],
      "identifier": [ {
        "system": "http://hospital.smarthealthit.org",
        "value": "999999995"
      } ],
      "name": [ {
        "family": "Bertha",
        "given": [ "Betty" ]
      } ],
      "gender": "female",
      "birthDate": "1958-12-31"
    },
    "request": {
      "method": "PUT",
      "url": "Patient/9cba6cfa-9671-4850-803d-e286c7d59ee7"
    }
  }, {
    "fullUrl": "https://madie.cms.gov/Encounter/fad1220c-ebe4-4c21-9cb0-c8b1fd9734b7",
    "resource": {
      "resourceType": "Encounter",
      "id": "fad1220c-ebe4-4c21-9cb0-c8b1fd9734b7",
      "meta": {
        "profile": [ "http://hl7.org/fhir/us/qicore/StructureDefinition/qicore-encounter" ]
      },
      "status": "finished",
      "class": {
        "system": "http://terminology.hl7.org/CodeSystem/v3-ActCode",
        "code": "AMB",
        "display": "ambulatory"
      },
      "type": [ {
        "coding": [ {
          "system": "http://snomed.info/sct",
          "code": "185460008",
          "display": "Home visit request by patient (procedure)"
        } ]
      } ],
      "subject": {
        "reference": "Patient/9cba6cfa-9671-4850-803d-e286c7d59ee7"
      },
      "period": {
        "start": "2026-01-01T00:00:00.000+00:00",
        "end": "2026-01-01T00:15:00.000+00:00"
      }
    },
    "request": {
      "method": "PUT",
      "url": "Encounter/fad1220c-ebe4-4c21-9cb0-c8b1fd9734b7"
    }
  }, {
    "fullUrl": "https://madie.cms.gov/Condition/42e01552-c631-49fd-a318-441c82e48a14",
    "resource": {
      "resourceType": "Condition",
      "id": "42e01552-c631-49fd-a318-441c82e48a14",
      "meta": {
        "profile": [ "http://hl7.org/fhir/us/qicore/StructureDefinition/qicore-condition-encounter-diagnosis" ]
      },
      "clinicalStatus": {
        "coding": [ {
          "system": "http://terminology.hl7.org/CodeSystem/condition-clinical",
          "code": "active"
        } ]
      },
      "category": [ {
        "coding": [ {
          "system": "http://terminology.hl7.org/CodeSystem/condition-category",
          "code": "encounter-diagnosis",
          "display": "Encounter Diagnosis"
        } ]
      } ],
      "code": {
        "coding": [ {
          "system": "http://snomed.info/sct",
          "code": "102781000119107",
          "display": "Sensory neuropathy due to type 1 diabetes mellitus (disorder)"
        } ]
      },
      "subject": {
        "reference": "Patient/9cba6cfa-9671-4850-803d-e286c7d59ee7"
      },
      "onsetDateTime": "2026-01-01T23:59:00.000+00:00"
    },
    "request": {
      "method": "PUT",
      "url": "Condition/42e01552-c631-49fd-a318-441c82e48a14"
    }
  }, {
    "fullUrl": "https://madie.cms.gov/MedicationRequest/2ccdc4ba-889d-4399-98d3-0590088c24d5",
    "resource": {
      "resourceType": "MedicationRequest",
      "id": "2ccdc4ba-889d-4399-98d3-0590088c24d5",
      "meta": {
        "profile": [ "http://hl7.org/fhir/us/qicore/StructureDefinition/qicore-medicationrequest" ]
      },
      "status": "active",
      "intent": "order",
      "doNotPerform": false,
      "medicationCodeableConcept": {
        "coding": [ {
          "system": "http://www.nlm.nih.gov/research/umls/rxnorm",
          "code": "312836",
          "display": "rivastigmine 6 MG Oral Capsule"
        } ]
      },
      "subject": {
        "reference": "Patient/9cba6cfa-9671-4850-803d-e286c7d59ee7"
      },
      "authoredOn": "2026-01-01T00:00:00.000+00:00",
      "requester": {
        "reference": "Practitioner/example"
      },
      "dispenseRequest": {
        "expectedSupplyDuration": {
          "value": 90,
          "system": "http://unitsofmeasure.org",
          "code": "days"
        }
      }
    },
    "request": {
      "method": "PUT",
      "url": "MedicationRequest/2ccdc4ba-889d-4399-98d3-0590088c24d5"
    }
  }, {
    "fullUrl": "https://madie.cms.gov/Encounter/2f889077-5ad1-47b6-882a-b695d45202e8",
    "resource": {
      "resourceType": "Encounter",
      "id": "2f889077-5ad1-47b6-882a-b695d45202e8",
      "meta": {
        "profile": [ "http://hl7.org/fhir/us/qicore/StructureDefinition/qicore-encounter" ]
      },
      "status": "finished",
      "class": {
        "system": "http://terminology.hl7.org/CodeSystem/v3-ActCode",
        "code": "AMB",
        "display": "ambulatory"
      },
      "type": [ {
        "coding": [ {
          "system": "http://www.ama-assn.org/go/cpt",
          "code": "99509",
          "display": "Home visit for assistance with activities of daily living and personal care"
        } ]
      } ],
      "subject": {
        "reference": "Patient/9cba6cfa-9671-4850-803d-e286c7d59ee7"
      },
      "period": {
        "start": "2026-01-01T00:00:00.000+00:00",
        "end": "2026-01-02T00:00:00.000+00:00"
      }
    },
    "request": {
      "method": "PUT",
      "url": "Encounter/2f889077-5ad1-47b6-882a-b695d45202e8"
    }
  }, {
    "fullUrl": "https://madie.cms.gov/MeasureReport/4cf88428-9d18-4c27-a59f-189dc83cf084",
    "resource": {
      "resourceType": "MeasureReport",
      "id": "4cf88428-9d18-4c27-a59f-189dc83cf084",
      "meta": {
        "profile": [ "http://hl7.org/fhir/us/cqfmeasures/StructureDefinition/test-case-cqfm" ]
      },
      "contained": [ {
        "resourceType": "Parameters",
        "id": "a6462d08-6881-4586-8673-ae341a2386e0-parameters",
        "parameter": [ {
          "name": "subject",
          "valueString": "9cba6cfa-9671-4850-803d-e286c7d59ee7"
        } ]
      } ],
      "extension": [ {
        "url": "http://hl7.org/fhir/StructureDefinition/cqf-inputParameters",
        "valueReference": {
          "reference": "#a6462d08-6881-4586-8673-ae341a2386e0-parameters"
        }
      }, {
        "url": "http://hl7.org/fhir/us/cqfmeasures/StructureDefinition/cqfm-testCaseDescription",
        "valueMarkdown": "Frailty encounter overlaps the MP"
      } ],
      "modifierExtension": [ {
        "url": "http://hl7.org/fhir/us/cqfmeasures/StructureDefinition/cqfm-isTestCase",
        "valueBoolean": true
      } ],
      "status": "complete",
      "type": "individual",
      "measure": "https://madie.cms.gov/Measure/CMS122FHIRDiabetesAssessGT9Pct",
      "period": {
        "start": "2026-01-01",
        "end": "2026-12-31"
      },
      "group": [ {
        "id": "Group_1",
        "population": [ {
          "id": "InitialPopulation_1",
          "code": {
            "coding": [ {
              "system": "http://terminology.hl7.org/CodeSystem/measure-population",
              "code": "initial-population",
              "display": "Initial Population"
            } ]
          },
          "count": 1
        }, {
          "id": "Denominator_1",
          "code": {
            "coding": [ {
              "system": "http://terminology.hl7.org/CodeSystem/measure-population",
              "code": "denominator",
              "display": "Denominator"
            } ]
          },
          "count": 1
        }, {
          "id": "DenominatorExclusion_1",
          "code": {
            "coding": [ {
              "system": "http://terminology.hl7.org/CodeSystem/measure-population",
              "code": "denominator-exclusion",
              "display": "Denominator Exclusion"
            } ]
          },
          "count": 1
        }, {
          "id": "Numerator_1",
          "code": {
            "coding": [ {
              "system": "http://terminology.hl7.org/CodeSystem/measure-population",
              "code": "numerator",
              "display": "Numerator"
            } ]
          },
          "count": 0
        } ],
        "measureScore": {
          "value": 1.0
        }
      } ],
      "evaluatedResource": [ {
        "reference": "Patient/9cba6cfa-9671-4850-803d-e286c7d59ee7"
      }, {
        "reference": "Encounter/fad1220c-ebe4-4c21-9cb0-c8b1fd9734b7"
      }, {
        "reference": "Condition/42e01552-c631-49fd-a318-441c82e48a14"
      }, {
        "reference": "MedicationRequest/2ccdc4ba-889d-4399-98d3-0590088c24d5"
      }, {
        "reference": "Encounter/2f889077-5ad1-47b6-882a-b695d45202e8"
      } ]
    },
    "request": {
      "method": "PUT",
      "url": "MeasureReport/4cf88428-9d18-4c27-a59f-189dc83cf084"
    }
  } ]
}