{
  "resourceType": "Bundle",
  "id": "63050905-516c-41e9-8e97-c792143fdd0d",
  "type": "transaction",
  "entry": [ {
    "fullUrl": "https://madie.cms.gov/Patient/7961993e-f025-4a12-9bb8-461c6ab3870e",
    "resource": {
      "resourceType": "Patient",
      "id": "7961993e-f025-4a12-9bb8-461c6ab3870e",
      "meta": {
        "profile": [ "http://hl7.org/fhir/us/qicore/StructureDefinition/qicore-patient" ]
      },
      "text": {
        "status": "generated",
        "div": "<div xmlns=\"http://www.w3.org/1999/xhtml\"><div class=\"hapiHeaderText\">FactorXaDuringICUDxVTERemission <b>NUMERPASS </b></div><table class=\"hapiPropertyTable\"><tbody><tr><td>Identifier</td><td>ba9e367399672c89721f9d3c22d115ac</td></tr><tr><td>Date of birth</td><td><span>03 March 1974</span></td></tr></tbody></table></div>"
      },
      "extension": [ {
        "url": "http://hl7.org/fhir/us/core/StructureDefinition/us-core-race",
        "extension": [ {
          "url": "ombCategory",
          "valueCoding": {
            "system": "urn:oid:2.16.840.1.113883.6.238",
            "code": "1002-5",
            "display": "American Indian or Alaska Native",
            "userSelected": true
          }
        }, {
          "url": "text",
          "valueString": "American Indian or Alaska Native"
        } ]
      }, {
        "url": "http://hl7.org/fhir/us/core/StructureDefinition/us-core-ethnicity",
        "extension": [ {
          "url": "ombCategory",
          "valueCoding": {
            "system": "urn:oid:2.16.840.1.113883.6.238",
            "code": "2135-2",
            "display": "Hispanic or Latino",
            "userSelected": true
          }
        }, {
          "url": "text",
          "valueString": "Hispanic or Latino"
        } ]
      } ],
      "identifier": [ {
        "type": {
          "coding": [ {
            "system": "http://terminology.hl7.org/CodeSystem/v2-0203",
            "code": "MR"
          } ]
        },
        "system": "https://bonnie-fhir.healthit.gov/",
        "value": "63050905-516c-41e9-8e97-c792143fdd0d"
      } ],
      "active": true,
      "name": [ {
        "use": "usual",
        "family": "NUMERPass",
        "given": [ "FactorXaDuringICUDxVTERemission" ]
      } ],
      "gender": "female",
      "birthDate": "1975-03-03"
    },
    "request": {
      "method": "PUT",
      "url": "Patient/7961993e-f025-4a12-9bb8-461c6ab3870e"
    }
  }, {
    "fullUrl": "https://madie.cms.gov/Encounter/23e5ac83-4895-4ae6-a7fb-fa5ea4d95ba2",
    "resource": {
      "resourceType": "Encounter",
      "id": "23e5ac83-4895-4ae6-a7fb-fa5ea4d95ba2",
      "meta": {
        "profile": [ "http://hl7.org/fhir/us/qicore/StructureDefinition/qicore-encounter" ]
      },
      "status": "finished",
      "class": {
        "system": "http://terminology.hl7.org/CodeSystem/v3-ActCode",
        "code": "IMP",
        "display": "inpatient encounter"
      },
      "type": [ {
        "coding": [ {
          "system": "http://snomed.info/sct",
          "code": "8715000"
        } ]
      } ],
      "subject": {
        "reference": "Patient/7961993e-f025-4a12-9bb8-461c6ab3870e"
      },
      "period": {
        "start": "2026-12-04T08:00:00.000+00:00",
        "end": "2026-12-30T08:15:00.000+00:00"
      },
      "length": {
        "value": 26,
        "unit": "days"
      },
      "location": [ {
        "location": {
          "reference": "Location/d594addb-49e5-41db-86b5-041a258fb2a6"
        },
        "period": {
          "start": "2026-12-06T08:00:00.000+00:00",
          "end": "2026-12-08T08:15:00.000+00:00"
        }
      } ]
    },
    "request": {
      "method": "PUT",
      "url": "Encounter/23e5ac83-4895-4ae6-a7fb-fa5ea4d95ba2"
    }
  }, {
    "fullUrl": "https://madie.cms.gov/Coverage/ba3367cc-48d2-4d0f-9c74-931fc7b6588f",
    "resource": {
      "resourceType": "Coverage",
      "id": "ba3367cc-48d2-4d0f-9c74-931fc7b6588f",
      "status": "active",
      "beneficiary": {
        "reference": "Patient/7961993e-f025-4a12-9bb8-461c6ab3870e"
      },
      "period": {
        "start": "1975-03-03T08:00:00.000+00:00"
      },
      "payor": [ {
        "reference": "Organization/b3aa609b-acaf-491c-9b8b-c6cafba91a99"
      } ]
    },
    "request": {
      "method": "PUT",
      "url": "Coverage/ba3367cc-48d2-4d0f-9c74-931fc7b6588f"
    }
  }, {
    "fullUrl": "https://madie.cms.gov/Condition/8b076533-54d4-436b-8107-5485187ec0eb",
    "resource": {
      "resourceType": "Condition",
      "id": "8b076533-54d4-436b-8107-5485187ec0eb",
      "meta": {
        "profile": [ "http://hl7.org/fhir/us/qicore/StructureDefinition/qicore-condition-problems-health-concerns" ]
      },
      "clinicalStatus": {
        "coding": [ {
          "system": "http://terminology.hl7.org/CodeSystem/condition-clinical",
          "code": "remission"
        } ]
      },
      "verificationStatus": {
        "coding": [ {
          "system": "http://terminology.hl7.org/CodeSystem/condition-ver-status",
          "code": "confirmed"
        } ]
      },
      "category": [ {
        "coding": [ {
          "system": "http://terminology.hl7.org/CodeSystem/condition-category",
          "code": "problem-list-item",
          "display": "Problem List Item"
        } ]
      } ],
      "code": {
        "coding": [ {
          "system": "http://hl7.org/fhir/sid/icd-10-cm",
          "code": "I26.09",
          "display": "Other pulmonary embolism with acute cor pulmonale"
        } ]
      },
      "subject": {
        "reference": "Patient/7961993e-f025-4a12-9bb8-461c6ab3870e"
      },
      "onsetPeriod": {
        "start": "2026-11-03T08:00:00.000+00:00",
        "end": "2026-12-03T08:00:00.000+00:00"
      }
    },
    "request": {
      "method": "PUT",
      "url": "Condition/8b076533-54d4-436b-8107-5485187ec0eb"
    }
  }, {
    "fullUrl": "https://madie.cms.gov/MedicationAdministration/467706a8-0fb5-44ef-bd02-86aaf1887528",
    "resource": {
      "resourceType": "MedicationAdministration",
      "id": "467706a8-0fb5-44ef-bd02-86aaf1887528",
      "meta": {
        "profile": [ "http://hl7.org/fhir/us/qicore/StructureDefinition/qicore-medicationadministration" ]
      },
      "status": "completed",
      "medicationCodeableConcept": {
        "coding": [ {
          "system": "http://www.nlm.nih.gov/research/umls/rxnorm",
          "code": "1599543",
          "display": "edoxaban 15 MG Oral Tablet"
        } ]
      },
      "subject": {
        "reference": "Patient/7961993e-f025-4a12-9bb8-461c6ab3870e"
      },
      "effectivePeriod": {
        "start": "2026-12-06T11:30:00.000+00:00",
        "end": "2026-12-06T11:35:00.000+00:00"
      }
    },
    "request": {
      "method": "PUT",
      "url": "MedicationAdministration/467706a8-0fb5-44ef-bd02-86aaf1887528"
    }
  }, {
    "fullUrl": "https://madie.cms.gov/Location/d594addb-49e5-41db-86b5-041a258fb2a6",
    "resource": {
      "resourceType": "Location",
      "id": "d594addb-49e5-41db-86b5-041a258fb2a6",
      "meta": {
        "profile": [ "http://hl7.org/fhir/us/qicore/StructureDefinition/qicore-location" ]
      },
      "identifier": [ {
        "use": "usual",
        "system": "http://exampleoflocation.com",
        "value": "B1-S.F2"
      } ],
      "name": "Medical Surgical East, first floor",
      "type": [ {
        "coding": [ {
          "system": "https://www.cdc.gov/nhsn/cdaportal/terminology/codesystem/hsloc.html",
          "version": "2020",
          "code": "1025-6",
          "display": "Trauma Critical Care",
          "userSelected": true
        } ]
      } ]
    },
    "request": {
      "method": "PUT",
      "url": "Location/d594addb-49e5-41db-86b5-041a258fb2a6"
    }
  }, {
    "fullUrl": "https://madie.cms.gov/Organization/b3aa609b-acaf-491c-9b8b-c6cafba91a99",
    "resource": {
      "resourceType": "Organization",
      "id": "b3aa609b-acaf-491c-9b8b-c6cafba91a99",
      "meta": {
        "profile": [ "http://hl7.org/fhir/us/qicore/StructureDefinition/qicore-organization" ]
      },
      "identifier": [ {
        "use": "temp",
        "system": "urn:oid:2.16.840.1.113883.4.4",
        "value": "21-3259825"
      } ],
      "active": true,
      "type": [ {
        "coding": [ {
          "system": "http://terminology.hl7.org/CodeSystem/organization-type",
          "code": "pay",
          "display": "Payer"
        } ]
      } ],
      "name": "Blue Cross Blue Shield of Texas",
      "telecom": [ {
        "system": "phone",
        "value": "(+1) 972-766-6900"
      } ],
      "address": [ {
        "use": "billing",
        "type": "postal",
        "line": [ "P.O. Box 660044" ],
        "city": "Dallas",
        "state": "TX",
        "postalCode": "75266-0044",
        "country": "USA"
      } ]
    },
    "request": {
      "method": "PUT",
      "url": "Organization/b3aa609b-acaf-491c-9b8b-c6cafba91a99"
    }
  }, {
    "fullUrl": "https://madie.cms.gov/MeasureReport/c34fdcf9-4fef-4936-909d-8d85e8a6171b",
    "resource": {
      "resourceType": "MeasureReport",
      "id": "c34fdcf9-4fef-4936-909d-8d85e8a6171b",
      "meta": {
        "profile": [ "http://hl7.org/fhir/us/cqfmeasures/StructureDefinition/test-case-cqfm" ]
      },
      "contained": [ {
        "resourceType": "Parameters",
        "id": "7c728b6c-fbf5-4615-b0e8-4ccb0d443754-parameters",
        "parameter": [ {
          "name": "subject",
          "valueString": "7961993e-f025-4a12-9bb8-461c6ab3870e"
        } ]
      } ],
      "extension": [ {
        "url": "http://hl7.org/fhir/StructureDefinition/cqf-inputParameters",
        "valueReference": {
          "reference": "#7c728b6c-fbf5-4615-b0e8-4ccb0d443754-parameters"
        }
      }, {
        "url": "http://hl7.org/fhir/us/cqfmeasures/StructureDefinition/cqfm-testCaseDescription",
        "valueMarkdown": "Test and cover Dx clinicalstatus is remission"
      } ],
      "modifierExtension": [ {
        "url": "http://hl7.org/fhir/us/cqfmeasures/StructureDefinition/cqfm-isTestCase",
        "valueBoolean": true
      } ],
      "status": "complete",
      "type": "individual",
      "measure": "https://madie.cms.gov/Measure/CMS190FHIRVTEProphylaxisICU",
      "period": {
        "start": "2026-01-01",
        "end": "2026-12-31"
      },
      "group": [ {
        "id": "Group_1",
        "population": [ {
          "id": "InitialPopulation_1",
          "code": {
            "coding": [ {
              "system": "http://terminology.hl7.org/CodeSystem/measure-population",
              "code": "initial-population",
              "display": "Initial Population"
            } ]
          },
          "count": 1
        }, {
          "id": "Denominator_1",
          "code": {
            "coding": [ {
              "system": "http://terminology.hl7.org/CodeSystem/measure-population",
              "code": "denominator",
              "display": "Denominator"
            } ]
          },
          "count": 1
        }, {
          "id": "DenominatorExclusion_1",
          "code": {
            "coding": [ {
              "system": "http://terminology.hl7.org/CodeSystem/measure-population",
              "code": "denominator-exclusion",
              "display": "Denominator Exclusion"
            } ]
          },
          "count": 0
        }, {
          "id": "Numerator_1",
          "code": {
            "coding": [ {
              "system": "http://terminology.hl7.org/CodeSystem/measure-population",
              "code": "numerator",
              "display": "Numerator"
            } ]
          },
          "count": 1
        }, {
          "id": "DenominatorException_1",
          "code": {
            "coding": [ {
              "system": "http://terminology.hl7.org/CodeSystem/measure-population",
              "code": "denominator-exception",
              "display": "Denominator Exception"
            } ]
          },
          "count": 0
        } ],
        "measureScore": {
          "value": 0.0
        }
      } ],
      "evaluatedResource": [ {
        "reference": "Patient/7961993e-f025-4a12-9bb8-461c6ab3870e"
      }, {
        "reference": "Encounter/23e5ac83-4895-4ae6-a7fb-fa5ea4d95ba2"
      }, {
        "reference": "Coverage/ba3367cc-48d2-4d0f-9c74-931fc7b6588f"
      }, {
        "reference": "Condition/8b076533-54d4-436b-8107-5485187ec0eb"
      }, {
        "reference": "MedicationAdministration/467706a8-0fb5-44ef-bd02-86aaf1887528"
      }, {
        "reference": "Location/d594addb-49e5-41db-86b5-041a258fb2a6"
      }, {
        "reference": "Organization/b3aa609b-acaf-491c-9b8b-c6cafba91a99"
      } ]
    },
    "request": {
      "method": "PUT",
      "url": "MeasureReport/c34fdcf9-4fef-4936-909d-8d85e8a6171b"
    }
  } ]
}