{
  "resourceType": "Bundle",
  "id": "612e6ab302c62a011f2eafaf",
  "type": "transaction",
  "entry": [ {
    "fullUrl": "https://madie.cms.gov/Patient/632831b0-1ebf-47b5-b439-3a124cd77c37",
    "resource": {
      "resourceType": "Patient",
      "id": "632831b0-1ebf-47b5-b439-3a124cd77c37",
      "meta": {
        "profile": [ "http://hl7.org/fhir/us/qicore/StructureDefinition/qicore-patient" ]
      },
      "text": {
        "status": "generated",
        "div": "<div xmlns=\"http://www.w3.org/1999/xhtml\"><div class=\"hapiHeaderText\">PtRefDAVFPDayOfICU <b>NUMERPASS </b></div><table class=\"hapiPropertyTable\"><tbody><tr><td>Identifier</td><td>5f7ad5e9fc357bf072546722e2c19e60</td></tr><tr><td>Date of birth</td><td><span>02 January 1974</span></td></tr></tbody></table></div>"
      },
      "extension": [ {
        "url": "http://hl7.org/fhir/us/core/StructureDefinition/us-core-race",
        "extension": [ {
          "url": "ombCategory",
          "valueCoding": {
            "system": "urn:oid:2.16.840.1.113883.6.238",
            "code": "1002-5",
            "display": "American Indian or Alaska Native",
            "userSelected": true
          }
        }, {
          "url": "text",
          "valueString": "American Indian or Alaska Native"
        } ]
      }, {
        "url": "http://hl7.org/fhir/us/core/StructureDefinition/us-core-ethnicity",
        "extension": [ {
          "url": "ombCategory",
          "valueCoding": {
            "system": "urn:oid:2.16.840.1.113883.6.238",
            "code": "2135-2",
            "display": "Hispanic or Latino",
            "userSelected": true
          }
        }, {
          "url": "text",
          "valueString": "Hispanic or Latino"
        } ]
      } ],
      "identifier": [ {
        "type": {
          "coding": [ {
            "system": "http://terminology.hl7.org/CodeSystem/v2-0203",
            "code": "MR"
          } ]
        },
        "system": "https://bonnie-fhir.healthit.gov/",
        "value": "612e6ab302c62a011f2eafaf"
      } ],
      "active": true,
      "name": [ {
        "use": "usual",
        "family": "NUMERPass",
        "given": [ "PtRefDAVFPDayOfICU" ]
      } ],
      "gender": "male",
      "birthDate": "1975-01-02"
    },
    "request": {
      "method": "PUT",
      "url": "Patient/632831b0-1ebf-47b5-b439-3a124cd77c37"
    }
  }, {
    "fullUrl": "https://madie.cms.gov/Encounter/59a0bcb0-96db-4879-a65f-ddcc0db7ae6d",
    "resource": {
      "resourceType": "Encounter",
      "id": "59a0bcb0-96db-4879-a65f-ddcc0db7ae6d",
      "meta": {
        "profile": [ "http://hl7.org/fhir/us/qicore/StructureDefinition/qicore-encounter" ]
      },
      "status": "finished",
      "class": {
        "system": "http://terminology.hl7.org/CodeSystem/v3-ActCode",
        "code": "EMER",
        "display": "emergency"
      },
      "type": [ {
        "coding": [ {
          "system": "http://snomed.info/sct",
          "code": "4525004"
        } ]
      } ],
      "subject": {
        "reference": "Patient/632831b0-1ebf-47b5-b439-3a124cd77c37"
      },
      "period": {
        "start": "2026-10-31T05:00:00.000+00:00",
        "end": "2026-11-01T07:15:00.000+00:00"
      },
      "length": {
        "value": 1,
        "unit": "days"
      }
    },
    "request": {
      "method": "PUT",
      "url": "Encounter/59a0bcb0-96db-4879-a65f-ddcc0db7ae6d"
    }
  }, {
    "fullUrl": "https://madie.cms.gov/Encounter/eaa1a90e-d32c-4f2e-8adf-5928aa48839e",
    "resource": {
      "resourceType": "Encounter",
      "id": "eaa1a90e-d32c-4f2e-8adf-5928aa48839e",
      "meta": {
        "profile": [ "http://hl7.org/fhir/us/qicore/StructureDefinition/qicore-encounter" ]
      },
      "status": "finished",
      "class": {
        "system": "http://terminology.hl7.org/CodeSystem/v3-ActCode",
        "code": "IMP",
        "display": "inpatient encounter"
      },
      "type": [ {
        "coding": [ {
          "system": "http://snomed.info/sct",
          "code": "8715000"
        } ]
      } ],
      "subject": {
        "reference": "Patient/632831b0-1ebf-47b5-b439-3a124cd77c37"
      },
      "period": {
        "start": "2026-11-01T08:00:00.000+00:00",
        "end": "2026-11-26T08:15:00.000+00:00"
      },
      "length": {
        "value": 25,
        "unit": "days"
      },
      "location": [ {
        "location": {
          "reference": "Location/18441fc2-fbf4-45f5-bd3a-675d20372aca"
        },
        "period": {
          "start": "2026-11-01T09:00:00.000+00:00",
          "end": "2026-11-02T08:15:00.000+00:00"
        }
      } ]
    },
    "request": {
      "method": "PUT",
      "url": "Encounter/eaa1a90e-d32c-4f2e-8adf-5928aa48839e"
    }
  }, {
    "fullUrl": "https://madie.cms.gov/Coverage/4d7d74cc-8bcf-4498-8126-5afe97f56225",
    "resource": {
      "resourceType": "Coverage",
      "id": "4d7d74cc-8bcf-4498-8126-5afe97f56225",
      "status": "active",
      "beneficiary": {
        "reference": "Patient/632831b0-1ebf-47b5-b439-3a124cd77c37"
      },
      "period": {
        "start": "1975-01-02T08:00:00.000+00:00"
      },
      "payor": [ {
        "reference": "Organization/32b1aa2b-bef8-4c6a-9066-8492d9b6ee2c"
      } ]
    },
    "request": {
      "method": "PUT",
      "url": "Coverage/4d7d74cc-8bcf-4498-8126-5afe97f56225"
    }
  }, {
    "fullUrl": "https://madie.cms.gov/Procedure/b80509bc-b7d2-4e82-a94f-a5873fcd7176",
    "resource": {
      "resourceType": "Procedure",
      "id": "b80509bc-b7d2-4e82-a94f-a5873fcd7176",
      "meta": {
        "profile": [ "http://hl7.org/fhir/us/qicore/StructureDefinition/qicore-procedurenotdone" ]
      },
      "extension": [ {
        "url": "http://hl7.org/fhir/us/qicore/StructureDefinition/qicore-recorded",
        "valueDateTime": "2026-11-01T13:35:00.000+00:00"
      } ],
      "status": "not-done",
      "statusReason": {
        "coding": [ {
          "system": "http://snomed.info/sct",
          "code": "443390004",
          "display": "Refusal of treatment by patient (situation)",
          "userSelected": true
        } ]
      },
      "code": {
        "coding": [ {
          "system": "http://snomed.info/sct",
          "version": "2025-03",
          "code": "442410008",
          "display": "Application of venous foot pump (procedure)",
          "userSelected": true
        } ]
      },
      "subject": {
        "reference": "Patient/632831b0-1ebf-47b5-b439-3a124cd77c37"
      },
      "_performedDateTime": {
        "extension": [ {
          "url": "http://hl7.org/fhir/StructureDefinition/data-absent-reason",
          "valueCode": "not-performed"
        } ]
      }
    },
    "request": {
      "method": "PUT",
      "url": "Procedure/b80509bc-b7d2-4e82-a94f-a5873fcd7176"
    }
  }, {
    "fullUrl": "https://madie.cms.gov/Location/18441fc2-fbf4-45f5-bd3a-675d20372aca",
    "resource": {
      "resourceType": "Location",
      "id": "18441fc2-fbf4-45f5-bd3a-675d20372aca",
      "meta": {
        "profile": [ "http://hl7.org/fhir/us/qicore/StructureDefinition/qicore-location" ]
      },
      "identifier": [ {
        "use": "usual",
        "system": "http://exampleoflocation.com",
        "value": "B1-S.F2"
      } ],
      "name": "Medical Surgical East, first floor",
      "type": [ {
        "coding": [ {
          "system": "https://www.cdc.gov/nhsn/cdaportal/terminology/codesystem/hsloc.html",
          "code": "1025-6",
          "display": "Trauma Critical Care",
          "userSelected": true
        } ]
      } ]
    },
    "request": {
      "method": "PUT",
      "url": "Location/18441fc2-fbf4-45f5-bd3a-675d20372aca"
    }
  }, {
    "fullUrl": "https://madie.cms.gov/Organization/32b1aa2b-bef8-4c6a-9066-8492d9b6ee2c",
    "resource": {
      "resourceType": "Organization",
      "id": "32b1aa2b-bef8-4c6a-9066-8492d9b6ee2c",
      "meta": {
        "profile": [ "http://hl7.org/fhir/us/qicore/StructureDefinition/qicore-organization" ]
      },
      "identifier": [ {
        "use": "temp",
        "system": "urn:oid:2.16.840.1.113883.4.4",
        "value": "21-3259825"
      } ],
      "active": true,
      "type": [ {
        "coding": [ {
          "system": "http://terminology.hl7.org/CodeSystem/organization-type",
          "code": "pay",
          "display": "Payer"
        } ]
      } ],
      "name": "Blue Cross Blue Shield of Texas",
      "telecom": [ {
        "system": "phone",
        "value": "(+1) 972-766-6900"
      } ],
      "address": [ {
        "use": "billing",
        "type": "postal",
        "line": [ "P.O. Box 660044" ],
        "city": "Dallas",
        "state": "TX",
        "postalCode": "75266-0044",
        "country": "USA"
      } ]
    },
    "request": {
      "method": "PUT",
      "url": "Organization/32b1aa2b-bef8-4c6a-9066-8492d9b6ee2c"
    }
  }, {
    "fullUrl": "https://madie.cms.gov/Practitioner/9cd584d8-da7c-476f-98ae-c8f829715039",
    "resource": {
      "resourceType": "Practitioner",
      "id": "9cd584d8-da7c-476f-98ae-c8f829715039",
      "identifier": [ {
        "system": "http://hl7.org/fhir/sid/us-npi",
        "value": "123456"
      } ],
      "name": [ {
        "family": "Evil",
        "prefix": [ "Dr" ]
      } ]
    },
    "request": {
      "method": "PUT",
      "url": "Practitioner/9cd584d8-da7c-476f-98ae-c8f829715039"
    }
  }, {
    "fullUrl": "https://madie.cms.gov/MeasureReport/dff9d9bd-b0cc-400f-815b-9255b426e828",
    "resource": {
      "resourceType": "MeasureReport",
      "id": "dff9d9bd-b0cc-400f-815b-9255b426e828",
      "meta": {
        "profile": [ "http://hl7.org/fhir/us/cqfmeasures/StructureDefinition/test-case-cqfm" ]
      },
      "contained": [ {
        "resourceType": "Parameters",
        "id": "8bebf3bc-2e1b-493c-b8c9-56dd5c658a58-parameters",
        "parameter": [ {
          "name": "subject",
          "valueString": "632831b0-1ebf-47b5-b439-3a124cd77c37"
        } ]
      } ],
      "extension": [ {
        "url": "http://hl7.org/fhir/StructureDefinition/cqf-inputParameters",
        "valueReference": {
          "reference": "#8bebf3bc-2e1b-493c-b8c9-56dd5c658a58-parameters"
        }
      }, {
        "url": "http://hl7.org/fhir/us/cqfmeasures/StructureDefinition/cqfm-testCaseDescription",
        "valueMarkdown": "vfp adm not done due to patient refusal on the day of ICU\n"
      } ],
      "modifierExtension": [ {
        "url": "http://hl7.org/fhir/us/cqfmeasures/StructureDefinition/cqfm-isTestCase",
        "valueBoolean": true
      } ],
      "status": "complete",
      "type": "individual",
      "measure": "https://madie.cms.gov/Measure/CMS190FHIRVTEProphylaxisICU",
      "period": {
        "start": "2026-01-01",
        "end": "2026-12-31"
      },
      "group": [ {
        "id": "Group_1",
        "population": [ {
          "id": "InitialPopulation_1",
          "code": {
            "coding": [ {
              "system": "http://terminology.hl7.org/CodeSystem/measure-population",
              "code": "initial-population",
              "display": "Initial Population"
            } ]
          },
          "count": 1
        }, {
          "id": "Denominator_1",
          "code": {
            "coding": [ {
              "system": "http://terminology.hl7.org/CodeSystem/measure-population",
              "code": "denominator",
              "display": "Denominator"
            } ]
          },
          "count": 1
        }, {
          "id": "DenominatorExclusion_1",
          "code": {
            "coding": [ {
              "system": "http://terminology.hl7.org/CodeSystem/measure-population",
              "code": "denominator-exclusion",
              "display": "Denominator Exclusion"
            } ]
          },
          "count": 0
        }, {
          "id": "Numerator_1",
          "code": {
            "coding": [ {
              "system": "http://terminology.hl7.org/CodeSystem/measure-population",
              "code": "numerator",
              "display": "Numerator"
            } ]
          },
          "count": 1
        }, {
          "id": "DenominatorException_1",
          "code": {
            "coding": [ {
              "system": "http://terminology.hl7.org/CodeSystem/measure-population",
              "code": "denominator-exception",
              "display": "Denominator Exception"
            } ]
          },
          "count": 0
        } ],
        "measureScore": {
          "value": 0.0
        }
      } ],
      "evaluatedResource": [ {
        "reference": "Patient/632831b0-1ebf-47b5-b439-3a124cd77c37"
      }, {
        "reference": "Encounter/59a0bcb0-96db-4879-a65f-ddcc0db7ae6d"
      }, {
        "reference": "Encounter/eaa1a90e-d32c-4f2e-8adf-5928aa48839e"
      }, {
        "reference": "Coverage/4d7d74cc-8bcf-4498-8126-5afe97f56225"
      }, {
        "reference": "Procedure/b80509bc-b7d2-4e82-a94f-a5873fcd7176"
      }, {
        "reference": "Location/18441fc2-fbf4-45f5-bd3a-675d20372aca"
      }, {
        "reference": "Organization/32b1aa2b-bef8-4c6a-9066-8492d9b6ee2c"
      }, {
        "reference": "Practitioner/9cd584d8-da7c-476f-98ae-c8f829715039"
      } ]
    },
    "request": {
      "method": "PUT",
      "url": "MeasureReport/dff9d9bd-b0cc-400f-815b-9255b426e828"
    }
  } ]
}