{
  "resourceType": "Bundle",
  "id": "62bc69333e113102f8cedca6",
  "type": "collection",
  "entry": [ {
    "fullUrl": "https://madie.cms.gov/Patient/9bb98b0b-b99e-4d58-b17a-74dc43dc062a",
    "resource": {
      "resourceType": "Patient",
      "id": "9bb98b0b-b99e-4d58-b17a-74dc43dc062a",
      "meta": {
        "profile": [ "http://hl7.org/fhir/us/qicore/StructureDefinition/qicore-patient" ]
      },
      "extension": [ {
        "url": "http://hl7.org/fhir/us/core/StructureDefinition/us-core-race",
        "extension": [ {
          "url": "ombCategory",
          "valueCoding": {
            "system": "urn:oid:2.16.840.1.113883.6.238",
            "code": "1002-5",
            "display": "American Indian or Alaska Native"
          }
        }, {
          "url": "text",
          "valueString": "American Indian or Alaska Native"
        } ]
      }, {
        "url": "http://hl7.org/fhir/us/core/StructureDefinition/us-core-ethnicity",
        "extension": [ {
          "url": "ombCategory",
          "valueCoding": {
            "system": "urn:oid:2.16.840.1.113883.6.238",
            "code": "2135-2",
            "display": "Hispanic or Latino"
          }
        }, {
          "url": "text",
          "valueString": "Hispanic or Latino"
        } ]
      } ],
      "identifier": [ {
        "type": {
          "coding": [ {
            "system": "http://terminology.hl7.org/CodeSystem/v2-0203",
            "code": "MR"
          } ]
        },
        "system": "https://bonnie-fhir.healthit.gov/",
        "value": "62bc69333e113102f8cedca6"
      } ],
      "name": [ {
        "family": "NUMERPass",
        "given": [ "FirstStagingJuly1BeforeMPEdge" ]
      } ],
      "gender": "female",
      "birthDate": "1947-02-01"
    }
  }, {
    "fullUrl": "https://madie.cms.gov/Encounter/7c58f73f-0a0c-462f-ab51-62004e05619b",
    "resource": {
      "resourceType": "Encounter",
      "id": "7c58f73f-0a0c-462f-ab51-62004e05619b",
      "meta": {
        "profile": [ "http://hl7.org/fhir/us/qicore/StructureDefinition/qicore-encounter" ]
      },
      "status": "finished",
      "class": {
        "system": "http://terminology.hl7.org/CodeSystem/v3-ActCode",
        "code": "AMB",
        "display": "ambulatory"
      },
      "type": [ {
        "coding": [ {
          "system": "http://snomed.info/sct",
          "version": "http://snomed.info/sct/731000124108/version/20240301",
          "code": "185463005",
          "display": "Visit out of hours (procedure)"
        } ]
      } ],
      "subject": {
        "reference": "Patient/9bb98b0b-b99e-4d58-b17a-74dc43dc062a"
      },
      "period": {
        "start": "2026-01-01T08:00:00.000+00:00",
        "end": "2026-01-01T09:15:00.000+00:00"
      }
    }
  }, {
    "fullUrl": "https://madie.cms.gov/Condition/b0ba7191-e704-405d-b92e-558ac619aee9",
    "resource": {
      "resourceType": "Condition",
      "id": "b0ba7191-e704-405d-b92e-558ac619aee9",
      "meta": {
        "profile": [ "http://hl7.org/fhir/us/qicore/StructureDefinition/qicore-condition-problems-health-concerns" ]
      },
      "clinicalStatus": {
        "coding": [ {
          "system": "http://terminology.hl7.org/CodeSystem/condition-clinical",
          "code": "active",
          "display": "Active"
        } ]
      },
      "verificationStatus": {
        "coding": [ {
          "system": "http://terminology.hl7.org/CodeSystem/condition-ver-status",
          "code": "confirmed",
          "display": "Confirmed"
        } ]
      },
      "category": [ {
        "coding": [ {
          "system": "http://terminology.hl7.org/CodeSystem/condition-category",
          "code": "problem-list-item",
          "display": "Problem List Item"
        } ]
      } ],
      "code": {
        "coding": [ {
          "system": "http://hl7.org/fhir/sid/icd-10-cm",
          "version": "2024",
          "code": "C67.3",
          "display": "Malignant neoplasm of anterior wall of bladder"
        } ]
      },
      "subject": {
        "reference": "Patient/9bb98b0b-b99e-4d58-b17a-74dc43dc062a"
      },
      "onsetDateTime": "2025-07-01T08:15:00.000+00:00"
    }
  }, {
    "fullUrl": "https://madie.cms.gov/Observation/10f00381-a7e7-465a-bae1-1eeb4dc50ecc",
    "resource": {
      "resourceType": "Observation",
      "id": "10f00381-a7e7-465a-bae1-1eeb4dc50ecc",
      "meta": {
        "profile": [ "http://hl7.org/fhir/us/qicore/StructureDefinition/qicore-observation-lab" ]
      },
      "partOf": [ {
        "reference": "Procedure/afff3d5c-78bc-4a9e-8481-04b766ce7d07"
      } ],
      "status": "final",
      "category": [ {
        "coding": [ {
          "system": "http://terminology.hl7.org/CodeSystem/observation-category",
          "code": "procedure",
          "display": "Procedure"
        } ]
      }, {
        "coding": [ {
          "system": "http://terminology.hl7.org/CodeSystem/observation-category",
          "code": "laboratory",
          "display": "Laboratory"
        } ]
      } ],
      "code": {
        "coding": [ {
          "system": "http://loinc.org",
          "version": "2.76",
          "code": "21902-2",
          "display": "Stage group.pathology Cancer"
        } ]
      },
      "subject": {
        "reference": "Patient/9bb98b0b-b99e-4d58-b17a-74dc43dc062a"
      },
      "effectivePeriod": {
        "start": "2025-07-01T08:00:00.000+00:00",
        "end": "2025-07-01T08:15:00.000+00:00"
      },
      "issued": "2025-07-01T08:15:00.000+00:00",
      "valueCodeableConcept": {
        "coding": [ {
          "system": "http://snomed.info/sct",
          "version": "http://snomed.info/sct/731000124108/version/20240301",
          "code": "1228883000",
          "display": "American Joint Committee on Cancer cTa (qualifier value)"
        } ]
      }
    }
  }, {
    "fullUrl": "https://madie.cms.gov/MedicationAdministration/70208fc5-72aa-492d-acaf-3fedca68f16d",
    "resource": {
      "resourceType": "MedicationAdministration",
      "id": "70208fc5-72aa-492d-acaf-3fedca68f16d",
      "meta": {
        "profile": [ "http://hl7.org/fhir/us/qicore/StructureDefinition/qicore-medicationadministration" ]
      },
      "status": "in-progress",
      "medicationCodeableConcept": {
        "coding": [ {
          "system": "http://www.nlm.nih.gov/research/umls/rxnorm",
          "version": "06052023",
          "code": "1653579",
          "display": "BCG, live, Tice strain 50 MG Injection"
        } ]
      },
      "subject": {
        "reference": "Patient/9bb98b0b-b99e-4d58-b17a-74dc43dc062a"
      },
      "effectiveDateTime": "2026-01-01T08:00:00.000+00:00"
    }
  }, {
    "fullUrl": "https://madie.cms.gov/Practitioner/4eca4266-dddf-47e7-8a81-a2e4cd9b120f",
    "resource": {
      "resourceType": "Practitioner",
      "id": "4eca4266-dddf-47e7-8a81-a2e4cd9b120f",
      "meta": {
        "profile": [ "http://hl7.org/fhir/us/qicore/StructureDefinition/qicore-practitioner" ]
      },
      "identifier": [ {
        "use": "temp",
        "system": "urn:oid:2.16.840.1.113883.4.336",
        "value": "Practitioner-23"
      } ],
      "active": true,
      "name": [ {
        "family": "Careful",
        "given": [ "Adam" ],
        "prefix": [ "Dr" ]
      } ],
      "address": [ {
        "use": "home",
        "line": [ "534 Erewhon St" ],
        "city": "PleasantVille",
        "state": "UT",
        "postalCode": "84414"
      } ],
      "qualification": [ {
        "identifier": [ {
          "system": "http://example.org/UniversityIdentifier",
          "value": "12345"
        } ],
        "code": {
          "coding": [ {
            "system": "http://terminology.hl7.org/CodeSystem/v2-0360|2.7",
            "code": "BS",
            "display": "Bachelor of Science"
          } ],
          "text": "Bachelor of Science"
        },
        "period": {
          "start": "1996"
        },
        "issuer": {
          "display": "Example University"
        }
      } ]
    }
  }, {
    "fullUrl": "https://madie.cms.gov/Procedure/afff3d5c-78bc-4a9e-8481-04b766ce7d07",
    "resource": {
      "resourceType": "Procedure",
      "id": "afff3d5c-78bc-4a9e-8481-04b766ce7d07",
      "meta": {
        "profile": [ "http://hl7.org/fhir/us/qicore/StructureDefinition/qicore-procedure" ]
      },
      "extension": [ {
        "url": "http://hl7.org/fhir/us/qicore/StructureDefinition/qicore-recorded",
        "valueDateTime": "2025-07-01T08:00:00.000+00:00"
      } ],
      "status": "completed",
      "code": {
        "coding": [ {
          "system": "http://snomed.info/sct",
          "version": "http://snomed.info/sct/731000124108/version/20250301",
          "code": "254292007",
          "display": "Tumor staging",
          "userSelected": true
        } ]
      },
      "subject": {
        "reference": "Patient/9bb98b0b-b99e-4d58-b17a-74dc43dc062a"
      },
      "performedPeriod": {
        "start": "2025-07-01T08:00:00.000+00:00",
        "end": "2025-07-01T08:15:00.000+00:00"
      }
    }
  }, {
    "fullUrl": "https://madie.cms.gov/MeasureReport/11490585-cca6-4596-994f-2003a753dd79",
    "resource": {
      "resourceType": "MeasureReport",
      "id": "11490585-cca6-4596-994f-2003a753dd79",
      "meta": {
        "profile": [ "http://hl7.org/fhir/us/cqfmeasures/StructureDefinition/test-case-cqfm" ]
      },
      "contained": [ {
        "resourceType": "Parameters",
        "id": "31d35aed-a5b4-452b-910c-0f8d0fabaaf7-parameters",
        "parameter": [ {
          "name": "subject",
          "valueString": "9bb98b0b-b99e-4d58-b17a-74dc43dc062a"
        } ]
      } ],
      "extension": [ {
        "url": "http://hl7.org/fhir/StructureDefinition/cqf-inputParameters",
        "valueReference": {
          "reference": "#31d35aed-a5b4-452b-910c-0f8d0fabaaf7-parameters"
        }
      }, {
        "url": "http://hl7.org/fhir/us/cqfmeasures/StructureDefinition/cqfm-testCaseDescription",
        "valueMarkdown": "Patient with OV in MP. Bladder cancer staging July 1 year prior to MP with bladder cancer diagnosis.  BCG given Jan 1 of MP."
      } ],
      "modifierExtension": [ {
        "url": "http://hl7.org/fhir/us/cqfmeasures/StructureDefinition/cqfm-isTestCase",
        "valueBoolean": true
      } ],
      "status": "complete",
      "type": "individual",
      "measure": "https://madie.cms.gov/Measure/CMS646FHIRIntravesicalBCGTherapy",
      "period": {
        "start": "2026-01-01",
        "end": "2026-12-31"
      },
      "group": [ {
        "id": "Group_1",
        "population": [ {
          "id": "InitialPopulation_1",
          "code": {
            "coding": [ {
              "system": "http://terminology.hl7.org/CodeSystem/measure-population",
              "code": "initial-population",
              "display": "Initial Population"
            } ]
          },
          "count": 1
        }, {
          "id": "Denominator_1",
          "code": {
            "coding": [ {
              "system": "http://terminology.hl7.org/CodeSystem/measure-population",
              "code": "denominator",
              "display": "Denominator"
            } ]
          },
          "count": 1
        }, {
          "id": "DenominatorExclusion_1",
          "code": {
            "coding": [ {
              "system": "http://terminology.hl7.org/CodeSystem/measure-population",
              "code": "denominator-exclusion",
              "display": "Denominator Exclusion"
            } ]
          },
          "count": 0
        }, {
          "id": "Numerator_1",
          "code": {
            "coding": [ {
              "system": "http://terminology.hl7.org/CodeSystem/measure-population",
              "code": "numerator",
              "display": "Numerator"
            } ]
          },
          "count": 1
        }, {
          "id": "DenominatorException_1",
          "code": {
            "coding": [ {
              "system": "http://terminology.hl7.org/CodeSystem/measure-population",
              "code": "denominator-exception",
              "display": "Denominator Exception"
            } ]
          },
          "count": 0
        } ],
        "measureScore": {
          "value": 1.0
        }
      } ],
      "evaluatedResource": [ {
        "reference": "Patient/9bb98b0b-b99e-4d58-b17a-74dc43dc062a"
      }, {
        "reference": "Encounter/7c58f73f-0a0c-462f-ab51-62004e05619b"
      }, {
        "reference": "Condition/b0ba7191-e704-405d-b92e-558ac619aee9"
      }, {
        "reference": "Observation/10f00381-a7e7-465a-bae1-1eeb4dc50ecc"
      }, {
        "reference": "MedicationAdministration/70208fc5-72aa-492d-acaf-3fedca68f16d"
      }, {
        "reference": "Practitioner/4eca4266-dddf-47e7-8a81-a2e4cd9b120f"
      }, {
        "reference": "Procedure/afff3d5c-78bc-4a9e-8481-04b766ce7d07"
      } ]
    }
  } ]
}