{
  "resourceType": "Bundle",
  "id": "Patient-51-NUMPass-GMILabTest",
  "type": "transaction",
  "entry": [ {
    "fullUrl": "https://madie.cms.gov/Patient/9da62d36-585d-455e-8cb5-8e5da1f3e476",
    "resource": {
      "resourceType": "Patient",
      "id": "9da62d36-585d-455e-8cb5-8e5da1f3e476",
      "meta": {
        "profile": [ "http://hl7.org/fhir/us/qicore/StructureDefinition/qicore-patient" ]
      },
      "extension": [ {
        "url": "http://hl7.org/fhir/us/core/StructureDefinition/us-core-race",
        "extension": [ {
          "url": "ombCategory",
          "valueCoding": {
            "system": "urn:oid:2.16.840.1.113883.6.238",
            "code": "2028-9",
            "display": "Asian",
            "userSelected": true
          }
        }, {
          "url": "text",
          "valueString": "Asian"
        } ]
      }, {
        "url": "http://hl7.org/fhir/us/core/StructureDefinition/us-core-ethnicity",
        "extension": [ {
          "url": "ombCategory",
          "valueCoding": {
            "system": "urn:oid:2.16.840.1.113883.6.238",
            "code": "2135-2",
            "display": "Hispanic or Latino",
            "userSelected": true
          }
        }, {
          "url": "text",
          "valueString": "Hispanic or Latino"
        } ]
      } ],
      "identifier": [ {
        "type": {
          "coding": [ {
            "system": "http://terminology.hl7.org/CodeSystem/v2-0203",
            "code": "MR"
          } ]
        },
        "system": "http://hospital.smarthealthit.org",
        "value": "999999995"
      } ],
      "name": [ {
        "family": "Bertha",
        "given": [ "Betty" ]
      } ],
      "gender": "female",
      "birthDate": "2006-01-01"
    },
    "request": {
      "method": "PUT",
      "url": "Patient/9da62d36-585d-455e-8cb5-8e5da1f3e476"
    }
  }, {
    "fullUrl": "https://madie.cms.gov/Encounter/741d8fc2-1ca4-48ee-aa48-749a4e15a476",
    "resource": {
      "resourceType": "Encounter",
      "id": "741d8fc2-1ca4-48ee-aa48-749a4e15a476",
      "meta": {
        "profile": [ "http://hl7.org/fhir/us/qicore/StructureDefinition/qicore-encounter" ]
      },
      "status": "finished",
      "class": {
        "system": "http://terminology.hl7.org/CodeSystem/v3-ActCode",
        "code": "AMB",
        "display": "ambulatory"
      },
      "type": [ {
        "coding": [ {
          "system": "http://snomed.info/sct",
          "code": "185460008",
          "display": "Home visit request by patient (procedure)"
        } ]
      } ],
      "subject": {
        "reference": "Patient/9da62d36-585d-455e-8cb5-8e5da1f3e476"
      },
      "period": {
        "start": "2026-01-01T00:00:00.000+00:00",
        "end": "2026-01-01T00:15:00.000+00:00"
      }
    },
    "request": {
      "method": "PUT",
      "url": "Encounter/741d8fc2-1ca4-48ee-aa48-749a4e15a476"
    }
  }, {
    "fullUrl": "https://madie.cms.gov/Condition/0a6835b1-0517-4512-9a38-4050b020d86f",
    "resource": {
      "resourceType": "Condition",
      "id": "0a6835b1-0517-4512-9a38-4050b020d86f",
      "meta": {
        "profile": [ "http://hl7.org/fhir/us/qicore/StructureDefinition/qicore-condition-encounter-diagnosis" ]
      },
      "clinicalStatus": {
        "coding": [ {
          "system": "http://terminology.hl7.org/CodeSystem/condition-clinical",
          "code": "active"
        } ]
      },
      "category": [ {
        "coding": [ {
          "system": "http://terminology.hl7.org/CodeSystem/condition-category",
          "code": "encounter-diagnosis",
          "display": "Encounter Diagnosis"
        } ]
      } ],
      "code": {
        "coding": [ {
          "system": "http://snomed.info/sct",
          "code": "102781000119107",
          "display": "Sensory neuropathy due to type 1 diabetes mellitus (disorder)"
        } ]
      },
      "subject": {
        "reference": "Patient/9da62d36-585d-455e-8cb5-8e5da1f3e476"
      },
      "onsetDateTime": "2026-01-01T23:59:00.000+00:00"
    },
    "request": {
      "method": "PUT",
      "url": "Condition/0a6835b1-0517-4512-9a38-4050b020d86f"
    }
  }, {
    "fullUrl": "https://madie.cms.gov/Observation/5d2dd1f2-dd32-4303-b2d6-3fed6dbd192b",
    "resource": {
      "resourceType": "Observation",
      "id": "5d2dd1f2-dd32-4303-b2d6-3fed6dbd192b",
      "meta": {
        "profile": [ "http://hl7.org/fhir/us/qicore/StructureDefinition/qicore-observation-lab" ]
      },
      "status": "corrected",
      "category": [ {
        "coding": [ {
          "system": "http://terminology.hl7.org/CodeSystem/observation-category",
          "code": "laboratory"
        } ]
      } ],
      "code": {
        "coding": [ {
          "system": "http://loinc.org",
          "code": "97506-0",
          "display": "Glucose management indicator"
        } ]
      },
      "subject": {
        "reference": "Patient/9da62d36-585d-455e-8cb5-8e5da1f3e476"
      },
      "effectivePeriod": {
        "start": "2026-01-02T00:00:00.000+00:00",
        "end": "2026-01-03T00:00:00.000+00:00"
      },
      "valueQuantity": {
        "value": 9.1,
        "unit": "%",
        "system": "http://unitsofmeasure.org",
        "code": "%"
      }
    },
    "request": {
      "method": "PUT",
      "url": "Observation/5d2dd1f2-dd32-4303-b2d6-3fed6dbd192b"
    }
  }, {
    "fullUrl": "https://madie.cms.gov/MeasureReport/18b2c127-9975-4447-b5fb-38290111b111",
    "resource": {
      "resourceType": "MeasureReport",
      "id": "18b2c127-9975-4447-b5fb-38290111b111",
      "meta": {
        "profile": [ "http://hl7.org/fhir/us/cqfmeasures/StructureDefinition/test-case-cqfm" ]
      },
      "contained": [ {
        "resourceType": "Parameters",
        "id": "67729c3c-2042-465e-b249-c9352a2cb58f-parameters",
        "parameter": [ {
          "name": "subject",
          "valueString": "9da62d36-585d-455e-8cb5-8e5da1f3e476"
        } ]
      } ],
      "extension": [ {
        "url": "http://hl7.org/fhir/StructureDefinition/cqf-inputParameters",
        "valueReference": {
          "reference": "#67729c3c-2042-465e-b249-c9352a2cb58f-parameters"
        }
      }, {
        "url": "http://hl7.org/fhir/us/cqfmeasures/StructureDefinition/cqfm-testCaseDescription",
        "valueMarkdown": "GMI lab test performed"
      } ],
      "modifierExtension": [ {
        "url": "http://hl7.org/fhir/us/cqfmeasures/StructureDefinition/cqfm-isTestCase",
        "valueBoolean": true
      } ],
      "status": "complete",
      "type": "individual",
      "measure": "https://madie.cms.gov/Measure/CMS122FHIRDiabetesAssessGT9Pct",
      "period": {
        "start": "2026-01-01",
        "end": "2026-12-31"
      },
      "group": [ {
        "id": "Group_1",
        "population": [ {
          "id": "InitialPopulation_1",
          "code": {
            "coding": [ {
              "system": "http://terminology.hl7.org/CodeSystem/measure-population",
              "code": "initial-population",
              "display": "Initial Population"
            } ]
          },
          "count": 1
        }, {
          "id": "Denominator_1",
          "code": {
            "coding": [ {
              "system": "http://terminology.hl7.org/CodeSystem/measure-population",
              "code": "denominator",
              "display": "Denominator"
            } ]
          },
          "count": 1
        }, {
          "id": "DenominatorExclusion_1",
          "code": {
            "coding": [ {
              "system": "http://terminology.hl7.org/CodeSystem/measure-population",
              "code": "denominator-exclusion",
              "display": "Denominator Exclusion"
            } ]
          },
          "count": 0
        }, {
          "id": "Numerator_1",
          "code": {
            "coding": [ {
              "system": "http://terminology.hl7.org/CodeSystem/measure-population",
              "code": "numerator",
              "display": "Numerator"
            } ]
          },
          "count": 1
        } ],
        "measureScore": {
          "value": 1.0
        }
      } ],
      "evaluatedResource": [ {
        "reference": "Patient/9da62d36-585d-455e-8cb5-8e5da1f3e476"
      }, {
        "reference": "Encounter/741d8fc2-1ca4-48ee-aa48-749a4e15a476"
      }, {
        "reference": "Condition/0a6835b1-0517-4512-9a38-4050b020d86f"
      }, {
        "reference": "Observation/5d2dd1f2-dd32-4303-b2d6-3fed6dbd192b"
      } ]
    },
    "request": {
      "method": "PUT",
      "url": "MeasureReport/18b2c127-9975-4447-b5fb-38290111b111"
    }
  } ]
}