{
  "resourceType": "Bundle",
  "id": "IPFail-18WOffVisEncJan1OfMPDiabetesDxDec31B4MP",
  "type": "transaction",
  "entry": [ {
    "fullUrl": "https://madie.cms.gov/Patient/64bf75d0-95af-4d65-bd4e-fc5d862c6fd3",
    "resource": {
      "resourceType": "Patient",
      "id": "64bf75d0-95af-4d65-bd4e-fc5d862c6fd3",
      "meta": {
        "profile": [ "http://hl7.org/fhir/us/qicore/StructureDefinition/qicore-patient" ]
      },
      "extension": [ {
        "url": "http://hl7.org/fhir/us/core/StructureDefinition/us-core-race",
        "extension": [ {
          "url": "ombCategory",
          "valueCoding": {
            "system": "urn:oid:2.16.840.1.113883.6.238",
            "code": "2028-9",
            "display": "Asian"
          }
        }, {
          "url": "text",
          "valueString": "Asian"
        } ]
      }, {
        "url": "http://hl7.org/fhir/us/core/StructureDefinition/us-core-ethnicity",
        "extension": [ {
          "url": "ombCategory",
          "valueCoding": {
            "system": "urn:oid:2.16.840.1.113883.6.238",
            "code": "2135-2",
            "display": "Hispanic or Latino"
          }
        }, {
          "url": "text",
          "valueString": "Hispanic or Latino"
        } ]
      } ],
      "identifier": [ {
        "system": "http://hospital.smarthealthit.org",
        "value": "999999995"
      } ],
      "name": [ {
        "family": "Bertha",
        "given": [ "Betty" ]
      } ],
      "gender": "female",
      "birthDate": "2007-12-31"
    },
    "request": {
      "method": "PUT",
      "url": "Patient/64bf75d0-95af-4d65-bd4e-fc5d862c6fd3"
    }
  }, {
    "fullUrl": "https://madie.cms.gov/Encounter/9235e86d-68ce-4c79-9975-6820ab38036f",
    "resource": {
      "resourceType": "Encounter",
      "id": "9235e86d-68ce-4c79-9975-6820ab38036f",
      "meta": {
        "profile": [ "http://hl7.org/fhir/us/qicore/StructureDefinition/qicore-encounter" ]
      },
      "status": "finished",
      "class": {
        "system": "http://terminology.hl7.org/CodeSystem/v3-ActCode",
        "code": "AMB",
        "display": "ambulatory"
      },
      "type": [ {
        "coding": [ {
          "system": "http://snomed.info/sct",
          "code": "185463005",
          "display": "Visit out of hours (procedure)"
        } ]
      } ],
      "subject": {
        "reference": "Patient/64bf75d0-95af-4d65-bd4e-fc5d862c6fd3"
      },
      "period": {
        "start": "2026-01-01T00:00:00.000+00:00",
        "end": "2026-01-01T00:00:00.000+00:00"
      }
    },
    "request": {
      "method": "PUT",
      "url": "Encounter/9235e86d-68ce-4c79-9975-6820ab38036f"
    }
  }, {
    "fullUrl": "https://madie.cms.gov/Condition/4059f1e3-b395-4a07-9f2f-fcc48501de6b",
    "resource": {
      "resourceType": "Condition",
      "id": "4059f1e3-b395-4a07-9f2f-fcc48501de6b",
      "meta": {
        "profile": [ "http://hl7.org/fhir/us/qicore/StructureDefinition/qicore-condition-encounter-diagnosis" ]
      },
      "clinicalStatus": {
        "coding": [ {
          "system": "http://terminology.hl7.org/CodeSystem/condition-clinical",
          "code": "resolved"
        } ]
      },
      "category": [ {
        "coding": [ {
          "system": "http://terminology.hl7.org/CodeSystem/condition-category",
          "code": "encounter-diagnosis",
          "display": "Encounter Diagnosis"
        } ]
      } ],
      "code": {
        "coding": [ {
          "system": "http://snomed.info/sct",
          "code": "102781000119107",
          "display": "Sensory neuropathy due to type 1 diabetes mellitus (disorder)"
        } ]
      },
      "subject": {
        "reference": "Patient/64bf75d0-95af-4d65-bd4e-fc5d862c6fd3"
      },
      "onsetDateTime": "2023-12-31T23:59:59.000+00:00",
      "abatementDateTime": "2023-12-31T23:59:59.000+00:00"
    },
    "request": {
      "method": "PUT",
      "url": "Condition/4059f1e3-b395-4a07-9f2f-fcc48501de6b"
    }
  }, {
    "fullUrl": "https://madie.cms.gov/MeasureReport/aa399c0d-777e-4c19-9ced-a2e80cdbf1c1",
    "resource": {
      "resourceType": "MeasureReport",
      "id": "aa399c0d-777e-4c19-9ced-a2e80cdbf1c1",
      "meta": {
        "profile": [ "http://hl7.org/fhir/us/cqfmeasures/StructureDefinition/test-case-cqfm" ]
      },
      "contained": [ {
        "resourceType": "Parameters",
        "id": "8fa57cd0-24ee-4677-830a-32ee6f23981c-parameters",
        "parameter": [ {
          "name": "subject",
          "valueString": "64bf75d0-95af-4d65-bd4e-fc5d862c6fd3"
        } ]
      } ],
      "extension": [ {
        "url": "http://hl7.org/fhir/StructureDefinition/cqf-inputParameters",
        "valueReference": {
          "reference": "#8fa57cd0-24ee-4677-830a-32ee6f23981c-parameters"
        }
      }, {
        "url": "http://hl7.org/fhir/us/cqfmeasures/StructureDefinition/cqfm-testCaseDescription",
        "valueMarkdown": "Patient 18yo w/ an Office Visit Encounter 1/1 during the MP & Diabetes Condition ending 12/31 before the MP."
      } ],
      "modifierExtension": [ {
        "url": "http://hl7.org/fhir/us/cqfmeasures/StructureDefinition/cqfm-isTestCase",
        "valueBoolean": true
      } ],
      "status": "complete",
      "type": "individual",
      "measure": "https://madie.cms.gov/Measure/CMS131FHIRDiabetesEyeExam",
      "period": {
        "start": "2026-01-01",
        "end": "2026-12-31"
      },
      "group": [ {
        "id": "Group_1",
        "population": [ {
          "id": "InitialPopulation_1",
          "code": {
            "coding": [ {
              "system": "http://terminology.hl7.org/CodeSystem/measure-population",
              "code": "initial-population",
              "display": "Initial Population"
            } ]
          },
          "count": 0
        }, {
          "id": "Denominator_1",
          "code": {
            "coding": [ {
              "system": "http://terminology.hl7.org/CodeSystem/measure-population",
              "code": "denominator",
              "display": "Denominator"
            } ]
          },
          "count": 0
        }, {
          "id": "DenominatorExclusion_1",
          "code": {
            "coding": [ {
              "system": "http://terminology.hl7.org/CodeSystem/measure-population",
              "code": "denominator-exclusion",
              "display": "Denominator Exclusion"
            } ]
          },
          "count": 0
        }, {
          "id": "Numerator_1",
          "code": {
            "coding": [ {
              "system": "http://terminology.hl7.org/CodeSystem/measure-population",
              "code": "numerator",
              "display": "Numerator"
            } ]
          },
          "count": 0
        } ],
        "measureScore": {
          "value": 1.0
        }
      } ],
      "evaluatedResource": [ {
        "reference": "Patient/64bf75d0-95af-4d65-bd4e-fc5d862c6fd3"
      }, {
        "reference": "Encounter/9235e86d-68ce-4c79-9975-6820ab38036f"
      }, {
        "reference": "Condition/4059f1e3-b395-4a07-9f2f-fcc48501de6b"
      } ]
    },
    "request": {
      "method": "PUT",
      "url": "MeasureReport/aa399c0d-777e-4c19-9ced-a2e80cdbf1c1"
    }
  } ]
}