{
  "resourceType": "Bundle",
  "id": "63487c2d0968f80122540143",
  "type": "transaction",
  "entry": [ {
    "fullUrl": "https://madie.cms.gov/Patient/912e076d-3b5d-46cc-b2cb-c78172b295a3",
    "resource": {
      "resourceType": "Patient",
      "id": "912e076d-3b5d-46cc-b2cb-c78172b295a3",
      "meta": {
        "profile": [ "http://hl7.org/fhir/us/qicore/StructureDefinition/qicore-patient" ]
      },
      "text": {
        "status": "generated",
        "div": "<div xmlns=\"http://www.w3.org/1999/xhtml\"><div class=\"hapiHeaderText\">EGALT37weeks<b>DENOMFail</b></div><table class=\"hapiPropertyTable\"><tbody><tr><td>Identifier</td><td>abdde563892ce226aeccbefc9ec5c953</td></tr><tr><td>Date of birth</td><td><span>14 February 1985</span></td></tr></tbody></table></div>"
      },
      "extension": [ {
        "url": "http://hl7.org/fhir/us/core/StructureDefinition/us-core-race",
        "extension": [ {
          "url": "ombCategory",
          "valueCoding": {
            "system": "urn:oid:2.16.840.1.113883.6.238",
            "code": "1002-5",
            "display": "American Indian or Alaska Native",
            "userSelected": true
          }
        }, {
          "url": "text",
          "valueString": "American Indian or Alaska Native"
        } ]
      }, {
        "url": "http://hl7.org/fhir/us/core/StructureDefinition/us-core-ethnicity",
        "extension": [ {
          "url": "ombCategory",
          "valueCoding": {
            "system": "urn:oid:2.16.840.1.113883.6.238",
            "code": "2135-2",
            "display": "Hispanic or Latino",
            "userSelected": true
          }
        }, {
          "url": "text",
          "valueString": "Hispanic or Latino"
        } ]
      } ],
      "identifier": [ {
        "type": {
          "coding": [ {
            "system": "http://terminology.hl7.org/CodeSystem/v2-0203",
            "code": "MR"
          } ]
        },
        "system": "https://bonnie-fhir.healthit.gov/",
        "value": "63487c2d0968f80122540143"
      } ],
      "active": true,
      "name": [ {
        "use": "usual",
        "family": "DENOMFail",
        "given": [ "EGALT37weeks" ]
      } ],
      "gender": "female",
      "birthDate": "1998-02-14"
    },
    "request": {
      "method": "PUT",
      "url": "Patient/912e076d-3b5d-46cc-b2cb-c78172b295a3"
    }
  }, {
    "fullUrl": "https://madie.cms.gov/Observation/1c40554d-ccd2-444c-ab2e-29f989730bd1",
    "resource": {
      "resourceType": "Observation",
      "id": "1c40554d-ccd2-444c-ab2e-29f989730bd1",
      "meta": {
        "profile": [ "http://hl7.org/fhir/us/qicore/StructureDefinition/qicore-simple-observation" ]
      },
      "status": "final",
      "category": [ {
        "coding": [ {
          "system": "http://terminology.hl7.org/CodeSystem/observation-category",
          "code": "exam",
          "display": "exam",
          "userSelected": true
        } ]
      } ],
      "code": {
        "coding": [ {
          "system": "http://loinc.org",
          "code": "11977-6"
        } ]
      },
      "subject": {
        "reference": "Patient/912e076d-3b5d-46cc-b2cb-c78172b295a3"
      },
      "effectiveDateTime": "2026-03-08T09:00:00.000+00:00",
      "performer": [ {
        "reference": "Organization/example1",
        "display": "Hendricks Country Hospital"
      } ],
      "valueInteger": 0
    },
    "request": {
      "method": "PUT",
      "url": "Observation/1c40554d-ccd2-444c-ab2e-29f989730bd1"
    }
  }, {
    "fullUrl": "https://madie.cms.gov/Observation/b432b670-32be-4246-9f8a-1441648eef50",
    "resource": {
      "resourceType": "Observation",
      "id": "b432b670-32be-4246-9f8a-1441648eef50",
      "meta": {
        "profile": [ "http://hl7.org/fhir/us/qicore/StructureDefinition/qicore-simple-observation" ]
      },
      "status": "final",
      "category": [ {
        "coding": [ {
          "system": "http://terminology.hl7.org/CodeSystem/observation-category",
          "code": "exam",
          "display": "exam",
          "userSelected": true
        } ]
      } ],
      "code": {
        "coding": [ {
          "system": "http://loinc.org",
          "code": "11996-6"
        } ]
      },
      "subject": {
        "reference": "Patient/912e076d-3b5d-46cc-b2cb-c78172b295a3"
      },
      "effectiveDateTime": "2026-03-09T08:00:00.000+00:00",
      "performer": [ {
        "reference": "Organization/example1",
        "display": "Hendricks Country Hospital"
      } ],
      "valueInteger": 1
    },
    "request": {
      "method": "PUT",
      "url": "Observation/b432b670-32be-4246-9f8a-1441648eef50"
    }
  }, {
    "fullUrl": "https://madie.cms.gov/Observation/0a43c8d3-0d17-49ec-b439-efa9da0b7ad7",
    "resource": {
      "resourceType": "Observation",
      "id": "0a43c8d3-0d17-49ec-b439-efa9da0b7ad7",
      "meta": {
        "profile": [ "http://hl7.org/fhir/us/qicore/StructureDefinition/qicore-simple-observation" ]
      },
      "status": "final",
      "category": [ {
        "coding": [ {
          "system": "http://terminology.hl7.org/CodeSystem/observation-category",
          "code": "exam",
          "display": "exam",
          "userSelected": true
        } ]
      } ],
      "code": {
        "coding": [ {
          "system": "http://loinc.org",
          "code": "11884-4"
        } ]
      },
      "subject": {
        "reference": "Patient/912e076d-3b5d-46cc-b2cb-c78172b295a3"
      },
      "effectiveDateTime": "2026-06-08T17:00:00.000+00:00",
      "performer": [ {
        "reference": "Organization/example1",
        "display": "Hendricks Country Hospital"
      } ],
      "valueQuantity": {
        "value": 36,
        "system": "http://unitsofmeasure.org",
        "code": "wk"
      }
    },
    "request": {
      "method": "PUT",
      "url": "Observation/0a43c8d3-0d17-49ec-b439-efa9da0b7ad7"
    }
  }, {
    "fullUrl": "https://madie.cms.gov/Observation/acda2a10-602e-4a20-97cd-9e75bc48543e",
    "resource": {
      "resourceType": "Observation",
      "id": "acda2a10-602e-4a20-97cd-9e75bc48543e",
      "meta": {
        "profile": [ "http://hl7.org/fhir/us/qicore/StructureDefinition/qicore-simple-observation" ]
      },
      "status": "final",
      "category": [ {
        "coding": [ {
          "system": "http://terminology.hl7.org/CodeSystem/observation-category",
          "code": "exam",
          "display": "exam",
          "userSelected": true
        } ]
      } ],
      "code": {
        "coding": [ {
          "system": "http://loinc.org",
          "code": "93857-1"
        } ]
      },
      "subject": {
        "reference": "Patient/912e076d-3b5d-46cc-b2cb-c78172b295a3"
      },
      "effectiveDateTime": "2026-06-08T20:00:00.000+00:00",
      "performer": [ {
        "reference": "Organization/example1",
        "display": "Hendricks Country Hospital"
      } ],
      "valueDateTime": "2026-06-08T20:00:00.000+00:00"
    },
    "request": {
      "method": "PUT",
      "url": "Observation/acda2a10-602e-4a20-97cd-9e75bc48543e"
    }
  }, {
    "fullUrl": "https://madie.cms.gov/Encounter/214a55b4-4427-4583-8c38-0b70831995f9",
    "resource": {
      "resourceType": "Encounter",
      "id": "214a55b4-4427-4583-8c38-0b70831995f9",
      "meta": {
        "profile": [ "http://hl7.org/fhir/us/qicore/StructureDefinition/qicore-encounter" ]
      },
      "status": "finished",
      "class": {
        "system": "http://terminology.hl7.org/CodeSystem/v3-ActCode",
        "code": "IMP",
        "display": "inpatient encounter"
      },
      "type": [ {
        "coding": [ {
          "system": "http://snomed.info/sct",
          "code": "8715000"
        } ]
      } ],
      "subject": {
        "reference": "Patient/912e076d-3b5d-46cc-b2cb-c78172b295a3"
      },
      "period": {
        "start": "2026-06-08T08:00:00.000+00:00",
        "end": "2026-06-10T08:15:00.000+00:00"
      },
      "length": {
        "value": 2,
        "unit": "days"
      },
      "reasonCode": [ {
        "coding": [ {
          "system": "http://snomed.info/sct",
          "code": "169826009",
          "display": "Single live birth from singleton pregnancy (finding)"
        } ]
      } ]
    },
    "request": {
      "method": "PUT",
      "url": "Encounter/214a55b4-4427-4583-8c38-0b70831995f9"
    }
  }, {
    "fullUrl": "https://madie.cms.gov/Procedure/eb0af4fc-3ded-497d-8511-c056b04314f9",
    "resource": {
      "resourceType": "Procedure",
      "id": "eb0af4fc-3ded-497d-8511-c056b04314f9",
      "meta": {
        "profile": [ "http://hl7.org/fhir/us/qicore/StructureDefinition/qicore-procedure" ]
      },
      "extension": [ {
        "url": "http://hl7.org/fhir/us/qicore/StructureDefinition/qicore-recorded",
        "valueDateTime": "2014-04-05T13:35:00.000+00:00"
      } ],
      "status": "completed",
      "code": {
        "coding": [ {
          "system": "http://www.cms.gov/Medicare/Coding/ICD10",
          "code": "10D00Z0"
        }, {
          "system": "http://snomed.info/sct",
          "code": "4504004"
        } ]
      },
      "subject": {
        "reference": "Patient/912e076d-3b5d-46cc-b2cb-c78172b295a3"
      },
      "performedPeriod": {
        "start": "2026-06-08T20:00:00.000+00:00"
      }
    },
    "request": {
      "method": "PUT",
      "url": "Procedure/eb0af4fc-3ded-497d-8511-c056b04314f9"
    }
  }, {
    "fullUrl": "https://madie.cms.gov/Condition/6b6cb3d7-3faa-4d3c-a462-7a317912bdb3",
    "resource": {
      "resourceType": "Condition",
      "id": "6b6cb3d7-3faa-4d3c-a462-7a317912bdb3",
      "meta": {
        "profile": [ "http://hl7.org/fhir/us/qicore/StructureDefinition/qicore-condition" ]
      },
      "category": [ {
        "coding": [ {
          "system": "http://terminology.hl7.org/CodeSystem/condition-category",
          "code": "encounter-diagnosis",
          "display": "Encounter Diagnosis"
        } ]
      } ],
      "code": {
        "coding": [ {
          "system": "http://snomed.info/sct",
          "version": "2022-09",
          "code": "169826009",
          "display": "Single live birth (finding)",
          "userSelected": true
        } ]
      },
      "subject": {
        "reference": "Patient/912e076d-3b5d-46cc-b2cb-c78172b295a3"
      },
      "recordedDate": "2026-10-21T08:00:00.000+00:00"
    },
    "request": {
      "method": "PUT",
      "url": "Condition/6b6cb3d7-3faa-4d3c-a462-7a317912bdb3"
    }
  }, {
    "fullUrl": "https://madie.cms.gov/Coverage/26af3ea3-9f4f-43ad-92b8-dd1abce19da6",
    "resource": {
      "resourceType": "Coverage",
      "id": "26af3ea3-9f4f-43ad-92b8-dd1abce19da6",
      "meta": {
        "profile": [ "http://hl7.org/fhir/us/qicore/StructureDefinition/qicore-coverage" ]
      },
      "status": "active",
      "subscriberId": "523435",
      "beneficiary": {
        "reference": "Patient/912e076d-3b5d-46cc-b2cb-c78172b295a3"
      },
      "relationship": {
        "coding": [ {
          "system": "http://terminology.hl7.org/CodeSystem/subscriber-relationship",
          "code": "self"
        } ]
      },
      "payor": [ {
        "reference": "Organization/58f7f460-7143-4639-84ec-b9603eb90520"
      } ]
    },
    "request": {
      "method": "PUT",
      "url": "Coverage/26af3ea3-9f4f-43ad-92b8-dd1abce19da6"
    }
  }, {
    "fullUrl": "https://madie.cms.gov/Organization/58f7f460-7143-4639-84ec-b9603eb90520",
    "resource": {
      "resourceType": "Organization",
      "id": "58f7f460-7143-4639-84ec-b9603eb90520",
      "meta": {
        "profile": [ "http://hl7.org/fhir/us/qicore/StructureDefinition/qicore-organization" ]
      },
      "identifier": [ {
        "use": "temp",
        "system": "urn:oid:2.16.840.1.113883.4.4",
        "value": "21-3259825"
      } ],
      "active": true,
      "type": [ {
        "coding": [ {
          "system": "http://terminology.hl7.org/CodeSystem/organization-type",
          "code": "pay",
          "display": "Payer"
        } ]
      } ],
      "name": "Blue Cross Blue Shield of Texas",
      "telecom": [ {
        "system": "phone",
        "value": "(+1) 972-766-6900"
      } ],
      "address": [ {
        "use": "billing",
        "type": "postal",
        "line": [ "P.O. Box 660044" ],
        "city": "Dallas",
        "state": "TX",
        "postalCode": "75266-0044",
        "country": "USA"
      } ]
    },
    "request": {
      "method": "PUT",
      "url": "Organization/58f7f460-7143-4639-84ec-b9603eb90520"
    }
  }, {
    "fullUrl": "https://madie.cms.gov/Practitioner/fb4cf170-c269-44dc-b627-b8cc794c3e05",
    "resource": {
      "resourceType": "Practitioner",
      "id": "fb4cf170-c269-44dc-b627-b8cc794c3e05",
      "meta": {
        "profile": [ "http://hl7.org/fhir/us/qicore/StructureDefinition/qicore-practitioner" ]
      },
      "identifier": [ {
        "system": "http://hl7.org/fhir/sid/us-npi",
        "value": "1234567890"
      } ],
      "name": [ {
        "family": "Evil",
        "prefix": [ "Dr" ]
      } ]
    },
    "request": {
      "method": "PUT",
      "url": "Practitioner/fb4cf170-c269-44dc-b627-b8cc794c3e05"
    }
  }, {
    "fullUrl": "https://madie.cms.gov/MeasureReport/47d22888-9b20-4f1b-a7e5-162503871ecb",
    "resource": {
      "resourceType": "MeasureReport",
      "id": "47d22888-9b20-4f1b-a7e5-162503871ecb",
      "meta": {
        "profile": [ "http://hl7.org/fhir/us/cqfmeasures/StructureDefinition/test-case-cqfm" ]
      },
      "contained": [ {
        "resourceType": "Parameters",
        "id": "5be4ab5e-e110-474e-9ce7-9a0e063fec48-parameters",
        "parameter": [ {
          "name": "subject",
          "valueString": "912e076d-3b5d-46cc-b2cb-c78172b295a3"
        } ]
      } ],
      "extension": [ {
        "url": "http://hl7.org/fhir/StructureDefinition/cqf-inputParameters",
        "valueReference": {
          "reference": "#5be4ab5e-e110-474e-9ce7-9a0e063fec48-parameters"
        }
      }, {
        "url": "http://hl7.org/fhir/us/cqfmeasures/StructureDefinition/cqfm-testCaseDescription",
        "valueMarkdown": "Passes IP,  intentional fail of the Den d/t EGA 36 weeks\n"
      } ],
      "modifierExtension": [ {
        "url": "http://hl7.org/fhir/us/cqfmeasures/StructureDefinition/cqfm-isTestCase",
        "valueBoolean": true
      } ],
      "status": "complete",
      "type": "individual",
      "measure": "https://madie.cms.gov/Measure/CMS0334FHIRPCCesareanBirth",
      "period": {
        "start": "2026-01-01",
        "end": "2026-12-31"
      },
      "group": [ {
        "id": "Group_1",
        "population": [ {
          "id": "InitialPopulation_1",
          "code": {
            "coding": [ {
              "system": "http://terminology.hl7.org/CodeSystem/measure-population",
              "code": "initial-population",
              "display": "Initial Population"
            } ]
          },
          "count": 1
        }, {
          "id": "Denominator_1",
          "code": {
            "coding": [ {
              "system": "http://terminology.hl7.org/CodeSystem/measure-population",
              "code": "denominator",
              "display": "Denominator"
            } ]
          },
          "count": 0
        }, {
          "id": "DenominatorExclusion_1",
          "code": {
            "coding": [ {
              "system": "http://terminology.hl7.org/CodeSystem/measure-population",
              "code": "denominator-exclusion",
              "display": "Denominator Exclusion"
            } ]
          },
          "count": 0
        }, {
          "id": "Numerator_1",
          "code": {
            "coding": [ {
              "system": "http://terminology.hl7.org/CodeSystem/measure-population",
              "code": "numerator",
              "display": "Numerator"
            } ]
          },
          "count": 0
        } ],
        "measureScore": {
          "value": 0.0
        }
      } ],
      "evaluatedResource": [ {
        "reference": "Patient/912e076d-3b5d-46cc-b2cb-c78172b295a3"
      }, {
        "reference": "Observation/1c40554d-ccd2-444c-ab2e-29f989730bd1"
      }, {
        "reference": "Observation/b432b670-32be-4246-9f8a-1441648eef50"
      }, {
        "reference": "Observation/0a43c8d3-0d17-49ec-b439-efa9da0b7ad7"
      }, {
        "reference": "Observation/acda2a10-602e-4a20-97cd-9e75bc48543e"
      }, {
        "reference": "Encounter/214a55b4-4427-4583-8c38-0b70831995f9"
      }, {
        "reference": "Procedure/eb0af4fc-3ded-497d-8511-c056b04314f9"
      }, {
        "reference": "Condition/6b6cb3d7-3faa-4d3c-a462-7a317912bdb3"
      }, {
        "reference": "Coverage/26af3ea3-9f4f-43ad-92b8-dd1abce19da6"
      }, {
        "reference": "Organization/58f7f460-7143-4639-84ec-b9603eb90520"
      }, {
        "reference": "Practitioner/fb4cf170-c269-44dc-b627-b8cc794c3e05"
      } ]
    },
    "request": {
      "method": "PUT",
      "url": "MeasureReport/47d22888-9b20-4f1b-a7e5-162503871ecb"
    }
  } ]
}