{
  "resourceType": "Bundle",
  "id": "649471d3d09ece2c2e9bf95c",
  "type": "collection",
  "entry": [ {
    "fullUrl": "https://madie.cms.gov/Patient/4f318d2b-56a8-4fad-ad95-858a17d6d0e3",
    "resource": {
      "resourceType": "Patient",
      "id": "4f318d2b-56a8-4fad-ad95-858a17d6d0e3",
      "meta": {
        "profile": [ "http://hl7.org/fhir/us/qicore/StructureDefinition/qicore-patient" ]
      },
      "extension": [ {
        "url": "http://hl7.org/fhir/us/core/StructureDefinition/us-core-race",
        "extension": [ {
          "url": "ombCategory",
          "valueCoding": {
            "system": "urn:oid:2.16.840.1.113883.6.238",
            "code": "1002-5",
            "display": "American Indian or Alaska Native",
            "userSelected": true
          }
        }, {
          "url": "text",
          "valueString": "American Indian or Alaska Native"
        } ]
      }, {
        "url": "http://hl7.org/fhir/us/core/StructureDefinition/us-core-ethnicity",
        "extension": [ {
          "url": "ombCategory",
          "valueCoding": {
            "system": "urn:oid:2.16.840.1.113883.6.238",
            "code": "2135-2",
            "display": "Hispanic or Latino",
            "userSelected": true
          }
        }, {
          "url": "text",
          "valueString": "Hispanic or Latino"
        } ]
      } ],
      "identifier": [ {
        "type": {
          "coding": [ {
            "system": "http://terminology.hl7.org/CodeSystem/v2-0203",
            "code": "MR"
          } ]
        },
        "system": "https://bonnie-fhir.healthit.gov/",
        "value": "649471d3d09ece2c2e9bf95c"
      } ],
      "name": [ {
        "family": "24NumPass",
        "given": [ "AdolescentWithMultipleEncAndVL" ]
      } ],
      "gender": "female",
      "birthDate": "2021-02-02"
    }
  }, {
    "fullUrl": "https://madie.cms.gov/Condition/6728dfca-f0c2-4689-adb4-d1782be997f4",
    "resource": {
      "resourceType": "Condition",
      "id": "6728dfca-f0c2-4689-adb4-d1782be997f4",
      "meta": {
        "profile": [ "http://hl7.org/fhir/us/qicore/StructureDefinition/qicore-condition-problems-health-concerns" ]
      },
      "clinicalStatus": {
        "coding": [ {
          "system": "http://terminology.hl7.org/CodeSystem/condition-clinical",
          "code": "active",
          "display": "active",
          "userSelected": true
        } ]
      },
      "category": [ {
        "coding": [ {
          "system": "http://terminology.hl7.org/CodeSystem/condition-category",
          "code": "problem-list-item",
          "display": "Problem List Item"
        } ]
      } ],
      "code": {
        "coding": [ {
          "system": "http://hl7.org/fhir/sid/icd-9-cm",
          "version": "2013",
          "code": "042",
          "display": "Human immunodeficiency virus [HIV] disease",
          "userSelected": true
        }, {
          "system": "http://snomed.info/sct",
          "version": "http://snomed.info/sct/731000124108/version/20250301",
          "code": "165816005",
          "userSelected": true
        } ]
      },
      "subject": {
        "reference": "Patient/4f318d2b-56a8-4fad-ad95-858a17d6d0e3"
      },
      "onsetDateTime": "2021-06-22T08:00:00.000+00:00",
      "recordedDate": "2021-06-22T08:00:00.000+00:00"
    }
  }, {
    "fullUrl": "https://madie.cms.gov/Encounter/8ba875ca-3351-4f73-9aa8-810c68153f40",
    "resource": {
      "resourceType": "Encounter",
      "id": "8ba875ca-3351-4f73-9aa8-810c68153f40",
      "meta": {
        "profile": [ "http://hl7.org/fhir/us/qicore/StructureDefinition/qicore-encounter" ]
      },
      "status": "finished",
      "class": {
        "system": "http://terminology.hl7.org/CodeSystem/v3-ActCode",
        "code": "AMB",
        "display": "ambulatory"
      },
      "type": [ {
        "coding": [ {
          "system": "http://www.ama-assn.org/go/cpt",
          "version": "2023",
          "code": "99381",
          "display": "Initial comprehensive preventive medicine evaluation and management of an individual including an age and gender appropriate history, examination, counseling/anticipatory guidance/risk factor reduction interventions, and the ordering of laboratory/diagnostic procedures, new patient; infant (age younger than 1 year)",
          "userSelected": true
        } ]
      } ],
      "subject": {
        "reference": "Patient/4f318d2b-56a8-4fad-ad95-858a17d6d0e3"
      },
      "period": {
        "start": "2026-06-22T08:00:00.000+00:00",
        "end": "2026-06-22T08:15:00.000+00:00"
      }
    }
  }, {
    "fullUrl": "https://madie.cms.gov/Encounter/c07d0399-f4ff-47c4-9353-5c588f929b1c",
    "resource": {
      "resourceType": "Encounter",
      "id": "c07d0399-f4ff-47c4-9353-5c588f929b1c",
      "meta": {
        "profile": [ "http://hl7.org/fhir/us/qicore/StructureDefinition/qicore-encounter" ]
      },
      "status": "finished",
      "class": {
        "system": "http://terminology.hl7.org/CodeSystem/v3-ActCode",
        "code": "AMB",
        "display": "ambulatory"
      },
      "type": [ {
        "coding": [ {
          "system": "http://www.ama-assn.org/go/cpt",
          "version": "2023",
          "code": "99391",
          "display": "Periodic comprehensive preventive medicine reevaluation and management of an individual including an age and gender appropriate history, examination, counseling/anticipatory guidance/risk factor reduction interventions, and the ordering of laboratory/diagnostic procedures, established patient; infant (age younger than 1 year)",
          "userSelected": true
        } ]
      } ],
      "subject": {
        "reference": "Patient/4f318d2b-56a8-4fad-ad95-858a17d6d0e3"
      },
      "period": {
        "start": "2026-07-22T08:00:00.000+00:00",
        "end": "2026-07-22T08:15:00.000+00:00"
      }
    }
  }, {
    "fullUrl": "https://madie.cms.gov/Encounter/16f06893-bdae-40b2-ac3b-3baaab5f08c6",
    "resource": {
      "resourceType": "Encounter",
      "id": "16f06893-bdae-40b2-ac3b-3baaab5f08c6",
      "meta": {
        "profile": [ "http://hl7.org/fhir/us/qicore/StructureDefinition/qicore-encounter" ]
      },
      "status": "finished",
      "class": {
        "system": "http://terminology.hl7.org/CodeSystem/v3-ActCode",
        "code": "EMER",
        "display": "emergency"
      },
      "type": [ {
        "coding": [ {
          "system": "http://snomed.info/sct",
          "version": "2022-09",
          "code": "4525004",
          "display": "Emergency department patient visit (procedure)",
          "userSelected": true
        } ]
      } ],
      "subject": {
        "reference": "Patient/4f318d2b-56a8-4fad-ad95-858a17d6d0e3"
      },
      "period": {
        "start": "2026-12-22T08:00:00.000+00:00",
        "end": "2026-12-22T08:15:00.000+00:00"
      }
    }
  }, {
    "fullUrl": "https://madie.cms.gov/Encounter/a0b79966-8581-4a9a-91c2-30edd2465efb",
    "resource": {
      "resourceType": "Encounter",
      "id": "a0b79966-8581-4a9a-91c2-30edd2465efb",
      "meta": {
        "profile": [ "http://hl7.org/fhir/us/qicore/StructureDefinition/qicore-encounter" ]
      },
      "status": "finished",
      "class": {
        "system": "http://terminology.hl7.org/CodeSystem/v3-ActCode",
        "code": "AMB",
        "display": "ambulatory"
      },
      "type": [ {
        "coding": [ {
          "system": "http://snomed.info/sct",
          "version": "2022-09",
          "code": "110468005",
          "display": "Ambulatory surgery (procedure)",
          "userSelected": true
        } ]
      } ],
      "subject": {
        "reference": "Patient/4f318d2b-56a8-4fad-ad95-858a17d6d0e3"
      },
      "period": {
        "start": "2026-11-22T08:00:00.000+00:00",
        "end": "2026-11-22T08:15:00.000+00:00"
      }
    }
  }, {
    "fullUrl": "https://madie.cms.gov/Observation/cba5123a-e718-4a13-b79b-e56da5cbd599",
    "resource": {
      "resourceType": "Observation",
      "id": "cba5123a-e718-4a13-b79b-e56da5cbd599",
      "meta": {
        "profile": [ "http://hl7.org/fhir/us/qicore/StructureDefinition/qicore-observation-lab" ]
      },
      "status": "final",
      "category": [ {
        "coding": [ {
          "system": "http://terminology.hl7.org/CodeSystem/observation-category",
          "code": "laboratory",
          "display": "Laboratory"
        } ]
      }, {
        "coding": [ {
          "system": "http://terminology.hl7.org/CodeSystem/observation-category",
          "code": "survey"
        } ]
      } ],
      "code": {
        "coding": [ {
          "system": "http://loinc.org",
          "code": "20447-9",
          "userSelected": true
        } ]
      },
      "subject": {
        "reference": "Patient/4f318d2b-56a8-4fad-ad95-858a17d6d0e3"
      },
      "effectiveDateTime": "2026-01-01T08:00:00.000+00:00",
      "dataAbsentReason": {
        "coding": [ {
          "system": "http://terminology.hl7.org/CodeSystem/data-absent-reason",
          "code": "unknown",
          "display": "Unknown"
        } ]
      }
    }
  }, {
    "fullUrl": "https://madie.cms.gov/Coverage/dc0077a8-83f4-40ac-b17b-f6ab8ee5e4d8",
    "resource": {
      "resourceType": "Coverage",
      "id": "dc0077a8-83f4-40ac-b17b-f6ab8ee5e4d8",
      "meta": {
        "profile": [ "http://hl7.org/fhir/us/qicore/StructureDefinition/qicore-coverage" ]
      },
      "status": "active",
      "subscriberId": "123456",
      "beneficiary": {
        "reference": "Patient/4f318d2b-56a8-4fad-ad95-858a17d6d0e3"
      },
      "relationship": {
        "coding": [ {
          "system": "http://terminology.hl7.org/CodeSystem/subscriber-relationship",
          "code": "self",
          "display": "Self"
        } ]
      },
      "payor": [ {
        "reference": "Organization/62a8b2d6-b468-4af4-86a0-d5c0319ce1ce"
      } ]
    }
  }, {
    "fullUrl": "https://madie.cms.gov/Organization/62a8b2d6-b468-4af4-86a0-d5c0319ce1ce",
    "resource": {
      "resourceType": "Organization",
      "id": "62a8b2d6-b468-4af4-86a0-d5c0319ce1ce",
      "meta": {
        "profile": [ "http://hl7.org/fhir/us/qicore/StructureDefinition/qicore-organization" ]
      },
      "identifier": [ {
        "use": "temp",
        "system": "urn:oid:2.16.840.1.113883.4.4",
        "value": "21-3259825"
      } ],
      "active": true,
      "type": [ {
        "coding": [ {
          "system": "http://terminology.hl7.org/CodeSystem/organization-type",
          "code": "pay",
          "display": "Payer"
        } ]
      } ],
      "name": "Blue Cross Blue Shield of Texas",
      "telecom": [ {
        "system": "phone",
        "value": "(+1) 972-766-6900"
      } ],
      "address": [ {
        "use": "billing",
        "type": "postal",
        "line": [ "P.O. Box 660044" ],
        "city": "Dallas",
        "state": "TX",
        "postalCode": "75266-0044",
        "country": "USA"
      } ]
    }
  }, {
    "fullUrl": "https://madie.cms.gov/Practitioner/2a025225-fd3f-4469-a37c-e10d3096d06a",
    "resource": {
      "resourceType": "Practitioner",
      "id": "2a025225-fd3f-4469-a37c-e10d3096d06a",
      "meta": {
        "profile": [ "http://hl7.org/fhir/us/qicore/StructureDefinition/qicore-practitioner" ]
      },
      "identifier": [ {
        "system": "http://hl7.org/fhir/sid/us-npi",
        "value": "1689411712"
      } ],
      "name": [ {
        "family": "Evil",
        "prefix": [ "Dr" ]
      } ]
    }
  }, {
    "fullUrl": "https://madie.cms.gov/MeasureReport/a8535c49-baf4-4825-889b-4bcb3fc510ff",
    "resource": {
      "resourceType": "MeasureReport",
      "id": "a8535c49-baf4-4825-889b-4bcb3fc510ff",
      "meta": {
        "profile": [ "http://hl7.org/fhir/us/cqfmeasures/StructureDefinition/test-case-cqfm" ]
      },
      "contained": [ {
        "resourceType": "Parameters",
        "id": "fcc39aa4-eb37-4506-87e7-bae912c4794c-parameters",
        "parameter": [ {
          "name": "subject",
          "valueString": "4f318d2b-56a8-4fad-ad95-858a17d6d0e3"
        } ]
      } ],
      "extension": [ {
        "url": "http://hl7.org/fhir/StructureDefinition/cqf-inputParameters",
        "valueReference": {
          "reference": "#fcc39aa4-eb37-4506-87e7-bae912c4794c-parameters"
        }
      }, {
        "url": "http://hl7.org/fhir/us/cqfmeasures/StructureDefinition/cqfm-testCaseDescription",
        "valueMarkdown": "Adolescent patient with multiple encounter types conducted during MP."
      } ],
      "modifierExtension": [ {
        "url": "http://hl7.org/fhir/us/cqfmeasures/StructureDefinition/cqfm-isTestCase",
        "valueBoolean": true
      } ],
      "status": "complete",
      "type": "individual",
      "measure": "https://madie.cms.gov/Measure/CMS1157FHIRHIVRetention",
      "period": {
        "start": "2026-01-01",
        "end": "2026-12-31"
      },
      "group": [ {
        "id": "Group_1",
        "population": [ {
          "id": "InitialPopulation_1",
          "code": {
            "coding": [ {
              "system": "http://terminology.hl7.org/CodeSystem/measure-population",
              "code": "initial-population",
              "display": "Initial Population"
            } ]
          },
          "count": 1
        }, {
          "id": "Denominator_1",
          "code": {
            "coding": [ {
              "system": "http://terminology.hl7.org/CodeSystem/measure-population",
              "code": "denominator",
              "display": "Denominator"
            } ]
          },
          "count": 1
        }, {
          "id": "Numerator_1",
          "code": {
            "coding": [ {
              "system": "http://terminology.hl7.org/CodeSystem/measure-population",
              "code": "numerator",
              "display": "Numerator"
            } ]
          },
          "count": 1
        } ],
        "measureScore": {
          "value": 1.0
        }
      } ],
      "evaluatedResource": [ {
        "reference": "Patient/4f318d2b-56a8-4fad-ad95-858a17d6d0e3"
      }, {
        "reference": "Condition/6728dfca-f0c2-4689-adb4-d1782be997f4"
      }, {
        "reference": "Encounter/8ba875ca-3351-4f73-9aa8-810c68153f40"
      }, {
        "reference": "Encounter/c07d0399-f4ff-47c4-9353-5c588f929b1c"
      }, {
        "reference": "Encounter/16f06893-bdae-40b2-ac3b-3baaab5f08c6"
      }, {
        "reference": "Encounter/a0b79966-8581-4a9a-91c2-30edd2465efb"
      }, {
        "reference": "Observation/cba5123a-e718-4a13-b79b-e56da5cbd599"
      }, {
        "reference": "Coverage/dc0077a8-83f4-40ac-b17b-f6ab8ee5e4d8"
      }, {
        "reference": "Organization/62a8b2d6-b468-4af4-86a0-d5c0319ce1ce"
      }, {
        "reference": "Practitioner/2a025225-fd3f-4469-a37c-e10d3096d06a"
      } ]
    }
  } ]
}