{
  "resourceType": "Bundle",
  "id": "NUMERPass-VR36OrthogonalResulted",
  "type": "collection",
  "entry": [ {
    "fullUrl": "https://madie.cms.gov/Patient/fdeaa2dc-1f80-4d0f-a51c-c8fc17abe651",
    "resource": {
      "resourceType": "Patient",
      "id": "fdeaa2dc-1f80-4d0f-a51c-c8fc17abe651",
      "meta": {
        "profile": [ "http://hl7.org/fhir/us/qicore/StructureDefinition/qicore-patient" ]
      },
      "extension": [ {
        "url": "http://hl7.org/fhir/us/core/StructureDefinition/us-core-race",
        "extension": [ {
          "url": "ombCategory",
          "valueCoding": {
            "system": "urn:oid:2.16.840.1.113883.6.238",
            "code": "2028-9",
            "display": "Asian"
          }
        }, {
          "url": "text",
          "valueString": "Asian"
        } ]
      }, {
        "url": "http://hl7.org/fhir/us/core/StructureDefinition/us-core-ethnicity",
        "extension": [ {
          "url": "ombCategory",
          "valueCoding": {
            "system": "urn:oid:2.16.840.1.113883.6.238",
            "code": "2135-2",
            "display": "Hispanic or Latino"
          }
        }, {
          "url": "text",
          "valueString": "Hispanic or Latino"
        } ]
      } ],
      "identifier": [ {
        "system": "http://hospital.smarthealthit.org",
        "value": "999999995"
      } ],
      "name": [ {
        "family": "Bertha",
        "given": [ "Betty" ]
      } ],
      "gender": "female",
      "birthDate": "2008-01-01"
    }
  }, {
    "fullUrl": "https://madie.cms.gov/Encounter/ea3a61b5-eb5c-4141-a070-ac67a7170ef4",
    "resource": {
      "resourceType": "Encounter",
      "id": "ea3a61b5-eb5c-4141-a070-ac67a7170ef4",
      "meta": {
        "profile": [ "http://hl7.org/fhir/us/qicore/StructureDefinition/qicore-encounter" ]
      },
      "status": "finished",
      "class": {
        "system": "http://terminology.hl7.org/CodeSystem/v3-ActCode",
        "code": "AMB",
        "display": "ambulatory"
      },
      "type": [ {
        "coding": [ {
          "system": "http://snomed.info/sct",
          "code": "185317003",
          "display": "Telephone encounter (procedure)"
        } ]
      } ],
      "subject": {
        "reference": "Patient/fdeaa2dc-1f80-4d0f-a51c-c8fc17abe651"
      },
      "period": {
        "start": "2026-01-01T01:00:00.000+00:00",
        "end": "2026-01-01T01:15:00.000+00:00"
      }
    }
  }, {
    "fullUrl": "https://madie.cms.gov/Encounter/e6779e6c-8e94-4a77-aadb-2bc53595c68c",
    "resource": {
      "resourceType": "Encounter",
      "id": "e6779e6c-8e94-4a77-aadb-2bc53595c68c",
      "meta": {
        "profile": [ "http://hl7.org/fhir/us/qicore/StructureDefinition/qicore-encounter" ]
      },
      "status": "finished",
      "class": {
        "system": "http://terminology.hl7.org/CodeSystem/v3-ActCode",
        "code": "AMB",
        "display": "ambulatory"
      },
      "type": [ {
        "coding": [ {
          "system": "http://snomed.info/sct",
          "code": "185317003",
          "display": "Telephone encounter (procedure)"
        } ]
      } ],
      "subject": {
        "reference": "Patient/fdeaa2dc-1f80-4d0f-a51c-c8fc17abe651"
      },
      "period": {
        "start": "2026-01-02T01:00:00.000+00:00",
        "end": "2026-01-02T01:15:00.000+00:00"
      }
    }
  }, {
    "fullUrl": "https://madie.cms.gov/Condition/c0e48d56-2df8-48f4-8479-8ae3e14ac74e",
    "resource": {
      "resourceType": "Condition",
      "id": "c0e48d56-2df8-48f4-8479-8ae3e14ac74e",
      "meta": {
        "profile": [ "http://hl7.org/fhir/us/qicore/StructureDefinition/qicore-condition-problems-health-concerns" ]
      },
      "clinicalStatus": {
        "coding": [ {
          "system": "http://terminology.hl7.org/CodeSystem/condition-clinical",
          "code": "active"
        } ]
      },
      "category": [ {
        "coding": [ {
          "system": "http://terminology.hl7.org/CodeSystem/condition-category",
          "code": "problem-list-item",
          "display": "Problem List Item"
        } ]
      } ],
      "code": {
        "coding": [ {
          "system": "http://snomed.info/sct",
          "version": "http://snomed.info/sct/731000124108/version/20250301",
          "code": "10091002",
          "display": "High output heart failure (disorder)"
        } ]
      },
      "subject": {
        "reference": "Patient/fdeaa2dc-1f80-4d0f-a51c-c8fc17abe651"
      },
      "onsetDateTime": "2025-12-31T23:59:00.000+00:00"
    }
  }, {
    "fullUrl": "https://madie.cms.gov/Observation/5537a72d-e6e5-4b3a-8455-9fd066a9d4dc",
    "resource": {
      "resourceType": "Observation",
      "id": "5537a72d-e6e5-4b3a-8455-9fd066a9d4dc",
      "meta": {
        "profile": [ "http://hl7.org/fhir/us/qicore/StructureDefinition/qicore-observation-screening-assessment" ]
      },
      "status": "final",
      "category": [ {
        "coding": [ {
          "system": "http://terminology.hl7.org/CodeSystem/observation-category",
          "code": "survey",
          "display": "survey"
        } ],
        "text": "survey"
      } ],
      "code": {
        "coding": [ {
          "system": "http://loinc.org",
          "code": "72008-6",
          "display": "VR-36 Mental component summary (MCS) score - orthogonal method T-score"
        } ]
      },
      "subject": {
        "reference": "Patient/fdeaa2dc-1f80-4d0f-a51c-c8fc17abe651"
      },
      "effectivePeriod": {
        "start": "2026-01-01T23:00:00.000+00:00",
        "end": "2026-01-01T23:59:00.000+00:00"
      },
      "valueInteger": 4
    }
  }, {
    "fullUrl": "https://madie.cms.gov/Observation/e9a8d0f8-9d0d-46b5-97c0-afc6dc6405f4",
    "resource": {
      "resourceType": "Observation",
      "id": "e9a8d0f8-9d0d-46b5-97c0-afc6dc6405f4",
      "meta": {
        "profile": [ "http://hl7.org/fhir/us/qicore/StructureDefinition/qicore-observation-screening-assessment" ]
      },
      "status": "final",
      "category": [ {
        "coding": [ {
          "system": "http://terminology.hl7.org/CodeSystem/observation-category",
          "code": "survey",
          "display": "survey"
        } ],
        "text": "survey"
      } ],
      "code": {
        "coding": [ {
          "system": "http://loinc.org",
          "code": "72008-6",
          "display": "VR-36 Mental component summary (MCS) score - orthogonal method T-score"
        } ]
      },
      "subject": {
        "reference": "Patient/fdeaa2dc-1f80-4d0f-a51c-c8fc17abe651"
      },
      "effectivePeriod": {
        "start": "2026-01-31T23:00:00.000+00:00",
        "end": "2026-01-31T23:59:00.000+00:00"
      },
      "valueInteger": 4
    }
  }, {
    "fullUrl": "https://madie.cms.gov/Observation/7904682e-26ad-4b01-90bd-0ae6128144b0",
    "resource": {
      "resourceType": "Observation",
      "id": "7904682e-26ad-4b01-90bd-0ae6128144b0",
      "meta": {
        "profile": [ "http://hl7.org/fhir/us/qicore/StructureDefinition/qicore-observation-screening-assessment" ]
      },
      "status": "final",
      "category": [ {
        "coding": [ {
          "system": "http://terminology.hl7.org/CodeSystem/observation-category",
          "code": "survey",
          "display": "survey"
        } ],
        "text": "survey"
      } ],
      "code": {
        "coding": [ {
          "system": "http://loinc.org",
          "code": "72007-8",
          "display": "VR-36 Physical component summary (PCS) score - orthogonal method T-score"
        } ]
      },
      "subject": {
        "reference": "Patient/fdeaa2dc-1f80-4d0f-a51c-c8fc17abe651"
      },
      "effectivePeriod": {
        "start": "2026-01-01T23:00:00.000+00:00",
        "end": "2026-01-01T23:59:00.000+00:00"
      },
      "valueInteger": 4
    }
  }, {
    "fullUrl": "https://madie.cms.gov/Observation/05a28982-9c67-4587-a26b-5dd861bd9ef7",
    "resource": {
      "resourceType": "Observation",
      "id": "05a28982-9c67-4587-a26b-5dd861bd9ef7",
      "meta": {
        "profile": [ "http://hl7.org/fhir/us/qicore/StructureDefinition/qicore-observation-screening-assessment" ]
      },
      "status": "final",
      "category": [ {
        "coding": [ {
          "system": "http://terminology.hl7.org/CodeSystem/observation-category",
          "code": "survey",
          "display": "survey"
        } ],
        "text": "survey"
      } ],
      "code": {
        "coding": [ {
          "system": "http://loinc.org",
          "code": "72007-8",
          "display": "VR-36 Physical component summary (PCS) score - orthogonal method T-score"
        } ]
      },
      "subject": {
        "reference": "Patient/fdeaa2dc-1f80-4d0f-a51c-c8fc17abe651"
      },
      "effectivePeriod": {
        "start": "2026-01-31T23:00:00.000+00:00",
        "end": "2026-01-31T23:59:00.000+00:00"
      },
      "valueInteger": 4
    }
  }, {
    "fullUrl": "https://madie.cms.gov/MeasureReport/12491741-39bb-4ec4-9910-e499a4913944",
    "resource": {
      "resourceType": "MeasureReport",
      "id": "12491741-39bb-4ec4-9910-e499a4913944",
      "meta": {
        "profile": [ "http://hl7.org/fhir/us/cqfmeasures/StructureDefinition/test-case-cqfm" ]
      },
      "contained": [ {
        "resourceType": "Parameters",
        "id": "e3f23ac1-e038-4d29-961b-6254fe4c494a-parameters",
        "parameter": [ {
          "name": "subject",
          "valueString": "fdeaa2dc-1f80-4d0f-a51c-c8fc17abe651"
        } ]
      } ],
      "extension": [ {
        "url": "http://hl7.org/fhir/StructureDefinition/cqf-inputParameters",
        "valueReference": {
          "reference": "#e3f23ac1-e038-4d29-961b-6254fe4c494a-parameters"
        }
      }, {
        "url": "http://hl7.org/fhir/us/cqfmeasures/StructureDefinition/cqfm-testCaseDescription",
        "valueMarkdown": "Patient has all VR36 Orthogonal Assessments with results during the correct timeframe."
      } ],
      "modifierExtension": [ {
        "url": "http://hl7.org/fhir/us/cqfmeasures/StructureDefinition/cqfm-isTestCase",
        "valueBoolean": true
      } ],
      "status": "complete",
      "type": "individual",
      "measure": "https://madie.cms.gov/Measure/CMS90FHIRFSAforHeartFailure",
      "period": {
        "start": "2026-01-01",
        "end": "2026-12-31"
      },
      "group": [ {
        "id": "Group_1",
        "population": [ {
          "id": "InitialPopulation_1",
          "code": {
            "coding": [ {
              "system": "http://terminology.hl7.org/CodeSystem/measure-population",
              "code": "initial-population",
              "display": "Initial Population"
            } ]
          },
          "count": 1
        }, {
          "id": "Denominator_1",
          "code": {
            "coding": [ {
              "system": "http://terminology.hl7.org/CodeSystem/measure-population",
              "code": "denominator",
              "display": "Denominator"
            } ]
          },
          "count": 1
        }, {
          "id": "DenominatorExclusion_1",
          "code": {
            "coding": [ {
              "system": "http://terminology.hl7.org/CodeSystem/measure-population",
              "code": "denominator-exclusion",
              "display": "Denominator Exclusion"
            } ]
          },
          "count": 0
        }, {
          "id": "Numerator_1",
          "code": {
            "coding": [ {
              "system": "http://terminology.hl7.org/CodeSystem/measure-population",
              "code": "numerator",
              "display": "Numerator"
            } ]
          },
          "count": 1
        } ],
        "measureScore": {
          "value": 1.0
        }
      } ],
      "evaluatedResource": [ {
        "reference": "Patient/fdeaa2dc-1f80-4d0f-a51c-c8fc17abe651"
      }, {
        "reference": "Encounter/ea3a61b5-eb5c-4141-a070-ac67a7170ef4"
      }, {
        "reference": "Encounter/e6779e6c-8e94-4a77-aadb-2bc53595c68c"
      }, {
        "reference": "Condition/c0e48d56-2df8-48f4-8479-8ae3e14ac74e"
      }, {
        "reference": "Observation/5537a72d-e6e5-4b3a-8455-9fd066a9d4dc"
      }, {
        "reference": "Observation/e9a8d0f8-9d0d-46b5-97c0-afc6dc6405f4"
      }, {
        "reference": "Observation/7904682e-26ad-4b01-90bd-0ae6128144b0"
      }, {
        "reference": "Observation/05a28982-9c67-4587-a26b-5dd861bd9ef7"
      } ]
    }
  } ]
}