{
  "resourceType": "Bundle",
  "id": "612e6ee902c62a011f2f0062",
  "type": "transaction",
  "entry": [ {
    "fullUrl": "https://madie.cms.gov/Patient/17d5aec6-089f-4b23-bfaf-71f7f4c7e4c5",
    "resource": {
      "resourceType": "Patient",
      "id": "17d5aec6-089f-4b23-bfaf-71f7f4c7e4c5",
      "meta": {
        "profile": [ "http://hl7.org/fhir/us/qicore/StructureDefinition/qicore-patient" ]
      },
      "text": {
        "status": "generated",
        "div": "<div xmlns=\"http://www.w3.org/1999/xhtml\"><div class=\"hapiHeaderText\">ThrombinDayOfICU_2ICUs <b>NUMERPASS </b></div><table class=\"hapiPropertyTable\"><tbody><tr><td>Identifier</td><td>43ef95d6b3f73d13035a41554ca78585</td></tr><tr><td>Date of birth</td><td><span>03 March 1974</span></td></tr></tbody></table></div>"
      },
      "extension": [ {
        "url": "http://hl7.org/fhir/us/core/StructureDefinition/us-core-race",
        "extension": [ {
          "url": "ombCategory",
          "valueCoding": {
            "system": "urn:oid:2.16.840.1.113883.6.238",
            "code": "1002-5",
            "display": "American Indian or Alaska Native",
            "userSelected": true
          }
        }, {
          "url": "text",
          "valueString": "American Indian or Alaska Native"
        } ]
      }, {
        "url": "http://hl7.org/fhir/us/core/StructureDefinition/us-core-ethnicity",
        "extension": [ {
          "url": "ombCategory",
          "valueCoding": {
            "system": "urn:oid:2.16.840.1.113883.6.238",
            "code": "2135-2",
            "display": "Hispanic or Latino",
            "userSelected": true
          }
        }, {
          "url": "text",
          "valueString": "Hispanic or Latino"
        } ]
      } ],
      "identifier": [ {
        "type": {
          "coding": [ {
            "system": "http://terminology.hl7.org/CodeSystem/v2-0203",
            "code": "MR"
          } ]
        },
        "system": "https://bonnie-fhir.healthit.gov/",
        "value": "612e6ee902c62a011f2f0062"
      } ],
      "active": true,
      "name": [ {
        "use": "usual",
        "family": "NUMERPass",
        "given": [ "ThrombinDayOfICU2ICUs" ]
      } ],
      "gender": "female",
      "birthDate": "1975-03-03"
    },
    "request": {
      "method": "PUT",
      "url": "Patient/17d5aec6-089f-4b23-bfaf-71f7f4c7e4c5"
    }
  }, {
    "fullUrl": "https://madie.cms.gov/Encounter/527a445d-380e-419f-ae67-0a713b990524",
    "resource": {
      "resourceType": "Encounter",
      "id": "527a445d-380e-419f-ae67-0a713b990524",
      "meta": {
        "profile": [ "http://hl7.org/fhir/us/qicore/StructureDefinition/qicore-encounter" ]
      },
      "status": "finished",
      "class": {
        "system": "http://terminology.hl7.org/CodeSystem/v3-ActCode",
        "code": "EMER",
        "display": "emergency"
      },
      "type": [ {
        "coding": [ {
          "system": "http://snomed.info/sct",
          "code": "4525004"
        } ]
      } ],
      "subject": {
        "reference": "Patient/17d5aec6-089f-4b23-bfaf-71f7f4c7e4c5"
      },
      "period": {
        "start": "2026-12-02T08:00:00.000+00:00",
        "end": "2026-12-04T07:15:00.000+00:00"
      },
      "length": {
        "value": 2.0,
        "unit": "days"
      }
    },
    "request": {
      "method": "PUT",
      "url": "Encounter/527a445d-380e-419f-ae67-0a713b990524"
    }
  }, {
    "fullUrl": "https://madie.cms.gov/Encounter/4f868028-b27e-4b7f-9694-08cbe86e4012",
    "resource": {
      "resourceType": "Encounter",
      "id": "4f868028-b27e-4b7f-9694-08cbe86e4012",
      "meta": {
        "profile": [ "http://hl7.org/fhir/us/qicore/StructureDefinition/qicore-encounter" ]
      },
      "status": "finished",
      "class": {
        "system": "http://terminology.hl7.org/CodeSystem/v3-ActCode",
        "code": "IMP",
        "display": "inpatient encounter"
      },
      "type": [ {
        "coding": [ {
          "system": "http://snomed.info/sct",
          "code": "8715000"
        } ]
      } ],
      "subject": {
        "reference": "Patient/17d5aec6-089f-4b23-bfaf-71f7f4c7e4c5"
      },
      "period": {
        "start": "2026-12-04T08:00:00.000+00:00",
        "end": "2026-12-30T08:15:00.000+00:00"
      },
      "length": {
        "value": 26.0,
        "unit": "days"
      },
      "location": [ {
        "location": {
          "reference": "Location/intensive-care-unit-cc82"
        },
        "period": {
          "start": "2026-12-02T11:00:00.000+00:00",
          "end": "2026-12-03T08:15:00.000+00:00"
        }
      }, {
        "location": {
          "reference": "Location/3ead516a-be39-4c0d-8874-c149bc09d3f9"
        },
        "period": {
          "start": "2026-12-06T08:00:00.000+00:00",
          "end": "2026-12-12T08:15:00.000+00:00"
        }
      } ]
    },
    "request": {
      "method": "PUT",
      "url": "Encounter/4f868028-b27e-4b7f-9694-08cbe86e4012"
    }
  }, {
    "fullUrl": "https://madie.cms.gov/Coverage/f2331652-c3aa-4d45-8f89-0b1d729e8a1c",
    "resource": {
      "resourceType": "Coverage",
      "id": "f2331652-c3aa-4d45-8f89-0b1d729e8a1c",
      "status": "active",
      "beneficiary": {
        "reference": "Patient/17d5aec6-089f-4b23-bfaf-71f7f4c7e4c5"
      },
      "period": {
        "start": "1975-03-03T08:00:00.000+00:00"
      },
      "payor": [ {
        "reference": "Organization/e94b91d5-94b1-4aa8-b37b-bcac4dc5a56c"
      } ]
    },
    "request": {
      "method": "PUT",
      "url": "Coverage/f2331652-c3aa-4d45-8f89-0b1d729e8a1c"
    }
  }, {
    "fullUrl": "https://madie.cms.gov/MedicationAdministration/4c96c1a2-405d-4922-b5ea-16420d54f32e",
    "resource": {
      "resourceType": "MedicationAdministration",
      "id": "4c96c1a2-405d-4922-b5ea-16420d54f32e",
      "meta": {
        "profile": [ "http://hl7.org/fhir/us/qicore/StructureDefinition/qicore-medicationadministration" ]
      },
      "status": "completed",
      "medicationCodeableConcept": {
        "coding": [ {
          "system": "http://www.nlm.nih.gov/research/umls/rxnorm",
          "code": "308351"
        } ]
      },
      "subject": {
        "reference": "Patient/17d5aec6-089f-4b23-bfaf-71f7f4c7e4c5"
      },
      "effectivePeriod": {
        "start": "2026-12-06T11:30:00.000+00:00",
        "end": "2026-12-06T11:45:00.000+00:00"
      }
    },
    "request": {
      "method": "PUT",
      "url": "MedicationAdministration/4c96c1a2-405d-4922-b5ea-16420d54f32e"
    }
  }, {
    "fullUrl": "https://madie.cms.gov/Procedure/00cd7cc2-c253-44c0-b708-43b1e132675f",
    "resource": {
      "resourceType": "Procedure",
      "id": "00cd7cc2-c253-44c0-b708-43b1e132675f",
      "meta": {
        "profile": [ "http://hl7.org/fhir/us/qicore/StructureDefinition/qicore-procedure" ]
      },
      "extension": [ {
        "url": "http://hl7.org/fhir/us/qicore/StructureDefinition/qicore-recorded",
        "valueDateTime": "2013-12-04T13:35:00.000+00:00"
      } ],
      "status": "completed",
      "code": {
        "coding": [ {
          "system": "http://snomed.info/sct",
          "code": "18946005"
        } ]
      },
      "subject": {
        "reference": "Patient/17d5aec6-089f-4b23-bfaf-71f7f4c7e4c5"
      },
      "performedPeriod": {
        "start": "2026-12-04T11:00:00.000+00:00",
        "end": "2026-12-06T11:15:00.000+00:00"
      }
    },
    "request": {
      "method": "PUT",
      "url": "Procedure/00cd7cc2-c253-44c0-b708-43b1e132675f"
    }
  }, {
    "fullUrl": "https://madie.cms.gov/Location/3ead516a-be39-4c0d-8874-c149bc09d3f9",
    "resource": {
      "resourceType": "Location",
      "id": "3ead516a-be39-4c0d-8874-c149bc09d3f9",
      "meta": {
        "profile": [ "http://hl7.org/fhir/us/qicore/StructureDefinition/qicore-location" ]
      },
      "identifier": [ {
        "use": "usual",
        "system": "http://exampleoflocation.com",
        "value": "B1-S.F2"
      } ],
      "name": "Medical Surgical East, first floor",
      "type": [ {
        "coding": [ {
          "system": "https://www.cdc.gov/nhsn/cdaportal/terminology/codesystem/hsloc.html",
          "code": "1025-6",
          "display": "Trauma Critical Care",
          "userSelected": true
        } ]
      } ]
    },
    "request": {
      "method": "PUT",
      "url": "Location/3ead516a-be39-4c0d-8874-c149bc09d3f9"
    }
  }, {
    "fullUrl": "https://madie.cms.gov/Organization/e94b91d5-94b1-4aa8-b37b-bcac4dc5a56c",
    "resource": {
      "resourceType": "Organization",
      "id": "e94b91d5-94b1-4aa8-b37b-bcac4dc5a56c",
      "meta": {
        "profile": [ "http://hl7.org/fhir/us/qicore/StructureDefinition/qicore-organization" ]
      },
      "identifier": [ {
        "use": "temp",
        "system": "urn:oid:2.16.840.1.113883.4.4",
        "value": "21-3259825"
      } ],
      "active": true,
      "type": [ {
        "coding": [ {
          "system": "http://terminology.hl7.org/CodeSystem/organization-type",
          "code": "pay",
          "display": "Payer"
        } ]
      } ],
      "name": "Blue Cross Blue Shield of Texas",
      "telecom": [ {
        "system": "phone",
        "value": "(+1) 972-766-6900"
      } ],
      "address": [ {
        "use": "billing",
        "type": "postal",
        "line": [ "P.O. Box 660044" ],
        "city": "Dallas",
        "state": "TX",
        "postalCode": "75266-0044",
        "country": "USA"
      } ]
    },
    "request": {
      "method": "PUT",
      "url": "Organization/e94b91d5-94b1-4aa8-b37b-bcac4dc5a56c"
    }
  }, {
    "fullUrl": "https://madie.cms.gov/Practitioner/353a9812-577e-46fc-af8e-257648a7a0ca",
    "resource": {
      "resourceType": "Practitioner",
      "id": "353a9812-577e-46fc-af8e-257648a7a0ca",
      "identifier": [ {
        "system": "http://hl7.org/fhir/sid/us-npi",
        "value": "123456"
      } ],
      "name": [ {
        "family": "Evil",
        "prefix": [ "Dr" ]
      } ]
    },
    "request": {
      "method": "PUT",
      "url": "Practitioner/353a9812-577e-46fc-af8e-257648a7a0ca"
    }
  }, {
    "fullUrl": "https://madie.cms.gov/MeasureReport/3496ae71-6586-408b-8cde-90ad413cd51f",
    "resource": {
      "resourceType": "MeasureReport",
      "id": "3496ae71-6586-408b-8cde-90ad413cd51f",
      "meta": {
        "profile": [ "http://hl7.org/fhir/us/cqfmeasures/StructureDefinition/test-case-cqfm" ]
      },
      "contained": [ {
        "resourceType": "Parameters",
        "id": "19576dfb-3b15-4693-99a8-81390a15df01-parameters",
        "parameter": [ {
          "name": "subject",
          "valueString": "17d5aec6-089f-4b23-bfaf-71f7f4c7e4c5"
        } ]
      } ],
      "extension": [ {
        "url": "http://hl7.org/fhir/StructureDefinition/cqf-inputParameters",
        "valueReference": {
          "reference": "#19576dfb-3b15-4693-99a8-81390a15df01-parameters"
        }
      }, {
        "url": "http://hl7.org/fhir/us/cqfmeasures/StructureDefinition/cqfm-testCaseDescription",
        "valueMarkdown": "2 ICU, one is in ED. meets IPP, meets Denominator, medication administered:Thrombin, Thrombin end<=1day after start of First ICU Admission during Inpatient.\n"
      } ],
      "modifierExtension": [ {
        "url": "http://hl7.org/fhir/us/cqfmeasures/StructureDefinition/cqfm-isTestCase",
        "valueBoolean": true
      } ],
      "status": "complete",
      "type": "individual",
      "measure": "https://madie.cms.gov/Measure/CMS190FHIRVTEProphylaxisICU",
      "period": {
        "start": "2026-01-01",
        "end": "2026-12-31"
      },
      "group": [ {
        "id": "Group_1",
        "population": [ {
          "id": "InitialPopulation_1",
          "code": {
            "coding": [ {
              "system": "http://terminology.hl7.org/CodeSystem/measure-population",
              "code": "initial-population",
              "display": "Initial Population"
            } ]
          },
          "count": 1
        }, {
          "id": "Denominator_1",
          "code": {
            "coding": [ {
              "system": "http://terminology.hl7.org/CodeSystem/measure-population",
              "code": "denominator",
              "display": "Denominator"
            } ]
          },
          "count": 1
        }, {
          "id": "DenominatorExclusion_1",
          "code": {
            "coding": [ {
              "system": "http://terminology.hl7.org/CodeSystem/measure-population",
              "code": "denominator-exclusion",
              "display": "Denominator Exclusion"
            } ]
          },
          "count": 0
        }, {
          "id": "Numerator_1",
          "code": {
            "coding": [ {
              "system": "http://terminology.hl7.org/CodeSystem/measure-population",
              "code": "numerator",
              "display": "Numerator"
            } ]
          },
          "count": 1
        }, {
          "id": "DenominatorException_1",
          "code": {
            "coding": [ {
              "system": "http://terminology.hl7.org/CodeSystem/measure-population",
              "code": "denominator-exception",
              "display": "Denominator Exception"
            } ]
          },
          "count": 0
        } ],
        "measureScore": {
          "value": 0.0
        }
      } ],
      "evaluatedResource": [ {
        "reference": "Patient/17d5aec6-089f-4b23-bfaf-71f7f4c7e4c5"
      }, {
        "reference": "Encounter/527a445d-380e-419f-ae67-0a713b990524"
      }, {
        "reference": "Encounter/4f868028-b27e-4b7f-9694-08cbe86e4012"
      }, {
        "reference": "Coverage/f2331652-c3aa-4d45-8f89-0b1d729e8a1c"
      }, {
        "reference": "MedicationAdministration/4c96c1a2-405d-4922-b5ea-16420d54f32e"
      }, {
        "reference": "Procedure/00cd7cc2-c253-44c0-b708-43b1e132675f"
      }, {
        "reference": "Location/3ead516a-be39-4c0d-8874-c149bc09d3f9"
      }, {
        "reference": "Organization/e94b91d5-94b1-4aa8-b37b-bcac4dc5a56c"
      }, {
        "reference": "Practitioner/353a9812-577e-46fc-af8e-257648a7a0ca"
      } ]
    },
    "request": {
      "method": "PUT",
      "url": "MeasureReport/3496ae71-6586-408b-8cde-90ad413cd51f"
    }
  } ]
}