{
  "resourceType": "Bundle",
  "id": "661476b015ed5841a5547ebf",
  "type": "transaction",
  "entry": [ {
    "fullUrl": "https://madie.cms.gov/Patient/1a53b1ca-90dc-4fac-97c1-b0b51d3e092c",
    "resource": {
      "resourceType": "Patient",
      "id": "1a53b1ca-90dc-4fac-97c1-b0b51d3e092c",
      "meta": {
        "profile": [ "http://hl7.org/fhir/us/qicore/StructureDefinition/qicore-patient" ]
      },
      "extension": [ {
        "url": "http://hl7.org/fhir/us/core/StructureDefinition/us-core-race",
        "extension": [ {
          "url": "ombCategory",
          "valueCoding": {
            "system": "urn:oid:2.16.840.1.113883.6.238",
            "code": "1002-5",
            "display": "American Indian or Alaska Native",
            "userSelected": true
          }
        }, {
          "url": "text",
          "valueString": "American Indian or Alaska Native"
        } ]
      }, {
        "url": "http://hl7.org/fhir/us/core/StructureDefinition/us-core-ethnicity",
        "extension": [ {
          "url": "ombCategory",
          "valueCoding": {
            "system": "urn:oid:2.16.840.1.113883.6.238",
            "code": "2135-2",
            "display": "Hispanic or Latino",
            "userSelected": true
          }
        }, {
          "url": "text",
          "valueString": "Hispanic or Latino"
        } ]
      }, {
        "url": "http://hl7.org/fhir/us/core/StructureDefinition/us-core-sex",
        "valueCode": "248153007"
      } ],
      "identifier": [ {
        "type": {
          "coding": [ {
            "system": "http://terminology.hl7.org/CodeSystem/v2-0203",
            "code": "MR"
          } ]
        },
        "system": "https://bonnie-fhir.healthit.gov/",
        "value": "661476b015ed5841a5547ebf"
      } ],
      "name": [ {
        "family": "NUMERStrat4Pass",
        "given": [ "MultEncBedassignmentWithObsAndLOS481" ]
      } ],
      "gender": "male",
      "birthDate": "2009-01-01"
    },
    "request": {
      "method": "PUT",
      "url": "Patient/1a53b1ca-90dc-4fac-97c1-b0b51d3e092c"
    }
  }, {
    "fullUrl": "https://madie.cms.gov/Encounter/b332c9f6-f8d6-49bd-a70f-e91f73880185",
    "resource": {
      "resourceType": "Encounter",
      "id": "b332c9f6-f8d6-49bd-a70f-e91f73880185",
      "meta": {
        "profile": [ "http://hl7.org/fhir/us/qicore/StructureDefinition/qicore-encounter" ]
      },
      "status": "finished",
      "class": {
        "system": "http://terminology.hl7.org/CodeSystem/v3-ActCode",
        "code": "EMER",
        "display": "emergency department"
      },
      "type": [ {
        "coding": [ {
          "system": "http://snomed.info/sct",
          "version": "2023-09",
          "code": "4525004",
          "display": "Emergency department patient visit (procedure)",
          "userSelected": true
        } ]
      } ],
      "subject": {
        "reference": "Patient/1a53b1ca-90dc-4fac-97c1-b0b51d3e092c"
      },
      "period": {
        "start": "2027-08-12T04:20:00.000+00:00",
        "end": "2027-08-12T12:21:00.000+00:00"
      },
      "diagnosis": [ {
        "condition": {
          "reference": "Condition/a9b9b570-f27a-4ebf-8907-e5d12b57359a"
        },
        "use": {
          "coding": [ {
            "system": "http://terminology.hl7.org/CodeSystem/diagnosis-role",
            "code": "billing"
          } ]
        },
        "rank": 1
      } ],
      "location": [ {
        "location": {
          "reference": "Location/0655f6ed-2fe9-4c2d-bc46-f74a43fbbeff"
        },
        "period": {
          "start": "2027-08-12T04:20:00.000+00:00",
          "end": "2027-08-12T12:21:00.000+00:00"
        }
      } ]
    },
    "request": {
      "method": "PUT",
      "url": "Encounter/b332c9f6-f8d6-49bd-a70f-e91f73880185"
    }
  }, {
    "fullUrl": "https://madie.cms.gov/Encounter/96b079b2-44b7-46dc-b319-ede9e678e325",
    "resource": {
      "resourceType": "Encounter",
      "id": "96b079b2-44b7-46dc-b319-ede9e678e325",
      "meta": {
        "profile": [ "http://hl7.org/fhir/us/qicore/StructureDefinition/qicore-encounter" ]
      },
      "status": "finished",
      "class": {
        "system": "http://terminology.hl7.org/CodeSystem/v3-ActCode",
        "code": "EMER",
        "display": "emergency department"
      },
      "type": [ {
        "coding": [ {
          "system": "http://snomed.info/sct",
          "version": "2023-09",
          "code": "4525004",
          "display": "Emergency department patient visit (procedure)",
          "userSelected": true
        } ]
      } ],
      "subject": {
        "reference": "Patient/1a53b1ca-90dc-4fac-97c1-b0b51d3e092c"
      },
      "period": {
        "start": "2027-01-01T06:00:00.000+00:00",
        "end": "2027-01-01T13:15:00.000+00:00"
      },
      "diagnosis": [ {
        "condition": {
          "reference": "Condition/a9b9b570-f27a-4ebf-8907-e5d12b57359a"
        },
        "use": {
          "coding": [ {
            "system": "http://terminology.hl7.org/CodeSystem/diagnosis-role",
            "code": "billing"
          } ]
        },
        "rank": 1
      } ],
      "location": [ {
        "location": {
          "reference": "Location/9802888d-0f5e-4d2a-bd1b-0f3000be6fa9"
        },
        "period": {
          "start": "2027-01-01T06:00:00.000+00:00",
          "end": "2027-01-01T13:01:00.000+00:00"
        }
      } ]
    },
    "request": {
      "method": "PUT",
      "url": "Encounter/96b079b2-44b7-46dc-b319-ede9e678e325"
    }
  }, {
    "fullUrl": "https://madie.cms.gov/Encounter/0aba866e-f60b-43cd-b16b-ddceb8da4a27",
    "resource": {
      "resourceType": "Encounter",
      "id": "0aba866e-f60b-43cd-b16b-ddceb8da4a27",
      "meta": {
        "profile": [ "http://hl7.org/fhir/us/qicore/StructureDefinition/qicore-encounter" ]
      },
      "status": "finished",
      "class": {
        "system": "http://terminology.hl7.org/CodeSystem/v3-ActCode",
        "code": "IMP",
        "display": "inpatient encounter"
      },
      "type": [ {
        "coding": [ {
          "system": "http://snomed.info/sct",
          "version": "2023-09",
          "code": "183452005",
          "display": "Emergency hospital admission (procedure)",
          "userSelected": true
        } ]
      } ],
      "subject": {
        "reference": "Patient/1a53b1ca-90dc-4fac-97c1-b0b51d3e092c"
      },
      "period": {
        "start": "2027-01-01T13:15:00.000+00:00",
        "end": "2027-01-03T09:15:00.000+00:00"
      }
    },
    "request": {
      "method": "PUT",
      "url": "Encounter/0aba866e-f60b-43cd-b16b-ddceb8da4a27"
    }
  }, {
    "fullUrl": "https://madie.cms.gov/Encounter/b80d33fb-85c7-4c24-b243-86b7ea5cbb48",
    "resource": {
      "resourceType": "Encounter",
      "id": "b80d33fb-85c7-4c24-b243-86b7ea5cbb48",
      "meta": {
        "profile": [ "http://hl7.org/fhir/us/qicore/StructureDefinition/qicore-encounter" ]
      },
      "status": "finished",
      "class": {
        "system": "http://terminology.hl7.org/CodeSystem/v3-ActCode",
        "code": "EMER",
        "display": "emergency"
      },
      "type": [ {
        "coding": [ {
          "system": "http://snomed.info/sct",
          "code": "448951000124107",
          "display": "Admission to observation unit (procedure)",
          "userSelected": true
        } ]
      } ],
      "subject": {
        "reference": "Patient/1a53b1ca-90dc-4fac-97c1-b0b51d3e092c"
      },
      "period": {
        "start": "2027-01-01T09:00:00.000+00:00",
        "end": "2027-01-01T13:10:00.000+00:00"
      }
    },
    "request": {
      "method": "PUT",
      "url": "Encounter/b80d33fb-85c7-4c24-b243-86b7ea5cbb48"
    }
  }, {
    "fullUrl": "https://madie.cms.gov/ServiceRequest/63056b17-16af-4157-9b1e-e190bf418c1f",
    "resource": {
      "resourceType": "ServiceRequest",
      "id": "63056b17-16af-4157-9b1e-e190bf418c1f",
      "meta": {
        "profile": [ "http://hl7.org/fhir/us/qicore/StructureDefinition/qicore-servicerequest" ]
      },
      "status": "active",
      "intent": "order",
      "code": {
        "coding": [ {
          "system": "http://snomed.info/sct",
          "code": "5751000175101",
          "display": "Patient bed assigned (finding)",
          "userSelected": true
        } ]
      },
      "subject": {
        "reference": "Patient/1a53b1ca-90dc-4fac-97c1-b0b51d3e092c"
      },
      "authoredOn": "2027-01-01T09:00:00.000+00:00"
    },
    "request": {
      "method": "PUT",
      "url": "ServiceRequest/63056b17-16af-4157-9b1e-e190bf418c1f"
    }
  }, {
    "fullUrl": "https://madie.cms.gov/Location/0655f6ed-2fe9-4c2d-bc46-f74a43fbbeff",
    "resource": {
      "resourceType": "Location",
      "id": "0655f6ed-2fe9-4c2d-bc46-f74a43fbbeff",
      "meta": {
        "profile": [ "http://hl7.org/fhir/us/qicore/StructureDefinition/qicore-location" ]
      },
      "identifier": [ {
        "use": "usual",
        "system": "http://exampleoflocation.com",
        "value": "B1-S.F2"
      } ],
      "name": "Medical Surgical East, first floor",
      "type": [ {
        "coding": [ {
          "system": "https://www.cdc.gov/nhsn/cdaportal/terminology/codesystem/hsloc.html",
          "version": "2022",
          "code": "1108-0",
          "display": "Emergency Department",
          "userSelected": true
        } ]
      } ]
    },
    "request": {
      "method": "PUT",
      "url": "Location/0655f6ed-2fe9-4c2d-bc46-f74a43fbbeff"
    }
  }, {
    "fullUrl": "https://madie.cms.gov/Location/9802888d-0f5e-4d2a-bd1b-0f3000be6fa9",
    "resource": {
      "resourceType": "Location",
      "id": "9802888d-0f5e-4d2a-bd1b-0f3000be6fa9",
      "meta": {
        "profile": [ "http://hl7.org/fhir/us/qicore/StructureDefinition/qicore-location" ]
      },
      "identifier": [ {
        "use": "usual",
        "system": "http://exampleoflocation.com",
        "value": "B1-S.F2"
      } ],
      "name": "Medical Surgical East, first floor",
      "type": [ {
        "coding": [ {
          "system": "https://www.cdc.gov/nhsn/cdaportal/terminology/codesystem/hsloc.html",
          "version": "2022",
          "code": "1108-0",
          "display": "Emergency Department",
          "userSelected": true
        } ]
      } ]
    },
    "request": {
      "method": "PUT",
      "url": "Location/9802888d-0f5e-4d2a-bd1b-0f3000be6fa9"
    }
  }, {
    "fullUrl": "https://madie.cms.gov/Claim/b14ad922-2021-4147-8082-cc15e2850ebd",
    "resource": {
      "resourceType": "Claim",
      "id": "b14ad922-2021-4147-8082-cc15e2850ebd",
      "meta": {
        "profile": [ "http://hl7.org/fhir/us/qicore/StructureDefinition/qicore-claim" ]
      },
      "status": "active",
      "type": {
        "coding": [ {
          "system": "http://terminology.hl7.org/CodeSystem/claim-type",
          "code": "institutional"
        } ]
      },
      "use": "claim",
      "patient": {
        "reference": "Patient/1a53b1ca-90dc-4fac-97c1-b0b51d3e092c"
      },
      "created": "2027-01-01",
      "provider": {
        "reference": "Practitioner/3b34cc87-d4a2-4402-9fb6-5ea98b8546cc"
      },
      "priority": {
        "coding": [ {
          "system": "http://terminology.hl7.org/CodeSystem/processpriority",
          "code": "normal"
        } ]
      },
      "diagnosis": [ {
        "sequence": 1,
        "diagnosisReference": {
          "reference": "Condition/a9b9b570-f27a-4ebf-8907-e5d12b57359a"
        },
        "type": [ {
          "coding": [ {
            "system": "http://terminology.hl7.org/CodeSystem/ex-diagnosistype",
            "code": "principal"
          } ]
        } ]
      } ],
      "insurance": [ {
        "sequence": 1,
        "focal": true,
        "coverage": {
          "reference": "Coverage/4fcd333e-27db-4964-b29d-f30a5380f194"
        }
      } ],
      "item": [ {
        "sequence": 1,
        "diagnosisSequence": [ 1 ],
        "productOrService": {
          "coding": [ {
            "system": "http://terminology.hl7.org/CodeSystem/ex-USCLS",
            "code": "99555"
          } ]
        },
        "encounter": [ {
          "reference": "Encounter/b332c9f6-f8d6-49bd-a70f-e91f73880185"
        } ]
      } ]
    },
    "request": {
      "method": "PUT",
      "url": "Claim/b14ad922-2021-4147-8082-cc15e2850ebd"
    }
  }, {
    "fullUrl": "https://madie.cms.gov/Claim/b14ad922-2021-4147-8082-cc15e2850ebd1",
    "resource": {
      "resourceType": "Claim",
      "id": "b14ad922-2021-4147-8082-cc15e2850ebd1",
      "meta": {
        "profile": [ "http://hl7.org/fhir/us/qicore/StructureDefinition/qicore-claim" ]
      },
      "status": "active",
      "type": {
        "coding": [ {
          "system": "http://terminology.hl7.org/CodeSystem/claim-type",
          "code": "institutional"
        } ]
      },
      "use": "claim",
      "patient": {
        "reference": "Patient/1a53b1ca-90dc-4fac-97c1-b0b51d3e092c"
      },
      "created": "2027-08-01",
      "provider": {
        "reference": "Practitioner/3b34cc87-d4a2-4402-9fb6-5ea98b8546cc"
      },
      "priority": {
        "coding": [ {
          "system": "http://terminology.hl7.org/CodeSystem/processpriority",
          "code": "normal"
        } ]
      },
      "diagnosis": [ {
        "sequence": 1,
        "diagnosisReference": {
          "reference": "Condition/a9b9b570-f27a-4ebf-8907-e5d12b57359a"
        },
        "type": [ {
          "coding": [ {
            "system": "http://terminology.hl7.org/CodeSystem/ex-diagnosistype",
            "code": "principal"
          } ]
        } ]
      } ],
      "insurance": [ {
        "sequence": 1,
        "focal": true,
        "coverage": {
          "reference": "Coverage/4fcd333e-27db-4964-b29d-f30a5380f194"
        }
      } ],
      "item": [ {
        "sequence": 1,
        "diagnosisSequence": [ 1 ],
        "productOrService": {
          "coding": [ {
            "system": "http://terminology.hl7.org/CodeSystem/ex-USCLS",
            "code": "99555"
          } ]
        },
        "encounter": [ {
          "reference": "Encounter/96b079b2-44b7-46dc-b319-ede9e678e325"
        } ]
      } ]
    },
    "request": {
      "method": "PUT",
      "url": "Claim/b14ad922-2021-4147-8082-cc15e2850ebd1"
    }
  }, {
    "fullUrl": "https://madie.cms.gov/Coverage/4fcd333e-27db-4964-b29d-f30a5380f194",
    "resource": {
      "resourceType": "Coverage",
      "id": "4fcd333e-27db-4964-b29d-f30a5380f194",
      "meta": {
        "profile": [ "http://hl7.org/fhir/us/qicore/StructureDefinition/qicore-coverage" ]
      },
      "identifier": [ {
        "type": {
          "coding": [ {
            "system": "http://terminology.hl7.org/CodeSystem/v2-0203",
            "code": "MB"
          } ]
        }
      } ],
      "status": "active",
      "beneficiary": {
        "reference": "Patient/1a53b1ca-90dc-4fac-97c1-b0b51d3e092c"
      },
      "relationship": {
        "coding": [ {
          "system": "http://terminology.hl7.org/CodeSystem/subscriber-relationship",
          "code": "self"
        } ]
      },
      "payor": [ {
        "reference": "Organization/32d74d51-08c5-4b7a-901f-d65101f5da5f"
      } ]
    },
    "request": {
      "method": "PUT",
      "url": "Coverage/4fcd333e-27db-4964-b29d-f30a5380f194"
    }
  }, {
    "fullUrl": "https://madie.cms.gov/Condition/a9b9b570-f27a-4ebf-8907-e5d12b57359a",
    "resource": {
      "resourceType": "Condition",
      "id": "a9b9b570-f27a-4ebf-8907-e5d12b57359a",
      "meta": {
        "profile": [ "http://hl7.org/fhir/us/qicore/StructureDefinition/qicore-condition-encounter-diagnosis" ]
      },
      "category": [ {
        "coding": [ {
          "system": "http://terminology.hl7.org/CodeSystem/condition-category",
          "code": "encounter-diagnosis",
          "display": "Encounter Diagnosis"
        } ]
      } ],
      "code": {
        "coding": [ {
          "system": "http://snomed.info/sct",
          "version": "2023-09",
          "code": "10349009",
          "display": "Multi-infarct dementia with delirium (disorder)",
          "userSelected": true
        } ]
      },
      "subject": {
        "reference": "Patient/1a53b1ca-90dc-4fac-97c1-b0b51d3e092c"
      },
      "recordedDate": "2027-01-01T08:00:00.000+00:00"
    },
    "request": {
      "method": "PUT",
      "url": "Condition/a9b9b570-f27a-4ebf-8907-e5d12b57359a"
    }
  }, {
    "fullUrl": "https://madie.cms.gov/Organization/32d74d51-08c5-4b7a-901f-d65101f5da5f",
    "resource": {
      "resourceType": "Organization",
      "id": "32d74d51-08c5-4b7a-901f-d65101f5da5f",
      "meta": {
        "profile": [ "http://hl7.org/fhir/us/qicore/StructureDefinition/qicore-organization" ]
      },
      "identifier": [ {
        "use": "temp",
        "system": "urn:oid:2.16.840.1.113883.4.4",
        "value": "21-3259825"
      } ],
      "active": true,
      "type": [ {
        "coding": [ {
          "system": "http://terminology.hl7.org/CodeSystem/organization-type",
          "code": "pay",
          "display": "Payer"
        } ]
      } ],
      "name": "Blue Cross Blue Shield of Texas",
      "telecom": [ {
        "system": "phone",
        "value": "(+1) 972-766-6900"
      } ],
      "address": [ {
        "use": "billing",
        "type": "postal",
        "line": [ "P.O. Box 660044" ],
        "city": "Dallas",
        "state": "TX",
        "postalCode": "75266-0044",
        "country": "USA"
      } ]
    },
    "request": {
      "method": "PUT",
      "url": "Organization/32d74d51-08c5-4b7a-901f-d65101f5da5f"
    }
  }, {
    "fullUrl": "https://madie.cms.gov/Practitioner/3b34cc87-d4a2-4402-9fb6-5ea98b8546cc",
    "resource": {
      "resourceType": "Practitioner",
      "id": "3b34cc87-d4a2-4402-9fb6-5ea98b8546cc",
      "meta": {
        "profile": [ "http://hl7.org/fhir/us/qicore/StructureDefinition/qicore-practitioner" ]
      },
      "identifier": [ {
        "system": "http://hl7.org/fhir/sid/us-npi",
        "value": "9999999896"
      } ],
      "name": [ {
        "family": "Evil",
        "prefix": [ "Dr" ]
      } ]
    },
    "request": {
      "method": "PUT",
      "url": "Practitioner/3b34cc87-d4a2-4402-9fb6-5ea98b8546cc"
    }
  }, {
    "fullUrl": "https://madie.cms.gov/MeasureReport/7a41601e-0250-47c5-be7b-b8d98d7ec378",
    "resource": {
      "resourceType": "MeasureReport",
      "id": "7a41601e-0250-47c5-be7b-b8d98d7ec378",
      "meta": {
        "profile": [ "http://hl7.org/fhir/us/cqfmeasures/StructureDefinition/test-case-cqfm" ]
      },
      "contained": [ {
        "resourceType": "Parameters",
        "id": "ea8da374-5404-4743-9f39-5b633537adde-parameters",
        "parameter": [ {
          "name": "subject",
          "valueString": "1a53b1ca-90dc-4fac-97c1-b0b51d3e092c"
        } ]
      } ],
      "extension": [ {
        "url": "http://hl7.org/fhir/StructureDefinition/cqf-inputParameters",
        "valueReference": {
          "reference": "#ea8da374-5404-4743-9f39-5b633537adde-parameters"
        }
      }, {
        "url": "http://hl7.org/fhir/us/cqfmeasures/StructureDefinition/cqfm-testCaseDescription",
        "valueMarkdown": "Adult, age 18, multiple encounters one if which is bed assignment 241 mins before ED departure with behavioral health disorder, but with observational stay. The other one is LOS greater than 481 mins. "
      } ],
      "modifierExtension": [ {
        "url": "http://hl7.org/fhir/us/cqfmeasures/StructureDefinition/cqfm-isTestCase",
        "valueBoolean": true
      } ],
      "status": "complete",
      "type": "individual",
      "measure": "https://madie.cms.gov/Measure/CMS1244FHIRECATHOQR",
      "period": {
        "start": "2027-01-01",
        "end": "2027-12-31"
      },
      "group": [ {
        "id": "Group_1",
        "population": [ {
          "id": "InitialPopulation_1",
          "code": {
            "coding": [ {
              "system": "http://terminology.hl7.org/CodeSystem/measure-population",
              "code": "initial-population",
              "display": "Initial Population"
            } ]
          },
          "count": 2
        }, {
          "id": "Denominator_1",
          "code": {
            "coding": [ {
              "system": "http://terminology.hl7.org/CodeSystem/measure-population",
              "code": "denominator",
              "display": "Denominator"
            } ]
          },
          "count": 2
        }, {
          "id": "Numerator_1",
          "code": {
            "coding": [ {
              "system": "http://terminology.hl7.org/CodeSystem/measure-population",
              "code": "numerator",
              "display": "Numerator"
            } ]
          },
          "count": 1
        } ],
        "measureScore": {
          "value": 0.0
        },
        "stratifier": [ {
          "id": "Stratification_1_1",
          "code": [ {
            "text": "Strata-1"
          } ],
          "stratum": [ {
            "value": {
              "text": "Strata-1"
            },
            "population": [ {
              "id": "InitialPopulation_1",
              "code": {
                "coding": [ {
                  "system": "http://terminology.hl7.org/CodeSystem/measure-population",
                  "code": "initial-population",
                  "display": "Initial Population"
                } ]
              },
              "count": 0
            }, {
              "id": "Denominator_1",
              "code": {
                "coding": [ {
                  "system": "http://terminology.hl7.org/CodeSystem/measure-population",
                  "code": "denominator",
                  "display": "Denominator"
                } ]
              },
              "count": 0
            }, {
              "id": "Numerator_1",
              "code": {
                "coding": [ {
                  "system": "http://terminology.hl7.org/CodeSystem/measure-population",
                  "code": "numerator",
                  "display": "Numerator"
                } ]
              },
              "count": 0
            } ]
          } ]
        }, {
          "id": "Stratification_1_2",
          "code": [ {
            "text": "Strata-2"
          } ],
          "stratum": [ {
            "value": {
              "text": "Strata-2"
            },
            "population": [ {
              "id": "InitialPopulation_1",
              "code": {
                "coding": [ {
                  "system": "http://terminology.hl7.org/CodeSystem/measure-population",
                  "code": "initial-population",
                  "display": "Initial Population"
                } ]
              },
              "count": 0
            }, {
              "id": "Denominator_1",
              "code": {
                "coding": [ {
                  "system": "http://terminology.hl7.org/CodeSystem/measure-population",
                  "code": "denominator",
                  "display": "Denominator"
                } ]
              },
              "count": 0
            }, {
              "id": "Numerator_1",
              "code": {
                "coding": [ {
                  "system": "http://terminology.hl7.org/CodeSystem/measure-population",
                  "code": "numerator",
                  "display": "Numerator"
                } ]
              },
              "count": 0
            } ]
          } ]
        }, {
          "id": "Stratification_1_3",
          "code": [ {
            "text": "Strata-3"
          } ],
          "stratum": [ {
            "value": {
              "text": "Strata-3"
            },
            "population": [ {
              "id": "InitialPopulation_1",
              "code": {
                "coding": [ {
                  "system": "http://terminology.hl7.org/CodeSystem/measure-population",
                  "code": "initial-population",
                  "display": "Initial Population"
                } ]
              },
              "count": 0
            }, {
              "id": "Denominator_1",
              "code": {
                "coding": [ {
                  "system": "http://terminology.hl7.org/CodeSystem/measure-population",
                  "code": "denominator",
                  "display": "Denominator"
                } ]
              },
              "count": 0
            }, {
              "id": "Numerator_1",
              "code": {
                "coding": [ {
                  "system": "http://terminology.hl7.org/CodeSystem/measure-population",
                  "code": "numerator",
                  "display": "Numerator"
                } ]
              },
              "count": 0
            } ]
          } ]
        }, {
          "id": "Stratification_1_4",
          "code": [ {
            "text": "Strata-4"
          } ],
          "stratum": [ {
            "value": {
              "text": "Strata-4"
            },
            "population": [ {
              "id": "InitialPopulation_1",
              "code": {
                "coding": [ {
                  "system": "http://terminology.hl7.org/CodeSystem/measure-population",
                  "code": "initial-population",
                  "display": "Initial Population"
                } ]
              },
              "count": 2
            }, {
              "id": "Denominator_1",
              "code": {
                "coding": [ {
                  "system": "http://terminology.hl7.org/CodeSystem/measure-population",
                  "code": "denominator",
                  "display": "Denominator"
                } ]
              },
              "count": 2
            }, {
              "id": "Numerator_1",
              "code": {
                "coding": [ {
                  "system": "http://terminology.hl7.org/CodeSystem/measure-population",
                  "code": "numerator",
                  "display": "Numerator"
                } ]
              },
              "count": 1
            } ]
          } ]
        } ]
      } ],
      "evaluatedResource": [ {
        "reference": "Patient/1a53b1ca-90dc-4fac-97c1-b0b51d3e092c"
      }, {
        "reference": "Encounter/b332c9f6-f8d6-49bd-a70f-e91f73880185"
      }, {
        "reference": "Encounter/96b079b2-44b7-46dc-b319-ede9e678e325"
      }, {
        "reference": "Encounter/0aba866e-f60b-43cd-b16b-ddceb8da4a27"
      }, {
        "reference": "Encounter/b80d33fb-85c7-4c24-b243-86b7ea5cbb48"
      }, {
        "reference": "ServiceRequest/63056b17-16af-4157-9b1e-e190bf418c1f"
      }, {
        "reference": "Location/0655f6ed-2fe9-4c2d-bc46-f74a43fbbeff"
      }, {
        "reference": "Location/9802888d-0f5e-4d2a-bd1b-0f3000be6fa9"
      }, {
        "reference": "Claim/b14ad922-2021-4147-8082-cc15e2850ebd"
      }, {
        "reference": "Claim/b14ad922-2021-4147-8082-cc15e2850ebd1"
      }, {
        "reference": "Coverage/4fcd333e-27db-4964-b29d-f30a5380f194"
      }, {
        "reference": "Condition/a9b9b570-f27a-4ebf-8907-e5d12b57359a"
      }, {
        "reference": "Organization/32d74d51-08c5-4b7a-901f-d65101f5da5f"
      }, {
        "reference": "Practitioner/3b34cc87-d4a2-4402-9fb6-5ea98b8546cc"
      } ]
    },
    "request": {
      "method": "PUT",
      "url": "MeasureReport/7a41601e-0250-47c5-be7b-b8d98d7ec378"
    }
  } ]
}