{
  "resourceType": "Bundle",
  "id": "tests-a65e5180-3578-4013-bdc2-925e1af1e627-bundle",
  "type": "transaction",
  "entry": [ {
    "fullUrl": "https://madie.cms.gov/Encounter/66104790-a57b-4602-88f8-81e7ed324e78",
    "resource": {
      "resourceType": "Encounter",
      "id": "66104790-a57b-4602-88f8-81e7ed324e78",
      "meta": {
        "profile": [ "http://hl7.org/fhir/us/qicore/StructureDefinition/qicore-encounter" ]
      },
      "status": "finished",
      "class": {
        "system": "http://terminology.hl7.org/CodeSystem/v3-ActCode",
        "code": "IMP",
        "display": "inpatient encounter"
      },
      "type": [ {
        "coding": [ {
          "system": "http://snomed.info/sct",
          "code": "112689000",
          "display": "Hospital admission, elective, with complete pre-admission work-up"
        } ],
        "text": "Hospital admission, elective, with complete pre-admission work-up"
      } ],
      "priority": {
        "coding": [ {
          "system": "http://snomed.info/sct",
          "code": "103390000"
        } ]
      },
      "subject": {
        "reference": "Patient/a65e5180-3578-4013-bdc2-925e1af1e627"
      },
      "period": {
        "start": "2026-04-10T08:00:00.000+00:00",
        "end": "2026-04-14T08:15:00.000+00:00"
      },
      "diagnosis": [ {
        "condition": {
          "reference": "Procedure/a358645e-6e0d-4de4-b8a2-14d5286c594c"
        },
        "rank": 1
      } ]
    },
    "request": {
      "method": "PUT",
      "url": "Encounter/66104790-a57b-4602-88f8-81e7ed324e78"
    }
  }, {
    "fullUrl": "https://madie.cms.gov/Procedure/a358645e-6e0d-4de4-b8a2-14d5286c594c",
    "resource": {
      "resourceType": "Procedure",
      "id": "a358645e-6e0d-4de4-b8a2-14d5286c594c",
      "meta": {
        "profile": [ "http://hl7.org/fhir/us/qicore/StructureDefinition/qicore-procedure" ]
      },
      "extension": [ {
        "url": "http://hl7.org/fhir/us/qicore/StructureDefinition/qicore-recorded",
        "valueDateTime": "2026-04-11T10:30:00.000+00:00"
      } ],
      "status": "completed",
      "category": {
        "coding": [ {
          "system": "http://snomed.info/sct",
          "code": "18286008",
          "display": "General or neuraxial anesthesia"
        } ]
      },
      "code": {
        "coding": [ {
          "system": "http://snomed.info/sct",
          "code": "112943005",
          "display": "Epidural injection of anesthetic substance, diagnostic, caudal, continuous"
        } ]
      },
      "subject": {
        "reference": "Patient/a65e5180-3578-4013-bdc2-925e1af1e627"
      },
      "performedPeriod": {
        "start": "2026-04-12T08:00:00.000+00:00",
        "end": "2026-04-12T10:15:00.000+00:00"
      }
    },
    "request": {
      "method": "PUT",
      "url": "Procedure/a358645e-6e0d-4de4-b8a2-14d5286c594c"
    }
  }, {
    "fullUrl": "https://madie.cms.gov/Encounter/b2433b80-b929-425b-91ea-b100a53b9a68",
    "resource": {
      "resourceType": "Encounter",
      "id": "b2433b80-b929-425b-91ea-b100a53b9a68",
      "meta": {
        "profile": [ "http://hl7.org/fhir/us/qicore/StructureDefinition/qicore-encounter" ]
      },
      "status": "finished",
      "class": {
        "system": "http://terminology.hl7.org/CodeSystem/v3-ActCode",
        "code": "IMP",
        "display": "inpatient encounter"
      },
      "type": [ {
        "coding": [ {
          "system": "http://snomed.info/sct",
          "code": "112689000",
          "display": "Hospital admission, elective, with complete pre-admission work-up"
        } ],
        "text": "Hospital admission, elective, with complete pre-admission work-up"
      } ],
      "priority": {
        "coding": [ {
          "system": "http://snomed.info/sct",
          "code": "103390000"
        } ]
      },
      "subject": {
        "reference": "Patient/a65e5180-3578-4013-bdc2-925e1af1e627"
      },
      "period": {
        "start": "2026-04-19T08:00:00.000+00:00",
        "end": "2026-04-23T08:15:00.000+00:00"
      },
      "diagnosis": [ {
        "condition": {
          "reference": "Procedure/5d86dec6-bd2f-4114-958c-a4b0c31dbefb"
        },
        "rank": 1
      } ]
    },
    "request": {
      "method": "PUT",
      "url": "Encounter/b2433b80-b929-425b-91ea-b100a53b9a68"
    }
  }, {
    "fullUrl": "https://madie.cms.gov/Procedure/5d86dec6-bd2f-4114-958c-a4b0c31dbefb",
    "resource": {
      "resourceType": "Procedure",
      "id": "5d86dec6-bd2f-4114-958c-a4b0c31dbefb",
      "meta": {
        "profile": [ "http://hl7.org/fhir/us/qicore/StructureDefinition/qicore-procedure" ]
      },
      "extension": [ {
        "url": "http://hl7.org/fhir/us/qicore/StructureDefinition/qicore-recorded",
        "valueDateTime": "2026-04-11T10:30:00.000+00:00"
      } ],
      "status": "completed",
      "category": {
        "coding": [ {
          "system": "http://snomed.info/sct",
          "code": "18286008",
          "display": "General or neuraxial anesthesia"
        } ]
      },
      "code": {
        "coding": [ {
          "system": "http://snomed.info/sct",
          "code": "112943005",
          "display": "Epidural injection of anesthetic substance, diagnostic, caudal, continuous"
        } ]
      },
      "subject": {
        "reference": "Patient/a65e5180-3578-4013-bdc2-925e1af1e627"
      },
      "performedDateTime": "2026-04-19T11:00:00.000+00:00"
    },
    "request": {
      "method": "PUT",
      "url": "Procedure/5d86dec6-bd2f-4114-958c-a4b0c31dbefb"
    }
  }, {
    "fullUrl": "https://madie.cms.gov/Procedure/bb92a8e5-d902-4dba-9f57-cc9c321cb74c",
    "resource": {
      "resourceType": "Procedure",
      "id": "bb92a8e5-d902-4dba-9f57-cc9c321cb74c",
      "meta": {
        "profile": [ "http://hl7.org/fhir/us/qicore/StructureDefinition/qicore-procedure" ]
      },
      "extension": [ {
        "url": "http://hl7.org/fhir/us/qicore/StructureDefinition/qicore-recorded",
        "valueDateTime": "2026-04-11T10:10:00.000+00:00"
      } ],
      "status": "completed",
      "code": {
        "coding": [ {
          "system": "http://www.cms.gov/Medicare/Coding/ICD10",
          "code": "0BW10FZ",
          "display": "Revision of Tracheostomy Device in Trachea, Open Approach"
        } ],
        "text": "Revision of Tracheostomy Device in Trachea, Open Approach"
      },
      "subject": {
        "reference": "Patient/a65e5180-3578-4013-bdc2-925e1af1e627"
      },
      "performedDateTime": "2026-04-11T10:00:00.000+00:00"
    },
    "request": {
      "method": "PUT",
      "url": "Procedure/bb92a8e5-d902-4dba-9f57-cc9c321cb74c"
    }
  }, {
    "fullUrl": "https://madie.cms.gov/Procedure/73649a61-b787-4b34-a158-e3eec2a737f1",
    "resource": {
      "resourceType": "Procedure",
      "id": "73649a61-b787-4b34-a158-e3eec2a737f1",
      "meta": {
        "profile": [ "http://hl7.org/fhir/us/qicore/StructureDefinition/qicore-procedure" ]
      },
      "extension": [ {
        "url": "http://hl7.org/fhir/us/qicore/StructureDefinition/qicore-recorded",
        "valueDateTime": "2026-04-20T08:10:00.000+00:00"
      } ],
      "status": "completed",
      "code": {
        "coding": [ {
          "system": "http://www.cms.gov/Medicare/Coding/ICD10",
          "code": "0BH13EZ",
          "display": "Insertion of Endotracheal Airway into Trachea, Percutaneous Approach"
        } ],
        "text": "Insertion of Endotracheal Airway into Trachea, Percutaneous Approach"
      },
      "subject": {
        "reference": "Patient/a65e5180-3578-4013-bdc2-925e1af1e627"
      },
      "performedDateTime": "2026-04-20T08:00:00.000+00:00"
    },
    "request": {
      "method": "PUT",
      "url": "Procedure/73649a61-b787-4b34-a158-e3eec2a737f1"
    }
  }, {
    "fullUrl": "https://madie.cms.gov/Patient/a65e5180-3578-4013-bdc2-925e1af1e627",
    "resource": {
      "resourceType": "Patient",
      "id": "a65e5180-3578-4013-bdc2-925e1af1e627",
      "meta": {
        "profile": [ "http://hl7.org/fhir/us/qicore/StructureDefinition/qicore-patient" ]
      },
      "extension": [ {
        "url": "http://hl7.org/fhir/us/core/StructureDefinition/us-core-race",
        "extension": [ {
          "url": "ombCategory",
          "valueCoding": {
            "system": "urn:oid:2.16.840.1.113883.6.238",
            "code": "2054-5",
            "display": "Black or African American",
            "userSelected": true
          }
        }, {
          "url": "text",
          "valueString": "Black or African American"
        } ]
      }, {
        "url": "http://hl7.org/fhir/us/core/StructureDefinition/us-core-ethnicity",
        "extension": [ {
          "url": "ombCategory",
          "valueCoding": {
            "system": "urn:oid:2.16.840.1.113883.6.238",
            "code": "2186-5",
            "display": "Not Hispanic or Latino",
            "userSelected": true
          }
        }, {
          "url": "text",
          "valueString": "Not Hispanic or Latino"
        } ]
      } ],
      "identifier": [ {
        "type": {
          "coding": [ {
            "system": "http://terminology.hl7.org/CodeSystem/v2-0203",
            "code": "MR"
          } ]
        },
        "system": "https://bonnie-fhir.healthit.gov/",
        "value": "61152a3b98086b7a79cbd7c1"
      } ],
      "active": true,
      "name": [ {
        "use": "usual",
        "family": "DENEXFail",
        "given": [ "1EncPaO2Exc2EncNum" ]
      } ],
      "gender": "female",
      "birthDate": "1966-07-12"
    },
    "request": {
      "method": "PUT",
      "url": "Patient/a65e5180-3578-4013-bdc2-925e1af1e627"
    }
  }, {
    "fullUrl": "https://madie.cms.gov/MeasureReport/47fbe4f0-7321-4817-a305-ff963f73399b",
    "resource": {
      "resourceType": "MeasureReport",
      "id": "47fbe4f0-7321-4817-a305-ff963f73399b",
      "meta": {
        "profile": [ "http://hl7.org/fhir/us/cqfmeasures/StructureDefinition/test-case-cqfm" ]
      },
      "contained": [ {
        "resourceType": "Parameters",
        "id": "1f91f893-9d24-4ab5-a550-a96b1f44a933-parameters",
        "parameter": [ {
          "name": "subject",
          "valueString": "a65e5180-3578-4013-bdc2-925e1af1e627"
        } ]
      } ],
      "extension": [ {
        "url": "http://hl7.org/fhir/StructureDefinition/cqf-inputParameters",
        "valueReference": {
          "reference": "#1f91f893-9d24-4ab5-a550-a96b1f44a933-parameters"
        }
      }, {
        "url": "http://hl7.org/fhir/us/cqfmeasures/StructureDefinition/cqfm-testCaseDescription",
        "valueMarkdown": "Enc 1: Elective hosp with trach before day of 1st OR proc (gen anesthesia).  Meets Exclusion.\nEnc 2: Elective hosp with intubation after OR proc (gen anesthesia). Meets Numerator 1. \nTesting to make sure Enc1 exclusion does not impact Enc2."
      } ],
      "modifierExtension": [ {
        "url": "http://hl7.org/fhir/us/cqfmeasures/StructureDefinition/cqfm-isTestCase",
        "valueBoolean": true
      } ],
      "status": "complete",
      "type": "individual",
      "measure": "https://madie.cms.gov/Measure/CMS1218FHIRHHRF",
      "period": {
        "start": "2026-01-01",
        "end": "2026-12-31"
      },
      "group": [ {
        "id": "Group_1",
        "population": [ {
          "id": "InitialPopulation_1",
          "code": {
            "coding": [ {
              "system": "http://terminology.hl7.org/CodeSystem/measure-population",
              "code": "initial-population",
              "display": "Initial Population"
            } ]
          },
          "count": 2
        }, {
          "id": "Denominator_1",
          "code": {
            "coding": [ {
              "system": "http://terminology.hl7.org/CodeSystem/measure-population",
              "code": "denominator",
              "display": "Denominator"
            } ]
          },
          "count": 2
        }, {
          "id": "DenominatorExclusion_1",
          "code": {
            "coding": [ {
              "system": "http://terminology.hl7.org/CodeSystem/measure-population",
              "code": "denominator-exclusion",
              "display": "Denominator Exclusion"
            } ]
          },
          "count": 1
        }, {
          "id": "Numerator_1",
          "code": {
            "coding": [ {
              "system": "http://terminology.hl7.org/CodeSystem/measure-population",
              "code": "numerator",
              "display": "Numerator"
            } ]
          },
          "count": 1
        } ],
        "measureScore": {
          "value": 0.0
        }
      } ],
      "evaluatedResource": [ {
        "reference": "Encounter/66104790-a57b-4602-88f8-81e7ed324e78"
      }, {
        "reference": "Procedure/a358645e-6e0d-4de4-b8a2-14d5286c594c"
      }, {
        "reference": "Encounter/b2433b80-b929-425b-91ea-b100a53b9a68"
      }, {
        "reference": "Procedure/5d86dec6-bd2f-4114-958c-a4b0c31dbefb"
      }, {
        "reference": "Procedure/bb92a8e5-d902-4dba-9f57-cc9c321cb74c"
      }, {
        "reference": "Procedure/73649a61-b787-4b34-a158-e3eec2a737f1"
      }, {
        "reference": "Patient/a65e5180-3578-4013-bdc2-925e1af1e627"
      } ]
    },
    "request": {
      "method": "PUT",
      "url": "MeasureReport/47fbe4f0-7321-4817-a305-ff963f73399b"
    }
  } ]
}