{
  "resourceType": "Bundle",
  "id": "61168b8798086b77ef9c5ec1",
  "type": "collection",
  "entry": [ {
    "fullUrl": "https://madie.cms.gov/Patient/bc456bd5-d133-48dd-bbfc-228fa3f22c9a",
    "resource": {
      "resourceType": "Patient",
      "id": "bc456bd5-d133-48dd-bbfc-228fa3f22c9a",
      "meta": {
        "profile": [ "http://hl7.org/fhir/us/qicore/StructureDefinition/qicore-patient" ]
      },
      "extension": [ {
        "url": "http://hl7.org/fhir/us/core/StructureDefinition/us-core-race",
        "extension": [ {
          "url": "ombCategory",
          "valueCoding": {
            "system": "urn:oid:2.16.840.1.113883.6.238",
            "code": "2054-5",
            "display": "Black or African American",
            "userSelected": true
          }
        }, {
          "url": "text",
          "valueString": "Black or African American"
        } ]
      }, {
        "url": "http://hl7.org/fhir/us/core/StructureDefinition/us-core-ethnicity",
        "extension": [ {
          "url": "ombCategory",
          "valueCoding": {
            "system": "urn:oid:2.16.840.1.113883.6.238",
            "code": "2135-2",
            "display": "Hispanic or Latino",
            "userSelected": true
          }
        }, {
          "url": "text",
          "valueString": "Hispanic or Latino"
        } ]
      } ],
      "identifier": [ {
        "type": {
          "coding": [ {
            "system": "http://terminology.hl7.org/CodeSystem/v2-0203",
            "code": "MR"
          } ]
        },
        "system": "https://GoodHealthCare.com/",
        "value": "61168b8798086b77ef9c5ec1"
      } ],
      "active": true,
      "name": [ {
        "use": "usual",
        "family": "IPPass",
        "given": [ "Enc1MinB4MPEnd" ]
      } ],
      "gender": "male",
      "birthDate": "1979-02-14"
    }
  }, {
    "fullUrl": "https://madie.cms.gov/Condition/c3baa4ba-fb30-4ccf-8e90-f743d3b517ac",
    "resource": {
      "resourceType": "Condition",
      "id": "c3baa4ba-fb30-4ccf-8e90-f743d3b517ac",
      "meta": {
        "profile": [ "http://hl7.org/fhir/us/qicore/StructureDefinition/qicore-condition-problems-health-concerns" ]
      },
      "clinicalStatus": {
        "coding": [ {
          "system": "http://terminology.hl7.org/CodeSystem/condition-clinical",
          "code": "active",
          "display": "Active"
        } ]
      },
      "category": [ {
        "coding": [ {
          "system": "http://terminology.hl7.org/CodeSystem/condition-category",
          "code": "problem-list-item",
          "display": "Problem List Item"
        } ]
      } ],
      "code": {
        "coding": [ {
          "system": "http://snomed.info/sct",
          "version": "http://snomed.info/sct/731000124108/version/20250301",
          "code": "232022001",
          "display": "Proliferative retinopathy with neovascularization elsewhere than the optic disc due to diabetes mellitus (disorder)"
        } ]
      },
      "subject": {
        "reference": "Patient/bc456bd5-d133-48dd-bbfc-228fa3f22c9a"
      },
      "onsetDateTime": "2025-12-03T10:45:00.000+00:00"
    }
  }, {
    "fullUrl": "https://madie.cms.gov/Encounter/d6925f66-dc08-413c-ab39-0bef85806a63",
    "resource": {
      "resourceType": "Encounter",
      "id": "d6925f66-dc08-413c-ab39-0bef85806a63",
      "meta": {
        "profile": [ "http://hl7.org/fhir/us/qicore/StructureDefinition/qicore-encounter" ]
      },
      "status": "finished",
      "class": {
        "system": "http://terminology.hl7.org/CodeSystem/v3-ActCode",
        "code": "AMB"
      },
      "type": [ {
        "coding": [ {
          "system": "http://www.ama-assn.org/go/cpt",
          "version": "2023",
          "code": "99205"
        } ]
      } ],
      "subject": {
        "reference": "Patient/bc456bd5-d133-48dd-bbfc-228fa3f22c9a"
      },
      "period": {
        "start": "2026-12-31T23:30:00.000+00:00",
        "end": "2026-12-31T23:59:00.000+00:00"
      }
    }
  }, {
    "fullUrl": "https://madie.cms.gov/Coverage/5109227b-f9d6-4f07-9724-ea20ba2c204e",
    "resource": {
      "resourceType": "Coverage",
      "id": "5109227b-f9d6-4f07-9724-ea20ba2c204e",
      "meta": {
        "profile": [ "http://hl7.org/fhir/us/qicore/StructureDefinition/qicore-coverage" ]
      },
      "status": "active",
      "subscriberId": "123456",
      "beneficiary": {
        "reference": "Patient/bc456bd5-d133-48dd-bbfc-228fa3f22c9a"
      },
      "relationship": {
        "coding": [ {
          "system": "http://terminology.hl7.org/CodeSystem/subscriber-relationship",
          "code": "self",
          "display": "Self"
        } ]
      },
      "payor": [ {
        "reference": "Organization/302a1bca-f4a8-4af2-9696-bfbb3755849a"
      } ]
    }
  }, {
    "fullUrl": "https://madie.cms.gov/Organization/302a1bca-f4a8-4af2-9696-bfbb3755849a",
    "resource": {
      "resourceType": "Organization",
      "id": "302a1bca-f4a8-4af2-9696-bfbb3755849a",
      "meta": {
        "profile": [ "http://hl7.org/fhir/us/qicore/StructureDefinition/qicore-organization" ]
      },
      "identifier": [ {
        "use": "temp",
        "system": "urn:oid:2.16.840.1.113883.4.4",
        "value": "21-3259825"
      } ],
      "active": true,
      "type": [ {
        "coding": [ {
          "system": "http://terminology.hl7.org/CodeSystem/organization-type",
          "code": "pay",
          "display": "Payer"
        } ]
      } ],
      "name": "Blue Cross Blue Shield of Texas",
      "telecom": [ {
        "system": "phone",
        "value": "(+1) 972-766-6900"
      } ],
      "address": [ {
        "use": "billing",
        "type": "postal",
        "line": [ "P.O. Box 660044" ],
        "city": "Dallas",
        "state": "TX",
        "postalCode": "75266-0044",
        "country": "USA"
      } ]
    }
  }, {
    "fullUrl": "https://madie.cms.gov/MeasureReport/bf0a5439-41f3-4638-a2b8-e98d7939e686",
    "resource": {
      "resourceType": "MeasureReport",
      "id": "bf0a5439-41f3-4638-a2b8-e98d7939e686",
      "meta": {
        "profile": [ "http://hl7.org/fhir/us/cqfmeasures/StructureDefinition/test-case-cqfm" ]
      },
      "contained": [ {
        "resourceType": "Parameters",
        "id": "b1eb5bad-0703-46fe-9faf-1227425b2b38-parameters",
        "parameter": [ {
          "name": "subject",
          "valueString": "bc456bd5-d133-48dd-bbfc-228fa3f22c9a"
        } ]
      } ],
      "extension": [ {
        "url": "http://hl7.org/fhir/StructureDefinition/cqf-inputParameters",
        "valueReference": {
          "reference": "#b1eb5bad-0703-46fe-9faf-1227425b2b38-parameters"
        }
      }, {
        "url": "http://hl7.org/fhir/us/cqfmeasures/StructureDefinition/cqfm-testCaseDescription",
        "valueMarkdown": "Qualifying Encounter Ends 1 minute before Measurement Period Ends (edge)"
      } ],
      "modifierExtension": [ {
        "url": "http://hl7.org/fhir/us/cqfmeasures/StructureDefinition/cqfm-isTestCase",
        "valueBoolean": true
      } ],
      "status": "complete",
      "type": "individual",
      "measure": "https://madie.cms.gov/Measure/CMS142FHIRCommWithDrManagingDiab",
      "period": {
        "start": "2026-01-01",
        "end": "2026-12-31"
      },
      "group": [ {
        "id": "Group_1",
        "population": [ {
          "id": "InitialPopulation_1",
          "code": {
            "coding": [ {
              "system": "http://terminology.hl7.org/CodeSystem/measure-population",
              "code": "initial-population",
              "display": "Initial Population"
            } ]
          },
          "count": 1
        }, {
          "id": "Denominator_1",
          "code": {
            "coding": [ {
              "system": "http://terminology.hl7.org/CodeSystem/measure-population",
              "code": "denominator",
              "display": "Denominator"
            } ]
          },
          "count": 0
        }, {
          "id": "Numerator_1",
          "code": {
            "coding": [ {
              "system": "http://terminology.hl7.org/CodeSystem/measure-population",
              "code": "numerator",
              "display": "Numerator"
            } ]
          },
          "count": 0
        }, {
          "id": "DenominatorException_1",
          "code": {
            "coding": [ {
              "system": "http://terminology.hl7.org/CodeSystem/measure-population",
              "code": "denominator-exception",
              "display": "Denominator Exception"
            } ]
          },
          "count": 0
        } ],
        "measureScore": {
          "value": 1.0
        }
      } ],
      "evaluatedResource": [ {
        "reference": "Patient/bc456bd5-d133-48dd-bbfc-228fa3f22c9a"
      }, {
        "reference": "Condition/c3baa4ba-fb30-4ccf-8e90-f743d3b517ac"
      }, {
        "reference": "Encounter/d6925f66-dc08-413c-ab39-0bef85806a63"
      }, {
        "reference": "Coverage/5109227b-f9d6-4f07-9724-ea20ba2c204e"
      }, {
        "reference": "Organization/302a1bca-f4a8-4af2-9696-bfbb3755849a"
      } ]
    }
  } ]
}