{
  "resourceType": "Bundle",
  "id": "633b3f9e0968f80122503cd2",
  "type": "transaction",
  "entry": [ {
    "fullUrl": "https://madie.cms.gov/Patient/94236514-cb6c-4e1b-8235-69e8ccc4ad05",
    "resource": {
      "resourceType": "Patient",
      "id": "94236514-cb6c-4e1b-8235-69e8ccc4ad05",
      "meta": {
        "profile": [ "http://hl7.org/fhir/us/qicore/StructureDefinition/qicore-patient" ]
      },
      "text": {
        "status": "generated",
        "div": "<div xmlns=\"http://www.w3.org/1999/xhtml\"><div class=\"hapiHeaderText\">LastAssPrfDELRsltDtTimeAftIPEnd<b>DENOMPASS</b></div><table class=\"hapiPropertyTable\"><tbody><tr><td>Date of birth</td><td><span>01 February 2004</span></td></tr></tbody></table></div>"
      },
      "extension": [ {
        "url": "http://hl7.org/fhir/us/core/StructureDefinition/us-core-race",
        "extension": [ {
          "url": "ombCategory",
          "valueCoding": {
            "system": "urn:oid:2.16.840.1.113883.6.238",
            "code": "1002-5",
            "display": "American Indian or Alaska Native",
            "userSelected": true
          }
        }, {
          "url": "text",
          "valueString": "American Indian or Alaska Native"
        } ]
      }, {
        "url": "http://hl7.org/fhir/us/core/StructureDefinition/us-core-ethnicity",
        "extension": [ {
          "url": "ombCategory",
          "valueCoding": {
            "system": "urn:oid:2.16.840.1.113883.6.238",
            "code": "2135-2",
            "display": "Hispanic or Latino",
            "userSelected": true
          }
        }, {
          "url": "text",
          "valueString": "Hispanic or Latino"
        } ]
      } ],
      "identifier": [ {
        "type": {
          "coding": [ {
            "system": "http://terminology.hl7.org/CodeSystem/v2-0203",
            "code": "MR"
          } ]
        },
        "system": "https://bonnie-fhir.healthit.gov/",
        "value": "633b3f9e0968f80122503cd2"
      } ],
      "active": true,
      "name": [ {
        "use": "usual",
        "family": "DENOMPass",
        "given": [ "LastAssPrfDELRsltDtTimeAftIPEnd" ]
      } ],
      "gender": "female",
      "birthDate": "2005-02-01"
    },
    "request": {
      "method": "PUT",
      "url": "Patient/94236514-cb6c-4e1b-8235-69e8ccc4ad05"
    }
  }, {
    "fullUrl": "https://madie.cms.gov/Observation/b7f2b843-b6a5-444c-a7d5-00b16697b929",
    "resource": {
      "resourceType": "Observation",
      "id": "b7f2b843-b6a5-444c-a7d5-00b16697b929",
      "meta": {
        "profile": [ "http://hl7.org/fhir/us/qicore/StructureDefinition/qicore-simple-observation" ]
      },
      "status": "final",
      "category": [ {
        "coding": [ {
          "system": "http://terminology.hl7.org/CodeSystem/observation-category",
          "code": "exam",
          "display": "exam",
          "userSelected": true
        } ]
      } ],
      "code": {
        "coding": [ {
          "system": "http://loinc.org",
          "code": "93857-1"
        } ]
      },
      "subject": {
        "reference": "Patient/94236514-cb6c-4e1b-8235-69e8ccc4ad05"
      },
      "effectiveDateTime": "2026-02-01T08:00:00.000+00:00",
      "performer": [ {
        "reference": "Organization/example1",
        "display": "Hendricks Country Hospital"
      } ],
      "valueDateTime": "2026-02-05T08:15:00.000+00:00"
    },
    "request": {
      "method": "PUT",
      "url": "Observation/b7f2b843-b6a5-444c-a7d5-00b16697b929"
    }
  }, {
    "fullUrl": "https://madie.cms.gov/Observation/260f8106-7edb-49cb-a2a2-5d8c70223b6b",
    "resource": {
      "resourceType": "Observation",
      "id": "260f8106-7edb-49cb-a2a2-5d8c70223b6b",
      "meta": {
        "profile": [ "http://hl7.org/fhir/us/qicore/StructureDefinition/qicore-simple-observation" ]
      },
      "status": "final",
      "category": [ {
        "coding": [ {
          "system": "http://terminology.hl7.org/CodeSystem/observation-category",
          "code": "exam",
          "display": "exam",
          "userSelected": true
        } ]
      } ],
      "code": {
        "coding": [ {
          "system": "http://loinc.org",
          "code": "11778-8"
        } ]
      },
      "subject": {
        "reference": "Patient/94236514-cb6c-4e1b-8235-69e8ccc4ad05"
      },
      "effectiveDateTime": "2026-02-05T08:00:00.000+00:00",
      "performer": [ {
        "reference": "Organization/example1",
        "display": "Hendricks Country Hospital"
      } ],
      "valueDateTime": "2026-02-01T08:00:00.000+00:00"
    },
    "request": {
      "method": "PUT",
      "url": "Observation/260f8106-7edb-49cb-a2a2-5d8c70223b6b"
    }
  }, {
    "fullUrl": "https://madie.cms.gov/Observation/d81515ec-89c8-425c-8968-755e2111d539",
    "resource": {
      "resourceType": "Observation",
      "id": "d81515ec-89c8-425c-8968-755e2111d539",
      "meta": {
        "profile": [ "http://hl7.org/fhir/us/qicore/StructureDefinition/qicore-simple-observation" ]
      },
      "status": "final",
      "category": [ {
        "coding": [ {
          "system": "http://terminology.hl7.org/CodeSystem/observation-category",
          "code": "exam",
          "display": "exam",
          "userSelected": true
        } ]
      } ],
      "code": {
        "coding": [ {
          "system": "http://loinc.org",
          "code": "93857-1"
        } ]
      },
      "subject": {
        "reference": "Patient/94236514-cb6c-4e1b-8235-69e8ccc4ad05"
      },
      "effectiveDateTime": "2026-02-01T08:00:00.000+00:00",
      "performer": [ {
        "reference": "Organization/example1",
        "display": "Hendricks Country Hospital"
      } ],
      "valueDateTime": "2026-08-05T08:00:00.000+00:00"
    },
    "request": {
      "method": "PUT",
      "url": "Observation/d81515ec-89c8-425c-8968-755e2111d539"
    }
  }, {
    "fullUrl": "https://madie.cms.gov/Encounter/3041cd31-b127-407f-9a10-06992c4a5c6a",
    "resource": {
      "resourceType": "Encounter",
      "id": "3041cd31-b127-407f-9a10-06992c4a5c6a",
      "meta": {
        "profile": [ "http://hl7.org/fhir/us/qicore/StructureDefinition/qicore-encounter" ]
      },
      "status": "finished",
      "class": {
        "system": "http://terminology.hl7.org/CodeSystem/v3-ActCode",
        "code": "IMP",
        "display": "inpatient encounter"
      },
      "type": [ {
        "coding": [ {
          "system": "http://snomed.info/sct",
          "code": "183452005"
        } ]
      } ],
      "subject": {
        "reference": "Patient/94236514-cb6c-4e1b-8235-69e8ccc4ad05"
      },
      "period": {
        "start": "2026-02-01T08:00:00.000+00:00",
        "end": "2026-02-05T08:15:00.000+00:00"
      }
    },
    "request": {
      "method": "PUT",
      "url": "Encounter/3041cd31-b127-407f-9a10-06992c4a5c6a"
    }
  }, {
    "fullUrl": "https://madie.cms.gov/Procedure/52cb288c-a761-41a1-92b3-768b9f37ae83",
    "resource": {
      "resourceType": "Procedure",
      "id": "52cb288c-a761-41a1-92b3-768b9f37ae83",
      "meta": {
        "profile": [ "http://hl7.org/fhir/us/qicore/StructureDefinition/qicore-procedure" ]
      },
      "extension": [ {
        "url": "http://hl7.org/fhir/us/qicore/StructureDefinition/qicore-recorded",
        "valueDateTime": "2014-04-05T13:35:00.000+00:00"
      } ],
      "status": "completed",
      "code": {
        "coding": [ {
          "system": "http://snomed.info/sct",
          "code": "10745001"
        } ]
      },
      "subject": {
        "reference": "Patient/94236514-cb6c-4e1b-8235-69e8ccc4ad05"
      },
      "performedPeriod": {
        "start": "2026-02-01T08:00:00.000+00:00",
        "end": "2026-02-05T08:15:00.000+00:00"
      }
    },
    "request": {
      "method": "PUT",
      "url": "Procedure/52cb288c-a761-41a1-92b3-768b9f37ae83"
    }
  }, {
    "fullUrl": "https://madie.cms.gov/Coverage/bfb6e6ef-cf2d-4b01-83cd-6285a88ba322",
    "resource": {
      "resourceType": "Coverage",
      "id": "bfb6e6ef-cf2d-4b01-83cd-6285a88ba322",
      "meta": {
        "profile": [ "http://hl7.org/fhir/us/qicore/StructureDefinition/qicore-coverage" ]
      },
      "status": "active",
      "subscriberId": "523435",
      "beneficiary": {
        "reference": "Patient/94236514-cb6c-4e1b-8235-69e8ccc4ad05"
      },
      "relationship": {
        "coding": [ {
          "system": "http://terminology.hl7.org/CodeSystem/subscriber-relationship",
          "code": "self"
        } ]
      },
      "payor": [ {
        "reference": "Organization/a9d4856a-10cf-405e-bb14-07b93c359e88"
      } ]
    },
    "request": {
      "method": "PUT",
      "url": "Coverage/bfb6e6ef-cf2d-4b01-83cd-6285a88ba322"
    }
  }, {
    "fullUrl": "https://madie.cms.gov/Organization/a9d4856a-10cf-405e-bb14-07b93c359e88",
    "resource": {
      "resourceType": "Organization",
      "id": "a9d4856a-10cf-405e-bb14-07b93c359e88",
      "meta": {
        "profile": [ "http://hl7.org/fhir/us/qicore/StructureDefinition/qicore-organization" ]
      },
      "identifier": [ {
        "use": "temp",
        "system": "urn:oid:2.16.840.1.113883.4.4",
        "value": "21-3259825"
      } ],
      "active": true,
      "type": [ {
        "coding": [ {
          "system": "http://terminology.hl7.org/CodeSystem/organization-type",
          "code": "pay",
          "display": "Payer"
        } ]
      } ],
      "name": "Blue Cross Blue Shield of Texas",
      "telecom": [ {
        "system": "phone",
        "value": "(+1) 972-766-6900"
      } ],
      "address": [ {
        "use": "billing",
        "type": "postal",
        "line": [ "P.O. Box 660044" ],
        "city": "Dallas",
        "state": "TX",
        "postalCode": "75266-0044",
        "country": "USA"
      } ]
    },
    "request": {
      "method": "PUT",
      "url": "Organization/a9d4856a-10cf-405e-bb14-07b93c359e88"
    }
  }, {
    "fullUrl": "https://madie.cms.gov/Practitioner/46114245-9cc6-49e8-b296-bd1ce120378f",
    "resource": {
      "resourceType": "Practitioner",
      "id": "46114245-9cc6-49e8-b296-bd1ce120378f",
      "meta": {
        "profile": [ "http://hl7.org/fhir/us/qicore/StructureDefinition/qicore-practitioner" ]
      },
      "identifier": [ {
        "system": "http://hl7.org/fhir/sid/us-npi",
        "value": "1234567890"
      } ],
      "name": [ {
        "family": "Evil",
        "prefix": [ "Dr" ]
      } ]
    },
    "request": {
      "method": "PUT",
      "url": "Practitioner/46114245-9cc6-49e8-b296-bd1ce120378f"
    }
  }, {
    "fullUrl": "https://madie.cms.gov/MeasureReport/e0003b5d-5f7a-4092-93df-db10ed9fd78a",
    "resource": {
      "resourceType": "MeasureReport",
      "id": "e0003b5d-5f7a-4092-93df-db10ed9fd78a",
      "meta": {
        "profile": [ "http://hl7.org/fhir/us/cqfmeasures/StructureDefinition/test-case-cqfm" ]
      },
      "contained": [ {
        "resourceType": "Parameters",
        "id": "f34cdcac-2ade-4f7b-82e4-39fc2e47a591-parameters",
        "parameter": [ {
          "name": "subject",
          "valueString": "94236514-cb6c-4e1b-8235-69e8ccc4ad05"
        } ]
      } ],
      "extension": [ {
        "url": "http://hl7.org/fhir/StructureDefinition/cqf-inputParameters",
        "valueReference": {
          "reference": "#f34cdcac-2ade-4f7b-82e4-39fc2e47a591-parameters"
        }
      }, {
        "url": "http://hl7.org/fhir/us/cqfmeasures/StructureDefinition/cqfm-testCaseDescription",
        "valueMarkdown": "2 Time of Delivery assessments.  1st one is during the encounter.  The 2nd one is after the encounter.  1st:  Result date/Time of delivery (based on assessment performed) is equal to encounter end. 2nd:  Result date/time after encounter.\n"
      } ],
      "modifierExtension": [ {
        "url": "http://hl7.org/fhir/us/cqfmeasures/StructureDefinition/cqfm-isTestCase",
        "valueBoolean": true
      } ],
      "status": "complete",
      "type": "individual",
      "measure": "https://madie.cms.gov/Measure/CMS1028FHIRPCSevereOBComps",
      "period": {
        "start": "2026-01-01",
        "end": "2026-12-31"
      },
      "group": [ {
        "id": "Group_1",
        "population": [ {
          "id": "InitialPopulation_1",
          "code": {
            "coding": [ {
              "system": "http://terminology.hl7.org/CodeSystem/measure-population",
              "code": "initial-population",
              "display": "Initial Population"
            } ]
          },
          "count": 1
        }, {
          "id": "Denominator_1",
          "code": {
            "coding": [ {
              "system": "http://terminology.hl7.org/CodeSystem/measure-population",
              "code": "denominator",
              "display": "Denominator"
            } ]
          },
          "count": 1
        }, {
          "id": "Numerator_1",
          "code": {
            "coding": [ {
              "system": "http://terminology.hl7.org/CodeSystem/measure-population",
              "code": "numerator",
              "display": "Numerator"
            } ]
          },
          "count": 0
        }, {
          "id": "NumeratorExclusion_1",
          "code": {
            "coding": [ {
              "system": "http://terminology.hl7.org/CodeSystem/measure-population",
              "code": "numerator-exclusion",
              "display": "Numerator Exclusion"
            } ]
          },
          "count": 0
        } ],
        "measureScore": {
          "value": 0.0
        }
      }, {
        "id": "Group_2",
        "population": [ {
          "id": "InitialPopulation_2",
          "code": {
            "coding": [ {
              "system": "http://terminology.hl7.org/CodeSystem/measure-population",
              "code": "initial-population",
              "display": "Initial Population"
            } ]
          },
          "count": 1
        }, {
          "id": "Denominator_2",
          "code": {
            "coding": [ {
              "system": "http://terminology.hl7.org/CodeSystem/measure-population",
              "code": "denominator",
              "display": "Denominator"
            } ]
          },
          "count": 1
        }, {
          "id": "Numerator_2",
          "code": {
            "coding": [ {
              "system": "http://terminology.hl7.org/CodeSystem/measure-population",
              "code": "numerator",
              "display": "Numerator"
            } ]
          },
          "count": 0
        }, {
          "id": "NumeratorExclusion_2",
          "code": {
            "coding": [ {
              "system": "http://terminology.hl7.org/CodeSystem/measure-population",
              "code": "numerator-exclusion",
              "display": "Numerator Exclusion"
            } ]
          },
          "count": 0
        } ],
        "measureScore": {
          "value": 0.0
        }
      } ],
      "evaluatedResource": [ {
        "reference": "Patient/94236514-cb6c-4e1b-8235-69e8ccc4ad05"
      }, {
        "reference": "Observation/b7f2b843-b6a5-444c-a7d5-00b16697b929"
      }, {
        "reference": "Observation/260f8106-7edb-49cb-a2a2-5d8c70223b6b"
      }, {
        "reference": "Observation/d81515ec-89c8-425c-8968-755e2111d539"
      }, {
        "reference": "Encounter/3041cd31-b127-407f-9a10-06992c4a5c6a"
      }, {
        "reference": "Procedure/52cb288c-a761-41a1-92b3-768b9f37ae83"
      }, {
        "reference": "Coverage/bfb6e6ef-cf2d-4b01-83cd-6285a88ba322"
      }, {
        "reference": "Organization/a9d4856a-10cf-405e-bb14-07b93c359e88"
      }, {
        "reference": "Practitioner/46114245-9cc6-49e8-b296-bd1ce120378f"
      } ]
    },
    "request": {
      "method": "PUT",
      "url": "MeasureReport/e0003b5d-5f7a-4092-93df-db10ed9fd78a"
    }
  } ]
}