{
  "resourceType": "Bundle",
  "id": "Patient-3-IPFail-PatientAge76",
  "type": "transaction",
  "entry": [ {
    "fullUrl": "https://madie.cms.gov/Patient/1fa14a28-3be6-4299-ac4f-68772805748a",
    "resource": {
      "resourceType": "Patient",
      "id": "1fa14a28-3be6-4299-ac4f-68772805748a",
      "meta": {
        "profile": [ "http://hl7.org/fhir/us/qicore/StructureDefinition/qicore-patient" ]
      },
      "extension": [ {
        "url": "http://hl7.org/fhir/us/core/StructureDefinition/us-core-race",
        "extension": [ {
          "url": "ombCategory",
          "valueCoding": {
            "system": "urn:oid:2.16.840.1.113883.6.238",
            "code": "2028-9",
            "display": "Asian"
          }
        }, {
          "url": "text",
          "valueString": "Asian"
        } ]
      }, {
        "url": "http://hl7.org/fhir/us/core/StructureDefinition/us-core-ethnicity",
        "extension": [ {
          "url": "ombCategory",
          "valueCoding": {
            "system": "urn:oid:2.16.840.1.113883.6.238",
            "code": "2135-2",
            "display": "Hispanic or Latino"
          }
        }, {
          "url": "text",
          "valueString": "Hispanic or Latino"
        } ]
      } ],
      "identifier": [ {
        "system": "http://hospital.smarthealthit.org",
        "value": "999999995"
      } ],
      "name": [ {
        "family": "Bertha",
        "given": [ "Betty" ]
      } ],
      "gender": "female",
      "birthDate": "1950-01-01"
    },
    "request": {
      "method": "PUT",
      "url": "Patient/1fa14a28-3be6-4299-ac4f-68772805748a"
    }
  }, {
    "fullUrl": "https://madie.cms.gov/Encounter/693907b4-acf8-4680-86ac-597e30780263",
    "resource": {
      "resourceType": "Encounter",
      "id": "693907b4-acf8-4680-86ac-597e30780263",
      "meta": {
        "profile": [ "http://hl7.org/fhir/us/qicore/StructureDefinition/qicore-encounter" ]
      },
      "status": "finished",
      "class": {
        "system": "http://terminology.hl7.org/CodeSystem/v3-ActCode",
        "code": "AMB",
        "display": "ambulatory"
      },
      "type": [ {
        "coding": [ {
          "system": "http://snomed.info/sct",
          "code": "185460008",
          "display": "Home visit request by patient (procedure)"
        } ]
      } ],
      "subject": {
        "reference": "Patient/1fa14a28-3be6-4299-ac4f-68772805748a"
      },
      "period": {
        "start": "2026-01-01T00:00:00.000+00:00",
        "end": "2026-01-01T00:15:00.000+00:00"
      }
    },
    "request": {
      "method": "PUT",
      "url": "Encounter/693907b4-acf8-4680-86ac-597e30780263"
    }
  }, {
    "fullUrl": "https://madie.cms.gov/Condition/944cdbfe-6b2b-4e13-b736-73f91af70e4e",
    "resource": {
      "resourceType": "Condition",
      "id": "944cdbfe-6b2b-4e13-b736-73f91af70e4e",
      "meta": {
        "profile": [ "http://hl7.org/fhir/us/qicore/StructureDefinition/qicore-condition-encounter-diagnosis" ]
      },
      "clinicalStatus": {
        "coding": [ {
          "system": "http://terminology.hl7.org/CodeSystem/condition-clinical",
          "code": "active"
        } ]
      },
      "category": [ {
        "coding": [ {
          "system": "http://terminology.hl7.org/CodeSystem/condition-category",
          "code": "encounter-diagnosis",
          "display": "Encounter Diagnosis"
        } ]
      } ],
      "code": {
        "coding": [ {
          "system": "http://snomed.info/sct",
          "code": "102781000119107",
          "display": "Sensory neuropathy due to type 1 diabetes mellitus (disorder)"
        } ]
      },
      "subject": {
        "reference": "Patient/1fa14a28-3be6-4299-ac4f-68772805748a"
      },
      "onsetDateTime": "2026-01-01T23:59:00.000+00:00"
    },
    "request": {
      "method": "PUT",
      "url": "Condition/944cdbfe-6b2b-4e13-b736-73f91af70e4e"
    }
  }, {
    "fullUrl": "https://madie.cms.gov/MeasureReport/36527efa-ac27-4bc0-806e-827eb5037342",
    "resource": {
      "resourceType": "MeasureReport",
      "id": "36527efa-ac27-4bc0-806e-827eb5037342",
      "meta": {
        "profile": [ "http://hl7.org/fhir/us/cqfmeasures/StructureDefinition/test-case-cqfm" ]
      },
      "contained": [ {
        "resourceType": "Parameters",
        "id": "9318f5c4-bfc6-4ddd-8e61-81256e48306e-parameters",
        "parameter": [ {
          "name": "subject",
          "valueString": "1fa14a28-3be6-4299-ac4f-68772805748a"
        } ]
      } ],
      "extension": [ {
        "url": "http://hl7.org/fhir/StructureDefinition/cqf-inputParameters",
        "valueReference": {
          "reference": "#9318f5c4-bfc6-4ddd-8e61-81256e48306e-parameters"
        }
      }, {
        "url": "http://hl7.org/fhir/us/cqfmeasures/StructureDefinition/cqfm-testCaseDescription",
        "valueMarkdown": "Incorrect age (age 76)"
      } ],
      "modifierExtension": [ {
        "url": "http://hl7.org/fhir/us/cqfmeasures/StructureDefinition/cqfm-isTestCase",
        "valueBoolean": true
      } ],
      "status": "complete",
      "type": "individual",
      "measure": "https://madie.cms.gov/Measure/CMS122FHIRDiabetesAssessGT9Pct",
      "period": {
        "start": "2026-01-01",
        "end": "2026-12-31"
      },
      "group": [ {
        "id": "Group_1",
        "population": [ {
          "id": "InitialPopulation_1",
          "code": {
            "coding": [ {
              "system": "http://terminology.hl7.org/CodeSystem/measure-population",
              "code": "initial-population",
              "display": "Initial Population"
            } ]
          },
          "count": 0
        }, {
          "id": "Denominator_1",
          "code": {
            "coding": [ {
              "system": "http://terminology.hl7.org/CodeSystem/measure-population",
              "code": "denominator",
              "display": "Denominator"
            } ]
          },
          "count": 0
        }, {
          "id": "DenominatorExclusion_1",
          "code": {
            "coding": [ {
              "system": "http://terminology.hl7.org/CodeSystem/measure-population",
              "code": "denominator-exclusion",
              "display": "Denominator Exclusion"
            } ]
          },
          "count": 0
        }, {
          "id": "Numerator_1",
          "code": {
            "coding": [ {
              "system": "http://terminology.hl7.org/CodeSystem/measure-population",
              "code": "numerator",
              "display": "Numerator"
            } ]
          },
          "count": 0
        } ],
        "measureScore": {
          "value": 1.0
        }
      } ],
      "evaluatedResource": [ {
        "reference": "Patient/1fa14a28-3be6-4299-ac4f-68772805748a"
      }, {
        "reference": "Encounter/693907b4-acf8-4680-86ac-597e30780263"
      }, {
        "reference": "Condition/944cdbfe-6b2b-4e13-b736-73f91af70e4e"
      } ]
    },
    "request": {
      "method": "PUT",
      "url": "MeasureReport/36527efa-ac27-4bc0-806e-827eb5037342"
    }
  } ]
}