{
  "resourceType": "Bundle",
  "id": "DENEXPass-FrailtyDeviceRequestNotPerformedFalse",
  "type": "transaction",
  "entry": [ {
    "fullUrl": "https://madie.cms.gov/Patient/d4091ecf-638c-41ae-bae9-2b0c3bea864e",
    "resource": {
      "resourceType": "Patient",
      "id": "d4091ecf-638c-41ae-bae9-2b0c3bea864e",
      "meta": {
        "profile": [ "http://hl7.org/fhir/us/qicore/StructureDefinition/qicore-patient" ]
      },
      "extension": [ {
        "url": "http://hl7.org/fhir/us/core/StructureDefinition/us-core-race",
        "extension": [ {
          "url": "ombCategory",
          "valueCoding": {
            "system": "urn:oid:2.16.840.1.113883.6.238",
            "code": "2028-9",
            "display": "Asian",
            "userSelected": true
          }
        }, {
          "url": "text",
          "valueString": "Asian"
        } ]
      }, {
        "url": "http://hl7.org/fhir/us/core/StructureDefinition/us-core-ethnicity",
        "extension": [ {
          "url": "ombCategory",
          "valueCoding": {
            "system": "urn:oid:2.16.840.1.113883.6.238",
            "code": "2135-2",
            "display": "Hispanic or Latino",
            "userSelected": true
          }
        }, {
          "url": "text",
          "valueString": "Hispanic or Latino"
        } ]
      } ],
      "identifier": [ {
        "type": {
          "coding": [ {
            "system": "http://terminology.hl7.org/CodeSystem/v2-0203",
            "code": "MR"
          } ]
        },
        "system": "http://hospital.smarthealthit.org",
        "value": "999999995"
      } ],
      "name": [ {
        "family": "Bertha",
        "given": [ "Betty" ]
      } ],
      "gender": "female",
      "birthDate": "1954-12-31"
    },
    "request": {
      "method": "PUT",
      "url": "Patient/d4091ecf-638c-41ae-bae9-2b0c3bea864e"
    }
  }, {
    "fullUrl": "https://madie.cms.gov/Encounter/84734149-8940-4988-a257-280fab0f54b1",
    "resource": {
      "resourceType": "Encounter",
      "id": "84734149-8940-4988-a257-280fab0f54b1",
      "meta": {
        "profile": [ "http://hl7.org/fhir/us/qicore/StructureDefinition/qicore-encounter" ]
      },
      "status": "finished",
      "class": {
        "system": "http://terminology.hl7.org/CodeSystem/v3-ActCode",
        "code": "AMB",
        "display": "ambulatory"
      },
      "type": [ {
        "coding": [ {
          "system": "http://snomed.info/sct",
          "code": "456201000124103",
          "display": "Medicare annual wellness visit (procedure)"
        } ]
      } ],
      "subject": {
        "reference": "Patient/d4091ecf-638c-41ae-bae9-2b0c3bea864e"
      },
      "period": {
        "start": "2026-01-01T00:00:00.000+00:00",
        "end": "2026-01-01T00:00:00.000+00:00"
      }
    },
    "request": {
      "method": "PUT",
      "url": "Encounter/84734149-8940-4988-a257-280fab0f54b1"
    }
  }, {
    "fullUrl": "https://madie.cms.gov/Condition/1e69333e-196e-424d-a67c-75c3aacd872a",
    "resource": {
      "resourceType": "Condition",
      "id": "1e69333e-196e-424d-a67c-75c3aacd872a",
      "meta": {
        "profile": [ "http://hl7.org/fhir/us/qicore/StructureDefinition/qicore-condition-encounter-diagnosis" ]
      },
      "clinicalStatus": {
        "coding": [ {
          "system": "http://terminology.hl7.org/CodeSystem/condition-clinical",
          "code": "active"
        } ]
      },
      "category": [ {
        "coding": [ {
          "system": "http://terminology.hl7.org/CodeSystem/condition-category",
          "code": "encounter-diagnosis",
          "display": "Encounter Diagnosis"
        } ]
      } ],
      "code": {
        "coding": [ {
          "system": "http://snomed.info/sct",
          "code": "102781000119107",
          "display": "Sensory neuropathy due to type 1 diabetes mellitus (disorder)"
        } ]
      },
      "subject": {
        "reference": "Patient/d4091ecf-638c-41ae-bae9-2b0c3bea864e"
      },
      "onsetDateTime": "2026-01-01T00:00:00.000+00:00"
    },
    "request": {
      "method": "PUT",
      "url": "Condition/1e69333e-196e-424d-a67c-75c3aacd872a"
    }
  }, {
    "fullUrl": "https://madie.cms.gov/MedicationRequest/3af22ae5-0fbb-452f-b003-5f8073ffef32",
    "resource": {
      "resourceType": "MedicationRequest",
      "id": "3af22ae5-0fbb-452f-b003-5f8073ffef32",
      "meta": {
        "profile": [ "http://hl7.org/fhir/us/qicore/StructureDefinition/qicore-medicationrequest" ]
      },
      "status": "active",
      "intent": "order",
      "doNotPerform": false,
      "medicationCodeableConcept": {
        "coding": [ {
          "system": "http://www.nlm.nih.gov/research/umls/rxnorm",
          "code": "312836",
          "display": "rivastigmine 6 MG Oral Capsule"
        } ]
      },
      "subject": {
        "reference": "Patient/d4091ecf-638c-41ae-bae9-2b0c3bea864e"
      },
      "authoredOn": "2026-12-30T00:00:00.000+00:00",
      "requester": {
        "reference": "Practitioner/example"
      },
      "dispenseRequest": {
        "expectedSupplyDuration": {
          "value": 90,
          "system": "http://unitsofmeasure.org",
          "code": "days"
        }
      }
    },
    "request": {
      "method": "PUT",
      "url": "MedicationRequest/3af22ae5-0fbb-452f-b003-5f8073ffef32"
    }
  }, {
    "fullUrl": "https://madie.cms.gov/DeviceRequest/aa6e10c3-a745-4e60-b485-6e8a3bc20d75",
    "resource": {
      "resourceType": "DeviceRequest",
      "id": "aa6e10c3-a745-4e60-b485-6e8a3bc20d75",
      "meta": {
        "profile": [ "http://hl7.org/fhir/us/qicore/StructureDefinition/qicore-devicerequest" ]
      },
      "modifierExtension": [ {
        "url": "http://hl7.org/fhir/5.0/StructureDefinition/extension-DeviceRequest.doNotPerform",
        "valueBoolean": false
      } ],
      "status": "completed",
      "intent": "order",
      "codeCodeableConcept": {
        "coding": [ {
          "system": "http://snomed.info/sct",
          "code": "183240000",
          "display": "Self-propelled wheelchair (physical object)"
        } ]
      },
      "subject": {
        "reference": "Patient/d4091ecf-638c-41ae-bae9-2b0c3bea864e"
      },
      "authoredOn": "2026-11-01T23:59:00.000+00:00"
    },
    "request": {
      "method": "PUT",
      "url": "DeviceRequest/aa6e10c3-a745-4e60-b485-6e8a3bc20d75"
    }
  }, {
    "fullUrl": "https://madie.cms.gov/MeasureReport/10397419-4a20-4c3b-a57b-317cc9b6a2a1",
    "resource": {
      "resourceType": "MeasureReport",
      "id": "10397419-4a20-4c3b-a57b-317cc9b6a2a1",
      "meta": {
        "profile": [ "http://hl7.org/fhir/us/cqfmeasures/StructureDefinition/test-case-cqfm" ]
      },
      "contained": [ {
        "resourceType": "Parameters",
        "id": "74e47d8e-457e-4745-9494-98cbd22d5a47-parameters",
        "parameter": [ {
          "name": "subject",
          "valueString": "d4091ecf-638c-41ae-bae9-2b0c3bea864e"
        } ]
      } ],
      "extension": [ {
        "url": "http://hl7.org/fhir/StructureDefinition/cqf-inputParameters",
        "valueReference": {
          "reference": "#74e47d8e-457e-4745-9494-98cbd22d5a47-parameters"
        }
      }, {
        "url": "http://hl7.org/fhir/us/cqfmeasures/StructureDefinition/cqfm-testCaseDescription",
        "valueMarkdown": "Frailty device request not performed is false"
      } ],
      "modifierExtension": [ {
        "url": "http://hl7.org/fhir/us/cqfmeasures/StructureDefinition/cqfm-isTestCase",
        "valueBoolean": true
      } ],
      "status": "complete",
      "type": "individual",
      "measure": "https://madie.cms.gov/Measure/CMS131FHIRDiabetesEyeExam",
      "period": {
        "start": "2026-01-01",
        "end": "2026-12-31"
      },
      "group": [ {
        "id": "Group_1",
        "population": [ {
          "id": "InitialPopulation_1",
          "code": {
            "coding": [ {
              "system": "http://terminology.hl7.org/CodeSystem/measure-population",
              "code": "initial-population",
              "display": "Initial Population"
            } ]
          },
          "count": 1
        }, {
          "id": "Denominator_1",
          "code": {
            "coding": [ {
              "system": "http://terminology.hl7.org/CodeSystem/measure-population",
              "code": "denominator",
              "display": "Denominator"
            } ]
          },
          "count": 1
        }, {
          "id": "DenominatorExclusion_1",
          "code": {
            "coding": [ {
              "system": "http://terminology.hl7.org/CodeSystem/measure-population",
              "code": "denominator-exclusion",
              "display": "Denominator Exclusion"
            } ]
          },
          "count": 1
        }, {
          "id": "Numerator_1",
          "code": {
            "coding": [ {
              "system": "http://terminology.hl7.org/CodeSystem/measure-population",
              "code": "numerator",
              "display": "Numerator"
            } ]
          },
          "count": 0
        } ],
        "measureScore": {
          "value": 1.0
        }
      } ],
      "evaluatedResource": [ {
        "reference": "Patient/d4091ecf-638c-41ae-bae9-2b0c3bea864e"
      }, {
        "reference": "Encounter/84734149-8940-4988-a257-280fab0f54b1"
      }, {
        "reference": "Condition/1e69333e-196e-424d-a67c-75c3aacd872a"
      }, {
        "reference": "MedicationRequest/3af22ae5-0fbb-452f-b003-5f8073ffef32"
      }, {
        "reference": "DeviceRequest/aa6e10c3-a745-4e60-b485-6e8a3bc20d75"
      } ]
    },
    "request": {
      "method": "PUT",
      "url": "MeasureReport/10397419-4a20-4c3b-a57b-317cc9b6a2a1"
    }
  } ]
}