{
  "resourceType": "Bundle",
  "id": "62b1e15a3968556e5150cf3b",
  "type": "collection",
  "entry": [ {
    "fullUrl": "https://madie.cms.gov/Patient/7009a1c3-93a8-4028-b42a-0bd9953f6ebb",
    "resource": {
      "resourceType": "Patient",
      "id": "7009a1c3-93a8-4028-b42a-0bd9953f6ebb",
      "meta": {
        "profile": [ "http://hl7.org/fhir/us/qicore/StructureDefinition/qicore-patient" ]
      },
      "extension": [ {
        "url": "http://hl7.org/fhir/us/core/StructureDefinition/us-core-race",
        "extension": [ {
          "url": "ombCategory",
          "valueCoding": {
            "system": "urn:oid:2.16.840.1.113883.6.238",
            "code": "1002-5",
            "display": "American Indian or Alaska Native",
            "userSelected": true
          }
        }, {
          "url": "text",
          "valueString": "American Indian or Alaska Native"
        } ]
      }, {
        "url": "http://hl7.org/fhir/us/core/StructureDefinition/us-core-ethnicity",
        "extension": [ {
          "url": "ombCategory",
          "valueCoding": {
            "system": "urn:oid:2.16.840.1.113883.6.238",
            "code": "2135-2",
            "display": "Hispanic or Latino",
            "userSelected": true
          }
        }, {
          "url": "text",
          "valueString": "Hispanic or Latino"
        } ]
      }, {
        "url": "http://hl7.org/fhir/us/core/StructureDefinition/us-core-sex",
        "valueCode": "248153007"
      } ],
      "identifier": [ {
        "type": {
          "coding": [ {
            "system": "http://terminology.hl7.org/CodeSystem/v2-0203",
            "code": "MR"
          } ]
        },
        "system": "https://bonnie-fhir.healthit.gov/",
        "value": "62b1e15a3968556e5150cf3b"
      } ],
      "name": [ {
        "family": "DENOMEXPass",
        "given": [ "AdultHistoryOfBipolarRecurrence" ]
      } ],
      "gender": "male",
      "birthDate": "2008-01-01"
    }
  }, {
    "fullUrl": "https://madie.cms.gov/Encounter/28950344-ab5a-4d03-ac8a-819a648d9749",
    "resource": {
      "resourceType": "Encounter",
      "id": "28950344-ab5a-4d03-ac8a-819a648d9749",
      "meta": {
        "profile": [ "http://hl7.org/fhir/us/qicore/StructureDefinition/qicore-encounter" ]
      },
      "status": "finished",
      "class": {
        "system": "http://terminology.hl7.org/CodeSystem/v3-ActCode",
        "code": "AMB",
        "display": "ambulatory"
      },
      "type": [ {
        "coding": [ {
          "system": "http://snomed.info/sct",
          "code": "10197000",
          "display": "Psychiatric interview and evaluation (procedure)",
          "userSelected": true
        } ]
      } ],
      "subject": {
        "reference": "Patient/7009a1c3-93a8-4028-b42a-0bd9953f6ebb"
      },
      "period": {
        "start": "2026-06-21T08:00:00.000Z",
        "end": "2026-06-21T08:15:00.000Z"
      }
    }
  }, {
    "fullUrl": "https://madie.cms.gov/Condition/6055dd95-fbf2-4672-8450-b49ffa16e77b",
    "resource": {
      "resourceType": "Condition",
      "id": "6055dd95-fbf2-4672-8450-b49ffa16e77b",
      "meta": {
        "profile": [ "http://hl7.org/fhir/us/qicore/StructureDefinition/qicore-condition-problems-health-concerns" ]
      },
      "clinicalStatus": {
        "coding": [ {
          "system": "http://terminology.hl7.org/CodeSystem/condition-clinical",
          "code": "recurrence",
          "display": "recurrence",
          "userSelected": true
        } ]
      },
      "category": [ {
        "coding": [ {
          "system": "http://terminology.hl7.org/CodeSystem/condition-category",
          "code": "problem-list-item",
          "display": "Problem List Item"
        } ]
      } ],
      "code": {
        "coding": [ {
          "system": "http://snomed.info/sct",
          "code": "10875004",
          "display": "Severe mixed bipolar I disorder with psychotic features, mood-incongruent (disorder)",
          "userSelected": true
        } ]
      },
      "subject": {
        "reference": "Patient/7009a1c3-93a8-4028-b42a-0bd9953f6ebb"
      },
      "onsetDateTime": "2026-06-15T08:00:00.000Z"
    }
  }, {
    "fullUrl": "https://madie.cms.gov/Coverage/19f6bac7-baae-4b7f-98b2-e44e22bf8dae",
    "resource": {
      "resourceType": "Coverage",
      "id": "19f6bac7-baae-4b7f-98b2-e44e22bf8dae",
      "meta": {
        "profile": [ "http://hl7.org/fhir/us/qicore/StructureDefinition/qicore-coverage" ]
      },
      "status": "active",
      "type": {
        "coding": [ {
          "system": "https://nahdo.org/sopt",
          "code": "141",
          "display": "Dual Eligible Special Needs Plan (D-SNP)",
          "userSelected": true
        } ]
      },
      "subscriberId": "123456789",
      "beneficiary": {
        "reference": "Patient/7009a1c3-93a8-4028-b42a-0bd9953f6ebb"
      },
      "relationship": {
        "coding": [ {
          "system": "http://terminology.hl7.org/CodeSystem/subscriber-relationship",
          "code": "self",
          "display": "Self",
          "userSelected": true
        } ]
      },
      "period": {
        "start": "2021-06-21T08:00:00.000Z",
        "end": "2026-06-21T08:15:00.000Z"
      },
      "payor": [ {
        "reference": "Organization/2196b213-c037-4696-bee1-580ae0888350"
      } ]
    }
  }, {
    "fullUrl": "https://madie.cms.gov/Organization/2196b213-c037-4696-bee1-580ae0888350",
    "resource": {
      "resourceType": "Organization",
      "id": "2196b213-c037-4696-bee1-580ae0888350",
      "meta": {
        "profile": [ "http://hl7.org/fhir/us/qicore/StructureDefinition/qicore-organization" ]
      },
      "identifier": [ {
        "use": "temp",
        "system": "urn:oid:2.16.840.1.113883.4.4",
        "value": "21-3259825"
      } ],
      "active": true,
      "type": [ {
        "coding": [ {
          "system": "http://terminology.hl7.org/CodeSystem/organization-type",
          "code": "pay",
          "display": "Payer"
        } ]
      } ],
      "name": "Blue Cross Blue Shield of Texas",
      "telecom": [ {
        "system": "phone",
        "value": "(+1) 972-766-6900"
      } ],
      "address": [ {
        "use": "billing",
        "type": "postal",
        "line": [ "P.O. Box 660044" ],
        "city": "Dallas",
        "state": "TX",
        "postalCode": "75266-0044",
        "country": "USA"
      } ]
    }
  }, {
    "fullUrl": "https://madie.cms.gov/Practitioner/2c219a76-d153-4c24-9293-729c5fb8390f",
    "resource": {
      "resourceType": "Practitioner",
      "id": "2c219a76-d153-4c24-9293-729c5fb8390f",
      "meta": {
        "profile": [ "http://hl7.org/fhir/us/qicore/StructureDefinition/qicore-practitioner" ]
      },
      "identifier": [ {
        "system": "http://hl7.org/fhir/sid/us-npi",
        "value": "1234567893"
      } ],
      "name": [ {
        "family": "Evil",
        "prefix": [ "Dr" ]
      } ]
    }
  }, {
    "fullUrl": "https://madie.cms.gov/MeasureReport/9bde3909-8819-4b4c-a8f8-ea2826c22990",
    "resource": {
      "resourceType": "MeasureReport",
      "id": "9bde3909-8819-4b4c-a8f8-ea2826c22990",
      "meta": {
        "profile": [ "http://hl7.org/fhir/us/cqfmeasures/StructureDefinition/test-case-cqfm" ]
      },
      "contained": [ {
        "resourceType": "Parameters",
        "id": "71ce9854-8821-411b-8dd9-54914f69724c-parameters",
        "parameter": [ {
          "name": "subject",
          "valueString": "7009a1c3-93a8-4028-b42a-0bd9953f6ebb"
        } ]
      } ],
      "extension": [ {
        "url": "http://hl7.org/fhir/StructureDefinition/cqf-inputParameters",
        "valueReference": {
          "reference": "#71ce9854-8821-411b-8dd9-54914f69724c-parameters"
        }
      }, {
        "url": "http://hl7.org/fhir/us/cqfmeasures/StructureDefinition/cqfm-testCaseDescription",
        "valueMarkdown": "18 yo patient with history of bipolar - recurrence"
      } ],
      "modifierExtension": [ {
        "url": "http://hl7.org/fhir/us/cqfmeasures/StructureDefinition/cqfm-isTestCase",
        "valueBoolean": true
      } ],
      "status": "complete",
      "type": "individual",
      "measure": "https://madie.cms.gov/Measure/CMS2FHIRPCSDepScreenAndFollowUp",
      "period": {
        "start": "2026-01-01",
        "end": "2026-12-31"
      },
      "group": [ {
        "id": "Group_1",
        "population": [ {
          "id": "InitialPopulation_1",
          "code": {
            "coding": [ {
              "system": "http://terminology.hl7.org/CodeSystem/measure-population",
              "code": "initial-population",
              "display": "Initial Population"
            } ]
          },
          "count": 1
        }, {
          "id": "Denominator_1",
          "code": {
            "coding": [ {
              "system": "http://terminology.hl7.org/CodeSystem/measure-population",
              "code": "denominator",
              "display": "Denominator"
            } ]
          },
          "count": 1
        }, {
          "id": "DenominatorExclusion_1",
          "code": {
            "coding": [ {
              "system": "http://terminology.hl7.org/CodeSystem/measure-population",
              "code": "denominator-exclusion",
              "display": "Denominator Exclusion"
            } ]
          },
          "count": 1
        }, {
          "id": "Numerator_1",
          "code": {
            "coding": [ {
              "system": "http://terminology.hl7.org/CodeSystem/measure-population",
              "code": "numerator",
              "display": "Numerator"
            } ]
          },
          "count": 0
        }, {
          "id": "DenominatorException_1",
          "code": {
            "coding": [ {
              "system": "http://terminology.hl7.org/CodeSystem/measure-population",
              "code": "denominator-exception",
              "display": "Denominator Exception"
            } ]
          },
          "count": 0
        } ],
        "measureScore": {
          "value": 1.0
        }
      } ],
      "evaluatedResource": [ {
        "reference": "Patient/7009a1c3-93a8-4028-b42a-0bd9953f6ebb"
      }, {
        "reference": "Encounter/28950344-ab5a-4d03-ac8a-819a648d9749"
      }, {
        "reference": "Condition/6055dd95-fbf2-4672-8450-b49ffa16e77b"
      }, {
        "reference": "Coverage/19f6bac7-baae-4b7f-98b2-e44e22bf8dae"
      }, {
        "reference": "Organization/2196b213-c037-4696-bee1-580ae0888350"
      }, {
        "reference": "Practitioner/2c219a76-d153-4c24-9293-729c5fb8390f"
      } ]
    }
  } ]
}