{
  "resourceType": "Bundle",
  "id": "tests-a959f507-685c-4d5e-b8e4-dc02063dba36-bundle",
  "type": "transaction",
  "entry": [ {
    "fullUrl": "https://madie.cms.gov/MedicationAdministration/744c8726-c3ef-4ed3-8700-8de9ea06ec67",
    "resource": {
      "resourceType": "MedicationAdministration",
      "id": "744c8726-c3ef-4ed3-8700-8de9ea06ec67",
      "meta": {
        "profile": [ "http://hl7.org/fhir/us/qicore/StructureDefinition/qicore-medicationadministration" ]
      },
      "status": "completed",
      "medicationCodeableConcept": {
        "coding": [ {
          "system": "http://www.nlm.nih.gov/research/umls/rxnorm",
          "code": "1010600"
        } ]
      },
      "subject": {
        "reference": "Patient/a959f507-685c-4d5e-b8e4-dc02063dba36"
      },
      "effectivePeriod": {
        "start": "2026-09-29T08:00:00.000+00:00",
        "end": "2026-09-29T08:15:00.000+00:00"
      }
    },
    "request": {
      "method": "PUT",
      "url": "MedicationAdministration/744c8726-c3ef-4ed3-8700-8de9ea06ec67"
    }
  }, {
    "fullUrl": "https://madie.cms.gov/Patient/a959f507-685c-4d5e-b8e4-dc02063dba36",
    "resource": {
      "resourceType": "Patient",
      "id": "a959f507-685c-4d5e-b8e4-dc02063dba36",
      "meta": {
        "profile": [ "http://hl7.org/fhir/us/qicore/StructureDefinition/qicore-patient" ]
      },
      "text": {
        "status": "generated",
        "div": "<div xmlns=\"http://www.w3.org/1999/xhtml\"><div class=\"hapiHeaderText\">Turns 18 day of Encounter <b>DENOMPASS </b></div><table class=\"hapiPropertyTable\"><tbody><tr><td>Identifier</td><td>f0eda1c9668fdacdcad3378589bf6e0a71e7dec1618f14fca4d442ec96e402b1</td></tr><tr><td>Date of birth</td><td><span>29 September 2006</span></td></tr></tbody></table></div>"
      },
      "extension": [ {
        "url": "http://hl7.org/fhir/us/core/StructureDefinition/us-core-race",
        "extension": [ {
          "url": "ombCategory",
          "valueCoding": {
            "system": "urn:oid:2.16.840.1.113883.6.238",
            "code": "1002-5",
            "display": "American Indian or Alaska Native",
            "userSelected": true
          }
        }, {
          "url": "text",
          "valueString": "American Indian or Alaska Native"
        } ]
      }, {
        "url": "http://hl7.org/fhir/us/core/StructureDefinition/us-core-ethnicity",
        "extension": [ {
          "url": "ombCategory",
          "valueCoding": {
            "system": "urn:oid:2.16.840.1.113883.6.238",
            "code": "2135-2",
            "display": "Hispanic or Latino",
            "userSelected": true
          }
        }, {
          "url": "text",
          "valueString": "Hispanic or Latino"
        } ]
      } ],
      "identifier": [ {
        "type": {
          "coding": [ {
            "system": "http://terminology.hl7.org/CodeSystem/v2-0203",
            "code": "MR"
          } ]
        },
        "system": "http://bonnie-fhir.healthit.gov/",
        "value": "IPPFail-Age17InEDAge18DayOfIPAdmitCreatinineLT48hrs"
      } ],
      "active": true,
      "name": [ {
        "use": "usual",
        "family": "IPPFail",
        "given": [ "Age17InEDAge18DayOfIPAdmitCreatinineLT48hrs" ]
      } ],
      "gender": "female",
      "birthDate": "2007-09-29"
    },
    "request": {
      "method": "PUT",
      "url": "Patient/a959f507-685c-4d5e-b8e4-dc02063dba36"
    }
  }, {
    "fullUrl": "https://madie.cms.gov/Observation/a8588d40-2155-447a-a73c-0a9657715910",
    "resource": {
      "resourceType": "Observation",
      "id": "a8588d40-2155-447a-a73c-0a9657715910",
      "meta": {
        "profile": [ "http://hl7.org/fhir/us/qicore/StructureDefinition/qicore-observation-lab" ]
      },
      "status": "final",
      "category": [ {
        "coding": [ {
          "system": "http://terminology.hl7.org/CodeSystem/observation-category",
          "code": "laboratory",
          "display": "Laboratory"
        } ]
      } ],
      "code": {
        "coding": [ {
          "system": "http://loinc.org",
          "version": "2.72",
          "code": "2160-0",
          "display": "Creatinine [Mass/volume] in Serum or Plasma",
          "userSelected": true
        } ]
      },
      "subject": {
        "reference": "Patient/a959f507-685c-4d5e-b8e4-dc02063dba36"
      },
      "effectiveDateTime": "2026-10-01T05:50:00.000+00:00",
      "issued": "2026-10-01T08:20:00.000+00:00",
      "valueQuantity": {
        "value": 0.6,
        "unit": "mg/dL",
        "system": "http://unitsofmeasure.org",
        "code": "mg/dL"
      }
    },
    "request": {
      "method": "PUT",
      "url": "Observation/a8588d40-2155-447a-a73c-0a9657715910"
    }
  }, {
    "fullUrl": "https://madie.cms.gov/Observation/235ed938-4701-4390-86a2-19fc2b559e9f",
    "resource": {
      "resourceType": "Observation",
      "id": "235ed938-4701-4390-86a2-19fc2b559e9f",
      "meta": {
        "profile": [ "http://hl7.org/fhir/us/qicore/StructureDefinition/qicore-observation-lab" ]
      },
      "status": "final",
      "category": [ {
        "coding": [ {
          "system": "http://terminology.hl7.org/CodeSystem/observation-category",
          "code": "laboratory",
          "display": "Laboratory"
        } ]
      } ],
      "code": {
        "coding": [ {
          "system": "http://loinc.org",
          "version": "2.72",
          "code": "2160-0",
          "display": "Creatinine [Mass/volume] in Serum or Plasma",
          "userSelected": true
        } ]
      },
      "subject": {
        "reference": "Patient/a959f507-685c-4d5e-b8e4-dc02063dba36"
      },
      "effectiveDateTime": "2026-09-29T07:35:00.000+00:00",
      "issued": "2026-09-29T08:05:00.000+00:00",
      "valueQuantity": {
        "value": 1.6,
        "unit": "mg/dL",
        "system": "http://unitsofmeasure.org",
        "code": "mg/dL"
      }
    },
    "request": {
      "method": "PUT",
      "url": "Observation/235ed938-4701-4390-86a2-19fc2b559e9f"
    }
  }, {
    "fullUrl": "https://madie.cms.gov/Observation/650347ed-4b2f-480a-ba9c-53c4f1a2a3d4",
    "resource": {
      "resourceType": "Observation",
      "id": "650347ed-4b2f-480a-ba9c-53c4f1a2a3d4",
      "meta": {
        "profile": [ "http://hl7.org/fhir/us/qicore/StructureDefinition/qicore-observation-lab" ]
      },
      "status": "final",
      "category": [ {
        "coding": [ {
          "system": "http://terminology.hl7.org/CodeSystem/observation-category",
          "code": "laboratory",
          "display": "Laboratory"
        } ]
      } ],
      "code": {
        "coding": [ {
          "system": "http://loinc.org",
          "version": "2.72",
          "code": "2160-0",
          "display": "Creatinine [Mass/volume] in Serum or Plasma",
          "userSelected": true
        } ]
      },
      "subject": {
        "reference": "Patient/a959f507-685c-4d5e-b8e4-dc02063dba36"
      },
      "effectiveDateTime": "2026-09-29T08:01:00.000+00:00",
      "issued": "2026-09-29T08:31:00.000+00:00",
      "valueQuantity": {
        "value": 1.1,
        "unit": "mg/dL",
        "system": "http://unitsofmeasure.org",
        "code": "mg/dL"
      }
    },
    "request": {
      "method": "PUT",
      "url": "Observation/650347ed-4b2f-480a-ba9c-53c4f1a2a3d4"
    }
  }, {
    "fullUrl": "https://madie.cms.gov/Observation/a19d5a14-5150-406c-aa47-0aa58b53bd4b",
    "resource": {
      "resourceType": "Observation",
      "id": "a19d5a14-5150-406c-aa47-0aa58b53bd4b",
      "meta": {
        "profile": [ "http://hl7.org/fhir/us/qicore/StructureDefinition/qicore-observation-lab" ]
      },
      "status": "final",
      "category": [ {
        "coding": [ {
          "system": "http://terminology.hl7.org/CodeSystem/observation-category",
          "code": "laboratory",
          "display": "Laboratory"
        } ]
      } ],
      "code": {
        "coding": [ {
          "system": "http://loinc.org",
          "code": "2160-0",
          "display": "Creatinine [Mass/volume] in Serum or Plasma"
        } ]
      },
      "subject": {
        "reference": "Patient/a959f507-685c-4d5e-b8e4-dc02063dba36"
      },
      "effectiveDateTime": "2026-09-29T07:00:00.000+00:00",
      "issued": "2026-09-29T07:30:00.000+00:00",
      "valueQuantity": {
        "value": 0.9,
        "unit": "mg/dL",
        "system": "http://unitsofmeasure.org",
        "code": "mg/dL"
      }
    },
    "request": {
      "method": "PUT",
      "url": "Observation/a19d5a14-5150-406c-aa47-0aa58b53bd4b"
    }
  }, {
    "fullUrl": "https://madie.cms.gov/Encounter/48074d29-d03a-49e9-95f7-55d33cd08469",
    "resource": {
      "resourceType": "Encounter",
      "id": "48074d29-d03a-49e9-95f7-55d33cd08469",
      "meta": {
        "profile": [ "http://hl7.org/fhir/us/qicore/StructureDefinition/qicore-encounter" ]
      },
      "status": "finished",
      "class": {
        "system": "http://terminology.hl7.org/CodeSystem/v3-ActCode",
        "code": "IMP",
        "display": "inpatient encounter"
      },
      "type": [ {
        "coding": [ {
          "system": "http://snomed.info/sct",
          "code": "183452005"
        } ]
      } ],
      "subject": {
        "reference": "Patient/a959f507-685c-4d5e-b8e4-dc02063dba36"
      },
      "period": {
        "start": "2026-09-29T08:00:00.000+00:00",
        "end": "2026-10-03T20:00:00.000+00:00"
      }
    },
    "request": {
      "method": "PUT",
      "url": "Encounter/48074d29-d03a-49e9-95f7-55d33cd08469"
    }
  }, {
    "fullUrl": "https://madie.cms.gov/MeasureReport/2015fe0d-c398-49a4-9dba-383cc79abec3",
    "resource": {
      "resourceType": "MeasureReport",
      "id": "2015fe0d-c398-49a4-9dba-383cc79abec3",
      "meta": {
        "profile": [ "http://hl7.org/fhir/us/cqfmeasures/StructureDefinition/test-case-cqfm" ]
      },
      "contained": [ {
        "resourceType": "Parameters",
        "id": "4c026d89-2cc7-48cf-921c-0181f28aea4f-parameters",
        "parameter": [ {
          "name": "subject",
          "valueString": "a959f507-685c-4d5e-b8e4-dc02063dba36"
        } ]
      } ],
      "extension": [ {
        "url": "http://hl7.org/fhir/us/cqfmeasures/StructureDefinition/cqfm-inputParameters",
        "valueReference": {
          "reference": "#4c026d89-2cc7-48cf-921c-0181f28aea4f-parameters"
        }
      }, {
        "url": "http://hl7.org/fhir/us/cqfmeasures/StructureDefinition/cqfm-testCaseDescription",
        "valueMarkdown": "Not 18 on INPT admission\nVScode: Initial Population=[]"
      } ],
      "modifierExtension": [ {
        "url": "http://hl7.org/fhir/us/cqfmeasures/StructureDefinition/cqfm-isTestCase",
        "valueBoolean": true
      } ],
      "status": "complete",
      "type": "individual",
      "measure": "https://madie.cms.gov/Measure/CMS832HHAKIFHIR",
      "period": {
        "start": "2026-01-01",
        "end": "2026-12-31"
      },
      "group": [ {
        "id": "67b50f879214df46de2f1fdb",
        "population": [ {
          "id": "DA0D3694-7F57-4FB9-8410-1F64E44CA01E",
          "code": {
            "coding": [ {
              "system": "http://terminology.hl7.org/CodeSystem/measure-population",
              "code": "initial-population",
              "display": "Initial Population"
            } ]
          },
          "count": 0
        }, {
          "id": "624D8554-9CB0-4BF0-882D-05C4F88BCC2C",
          "code": {
            "coding": [ {
              "system": "http://terminology.hl7.org/CodeSystem/measure-population",
              "code": "denominator",
              "display": "Denominator"
            } ]
          },
          "count": 0
        }, {
          "id": "000FF050-D4A2-4C8B-8123-4538D35D5441",
          "code": {
            "coding": [ {
              "system": "http://terminology.hl7.org/CodeSystem/measure-population",
              "code": "denominator-exclusion",
              "display": "Denominator Exclusion"
            } ]
          },
          "count": 0
        }, {
          "id": "01644D07-D9F8-403E-A66D-109ABA29BB6E",
          "code": {
            "coding": [ {
              "system": "http://terminology.hl7.org/CodeSystem/measure-population",
              "code": "numerator",
              "display": "Numerator"
            } ]
          },
          "count": 0
        } ],
        "measureScore": {
          "value": 0.0
        }
      } ],
      "evaluatedResource": [ {
        "reference": "Patient/a959f507-685c-4d5e-b8e4-dc02063dba36"
      }, {
        "reference": "Encounter/31279f0d-ded9-493a-9d34-810274977ad8"
      }, {
        "reference": "Encounter/48074d29-d03a-49e9-95f7-55d33cd08469"
      }, {
        "reference": "MedicationAdministration/744c8726-c3ef-4ed3-8700-8de9ea06ec67"
      }, {
        "reference": "Observation/a8588d40-2155-447a-a73c-0a9657715910"
      }, {
        "reference": "Observation/b258eccf-2576-4d08-bde1-d5c5b0b4e299"
      }, {
        "reference": "Observation/650347ed-4b2f-480a-ba9c-53c4f1a2a3d4"
      }, {
        "reference": "Observation/a19d5a14-5150-406c-aa47-0aa58b53bd4b"
      }, {
        "reference": "Observation/235ed938-4701-4390-86a2-19fc2b559e9f"
      }, {
        "reference": "Coverage/2b6dd640-2b84-4bc5-a8ff-1ce2b5acf256"
      }, {
        "reference": "Organization/419051b9-6041-4c01-804c-575938592f3f"
      } ]
    },
    "request": {
      "method": "PUT",
      "url": "MeasureReport/2015fe0d-c398-49a4-9dba-383cc79abec3"
    }
  }, {
    "fullUrl": "https://madie.cms.gov/Encounter/31279f0d-ded9-493a-9d34-810274977ad8",
    "resource": {
      "resourceType": "Encounter",
      "id": "31279f0d-ded9-493a-9d34-810274977ad8",
      "meta": {
        "profile": [ "http://hl7.org/fhir/us/qicore/StructureDefinition/qicore-encounter" ]
      },
      "status": "finished",
      "class": {
        "system": "http://terminology.hl7.org/CodeSystem/v3-ActCode",
        "code": "EMER",
        "display": "emergency"
      },
      "type": [ {
        "coding": [ {
          "system": "http://snomed.info/sct",
          "code": "4525004"
        } ]
      } ],
      "subject": {
        "reference": "Patient/a959f507-685c-4d5e-b8e4-dc02063dba36"
      },
      "period": {
        "start": "2026-09-29T06:00:00.000+00:00",
        "end": "2026-09-29T08:00:00.000+00:00"
      }
    },
    "request": {
      "method": "PUT",
      "url": "Encounter/31279f0d-ded9-493a-9d34-810274977ad8"
    }
  }, {
    "fullUrl": "https://madie.cms.gov/Observation/b258eccf-2576-4d08-bde1-d5c5b0b4e299",
    "resource": {
      "resourceType": "Observation",
      "id": "b258eccf-2576-4d08-bde1-d5c5b0b4e299",
      "meta": {
        "profile": [ "http://hl7.org/fhir/us/qicore/StructureDefinition/qicore-observation-lab" ]
      },
      "status": "final",
      "category": [ {
        "coding": [ {
          "system": "http://terminology.hl7.org/CodeSystem/observation-category",
          "code": "laboratory",
          "display": "Laboratory"
        } ]
      } ],
      "code": {
        "coding": [ {
          "system": "http://loinc.org",
          "code": "2160-0",
          "display": "Creatinine [Mass/volume] in Serum or Plasma"
        } ]
      },
      "subject": {
        "reference": "Patient/a959f507-685c-4d5e-b8e4-dc02063dba36"
      },
      "effectiveDateTime": "2026-09-29T07:59:00.000+00:00",
      "issued": "2026-09-29T08:29:00.000+00:00",
      "valueQuantity": {
        "value": 0.8,
        "unit": "mg/dL",
        "system": "http://unitsofmeasure.org",
        "code": "mg/dL"
      }
    },
    "request": {
      "method": "PUT",
      "url": "Observation/b258eccf-2576-4d08-bde1-d5c5b0b4e299"
    }
  }, {
    "fullUrl": "https://madie.cms.gov/Coverage/2b6dd640-2b84-4bc5-a8ff-1ce2b5acf256",
    "resource": {
      "resourceType": "Coverage",
      "id": "2b6dd640-2b84-4bc5-a8ff-1ce2b5acf256",
      "meta": {
        "profile": [ "http://hl7.org/fhir/us/qicore/StructureDefinition/qicore-coverage" ]
      },
      "status": "active",
      "type": {
        "coding": [ {
          "system": "https://nahdo.org/sopt",
          "version": "9.2",
          "code": "211",
          "display": "Medicaid HMO"
        } ]
      },
      "beneficiary": {
        "reference": "Patient/a959f507-685c-4d5e-b8e4-dc02063dba36"
      },
      "period": {
        "start": "2024-12-01T00:00:00.000+00:00"
      },
      "payor": [ {
        "reference": "Organization/419051b9-6041-4c01-804c-575938592f3f"
      } ]
    },
    "request": {
      "method": "PUT",
      "url": "Coverage/2b6dd640-2b84-4bc5-a8ff-1ce2b5acf256"
    }
  }, {
    "fullUrl": "https://madie.cms.gov/Organization/419051b9-6041-4c01-804c-575938592f3f",
    "resource": {
      "resourceType": "Organization",
      "id": "419051b9-6041-4c01-804c-575938592f3f",
      "meta": {
        "profile": [ "http://hl7.org/fhir/us/qicore/StructureDefinition/qicore-organization" ]
      },
      "identifier": [ {
        "use": "temp",
        "system": "urn:oid:2.16.840.1.113883.4.4",
        "value": "21-3259825"
      } ],
      "active": true,
      "type": [ {
        "coding": [ {
          "system": "http://terminology.hl7.org/CodeSystem/organization-type",
          "code": "pay",
          "display": "Payer"
        } ]
      } ],
      "name": "Blue Cross Blue Shield of Texas",
      "telecom": [ {
        "system": "phone",
        "value": "(+1) 972-766-6900"
      } ],
      "address": [ {
        "use": "billing",
        "type": "postal",
        "line": [ "P.O. Box 660044" ],
        "city": "Dallas",
        "state": "TX",
        "postalCode": "75266-0044",
        "country": "USA"
      } ]
    },
    "request": {
      "method": "PUT",
      "url": "Organization/419051b9-6041-4c01-804c-575938592f3f"
    }
  }, {
    "fullUrl": "https://madie.cms.gov/MeasureReport/bf02caf0-32cc-48a5-859e-3a9b68dec854",
    "resource": {
      "resourceType": "MeasureReport",
      "id": "bf02caf0-32cc-48a5-859e-3a9b68dec854",
      "meta": {
        "profile": [ "http://hl7.org/fhir/us/cqfmeasures/StructureDefinition/test-case-cqfm" ]
      },
      "contained": [ {
        "resourceType": "Parameters",
        "id": "38d2655b-1c50-41b7-9538-58d593ff30dd-parameters",
        "parameter": [ {
          "name": "subject",
          "valueString": "a959f507-685c-4d5e-b8e4-dc02063dba36"
        } ]
      } ],
      "extension": [ {
        "url": "http://hl7.org/fhir/StructureDefinition/cqf-inputParameters",
        "valueReference": {
          "reference": "#38d2655b-1c50-41b7-9538-58d593ff30dd-parameters"
        }
      }, {
        "url": "http://hl7.org/fhir/us/cqfmeasures/StructureDefinition/cqfm-testCaseDescription",
        "valueMarkdown": "Not 18 on INPT admission\nVScode: Initial Population=[]"
      } ],
      "modifierExtension": [ {
        "url": "http://hl7.org/fhir/us/cqfmeasures/StructureDefinition/cqfm-isTestCase",
        "valueBoolean": true
      } ],
      "status": "complete",
      "type": "individual",
      "measure": "https://madie.cms.gov/Measure/CMS832FHIRHHAKI",
      "period": {
        "start": "2026-01-01",
        "end": "2026-12-31"
      },
      "group": [ {
        "id": "Group_1",
        "population": [ {
          "id": "InitialPopulation_1",
          "code": {
            "coding": [ {
              "system": "http://terminology.hl7.org/CodeSystem/measure-population",
              "code": "initial-population",
              "display": "Initial Population"
            } ]
          },
          "count": 0
        }, {
          "id": "Denominator_1",
          "code": {
            "coding": [ {
              "system": "http://terminology.hl7.org/CodeSystem/measure-population",
              "code": "denominator",
              "display": "Denominator"
            } ]
          },
          "count": 0
        }, {
          "id": "DenominatorExclusion_1",
          "code": {
            "coding": [ {
              "system": "http://terminology.hl7.org/CodeSystem/measure-population",
              "code": "denominator-exclusion",
              "display": "Denominator Exclusion"
            } ]
          },
          "count": 0
        }, {
          "id": "Numerator_1",
          "code": {
            "coding": [ {
              "system": "http://terminology.hl7.org/CodeSystem/measure-population",
              "code": "numerator",
              "display": "Numerator"
            } ]
          },
          "count": 0
        } ],
        "measureScore": {
          "value": 0.0
        }
      } ],
      "evaluatedResource": [ {
        "reference": "MedicationAdministration/744c8726-c3ef-4ed3-8700-8de9ea06ec67"
      }, {
        "reference": "Patient/a959f507-685c-4d5e-b8e4-dc02063dba36"
      }, {
        "reference": "Observation/a8588d40-2155-447a-a73c-0a9657715910"
      }, {
        "reference": "Observation/235ed938-4701-4390-86a2-19fc2b559e9f"
      }, {
        "reference": "Observation/650347ed-4b2f-480a-ba9c-53c4f1a2a3d4"
      }, {
        "reference": "Observation/a19d5a14-5150-406c-aa47-0aa58b53bd4b"
      }, {
        "reference": "Encounter/48074d29-d03a-49e9-95f7-55d33cd08469"
      }, {
        "reference": "MeasureReport/2015fe0d-c398-49a4-9dba-383cc79abec3"
      }, {
        "reference": "Encounter/31279f0d-ded9-493a-9d34-810274977ad8"
      }, {
        "reference": "Observation/b258eccf-2576-4d08-bde1-d5c5b0b4e299"
      }, {
        "reference": "Coverage/2b6dd640-2b84-4bc5-a8ff-1ce2b5acf256"
      }, {
        "reference": "Organization/419051b9-6041-4c01-804c-575938592f3f"
      } ]
    },
    "request": {
      "method": "PUT",
      "url": "MeasureReport/bf02caf0-32cc-48a5-859e-3a9b68dec854"
    }
  } ]
}