{
  "resourceType": "Bundle",
  "id": "633b3f9e0968f80122503cc9",
  "type": "transaction",
  "entry": [ {
    "fullUrl": "https://madie.cms.gov/Patient/d2f01efe-36cc-4caa-98a6-b883ec7e87aa",
    "resource": {
      "resourceType": "Patient",
      "id": "d2f01efe-36cc-4caa-98a6-b883ec7e87aa",
      "meta": {
        "profile": [ "http://hl7.org/fhir/us/qicore/StructureDefinition/qicore-patient" ]
      },
      "text": {
        "status": "generated",
        "div": "<div xmlns=\"http://www.w3.org/1999/xhtml\"><div class=\"hapiHeaderText\">AssPrfDelRelvDtEQIPEnd<b>DENOMPASS</b></div><table class=\"hapiPropertyTable\"><tbody><tr><td>Date of birth</td><td><span>01 February 2004</span></td></tr></tbody></table></div>"
      },
      "extension": [ {
        "url": "http://hl7.org/fhir/us/core/StructureDefinition/us-core-race",
        "extension": [ {
          "url": "ombCategory",
          "valueCoding": {
            "system": "urn:oid:2.16.840.1.113883.6.238",
            "code": "1002-5",
            "display": "American Indian or Alaska Native",
            "userSelected": true
          }
        }, {
          "url": "text",
          "valueString": "American Indian or Alaska Native"
        } ]
      }, {
        "url": "http://hl7.org/fhir/us/core/StructureDefinition/us-core-ethnicity",
        "extension": [ {
          "url": "ombCategory",
          "valueCoding": {
            "system": "urn:oid:2.16.840.1.113883.6.238",
            "code": "2135-2",
            "display": "Hispanic or Latino",
            "userSelected": true
          }
        }, {
          "url": "text",
          "valueString": "Hispanic or Latino"
        } ]
      } ],
      "identifier": [ {
        "type": {
          "coding": [ {
            "system": "http://terminology.hl7.org/CodeSystem/v2-0203",
            "code": "MR"
          } ]
        },
        "system": "https://bonnie-fhir.healthit.gov/",
        "value": "633b3f9e0968f80122503cc9"
      } ],
      "active": true,
      "name": [ {
        "use": "usual",
        "family": "DENOMPass",
        "given": [ "AssPrfDelRelvDtEQIPEnd" ]
      } ],
      "gender": "female",
      "birthDate": "2005-02-01"
    },
    "request": {
      "method": "PUT",
      "url": "Patient/d2f01efe-36cc-4caa-98a6-b883ec7e87aa"
    }
  }, {
    "fullUrl": "https://madie.cms.gov/Observation/c1828885-98d3-4054-9860-775917e0d00c",
    "resource": {
      "resourceType": "Observation",
      "id": "c1828885-98d3-4054-9860-775917e0d00c",
      "meta": {
        "profile": [ "http://hl7.org/fhir/us/qicore/StructureDefinition/qicore-simple-observation" ]
      },
      "status": "final",
      "category": [ {
        "coding": [ {
          "system": "http://terminology.hl7.org/CodeSystem/observation-category",
          "code": "exam",
          "display": "exam",
          "userSelected": true
        } ]
      } ],
      "code": {
        "coding": [ {
          "system": "http://loinc.org",
          "code": "93857-1"
        } ]
      },
      "subject": {
        "reference": "Patient/d2f01efe-36cc-4caa-98a6-b883ec7e87aa"
      },
      "effectiveDateTime": "2026-02-05T08:15:00.000+00:00",
      "performer": [ {
        "reference": "Organization/example1",
        "display": "Hendricks Country Hospital"
      } ],
      "valueDateTime": "2026-02-01T08:00:00.000+00:00"
    },
    "request": {
      "method": "PUT",
      "url": "Observation/c1828885-98d3-4054-9860-775917e0d00c"
    }
  }, {
    "fullUrl": "https://madie.cms.gov/Observation/d1d56e41-dd92-4dac-a64f-ca594f65c782",
    "resource": {
      "resourceType": "Observation",
      "id": "d1d56e41-dd92-4dac-a64f-ca594f65c782",
      "meta": {
        "profile": [ "http://hl7.org/fhir/us/qicore/StructureDefinition/qicore-simple-observation" ]
      },
      "status": "final",
      "category": [ {
        "coding": [ {
          "system": "http://terminology.hl7.org/CodeSystem/observation-category",
          "code": "exam",
          "display": "exam",
          "userSelected": true
        } ]
      } ],
      "code": {
        "coding": [ {
          "system": "http://loinc.org",
          "code": "11778-8"
        } ]
      },
      "subject": {
        "reference": "Patient/d2f01efe-36cc-4caa-98a6-b883ec7e87aa"
      },
      "effectiveDateTime": "2026-02-01T08:00:00.000+00:00",
      "performer": [ {
        "reference": "Organization/example1",
        "display": "Hendricks Country Hospital"
      } ],
      "valueDateTime": "2026-02-01T08:00:00.000+00:00"
    },
    "request": {
      "method": "PUT",
      "url": "Observation/d1d56e41-dd92-4dac-a64f-ca594f65c782"
    }
  }, {
    "fullUrl": "https://madie.cms.gov/Encounter/b4515fdb-674b-4c5e-b84f-d808f5d6ca9d",
    "resource": {
      "resourceType": "Encounter",
      "id": "b4515fdb-674b-4c5e-b84f-d808f5d6ca9d",
      "meta": {
        "profile": [ "http://hl7.org/fhir/us/qicore/StructureDefinition/qicore-encounter" ]
      },
      "status": "finished",
      "class": {
        "system": "http://terminology.hl7.org/CodeSystem/v3-ActCode",
        "code": "IMP",
        "display": "inpatient encounter"
      },
      "type": [ {
        "coding": [ {
          "system": "http://snomed.info/sct",
          "code": "183452005"
        } ]
      } ],
      "subject": {
        "reference": "Patient/d2f01efe-36cc-4caa-98a6-b883ec7e87aa"
      },
      "period": {
        "start": "2026-02-01T08:00:00.000+00:00",
        "end": "2026-02-05T08:15:00.000+00:00"
      }
    },
    "request": {
      "method": "PUT",
      "url": "Encounter/b4515fdb-674b-4c5e-b84f-d808f5d6ca9d"
    }
  }, {
    "fullUrl": "https://madie.cms.gov/Procedure/b7db57d4-b2bb-49cd-b5f9-3f6135463a3a",
    "resource": {
      "resourceType": "Procedure",
      "id": "b7db57d4-b2bb-49cd-b5f9-3f6135463a3a",
      "meta": {
        "profile": [ "http://hl7.org/fhir/us/qicore/StructureDefinition/qicore-procedure" ]
      },
      "extension": [ {
        "url": "http://hl7.org/fhir/us/qicore/StructureDefinition/qicore-recorded",
        "valueDateTime": "2014-04-05T13:35:00.000+00:00"
      } ],
      "status": "completed",
      "code": {
        "coding": [ {
          "system": "http://snomed.info/sct",
          "code": "10745001"
        } ]
      },
      "subject": {
        "reference": "Patient/d2f01efe-36cc-4caa-98a6-b883ec7e87aa"
      },
      "performedPeriod": {
        "start": "2026-02-01T08:00:00.000+00:00",
        "end": "2026-02-05T08:15:00.000+00:00"
      }
    },
    "request": {
      "method": "PUT",
      "url": "Procedure/b7db57d4-b2bb-49cd-b5f9-3f6135463a3a"
    }
  }, {
    "fullUrl": "https://madie.cms.gov/Coverage/5d8bca42-ae45-4bf9-8c9a-d0e73bff42d6",
    "resource": {
      "resourceType": "Coverage",
      "id": "5d8bca42-ae45-4bf9-8c9a-d0e73bff42d6",
      "meta": {
        "profile": [ "http://hl7.org/fhir/us/qicore/StructureDefinition/qicore-coverage" ]
      },
      "status": "active",
      "subscriberId": "523435",
      "beneficiary": {
        "reference": "Patient/d2f01efe-36cc-4caa-98a6-b883ec7e87aa"
      },
      "relationship": {
        "coding": [ {
          "system": "http://terminology.hl7.org/CodeSystem/subscriber-relationship",
          "code": "self"
        } ]
      },
      "payor": [ {
        "reference": "Organization/cf4cfea9-d4ac-47fb-886a-8c5cbb199fb7"
      } ]
    },
    "request": {
      "method": "PUT",
      "url": "Coverage/5d8bca42-ae45-4bf9-8c9a-d0e73bff42d6"
    }
  }, {
    "fullUrl": "https://madie.cms.gov/Organization/cf4cfea9-d4ac-47fb-886a-8c5cbb199fb7",
    "resource": {
      "resourceType": "Organization",
      "id": "cf4cfea9-d4ac-47fb-886a-8c5cbb199fb7",
      "meta": {
        "profile": [ "http://hl7.org/fhir/us/qicore/StructureDefinition/qicore-organization" ]
      },
      "identifier": [ {
        "use": "temp",
        "system": "urn:oid:2.16.840.1.113883.4.4",
        "value": "21-3259825"
      } ],
      "active": true,
      "type": [ {
        "coding": [ {
          "system": "http://terminology.hl7.org/CodeSystem/organization-type",
          "code": "pay",
          "display": "Payer"
        } ]
      } ],
      "name": "Blue Cross Blue Shield of Texas",
      "telecom": [ {
        "system": "phone",
        "value": "(+1) 972-766-6900"
      } ],
      "address": [ {
        "use": "billing",
        "type": "postal",
        "line": [ "P.O. Box 660044" ],
        "city": "Dallas",
        "state": "TX",
        "postalCode": "75266-0044",
        "country": "USA"
      } ]
    },
    "request": {
      "method": "PUT",
      "url": "Organization/cf4cfea9-d4ac-47fb-886a-8c5cbb199fb7"
    }
  }, {
    "fullUrl": "https://madie.cms.gov/Practitioner/a7c4bbbd-247a-46f4-be3b-ca6c7fe7246f",
    "resource": {
      "resourceType": "Practitioner",
      "id": "a7c4bbbd-247a-46f4-be3b-ca6c7fe7246f",
      "meta": {
        "profile": [ "http://hl7.org/fhir/us/qicore/StructureDefinition/qicore-practitioner" ]
      },
      "identifier": [ {
        "system": "http://hl7.org/fhir/sid/us-npi",
        "value": "1234567890"
      } ],
      "name": [ {
        "family": "Evil",
        "prefix": [ "Dr" ]
      } ]
    },
    "request": {
      "method": "PUT",
      "url": "Practitioner/a7c4bbbd-247a-46f4-be3b-ca6c7fe7246f"
    }
  }, {
    "fullUrl": "https://madie.cms.gov/MeasureReport/1cb6c24a-7dec-43f0-b548-c4e715f6e074",
    "resource": {
      "resourceType": "MeasureReport",
      "id": "1cb6c24a-7dec-43f0-b548-c4e715f6e074",
      "meta": {
        "profile": [ "http://hl7.org/fhir/us/cqfmeasures/StructureDefinition/test-case-cqfm" ]
      },
      "contained": [ {
        "resourceType": "Parameters",
        "id": "b403bb26-2b50-429c-993a-b6dea081d8de-parameters",
        "parameter": [ {
          "name": "subject",
          "valueString": "d2f01efe-36cc-4caa-98a6-b883ec7e87aa"
        } ]
      } ],
      "extension": [ {
        "url": "http://hl7.org/fhir/StructureDefinition/cqf-inputParameters",
        "valueReference": {
          "reference": "#b403bb26-2b50-429c-993a-b6dea081d8de-parameters"
        }
      }, {
        "url": "http://hl7.org/fhir/us/cqfmeasures/StructureDefinition/cqfm-testCaseDescription",
        "valueMarkdown": "Relevant date/Time of delivery (based on assessment performed) is equal to the inpatient end\n\n"
      } ],
      "modifierExtension": [ {
        "url": "http://hl7.org/fhir/us/cqfmeasures/StructureDefinition/cqfm-isTestCase",
        "valueBoolean": true
      } ],
      "status": "complete",
      "type": "individual",
      "measure": "https://madie.cms.gov/Measure/CMS1028FHIRPCSevereOBComps",
      "period": {
        "start": "2026-01-01",
        "end": "2026-12-31"
      },
      "group": [ {
        "id": "Group_1",
        "population": [ {
          "id": "InitialPopulation_1",
          "code": {
            "coding": [ {
              "system": "http://terminology.hl7.org/CodeSystem/measure-population",
              "code": "initial-population",
              "display": "Initial Population"
            } ]
          },
          "count": 1
        }, {
          "id": "Denominator_1",
          "code": {
            "coding": [ {
              "system": "http://terminology.hl7.org/CodeSystem/measure-population",
              "code": "denominator",
              "display": "Denominator"
            } ]
          },
          "count": 1
        }, {
          "id": "Numerator_1",
          "code": {
            "coding": [ {
              "system": "http://terminology.hl7.org/CodeSystem/measure-population",
              "code": "numerator",
              "display": "Numerator"
            } ]
          },
          "count": 0
        }, {
          "id": "NumeratorExclusion_1",
          "code": {
            "coding": [ {
              "system": "http://terminology.hl7.org/CodeSystem/measure-population",
              "code": "numerator-exclusion",
              "display": "Numerator Exclusion"
            } ]
          },
          "count": 0
        } ],
        "measureScore": {
          "value": 0.0
        }
      }, {
        "id": "Group_2",
        "population": [ {
          "id": "InitialPopulation_2",
          "code": {
            "coding": [ {
              "system": "http://terminology.hl7.org/CodeSystem/measure-population",
              "code": "initial-population",
              "display": "Initial Population"
            } ]
          },
          "count": 1
        }, {
          "id": "Denominator_2",
          "code": {
            "coding": [ {
              "system": "http://terminology.hl7.org/CodeSystem/measure-population",
              "code": "denominator",
              "display": "Denominator"
            } ]
          },
          "count": 1
        }, {
          "id": "Numerator_2",
          "code": {
            "coding": [ {
              "system": "http://terminology.hl7.org/CodeSystem/measure-population",
              "code": "numerator",
              "display": "Numerator"
            } ]
          },
          "count": 0
        }, {
          "id": "NumeratorExclusion_2",
          "code": {
            "coding": [ {
              "system": "http://terminology.hl7.org/CodeSystem/measure-population",
              "code": "numerator-exclusion",
              "display": "Numerator Exclusion"
            } ]
          },
          "count": 0
        } ],
        "measureScore": {
          "value": 0.0
        }
      } ],
      "evaluatedResource": [ {
        "reference": "Patient/d2f01efe-36cc-4caa-98a6-b883ec7e87aa"
      }, {
        "reference": "Observation/c1828885-98d3-4054-9860-775917e0d00c"
      }, {
        "reference": "Observation/d1d56e41-dd92-4dac-a64f-ca594f65c782"
      }, {
        "reference": "Encounter/b4515fdb-674b-4c5e-b84f-d808f5d6ca9d"
      }, {
        "reference": "Procedure/b7db57d4-b2bb-49cd-b5f9-3f6135463a3a"
      }, {
        "reference": "Coverage/5d8bca42-ae45-4bf9-8c9a-d0e73bff42d6"
      }, {
        "reference": "Organization/cf4cfea9-d4ac-47fb-886a-8c5cbb199fb7"
      }, {
        "reference": "Practitioner/a7c4bbbd-247a-46f4-be3b-ca6c7fe7246f"
      } ]
    },
    "request": {
      "method": "PUT",
      "url": "MeasureReport/1cb6c24a-7dec-43f0-b548-c4e715f6e074"
    }
  } ]
}