{
  "resourceType": "Bundle",
  "id": "660dc344ea96f2084262f8e7",
  "type": "transaction",
  "entry": [ {
    "fullUrl": "https://madie.cms.gov/Patient/105e8f1d-67bc-4093-8953-7aaca6e1411b",
    "resource": {
      "resourceType": "Patient",
      "id": "105e8f1d-67bc-4093-8953-7aaca6e1411b",
      "meta": {
        "profile": [ "http://hl7.org/fhir/us/qicore/StructureDefinition/qicore-patient" ]
      },
      "extension": [ {
        "url": "http://hl7.org/fhir/us/core/StructureDefinition/us-core-race",
        "extension": [ {
          "url": "ombCategory",
          "valueCoding": {
            "system": "urn:oid:2.16.840.1.113883.6.238",
            "code": "1002-5",
            "display": "American Indian or Alaska Native",
            "userSelected": true
          }
        }, {
          "url": "text",
          "valueString": "American Indian or Alaska Native"
        } ]
      }, {
        "url": "http://hl7.org/fhir/us/core/StructureDefinition/us-core-ethnicity",
        "extension": [ {
          "url": "ombCategory",
          "valueCoding": {
            "system": "urn:oid:2.16.840.1.113883.6.238",
            "code": "2135-2",
            "display": "Hispanic or Latino",
            "userSelected": true
          }
        }, {
          "url": "text",
          "valueString": "Hispanic or Latino"
        } ]
      }, {
        "url": "http://hl7.org/fhir/us/core/StructureDefinition/us-core-sex",
        "valueCode": "248153007"
      } ],
      "identifier": [ {
        "type": {
          "coding": [ {
            "system": "http://terminology.hl7.org/CodeSystem/v2-0203",
            "code": "MR"
          } ]
        },
        "system": "https://bonnie-fhir.healthit.gov/",
        "value": "660dc344ea96f2084262f8e7"
      } ],
      "name": [ {
        "family": "DxExclPassStartsBeforeEndsAfterMP",
        "given": [ "DENEXCEPPASS" ]
      } ],
      "gender": "male",
      "birthDate": "1992-10-21"
    },
    "request": {
      "method": "PUT",
      "url": "Patient/105e8f1d-67bc-4093-8953-7aaca6e1411b"
    }
  }, {
    "fullUrl": "https://madie.cms.gov/Encounter/aae71056-7389-4e75-bc85-85fadc6595ab",
    "resource": {
      "resourceType": "Encounter",
      "id": "aae71056-7389-4e75-bc85-85fadc6595ab",
      "meta": {
        "profile": [ "http://hl7.org/fhir/us/qicore/StructureDefinition/qicore-encounter" ]
      },
      "status": "finished",
      "class": {
        "system": "http://terminology.hl7.org/CodeSystem/v3-ActCode",
        "code": "EMER",
        "display": "emergency",
        "userSelected": true
      },
      "type": [ {
        "coding": [ {
          "system": "http://snomed.info/sct",
          "version": "2020-09",
          "code": "4525004",
          "display": "Emergency department patient visit (procedure)",
          "userSelected": true
        } ]
      } ],
      "subject": {
        "reference": "Patient/105e8f1d-67bc-4093-8953-7aaca6e1411b"
      },
      "period": {
        "start": "2026-11-10T08:05:00.000+00:00",
        "end": "2026-11-11T07:15:00.000+00:00"
      },
      "reasonReference": [ {
        "reference": "Condition/b5c064c7-f21c-4f2b-9c47-ab762d3dcbb3"
      } ]
    },
    "request": {
      "method": "PUT",
      "url": "Encounter/aae71056-7389-4e75-bc85-85fadc6595ab"
    }
  }, {
    "fullUrl": "https://madie.cms.gov/Condition/7759dff7-db92-4391-acb4-a784d610d84a",
    "resource": {
      "resourceType": "Condition",
      "id": "7759dff7-db92-4391-acb4-a784d610d84a",
      "meta": {
        "profile": [ "http://hl7.org/fhir/us/qicore/StructureDefinition/qicore-condition-problems-health-concerns" ]
      },
      "clinicalStatus": {
        "coding": [ {
          "system": "http://terminology.hl7.org/CodeSystem/condition-clinical",
          "code": "active"
        } ]
      },
      "verificationStatus": {
        "coding": [ {
          "system": "http://terminology.hl7.org/CodeSystem/condition-ver-status",
          "code": "unconfirmed"
        } ]
      },
      "category": [ {
        "coding": [ {
          "system": "http://terminology.hl7.org/CodeSystem/condition-category",
          "code": "problem-list-item",
          "display": "Problem List Item"
        } ]
      } ],
      "severity": {
        "coding": [ {
          "system": "http://snomed.info/sct",
          "code": "24484000",
          "display": "Severe (severity modifier)"
        } ]
      },
      "code": {
        "coding": [ {
          "system": "http://hl7.org/fhir/sid/icd-10-cm",
          "code": "Z92.82",
          "display": "Status post administration of tPA (rtPA) in a different facility within the last 24 hours prior to admission to current facility"
        } ]
      },
      "subject": {
        "reference": "Patient/105e8f1d-67bc-4093-8953-7aaca6e1411b"
      },
      "onsetDateTime": "2026-11-12T08:30:00.000+00:00"
    },
    "request": {
      "method": "PUT",
      "url": "Condition/7759dff7-db92-4391-acb4-a784d610d84a"
    }
  }, {
    "fullUrl": "https://madie.cms.gov/Condition/b5c064c7-f21c-4f2b-9c47-ab762d3dcbb3",
    "resource": {
      "resourceType": "Condition",
      "id": "b5c064c7-f21c-4f2b-9c47-ab762d3dcbb3",
      "meta": {
        "profile": [ "http://hl7.org/fhir/us/qicore/StructureDefinition/qicore-condition-problems-health-concerns" ]
      },
      "clinicalStatus": {
        "coding": [ {
          "system": "http://terminology.hl7.org/CodeSystem/condition-clinical",
          "code": "active",
          "display": "active",
          "userSelected": true
        } ]
      },
      "verificationStatus": {
        "coding": [ {
          "system": "http://terminology.hl7.org/CodeSystem/condition-ver-status",
          "code": "unconfirmed"
        } ]
      },
      "category": [ {
        "coding": [ {
          "system": "http://terminology.hl7.org/CodeSystem/condition-category",
          "code": "problem-list-item",
          "display": "Problem List Item",
          "userSelected": true
        } ]
      } ],
      "code": {
        "coding": [ {
          "system": "http://snomed.info/sct",
          "version": "2020-09",
          "code": "401303003",
          "display": "Acute ST segment elevation myocardial infarction (disorder)",
          "userSelected": true
        } ]
      },
      "subject": {
        "reference": "Patient/105e8f1d-67bc-4093-8953-7aaca6e1411b"
      },
      "onsetDateTime": "2026-11-10T08:30:00.000+00:00"
    },
    "request": {
      "method": "PUT",
      "url": "Condition/b5c064c7-f21c-4f2b-9c47-ab762d3dcbb3"
    }
  }, {
    "fullUrl": "https://madie.cms.gov/Condition/a081e787-2e2d-414e-a5b5-bde65f29509a",
    "resource": {
      "resourceType": "Condition",
      "id": "a081e787-2e2d-414e-a5b5-bde65f29509a",
      "meta": {
        "profile": [ "http://hl7.org/fhir/us/qicore/StructureDefinition/qicore-condition-problems-health-concerns" ]
      },
      "clinicalStatus": {
        "coding": [ {
          "system": "http://terminology.hl7.org/CodeSystem/condition-clinical",
          "version": "4.0.1",
          "code": "inactive",
          "display": "Inactive",
          "userSelected": true
        } ]
      },
      "category": [ {
        "coding": [ {
          "system": "http://terminology.hl7.org/CodeSystem/condition-category",
          "code": "problem-list-item",
          "display": "Problem List Item",
          "userSelected": true
        } ]
      } ],
      "code": {
        "coding": [ {
          "system": "http://snomed.info/sct",
          "version": "2020-09",
          "code": "162710004",
          "display": "On examination - collapse -cardiac arrest (disorder)",
          "userSelected": true
        } ]
      },
      "subject": {
        "reference": "Patient/105e8f1d-67bc-4093-8953-7aaca6e1411b"
      },
      "onsetDateTime": "2026-11-10T09:00:00.000+00:00"
    },
    "request": {
      "method": "PUT",
      "url": "Condition/a081e787-2e2d-414e-a5b5-bde65f29509a"
    }
  }, {
    "fullUrl": "https://madie.cms.gov/Coverage/54d0f1a8-ebbf-4b2a-b511-7d3c5f9dea5f",
    "resource": {
      "resourceType": "Coverage",
      "id": "54d0f1a8-ebbf-4b2a-b511-7d3c5f9dea5f",
      "meta": {
        "profile": [ "http://hl7.org/fhir/us/qicore/StructureDefinition/qicore-coverage" ]
      },
      "identifier": [ {
        "type": {
          "coding": [ {
            "system": "http://terminology.hl7.org/CodeSystem/v2-0203",
            "code": "MB"
          } ]
        }
      } ],
      "status": "active",
      "beneficiary": {
        "reference": "Patient/105e8f1d-67bc-4093-8953-7aaca6e1411b"
      },
      "relationship": {
        "coding": [ {
          "system": "http://terminology.hl7.org/CodeSystem/subscriber-relationship",
          "code": "self"
        } ]
      },
      "payor": [ {
        "reference": "Organization/d0c3d9d9-6b2c-4940-8b06-5294d8df7a06"
      } ]
    },
    "request": {
      "method": "PUT",
      "url": "Coverage/54d0f1a8-ebbf-4b2a-b511-7d3c5f9dea5f"
    }
  }, {
    "fullUrl": "https://madie.cms.gov/Organization/d0c3d9d9-6b2c-4940-8b06-5294d8df7a06",
    "resource": {
      "resourceType": "Organization",
      "id": "d0c3d9d9-6b2c-4940-8b06-5294d8df7a06",
      "meta": {
        "profile": [ "http://hl7.org/fhir/us/qicore/StructureDefinition/qicore-organization" ]
      },
      "identifier": [ {
        "use": "temp",
        "system": "urn:oid:2.16.840.1.113883.4.4",
        "value": "21-3259825"
      } ],
      "active": true,
      "type": [ {
        "coding": [ {
          "system": "http://terminology.hl7.org/CodeSystem/organization-type",
          "code": "pay",
          "display": "Payer"
        } ]
      } ],
      "name": "Blue Cross Blue Shield of Texas",
      "telecom": [ {
        "system": "phone",
        "value": "(+1) 972-766-6900"
      } ],
      "address": [ {
        "use": "billing",
        "type": "postal",
        "line": [ "P.O. Box 660044" ],
        "city": "Dallas",
        "state": "TX",
        "postalCode": "75266-0044",
        "country": "USA"
      } ]
    },
    "request": {
      "method": "PUT",
      "url": "Organization/d0c3d9d9-6b2c-4940-8b06-5294d8df7a06"
    }
  }, {
    "fullUrl": "https://madie.cms.gov/Practitioner/5392853c-3ab7-4aef-829a-c7c6be97ac6b",
    "resource": {
      "resourceType": "Practitioner",
      "id": "5392853c-3ab7-4aef-829a-c7c6be97ac6b",
      "meta": {
        "profile": [ "http://hl7.org/fhir/us/qicore/StructureDefinition/qicore-practitioner" ]
      },
      "identifier": [ {
        "system": "http://hl7.org/fhir/sid/us-npi",
        "value": "9999999896"
      } ],
      "name": [ {
        "family": "Evil",
        "prefix": [ "Dr" ]
      } ]
    },
    "request": {
      "method": "PUT",
      "url": "Practitioner/5392853c-3ab7-4aef-829a-c7c6be97ac6b"
    }
  }, {
    "fullUrl": "https://madie.cms.gov/MeasureReport/03e1d997-06cf-4e35-8d20-a9455c23585f",
    "resource": {
      "resourceType": "MeasureReport",
      "id": "03e1d997-06cf-4e35-8d20-a9455c23585f",
      "meta": {
        "profile": [ "http://hl7.org/fhir/us/cqfmeasures/StructureDefinition/test-case-cqfm" ]
      },
      "contained": [ {
        "resourceType": "Parameters",
        "id": "cd3387a4-14e9-4d2b-a253-53e276b6de1b-parameters",
        "parameter": [ {
          "name": "subject",
          "valueString": "105e8f1d-67bc-4093-8953-7aaca6e1411b"
        } ]
      } ],
      "extension": [ {
        "url": "http://hl7.org/fhir/StructureDefinition/cqf-inputParameters",
        "valueReference": {
          "reference": "#cd3387a4-14e9-4d2b-a253-53e276b6de1b-parameters"
        }
      }, {
        "url": "http://hl7.org/fhir/us/cqfmeasures/StructureDefinition/cqfm-testCaseDescription",
        "valueMarkdown": "Patient has diagnosis exception of tPA at another facility after 24 hours of emergency department visit. Verification status unconfirmed"
      } ],
      "modifierExtension": [ {
        "url": "http://hl7.org/fhir/us/cqfmeasures/StructureDefinition/cqfm-isTestCase",
        "valueBoolean": true
      } ],
      "status": "complete",
      "type": "individual",
      "measure": "https://madie.cms.gov/Measure/CMS996FHIRAptTxforSTEMI",
      "period": {
        "start": "2026-01-01",
        "end": "2026-12-31"
      },
      "group": [ {
        "id": "Group_1",
        "population": [ {
          "id": "InitialPopulation_1",
          "code": {
            "coding": [ {
              "system": "http://terminology.hl7.org/CodeSystem/measure-population",
              "code": "initial-population",
              "display": "Initial Population"
            } ]
          },
          "count": 1
        }, {
          "id": "Denominator_1",
          "code": {
            "coding": [ {
              "system": "http://terminology.hl7.org/CodeSystem/measure-population",
              "code": "denominator",
              "display": "Denominator"
            } ]
          },
          "count": 1
        }, {
          "id": "DenominatorExclusion_1",
          "code": {
            "coding": [ {
              "system": "http://terminology.hl7.org/CodeSystem/measure-population",
              "code": "denominator-exclusion",
              "display": "Denominator Exclusion"
            } ]
          },
          "count": 0
        }, {
          "id": "Numerator_1",
          "code": {
            "coding": [ {
              "system": "http://terminology.hl7.org/CodeSystem/measure-population",
              "code": "numerator",
              "display": "Numerator"
            } ]
          },
          "count": 0
        }, {
          "id": "DenominatorException_1",
          "code": {
            "coding": [ {
              "system": "http://terminology.hl7.org/CodeSystem/measure-population",
              "code": "denominator-exception",
              "display": "Denominator Exception"
            } ]
          },
          "count": 0
        } ],
        "measureScore": {
          "value": 0.0
        }
      } ],
      "evaluatedResource": [ {
        "reference": "Patient/105e8f1d-67bc-4093-8953-7aaca6e1411b"
      }, {
        "reference": "Encounter/aae71056-7389-4e75-bc85-85fadc6595ab"
      }, {
        "reference": "Condition/7759dff7-db92-4391-acb4-a784d610d84a"
      }, {
        "reference": "Condition/b5c064c7-f21c-4f2b-9c47-ab762d3dcbb3"
      }, {
        "reference": "Condition/a081e787-2e2d-414e-a5b5-bde65f29509a"
      }, {
        "reference": "Coverage/54d0f1a8-ebbf-4b2a-b511-7d3c5f9dea5f"
      }, {
        "reference": "Organization/d0c3d9d9-6b2c-4940-8b06-5294d8df7a06"
      }, {
        "reference": "Practitioner/5392853c-3ab7-4aef-829a-c7c6be97ac6b"
      } ]
    },
    "request": {
      "method": "PUT",
      "url": "MeasureReport/03e1d997-06cf-4e35-8d20-a9455c23585f"
    }
  } ]
}