{
  "resourceType": "Bundle",
  "id": "NUMERPass-PROMIS29Resulted",
  "type": "collection",
  "entry": [ {
    "fullUrl": "https://madie.cms.gov/Patient/17be91ec-117d-4767-8271-f0403f0c8f84",
    "resource": {
      "resourceType": "Patient",
      "id": "17be91ec-117d-4767-8271-f0403f0c8f84",
      "meta": {
        "profile": [ "http://hl7.org/fhir/us/qicore/StructureDefinition/qicore-patient" ]
      },
      "extension": [ {
        "url": "http://hl7.org/fhir/us/core/StructureDefinition/us-core-race",
        "extension": [ {
          "url": "ombCategory",
          "valueCoding": {
            "system": "urn:oid:2.16.840.1.113883.6.238",
            "code": "2028-9",
            "display": "Asian"
          }
        }, {
          "url": "text",
          "valueString": "Asian"
        } ]
      }, {
        "url": "http://hl7.org/fhir/us/core/StructureDefinition/us-core-ethnicity",
        "extension": [ {
          "url": "ombCategory",
          "valueCoding": {
            "system": "urn:oid:2.16.840.1.113883.6.238",
            "code": "2135-2",
            "display": "Hispanic or Latino"
          }
        }, {
          "url": "text",
          "valueString": "Hispanic or Latino"
        } ]
      } ],
      "identifier": [ {
        "system": "http://hospital.smarthealthit.org",
        "value": "999999995"
      } ],
      "name": [ {
        "family": "Bertha",
        "given": [ "Betty" ]
      } ],
      "gender": "female",
      "birthDate": "2008-01-01"
    }
  }, {
    "fullUrl": "https://madie.cms.gov/Encounter/c4e37ed4-8609-4972-9e8b-b2c77fd89966",
    "resource": {
      "resourceType": "Encounter",
      "id": "c4e37ed4-8609-4972-9e8b-b2c77fd89966",
      "meta": {
        "profile": [ "http://hl7.org/fhir/us/qicore/StructureDefinition/qicore-encounter" ]
      },
      "status": "finished",
      "class": {
        "system": "http://terminology.hl7.org/CodeSystem/v3-ActCode",
        "code": "AMB",
        "display": "ambulatory"
      },
      "type": [ {
        "coding": [ {
          "system": "http://snomed.info/sct",
          "code": "185317003",
          "display": "Telephone encounter (procedure)"
        } ]
      } ],
      "subject": {
        "reference": "Patient/17be91ec-117d-4767-8271-f0403f0c8f84"
      },
      "period": {
        "start": "2026-01-01T01:00:00.000+00:00",
        "end": "2026-01-01T01:15:00.000+00:00"
      }
    }
  }, {
    "fullUrl": "https://madie.cms.gov/Encounter/5da142e3-615f-48ec-b53d-a9bd15c35d07",
    "resource": {
      "resourceType": "Encounter",
      "id": "5da142e3-615f-48ec-b53d-a9bd15c35d07",
      "meta": {
        "profile": [ "http://hl7.org/fhir/us/qicore/StructureDefinition/qicore-encounter" ]
      },
      "status": "finished",
      "class": {
        "system": "http://terminology.hl7.org/CodeSystem/v3-ActCode",
        "code": "AMB",
        "display": "ambulatory"
      },
      "type": [ {
        "coding": [ {
          "system": "http://snomed.info/sct",
          "code": "185317003",
          "display": "Telephone encounter (procedure)"
        } ]
      } ],
      "subject": {
        "reference": "Patient/17be91ec-117d-4767-8271-f0403f0c8f84"
      },
      "period": {
        "start": "2026-01-02T01:00:00.000+00:00",
        "end": "2026-01-02T01:15:00.000+00:00"
      }
    }
  }, {
    "fullUrl": "https://madie.cms.gov/Condition/2a006638-41a1-4ae2-9af7-72fef37ce447",
    "resource": {
      "resourceType": "Condition",
      "id": "2a006638-41a1-4ae2-9af7-72fef37ce447",
      "meta": {
        "profile": [ "http://hl7.org/fhir/us/qicore/StructureDefinition/qicore-condition-problems-health-concerns" ]
      },
      "clinicalStatus": {
        "coding": [ {
          "system": "http://terminology.hl7.org/CodeSystem/condition-clinical",
          "code": "active"
        } ]
      },
      "category": [ {
        "coding": [ {
          "system": "http://terminology.hl7.org/CodeSystem/condition-category",
          "code": "problem-list-item",
          "display": "Problem List Item"
        } ]
      } ],
      "code": {
        "coding": [ {
          "system": "http://snomed.info/sct",
          "version": "http://snomed.info/sct/731000124108/version/20250301",
          "code": "10091002",
          "display": "High output heart failure (disorder)"
        } ]
      },
      "subject": {
        "reference": "Patient/17be91ec-117d-4767-8271-f0403f0c8f84"
      },
      "onsetDateTime": "2025-12-31T23:59:00.000+00:00"
    }
  }, {
    "fullUrl": "https://madie.cms.gov/Observation/35e234dc-b8fe-477b-b18a-664f3d203fde",
    "resource": {
      "resourceType": "Observation",
      "id": "35e234dc-b8fe-477b-b18a-664f3d203fde",
      "meta": {
        "profile": [ "http://hl7.org/fhir/us/qicore/StructureDefinition/qicore-observation-screening-assessment" ]
      },
      "status": "final",
      "category": [ {
        "coding": [ {
          "system": "http://terminology.hl7.org/CodeSystem/observation-category",
          "code": "survey",
          "display": "survey"
        } ],
        "text": "survey"
      } ],
      "code": {
        "coding": [ {
          "system": "http://loinc.org",
          "code": "71955-9",
          "display": "PROMIS-29 Sleep disturbance score T-score"
        } ]
      },
      "subject": {
        "reference": "Patient/17be91ec-117d-4767-8271-f0403f0c8f84"
      },
      "effectivePeriod": {
        "start": "2026-01-01T23:00:00.000+00:00",
        "end": "2026-01-01T23:59:00.000+00:00"
      },
      "valueInteger": 1
    }
  }, {
    "fullUrl": "https://madie.cms.gov/Observation/620ca1c0-a213-440a-bfb2-33e0be1230db",
    "resource": {
      "resourceType": "Observation",
      "id": "620ca1c0-a213-440a-bfb2-33e0be1230db",
      "meta": {
        "profile": [ "http://hl7.org/fhir/us/qicore/StructureDefinition/qicore-observation-screening-assessment" ]
      },
      "status": "final",
      "category": [ {
        "coding": [ {
          "system": "http://terminology.hl7.org/CodeSystem/observation-category",
          "code": "survey",
          "display": "survey"
        } ],
        "text": "survey"
      } ],
      "code": {
        "coding": [ {
          "system": "http://loinc.org",
          "code": "71957-5",
          "display": "PROMIS-29 Satisfaction with participation in social roles score T-score"
        } ]
      },
      "subject": {
        "reference": "Patient/17be91ec-117d-4767-8271-f0403f0c8f84"
      },
      "effectivePeriod": {
        "start": "2026-01-01T23:00:00.000+00:00",
        "end": "2026-01-01T23:59:00.000+00:00"
      },
      "valueInteger": 2
    }
  }, {
    "fullUrl": "https://madie.cms.gov/Observation/b6752fd5-4853-4344-be54-efdd3053dc3d",
    "resource": {
      "resourceType": "Observation",
      "id": "b6752fd5-4853-4344-be54-efdd3053dc3d",
      "meta": {
        "profile": [ "http://hl7.org/fhir/us/qicore/StructureDefinition/qicore-observation-screening-assessment" ]
      },
      "status": "final",
      "category": [ {
        "coding": [ {
          "system": "http://terminology.hl7.org/CodeSystem/observation-category",
          "code": "survey",
          "display": "survey"
        } ],
        "text": "survey"
      } ],
      "code": {
        "coding": [ {
          "system": "http://loinc.org",
          "code": "71955-9",
          "display": "PROMIS-29 Sleep disturbance score T-score"
        } ]
      },
      "subject": {
        "reference": "Patient/17be91ec-117d-4767-8271-f0403f0c8f84"
      },
      "effectivePeriod": {
        "start": "2026-01-31T23:00:00.000+00:00",
        "end": "2026-01-31T23:59:00.000+00:00"
      },
      "valueInteger": 3
    }
  }, {
    "fullUrl": "https://madie.cms.gov/Observation/d06f4856-420f-484c-868b-6f6e75e47500",
    "resource": {
      "resourceType": "Observation",
      "id": "d06f4856-420f-484c-868b-6f6e75e47500",
      "meta": {
        "profile": [ "http://hl7.org/fhir/us/qicore/StructureDefinition/qicore-observation-screening-assessment" ]
      },
      "status": "final",
      "category": [ {
        "coding": [ {
          "system": "http://terminology.hl7.org/CodeSystem/observation-category",
          "code": "survey",
          "display": "survey"
        } ],
        "text": "survey"
      } ],
      "code": {
        "coding": [ {
          "system": "http://loinc.org",
          "code": "71957-5",
          "display": "PROMIS-29 Satisfaction with participation in social roles score T-score"
        } ]
      },
      "subject": {
        "reference": "Patient/17be91ec-117d-4767-8271-f0403f0c8f84"
      },
      "effectivePeriod": {
        "start": "2026-01-31T23:00:00.000+00:00",
        "end": "2026-01-31T23:59:00.000+00:00"
      },
      "valueInteger": 4
    }
  }, {
    "fullUrl": "https://madie.cms.gov/Observation/4e11af0c-130d-4b0e-932e-8020d833599a",
    "resource": {
      "resourceType": "Observation",
      "id": "4e11af0c-130d-4b0e-932e-8020d833599a",
      "meta": {
        "profile": [ "http://hl7.org/fhir/us/qicore/StructureDefinition/qicore-observation-screening-assessment" ]
      },
      "status": "final",
      "category": [ {
        "coding": [ {
          "system": "http://terminology.hl7.org/CodeSystem/observation-category",
          "code": "survey",
          "display": "survey"
        } ],
        "text": "survey"
      } ],
      "code": {
        "coding": [ {
          "system": "http://loinc.org",
          "code": "71959-1",
          "display": "PROMIS-29 Physical function score T-score"
        } ]
      },
      "subject": {
        "reference": "Patient/17be91ec-117d-4767-8271-f0403f0c8f84"
      },
      "effectivePeriod": {
        "start": "2026-01-01T23:00:00.000+00:00",
        "end": "2026-01-01T23:59:00.000+00:00"
      },
      "valueInteger": 4
    }
  }, {
    "fullUrl": "https://madie.cms.gov/Observation/3b9f7af6-04cb-428e-9f02-24496bf6ebf1",
    "resource": {
      "resourceType": "Observation",
      "id": "3b9f7af6-04cb-428e-9f02-24496bf6ebf1",
      "meta": {
        "profile": [ "http://hl7.org/fhir/us/qicore/StructureDefinition/qicore-observation-screening-assessment" ]
      },
      "status": "final",
      "category": [ {
        "coding": [ {
          "system": "http://terminology.hl7.org/CodeSystem/observation-category",
          "code": "survey",
          "display": "survey"
        } ],
        "text": "survey"
      } ],
      "code": {
        "coding": [ {
          "system": "http://loinc.org",
          "code": "71959-1",
          "display": "PROMIS-29 Physical function score T-score"
        } ]
      },
      "subject": {
        "reference": "Patient/17be91ec-117d-4767-8271-f0403f0c8f84"
      },
      "effectivePeriod": {
        "start": "2026-01-31T23:00:00.000+00:00",
        "end": "2026-01-31T23:59:00.000+00:00"
      },
      "valueInteger": 4
    }
  }, {
    "fullUrl": "https://madie.cms.gov/Observation/73704bd3-32a1-4132-948e-a6b2c6691ef6",
    "resource": {
      "resourceType": "Observation",
      "id": "73704bd3-32a1-4132-948e-a6b2c6691ef6",
      "meta": {
        "profile": [ "http://hl7.org/fhir/us/qicore/StructureDefinition/qicore-observation-screening-assessment" ]
      },
      "status": "final",
      "category": [ {
        "coding": [ {
          "system": "http://terminology.hl7.org/CodeSystem/observation-category",
          "code": "survey",
          "display": "survey"
        } ],
        "text": "survey"
      } ],
      "code": {
        "coding": [ {
          "system": "http://loinc.org",
          "code": "71961-7",
          "display": "PROMIS-29 Pain interference score T-score"
        } ]
      },
      "subject": {
        "reference": "Patient/17be91ec-117d-4767-8271-f0403f0c8f84"
      },
      "effectivePeriod": {
        "start": "2026-01-01T23:00:00.000+00:00",
        "end": "2026-01-01T23:59:00.000+00:00"
      },
      "valueInteger": 4
    }
  }, {
    "fullUrl": "https://madie.cms.gov/Observation/fc51c4a8-7963-4b6b-bd6d-d7926203f04e",
    "resource": {
      "resourceType": "Observation",
      "id": "fc51c4a8-7963-4b6b-bd6d-d7926203f04e",
      "meta": {
        "profile": [ "http://hl7.org/fhir/us/qicore/StructureDefinition/qicore-observation-screening-assessment" ]
      },
      "status": "final",
      "category": [ {
        "coding": [ {
          "system": "http://terminology.hl7.org/CodeSystem/observation-category",
          "code": "survey",
          "display": "survey"
        } ],
        "text": "survey"
      } ],
      "code": {
        "coding": [ {
          "system": "http://loinc.org",
          "code": "71961-7",
          "display": "PROMIS-29 Pain interference score T-score"
        } ]
      },
      "subject": {
        "reference": "Patient/17be91ec-117d-4767-8271-f0403f0c8f84"
      },
      "effectivePeriod": {
        "start": "2026-01-31T23:00:00.000+00:00",
        "end": "2026-01-31T23:59:00.000+00:00"
      },
      "valueInteger": 4
    }
  }, {
    "fullUrl": "https://madie.cms.gov/Observation/4c9ea944-710a-418d-b5f0-f2e14916c3d0",
    "resource": {
      "resourceType": "Observation",
      "id": "4c9ea944-710a-418d-b5f0-f2e14916c3d0",
      "meta": {
        "profile": [ "http://hl7.org/fhir/us/qicore/StructureDefinition/qicore-observation-screening-assessment" ]
      },
      "status": "final",
      "category": [ {
        "coding": [ {
          "system": "http://terminology.hl7.org/CodeSystem/observation-category",
          "code": "survey",
          "display": "survey"
        } ],
        "text": "survey"
      } ],
      "code": {
        "coding": [ {
          "system": "http://loinc.org",
          "code": "71963-3",
          "display": "PROMIS-29 Fatigue score T-score"
        } ]
      },
      "subject": {
        "reference": "Patient/17be91ec-117d-4767-8271-f0403f0c8f84"
      },
      "effectivePeriod": {
        "start": "2026-01-01T23:00:00.000+00:00",
        "end": "2026-01-01T23:59:00.000+00:00"
      },
      "valueInteger": 4
    }
  }, {
    "fullUrl": "https://madie.cms.gov/Observation/7c90a49b-b9af-4895-ac4d-47598e6ce65b",
    "resource": {
      "resourceType": "Observation",
      "id": "7c90a49b-b9af-4895-ac4d-47598e6ce65b",
      "meta": {
        "profile": [ "http://hl7.org/fhir/us/qicore/StructureDefinition/qicore-observation-screening-assessment" ]
      },
      "status": "final",
      "category": [ {
        "coding": [ {
          "system": "http://terminology.hl7.org/CodeSystem/observation-category",
          "code": "survey",
          "display": "survey"
        } ],
        "text": "survey"
      } ],
      "code": {
        "coding": [ {
          "system": "http://loinc.org",
          "code": "71963-3",
          "display": "PROMIS-29 Fatigue score T-score"
        } ]
      },
      "subject": {
        "reference": "Patient/17be91ec-117d-4767-8271-f0403f0c8f84"
      },
      "effectivePeriod": {
        "start": "2026-01-31T23:00:00.000+00:00",
        "end": "2026-01-31T23:59:00.000+00:00"
      },
      "valueInteger": 4
    }
  }, {
    "fullUrl": "https://madie.cms.gov/Observation/8e78eacc-4408-4d21-9ec2-698477cf6a93",
    "resource": {
      "resourceType": "Observation",
      "id": "8e78eacc-4408-4d21-9ec2-698477cf6a93",
      "meta": {
        "profile": [ "http://hl7.org/fhir/us/qicore/StructureDefinition/qicore-observation-screening-assessment" ]
      },
      "status": "final",
      "category": [ {
        "coding": [ {
          "system": "http://terminology.hl7.org/CodeSystem/observation-category",
          "code": "survey",
          "display": "survey"
        } ],
        "text": "survey"
      } ],
      "code": {
        "coding": [ {
          "system": "http://loinc.org",
          "code": "71965-8",
          "display": "PROMIS-29 Depression score T-score"
        } ]
      },
      "subject": {
        "reference": "Patient/17be91ec-117d-4767-8271-f0403f0c8f84"
      },
      "effectivePeriod": {
        "start": "2026-01-01T23:00:00.000+00:00",
        "end": "2026-01-01T23:59:00.000+00:00"
      },
      "valueInteger": 4
    }
  }, {
    "fullUrl": "https://madie.cms.gov/Observation/470ca3bc-bd6e-496b-aaf3-d2b8b76c9b8e",
    "resource": {
      "resourceType": "Observation",
      "id": "470ca3bc-bd6e-496b-aaf3-d2b8b76c9b8e",
      "meta": {
        "profile": [ "http://hl7.org/fhir/us/qicore/StructureDefinition/qicore-observation-screening-assessment" ]
      },
      "status": "final",
      "category": [ {
        "coding": [ {
          "system": "http://terminology.hl7.org/CodeSystem/observation-category",
          "code": "survey",
          "display": "survey"
        } ],
        "text": "survey"
      } ],
      "code": {
        "coding": [ {
          "system": "http://loinc.org",
          "code": "71965-8",
          "display": "PROMIS-29 Depression score T-score"
        } ]
      },
      "subject": {
        "reference": "Patient/17be91ec-117d-4767-8271-f0403f0c8f84"
      },
      "effectivePeriod": {
        "start": "2026-01-31T23:00:00.000+00:00",
        "end": "2026-01-31T23:59:00.000+00:00"
      },
      "valueInteger": 4
    }
  }, {
    "fullUrl": "https://madie.cms.gov/Observation/e9edc4db-682b-47ff-b659-43e05347ba72",
    "resource": {
      "resourceType": "Observation",
      "id": "e9edc4db-682b-47ff-b659-43e05347ba72",
      "meta": {
        "profile": [ "http://hl7.org/fhir/us/qicore/StructureDefinition/qicore-observation-screening-assessment" ]
      },
      "status": "final",
      "category": [ {
        "coding": [ {
          "system": "http://terminology.hl7.org/CodeSystem/observation-category",
          "code": "survey",
          "display": "survey"
        } ],
        "text": "survey"
      } ],
      "code": {
        "coding": [ {
          "system": "http://loinc.org",
          "code": "71967-4",
          "display": "PROMIS-29 Anxiety score T-score"
        } ]
      },
      "subject": {
        "reference": "Patient/17be91ec-117d-4767-8271-f0403f0c8f84"
      },
      "effectivePeriod": {
        "start": "2026-01-01T23:00:00.000+00:00",
        "end": "2026-01-01T23:59:00.000+00:00"
      },
      "valueInteger": 4
    }
  }, {
    "fullUrl": "https://madie.cms.gov/Observation/b391c60b-a01c-400f-a2bd-60c6ed9c3d76",
    "resource": {
      "resourceType": "Observation",
      "id": "b391c60b-a01c-400f-a2bd-60c6ed9c3d76",
      "meta": {
        "profile": [ "http://hl7.org/fhir/us/qicore/StructureDefinition/qicore-observation-screening-assessment" ]
      },
      "status": "final",
      "category": [ {
        "coding": [ {
          "system": "http://terminology.hl7.org/CodeSystem/observation-category",
          "code": "survey",
          "display": "survey"
        } ],
        "text": "survey"
      } ],
      "code": {
        "coding": [ {
          "system": "http://loinc.org",
          "code": "71967-4",
          "display": "PROMIS-29 Anxiety score T-score"
        } ]
      },
      "subject": {
        "reference": "Patient/17be91ec-117d-4767-8271-f0403f0c8f84"
      },
      "effectivePeriod": {
        "start": "2026-01-31T23:00:00.000+00:00",
        "end": "2026-01-31T23:59:00.000+00:00"
      },
      "valueInteger": 4
    }
  }, {
    "fullUrl": "https://madie.cms.gov/MeasureReport/f7225aad-ad72-49af-bcc0-3e859881a1fd",
    "resource": {
      "resourceType": "MeasureReport",
      "id": "f7225aad-ad72-49af-bcc0-3e859881a1fd",
      "meta": {
        "profile": [ "http://hl7.org/fhir/us/cqfmeasures/StructureDefinition/test-case-cqfm" ]
      },
      "contained": [ {
        "resourceType": "Parameters",
        "id": "8f30253d-3944-4ab8-a728-f790b0be205d-parameters",
        "parameter": [ {
          "name": "subject",
          "valueString": "17be91ec-117d-4767-8271-f0403f0c8f84"
        } ]
      } ],
      "extension": [ {
        "url": "http://hl7.org/fhir/StructureDefinition/cqf-inputParameters",
        "valueReference": {
          "reference": "#8f30253d-3944-4ab8-a728-f790b0be205d-parameters"
        }
      }, {
        "url": "http://hl7.org/fhir/us/cqfmeasures/StructureDefinition/cqfm-testCaseDescription",
        "valueMarkdown": "Patient has all PROMIS29 results during the correct timeframe."
      } ],
      "modifierExtension": [ {
        "url": "http://hl7.org/fhir/us/cqfmeasures/StructureDefinition/cqfm-isTestCase",
        "valueBoolean": true
      } ],
      "status": "complete",
      "type": "individual",
      "measure": "https://madie.cms.gov/Measure/CMS90FHIRFSAforHeartFailure",
      "period": {
        "start": "2026-01-01",
        "end": "2026-12-31"
      },
      "group": [ {
        "id": "Group_1",
        "population": [ {
          "id": "InitialPopulation_1",
          "code": {
            "coding": [ {
              "system": "http://terminology.hl7.org/CodeSystem/measure-population",
              "code": "initial-population",
              "display": "Initial Population"
            } ]
          },
          "count": 1
        }, {
          "id": "Denominator_1",
          "code": {
            "coding": [ {
              "system": "http://terminology.hl7.org/CodeSystem/measure-population",
              "code": "denominator",
              "display": "Denominator"
            } ]
          },
          "count": 1
        }, {
          "id": "DenominatorExclusion_1",
          "code": {
            "coding": [ {
              "system": "http://terminology.hl7.org/CodeSystem/measure-population",
              "code": "denominator-exclusion",
              "display": "Denominator Exclusion"
            } ]
          },
          "count": 0
        }, {
          "id": "Numerator_1",
          "code": {
            "coding": [ {
              "system": "http://terminology.hl7.org/CodeSystem/measure-population",
              "code": "numerator",
              "display": "Numerator"
            } ]
          },
          "count": 1
        } ],
        "measureScore": {
          "value": 1.0
        }
      } ],
      "evaluatedResource": [ {
        "reference": "Patient/17be91ec-117d-4767-8271-f0403f0c8f84"
      }, {
        "reference": "Encounter/c4e37ed4-8609-4972-9e8b-b2c77fd89966"
      }, {
        "reference": "Encounter/5da142e3-615f-48ec-b53d-a9bd15c35d07"
      }, {
        "reference": "Condition/2a006638-41a1-4ae2-9af7-72fef37ce447"
      }, {
        "reference": "Observation/35e234dc-b8fe-477b-b18a-664f3d203fde"
      }, {
        "reference": "Observation/620ca1c0-a213-440a-bfb2-33e0be1230db"
      }, {
        "reference": "Observation/b6752fd5-4853-4344-be54-efdd3053dc3d"
      }, {
        "reference": "Observation/d06f4856-420f-484c-868b-6f6e75e47500"
      }, {
        "reference": "Observation/4e11af0c-130d-4b0e-932e-8020d833599a"
      }, {
        "reference": "Observation/3b9f7af6-04cb-428e-9f02-24496bf6ebf1"
      }, {
        "reference": "Observation/73704bd3-32a1-4132-948e-a6b2c6691ef6"
      }, {
        "reference": "Observation/fc51c4a8-7963-4b6b-bd6d-d7926203f04e"
      }, {
        "reference": "Observation/4c9ea944-710a-418d-b5f0-f2e14916c3d0"
      }, {
        "reference": "Observation/7c90a49b-b9af-4895-ac4d-47598e6ce65b"
      }, {
        "reference": "Observation/8e78eacc-4408-4d21-9ec2-698477cf6a93"
      }, {
        "reference": "Observation/470ca3bc-bd6e-496b-aaf3-d2b8b76c9b8e"
      }, {
        "reference": "Observation/e9edc4db-682b-47ff-b659-43e05347ba72"
      }, {
        "reference": "Observation/b391c60b-a01c-400f-a2bd-60c6ed9c3d76"
      } ]
    }
  } ]
}