{
  "resourceType": "Bundle",
  "id": "DENOMPass-RVEpilepsyDxPOA",
  "type": "transaction",
  "entry": [ {
    "fullUrl": "https://madie.cms.gov/Claim/bb5447b1-0e67-40e1-a25d-cfefd1d6241d",
    "resource": {
      "resourceType": "Claim",
      "id": "bb5447b1-0e67-40e1-a25d-cfefd1d6241d",
      "meta": {
        "profile": [ "http://hl7.org/fhir/us/qicore/StructureDefinition/qicore-claim" ]
      },
      "status": "active",
      "type": {
        "coding": [ {
          "system": "http://terminology.hl7.org/CodeSystem/claim-type",
          "code": "professional",
          "display": "Professional"
        } ]
      },
      "use": "claim",
      "patient": {
        "reference": "Patient/1ac96e3e-856c-417a-9c68-0df860ce73c8"
      },
      "created": "2026-12-12",
      "provider": {
        "reference": "Practitioner/978c9435-985e-49da-b50a-84c21d2ed8a0"
      },
      "priority": {
        "coding": [ {
          "system": "http://terminology.hl7.org/CodeSystem/processpriority",
          "code": "normal"
        } ]
      },
      "diagnosis": [ {
        "sequence": 1,
        "diagnosisCodeableConcept": {
          "coding": [ {
            "system": "http://hl7.org/fhir/sid/icd-10-cm",
            "code": "G40.001"
          } ]
        },
        "onAdmission": {
          "coding": [ {
            "system": "https://www.cms.gov/Medicare/Medicare-Fee-for-Service-Payment/HospitalAcqCond/Coding",
            "code": "Y"
          } ]
        }
      } ],
      "insurance": [ {
        "sequence": 1,
        "focal": true,
        "coverage": {
          "reference": "Coverage/aa5c028c-e602-4fb7-a092-3d6b405040df"
        }
      } ],
      "item": [ {
        "sequence": 1,
        "diagnosisSequence": [ 1, 2 ],
        "productOrService": {
          "coding": [ {
            "system": "http://terminology.hl7.org/CodeSystem/ex-USCLS",
            "code": "1101"
          } ]
        },
        "encounter": [ {
          "reference": "Encounter/c47281ac-f5fc-430e-9873-aa1aa8d6d32e"
        } ]
      } ]
    },
    "request": {
      "method": "PUT",
      "url": "Claim/bb5447b1-0e67-40e1-a25d-cfefd1d6241d"
    }
  }, {
    "fullUrl": "https://madie.cms.gov/Patient/1ac96e3e-856c-417a-9c68-0df860ce73c8",
    "resource": {
      "resourceType": "Patient",
      "id": "1ac96e3e-856c-417a-9c68-0df860ce73c8",
      "meta": {
        "profile": [ "http://hl7.org/fhir/us/qicore/StructureDefinition/qicore-patient" ]
      },
      "extension": [ {
        "url": "http://hl7.org/fhir/us/core/StructureDefinition/us-core-race",
        "extension": [ {
          "url": "ombCategory",
          "valueCoding": {
            "system": "urn:oid:2.16.840.1.113883.6.238",
            "code": "1002-5",
            "display": "American Indian or Alaska Native",
            "userSelected": true
          }
        }, {
          "url": "text",
          "valueString": "American Indian or Alaska Native"
        } ]
      }, {
        "url": "http://hl7.org/fhir/us/core/StructureDefinition/us-core-ethnicity",
        "extension": [ {
          "url": "ombCategory",
          "valueCoding": {
            "system": "urn:oid:2.16.840.1.113883.6.238",
            "code": "2135-2",
            "display": "Hispanic or Latino",
            "userSelected": true
          }
        }, {
          "url": "text",
          "valueString": "Hispanic or Latino"
        } ]
      } ],
      "identifier": [ {
        "type": {
          "coding": [ {
            "system": "http://terminology.hl7.org/CodeSystem/v2-0203",
            "code": "MR"
          } ]
        },
        "system": "https://bonnie-fhir.healthit.gov/",
        "value": "61152a3b98086b7a79cbd7c1"
      } ],
      "active": true,
      "name": [ {
        "use": "usual",
        "family": "DENOMPass",
        "given": [ "RVDeliriumDxPOA" ]
      } ],
      "gender": "female",
      "birthDate": "1964-12-11"
    },
    "request": {
      "method": "PUT",
      "url": "Patient/1ac96e3e-856c-417a-9c68-0df860ce73c8"
    }
  }, {
    "fullUrl": "https://madie.cms.gov/Encounter/c47281ac-f5fc-430e-9873-aa1aa8d6d32e",
    "resource": {
      "resourceType": "Encounter",
      "id": "c47281ac-f5fc-430e-9873-aa1aa8d6d32e",
      "meta": {
        "profile": [ "http://hl7.org/fhir/us/qicore/StructureDefinition/qicore-encounter" ]
      },
      "status": "finished",
      "class": {
        "system": "http://terminology.hl7.org/CodeSystem/v3-ActCode",
        "code": "IMP",
        "display": "inpatient encounter"
      },
      "type": [ {
        "coding": [ {
          "system": "http://snomed.info/sct",
          "code": "183452005",
          "display": "Emergency hospital admission"
        } ]
      } ],
      "subject": {
        "reference": "Patient/1ac96e3e-856c-417a-9c68-0df860ce73c8"
      },
      "period": {
        "start": "2026-11-12T08:00:00.000+00:00",
        "end": "2026-11-18T08:01:00.000+00:00"
      },
      "length": {
        "value": 6,
        "unit": "days"
      }
    },
    "request": {
      "method": "PUT",
      "url": "Encounter/c47281ac-f5fc-430e-9873-aa1aa8d6d32e"
    }
  }, {
    "fullUrl": "https://madie.cms.gov/Practitioner/978c9435-985e-49da-b50a-84c21d2ed8a0",
    "resource": {
      "resourceType": "Practitioner",
      "id": "978c9435-985e-49da-b50a-84c21d2ed8a0",
      "identifier": [ {
        "system": "http://www.cms.gov/identifiers/pracitioners",
        "value": "P12345"
      } ],
      "name": [ {
        "use": "official",
        "family": "Smith",
        "given": [ "John" ]
      } ],
      "qualification": [ {
        "identifier": [ {
          "system": "http://hl7.org/fhir/sid/us-npi",
          "value": "1234567890"
        } ],
        "code": {
          "coding": [ {
            "system": "http://terminology.hl7.org/CodeSystem/v2-0203",
            "code": "MD",
            "display": "Medical License number"
          } ]
        }
      } ]
    },
    "request": {
      "method": "PUT",
      "url": "Practitioner/978c9435-985e-49da-b50a-84c21d2ed8a0"
    }
  }, {
    "fullUrl": "https://madie.cms.gov/Coverage/aa5c028c-e602-4fb7-a092-3d6b405040df",
    "resource": {
      "resourceType": "Coverage",
      "id": "aa5c028c-e602-4fb7-a092-3d6b405040df",
      "status": "active",
      "beneficiary": {
        "reference": "Patient/1ac96e3e-856c-417a-9c68-0df860ce73c8"
      },
      "payor": [ {
        "reference": "Organization/e9ecd095-51f9-44bd-b34f-2ca861ddab30"
      } ]
    },
    "request": {
      "method": "PUT",
      "url": "Coverage/aa5c028c-e602-4fb7-a092-3d6b405040df"
    }
  }, {
    "fullUrl": "https://madie.cms.gov/Organization/e9ecd095-51f9-44bd-b34f-2ca861ddab30",
    "resource": {
      "resourceType": "Organization",
      "id": "e9ecd095-51f9-44bd-b34f-2ca861ddab30",
      "identifier": [ {
        "system": "http://cms.gov/insurance-ids",
        "value": "AET12345"
      } ],
      "type": [ {
        "coding": [ {
          "system": "http://terminology.hl7.org/CodeSystem/organization-type",
          "code": "prov",
          "display": "Healthcare Provider"
        } ]
      } ],
      "name": "Aetna Insurance",
      "telecom": [ {
        "system": "phone",
        "value": "+1-800-123-4567"
      } ],
      "address": [ {
        "line": [ "123 Main Street" ],
        "city": "Cityville",
        "state": "CA",
        "postalCode": "12345",
        "country": "USA"
      } ]
    },
    "request": {
      "method": "PUT",
      "url": "Organization/e9ecd095-51f9-44bd-b34f-2ca861ddab30"
    }
  }, {
    "fullUrl": "https://madie.cms.gov/MeasureReport/cdca174a-a8d1-4caf-b711-732355c746e9",
    "resource": {
      "resourceType": "MeasureReport",
      "id": "cdca174a-a8d1-4caf-b711-732355c746e9",
      "meta": {
        "profile": [ "http://hl7.org/fhir/us/cqfmeasures/StructureDefinition/test-case-cqfm" ]
      },
      "contained": [ {
        "resourceType": "Parameters",
        "id": "3ce63733-c195-472d-b78c-b7a4ea1540be-parameters",
        "parameter": [ {
          "name": "subject",
          "valueString": "1ac96e3e-856c-417a-9c68-0df860ce73c8"
        } ]
      } ],
      "extension": [ {
        "url": "http://hl7.org/fhir/StructureDefinition/cqf-inputParameters",
        "valueReference": {
          "reference": "#3ce63733-c195-472d-b78c-b7a4ea1540be-parameters"
        }
      }, {
        "url": "http://hl7.org/fhir/us/cqfmeasures/StructureDefinition/cqfm-testCaseDescription",
        "valueMarkdown": "Encounter with Epilepsy Present dx POA = Y. Meets RV"
      } ],
      "modifierExtension": [ {
        "url": "http://hl7.org/fhir/us/cqfmeasures/StructureDefinition/cqfm-isTestCase",
        "valueBoolean": true
      } ],
      "status": "complete",
      "type": "individual",
      "measure": "https://madie.cms.gov/Measure/CMS1017FHIRHHFI",
      "period": {
        "start": "2026-01-01",
        "end": "2026-12-31"
      },
      "group": [ {
        "id": "Group_1",
        "population": [ {
          "id": "InitialPopulation_1",
          "code": {
            "coding": [ {
              "system": "http://terminology.hl7.org/CodeSystem/measure-population",
              "code": "initial-population",
              "display": "Initial Population"
            } ]
          },
          "count": 1
        }, {
          "id": "Denominator_1",
          "code": {
            "coding": [ {
              "system": "http://terminology.hl7.org/CodeSystem/measure-population",
              "code": "denominator",
              "display": "Denominator"
            } ]
          },
          "count": 1
        }, {
          "id": "DenominatorExclusion_1",
          "code": {
            "coding": [ {
              "system": "http://terminology.hl7.org/CodeSystem/measure-population",
              "code": "denominator-exclusion",
              "display": "Denominator Exclusion"
            } ]
          },
          "count": 0
        }, {
          "id": "Numerator_1",
          "code": {
            "coding": [ {
              "system": "http://terminology.hl7.org/CodeSystem/measure-population",
              "code": "numerator",
              "display": "Numerator"
            } ]
          },
          "count": 0
        }, {
          "id": "NumeratorExclusion_1",
          "code": {
            "coding": [ {
              "system": "http://terminology.hl7.org/CodeSystem/measure-population",
              "code": "numerator-exclusion",
              "display": "Numerator Exclusion"
            } ]
          },
          "count": 0
        }, {
          "id": "MeasureObservation_1_1_1",
          "code": {
            "coding": [ {
              "system": "http://terminology.hl7.org/CodeSystem/measure-population",
              "code": "measure-observation",
              "display": "Measure Observation"
            } ]
          },
          "count": 6
        } ],
        "measureScore": {
          "value": 0.0
        }
      } ],
      "evaluatedResource": [ {
        "reference": "Claim/bb5447b1-0e67-40e1-a25d-cfefd1d6241d"
      }, {
        "reference": "Patient/1ac96e3e-856c-417a-9c68-0df860ce73c8"
      }, {
        "reference": "Encounter/c47281ac-f5fc-430e-9873-aa1aa8d6d32e"
      }, {
        "reference": "Practitioner/978c9435-985e-49da-b50a-84c21d2ed8a0"
      }, {
        "reference": "Coverage/aa5c028c-e602-4fb7-a092-3d6b405040df"
      }, {
        "reference": "Organization/e9ecd095-51f9-44bd-b34f-2ca861ddab30"
      } ]
    },
    "request": {
      "method": "PUT",
      "url": "MeasureReport/cdca174a-a8d1-4caf-b711-732355c746e9"
    }
  } ]
}