{
  "resourceType": "Bundle",
  "id": "6491c6728187991eac996937",
  "type": "collection",
  "entry": [ {
    "fullUrl": "https://madie.cms.gov/Patient/ba27b68f-b183-4b1e-8ba4-7b3b895f9607",
    "resource": {
      "resourceType": "Patient",
      "id": "ba27b68f-b183-4b1e-8ba4-7b3b895f9607",
      "meta": {
        "profile": [ "http://hl7.org/fhir/us/qicore/StructureDefinition/qicore-patient" ]
      },
      "extension": [ {
        "url": "http://hl7.org/fhir/us/core/StructureDefinition/us-core-race",
        "extension": [ {
          "url": "ombCategory",
          "valueCoding": {
            "system": "urn:oid:2.16.840.1.113883.6.238",
            "code": "2054-5",
            "display": "Black or African American",
            "userSelected": true
          }
        }, {
          "url": "text",
          "valueString": "Black or African American"
        } ]
      }, {
        "url": "http://hl7.org/fhir/us/core/StructureDefinition/us-core-ethnicity",
        "extension": [ {
          "url": "ombCategory",
          "valueCoding": {
            "system": "urn:oid:2.16.840.1.113883.6.238",
            "code": "2135-2",
            "display": "Hispanic or Latino",
            "userSelected": true
          }
        }, {
          "url": "text",
          "valueString": "Hispanic or Latino"
        } ]
      } ],
      "identifier": [ {
        "type": {
          "coding": [ {
            "system": "http://terminology.hl7.org/CodeSystem/v2-0203",
            "code": "MR"
          } ]
        },
        "system": "https://bonnie-fhir.healthit.gov/",
        "value": "6491c6728187991eac996937"
      } ],
      "name": [ {
        "family": "4NumFail",
        "given": [ "EncInMPVLafterEncDuringMP" ]
      } ],
      "gender": "male",
      "birthDate": "1990-09-29"
    }
  }, {
    "fullUrl": "https://madie.cms.gov/Condition/4e06325e-9a60-40af-b6f6-09580a12c932",
    "resource": {
      "resourceType": "Condition",
      "id": "4e06325e-9a60-40af-b6f6-09580a12c932",
      "meta": {
        "profile": [ "http://hl7.org/fhir/us/qicore/StructureDefinition/qicore-condition-problems-health-concerns" ]
      },
      "clinicalStatus": {
        "coding": [ {
          "system": "http://terminology.hl7.org/CodeSystem/condition-clinical",
          "code": "active",
          "display": "active",
          "userSelected": true
        } ]
      },
      "category": [ {
        "coding": [ {
          "system": "http://terminology.hl7.org/CodeSystem/condition-category",
          "code": "problem-list-item",
          "display": "Problem List Item"
        } ]
      } ],
      "code": {
        "coding": [ {
          "system": "http://hl7.org/fhir/sid/icd-9-cm",
          "version": "2013",
          "code": "042",
          "display": "Human immunodeficiency virus [HIV] disease",
          "userSelected": true
        }, {
          "system": "http://snomed.info/sct",
          "version": "http://snomed.info/sct/731000124108/version/20250301",
          "code": "165816005",
          "userSelected": true
        } ]
      },
      "subject": {
        "reference": "Patient/ba27b68f-b183-4b1e-8ba4-7b3b895f9607"
      },
      "onsetDateTime": "2000-05-20T01:00:00.000+00:00",
      "recordedDate": "2000-05-20T08:00:00.000+00:00"
    }
  }, {
    "fullUrl": "https://madie.cms.gov/Encounter/0367378a-e346-4f59-bff1-6620394f15a9",
    "resource": {
      "resourceType": "Encounter",
      "id": "0367378a-e346-4f59-bff1-6620394f15a9",
      "meta": {
        "profile": [ "http://hl7.org/fhir/us/qicore/StructureDefinition/qicore-encounter" ]
      },
      "status": "finished",
      "class": {
        "system": "http://terminology.hl7.org/CodeSystem/v3-ActCode",
        "code": "AMB",
        "display": "ambulatory"
      },
      "type": [ {
        "coding": [ {
          "system": "http://snomed.info/sct",
          "version": "2022-09",
          "code": "281036007",
          "display": "Follow-up consultation (procedure)",
          "userSelected": true
        } ]
      } ],
      "subject": {
        "reference": "Patient/ba27b68f-b183-4b1e-8ba4-7b3b895f9607"
      },
      "period": {
        "start": "2026-05-19T08:00:00.000+00:00",
        "end": "2026-05-19T08:55:00.000+00:00"
      }
    }
  }, {
    "fullUrl": "https://madie.cms.gov/Observation/9bce9e9c-40bd-4d2f-84f4-ef0854841156",
    "resource": {
      "resourceType": "Observation",
      "id": "9bce9e9c-40bd-4d2f-84f4-ef0854841156",
      "meta": {
        "profile": [ "http://hl7.org/fhir/us/qicore/StructureDefinition/qicore-observation-lab" ]
      },
      "status": "final",
      "category": [ {
        "coding": [ {
          "system": "http://terminology.hl7.org/CodeSystem/observation-category",
          "code": "laboratory",
          "display": "Laboratory"
        } ],
        "text": "Laboratory"
      }, {
        "coding": [ {
          "system": "http://terminology.hl7.org/CodeSystem/observation-category",
          "code": "survey"
        } ]
      } ],
      "code": {
        "coding": [ {
          "system": "http://loinc.org",
          "version": "2.73",
          "code": "10351-5",
          "display": "HIV 1 RNA [Units/volume] (viral load) in Serum or Plasma by Probe with amplification",
          "userSelected": true
        } ]
      },
      "subject": {
        "reference": "Patient/ba27b68f-b183-4b1e-8ba4-7b3b895f9607"
      },
      "effectiveDateTime": "2026-04-30T08:00:00.000+00:00",
      "dataAbsentReason": {
        "coding": [ {
          "system": "http://terminology.hl7.org/CodeSystem/data-absent-reason",
          "code": "unknown",
          "display": "Unknown"
        } ]
      }
    }
  }, {
    "fullUrl": "https://madie.cms.gov/Coverage/a4fa6395-6c3e-4ece-8b62-b2fe9bcd9c17",
    "resource": {
      "resourceType": "Coverage",
      "id": "a4fa6395-6c3e-4ece-8b62-b2fe9bcd9c17",
      "meta": {
        "profile": [ "http://hl7.org/fhir/us/qicore/StructureDefinition/qicore-coverage" ]
      },
      "status": "active",
      "subscriberId": "123456",
      "beneficiary": {
        "reference": "Patient/ba27b68f-b183-4b1e-8ba4-7b3b895f9607"
      },
      "relationship": {
        "coding": [ {
          "system": "http://terminology.hl7.org/CodeSystem/subscriber-relationship",
          "code": "self",
          "display": "Self"
        } ]
      },
      "payor": [ {
        "reference": "Organization/31b09cb8-efd1-47b9-af58-e18b3952fb62"
      } ]
    }
  }, {
    "fullUrl": "https://madie.cms.gov/Organization/31b09cb8-efd1-47b9-af58-e18b3952fb62",
    "resource": {
      "resourceType": "Organization",
      "id": "31b09cb8-efd1-47b9-af58-e18b3952fb62",
      "meta": {
        "profile": [ "http://hl7.org/fhir/us/qicore/StructureDefinition/qicore-organization" ]
      },
      "identifier": [ {
        "use": "temp",
        "system": "urn:oid:2.16.840.1.113883.4.4",
        "value": "21-3259825"
      } ],
      "active": true,
      "type": [ {
        "coding": [ {
          "system": "http://terminology.hl7.org/CodeSystem/organization-type",
          "code": "pay",
          "display": "Payer"
        } ]
      } ],
      "name": "Blue Cross Blue Shield of Texas",
      "telecom": [ {
        "system": "phone",
        "value": "(+1) 972-766-6900"
      } ],
      "address": [ {
        "use": "billing",
        "type": "postal",
        "line": [ "P.O. Box 660044" ],
        "city": "Dallas",
        "state": "TX",
        "postalCode": "75266-0044",
        "country": "USA"
      } ]
    }
  }, {
    "fullUrl": "https://madie.cms.gov/Practitioner/c105b84b-ebbd-4fee-9e34-36c4ea860370",
    "resource": {
      "resourceType": "Practitioner",
      "id": "c105b84b-ebbd-4fee-9e34-36c4ea860370",
      "meta": {
        "profile": [ "http://hl7.org/fhir/us/qicore/StructureDefinition/qicore-practitioner" ]
      },
      "identifier": [ {
        "system": "http://hl7.org/fhir/sid/us-npi",
        "value": "1689411712"
      } ],
      "name": [ {
        "family": "Evil",
        "prefix": [ "Dr" ]
      } ]
    }
  }, {
    "fullUrl": "https://madie.cms.gov/MeasureReport/aefcd5f1-16bf-4e54-8919-48cc0e6aa778",
    "resource": {
      "resourceType": "MeasureReport",
      "id": "aefcd5f1-16bf-4e54-8919-48cc0e6aa778",
      "meta": {
        "profile": [ "http://hl7.org/fhir/us/cqfmeasures/StructureDefinition/test-case-cqfm" ]
      },
      "contained": [ {
        "resourceType": "Parameters",
        "id": "4ba1769b-5191-4ef4-b484-75f189dd4011-parameters",
        "parameter": [ {
          "name": "subject",
          "valueString": "ba27b68f-b183-4b1e-8ba4-7b3b895f9607"
        } ]
      } ],
      "extension": [ {
        "url": "http://hl7.org/fhir/StructureDefinition/cqf-inputParameters",
        "valueReference": {
          "reference": "#4ba1769b-5191-4ef4-b484-75f189dd4011-parameters"
        }
      }, {
        "url": "http://hl7.org/fhir/us/cqfmeasures/StructureDefinition/cqfm-testCaseDescription",
        "valueMarkdown": "Patient has an encounter during the first 240 days of the MP and a VL test on 4/30 (not more than 90 days after Enc)"
      } ],
      "modifierExtension": [ {
        "url": "http://hl7.org/fhir/us/cqfmeasures/StructureDefinition/cqfm-isTestCase",
        "valueBoolean": true
      } ],
      "status": "complete",
      "type": "individual",
      "measure": "https://madie.cms.gov/Measure/CMS1157FHIRHIVRetention",
      "period": {
        "start": "2026-01-01",
        "end": "2026-12-31"
      },
      "group": [ {
        "id": "Group_1",
        "population": [ {
          "id": "InitialPopulation_1",
          "code": {
            "coding": [ {
              "system": "http://terminology.hl7.org/CodeSystem/measure-population",
              "code": "initial-population",
              "display": "Initial Population"
            } ]
          },
          "count": 1
        }, {
          "id": "Denominator_1",
          "code": {
            "coding": [ {
              "system": "http://terminology.hl7.org/CodeSystem/measure-population",
              "code": "denominator",
              "display": "Denominator"
            } ]
          },
          "count": 1
        }, {
          "id": "Numerator_1",
          "code": {
            "coding": [ {
              "system": "http://terminology.hl7.org/CodeSystem/measure-population",
              "code": "numerator",
              "display": "Numerator"
            } ]
          },
          "count": 0
        } ],
        "measureScore": {
          "value": 1.0
        }
      } ],
      "evaluatedResource": [ {
        "reference": "Patient/ba27b68f-b183-4b1e-8ba4-7b3b895f9607"
      }, {
        "reference": "Condition/4e06325e-9a60-40af-b6f6-09580a12c932"
      }, {
        "reference": "Encounter/0367378a-e346-4f59-bff1-6620394f15a9"
      }, {
        "reference": "Observation/9bce9e9c-40bd-4d2f-84f4-ef0854841156"
      }, {
        "reference": "Coverage/a4fa6395-6c3e-4ece-8b62-b2fe9bcd9c17"
      }, {
        "reference": "Organization/31b09cb8-efd1-47b9-af58-e18b3952fb62"
      }, {
        "reference": "Practitioner/c105b84b-ebbd-4fee-9e34-36c4ea860370"
      } ]
    }
  } ]
}