{
  "resourceType": "Bundle",
  "id": "612e6ef002c62a011f2f018b",
  "type": "transaction",
  "entry": [ {
    "fullUrl": "https://madie.cms.gov/Patient/b9c40fdd-af88-483a-b987-a00753c70eb9",
    "resource": {
      "resourceType": "Patient",
      "id": "b9c40fdd-af88-483a-b987-a00753c70eb9",
      "meta": {
        "profile": [ "http://hl7.org/fhir/us/qicore/StructureDefinition/qicore-patient" ]
      },
      "text": {
        "status": "generated",
        "div": "<div xmlns=\"http://www.w3.org/1999/xhtml\"><div class=\"hapiHeaderText\">RiskAssessDuringED <b>NUMERPASS </b></div><table class=\"hapiPropertyTable\"><tbody><tr><td>Identifier</td><td>a3219b39ecf0f23fe4e7afd2937b490a</td></tr><tr><td>Date of birth</td><td><span>03 March 1974</span></td></tr></tbody></table></div>"
      },
      "extension": [ {
        "url": "http://hl7.org/fhir/us/core/StructureDefinition/us-core-race",
        "extension": [ {
          "url": "ombCategory",
          "valueCoding": {
            "system": "urn:oid:2.16.840.1.113883.6.238",
            "code": "1002-5",
            "display": "American Indian or Alaska Native",
            "userSelected": true
          }
        }, {
          "url": "text",
          "valueString": "American Indian or Alaska Native"
        } ]
      }, {
        "url": "http://hl7.org/fhir/us/core/StructureDefinition/us-core-ethnicity",
        "extension": [ {
          "url": "ombCategory",
          "valueCoding": {
            "system": "urn:oid:2.16.840.1.113883.6.238",
            "code": "2135-2",
            "display": "Hispanic or Latino",
            "userSelected": true
          }
        }, {
          "url": "text",
          "valueString": "Hispanic or Latino"
        } ]
      } ],
      "identifier": [ {
        "type": {
          "coding": [ {
            "system": "http://terminology.hl7.org/CodeSystem/v2-0203",
            "code": "MR"
          } ]
        },
        "system": "https://bonnie-fhir.healthit.gov/",
        "value": "612e6ef002c62a011f2f018b"
      } ],
      "active": true,
      "name": [ {
        "use": "usual",
        "family": "NUMERPass",
        "given": [ "RiskAssessDuringED" ]
      } ],
      "gender": "female",
      "birthDate": "1975-03-03"
    },
    "request": {
      "method": "PUT",
      "url": "Patient/b9c40fdd-af88-483a-b987-a00753c70eb9"
    }
  }, {
    "fullUrl": "https://madie.cms.gov/Encounter/83226f1f-2c83-47c1-81be-7c5a5f5a6598",
    "resource": {
      "resourceType": "Encounter",
      "id": "83226f1f-2c83-47c1-81be-7c5a5f5a6598",
      "meta": {
        "profile": [ "http://hl7.org/fhir/us/qicore/StructureDefinition/qicore-encounter" ]
      },
      "status": "finished",
      "class": {
        "system": "http://terminology.hl7.org/CodeSystem/v3-ActCode",
        "code": "EMER",
        "display": "emergency"
      },
      "type": [ {
        "coding": [ {
          "system": "http://snomed.info/sct",
          "code": "4525004"
        } ]
      } ],
      "subject": {
        "reference": "Patient/b9c40fdd-af88-483a-b987-a00753c70eb9"
      },
      "period": {
        "start": "2026-12-06T02:00:00.000+00:00",
        "end": "2026-12-06T08:15:00.000+00:00"
      },
      "length": {
        "value": 0,
        "unit": "days"
      }
    },
    "request": {
      "method": "PUT",
      "url": "Encounter/83226f1f-2c83-47c1-81be-7c5a5f5a6598"
    }
  }, {
    "fullUrl": "https://madie.cms.gov/Encounter/1de2f1b2-fabc-439f-8f4d-f47565a639e3",
    "resource": {
      "resourceType": "Encounter",
      "id": "1de2f1b2-fabc-439f-8f4d-f47565a639e3",
      "meta": {
        "profile": [ "http://hl7.org/fhir/us/qicore/StructureDefinition/qicore-encounter" ]
      },
      "status": "finished",
      "class": {
        "system": "http://terminology.hl7.org/CodeSystem/v3-ActCode",
        "code": "IMP",
        "display": "inpatient encounter"
      },
      "type": [ {
        "coding": [ {
          "system": "http://snomed.info/sct",
          "code": "8715000"
        } ]
      } ],
      "subject": {
        "reference": "Patient/b9c40fdd-af88-483a-b987-a00753c70eb9"
      },
      "period": {
        "start": "2026-12-06T08:45:00.000+00:00",
        "end": "2026-12-30T08:15:00.000+00:00"
      },
      "length": {
        "value": 24,
        "unit": "days"
      },
      "location": [ {
        "location": {
          "reference": "Location/d62995dc-caf1-4c96-9335-012007d6a831"
        },
        "period": {
          "start": "2026-12-06T09:00:00.000+00:00",
          "end": "2026-12-12T08:15:00.000+00:00"
        }
      } ]
    },
    "request": {
      "method": "PUT",
      "url": "Encounter/1de2f1b2-fabc-439f-8f4d-f47565a639e3"
    }
  }, {
    "fullUrl": "https://madie.cms.gov/Observation/109692de-92ed-4a5b-b937-9b61c9917753",
    "resource": {
      "resourceType": "Observation",
      "id": "109692de-92ed-4a5b-b937-9b61c9917753",
      "meta": {
        "profile": [ "http://hl7.org/fhir/us/qicore/StructureDefinition/qicore-simple-observation" ]
      },
      "status": "final",
      "category": [ {
        "coding": [ {
          "system": "http://terminology.hl7.org/CodeSystem/observation-category",
          "code": "exam",
          "display": "exam"
        } ]
      } ],
      "code": {
        "coding": [ {
          "system": "http://loinc.org",
          "code": "72136-5"
        } ]
      },
      "subject": {
        "reference": "Patient/b9c40fdd-af88-483a-b987-a00753c70eb9"
      },
      "effectiveDateTime": "2026-12-06T06:30:00.000+00:00",
      "valueCodeableConcept": {
        "coding": [ {
          "system": "http://snomed.info/sct",
          "code": "260362008",
          "display": "Low Risk"
        } ]
      }
    },
    "request": {
      "method": "PUT",
      "url": "Observation/109692de-92ed-4a5b-b937-9b61c9917753"
    }
  }, {
    "fullUrl": "https://madie.cms.gov/Coverage/35c16ac2-f99f-40a6-8e6e-8d279ae9be4e",
    "resource": {
      "resourceType": "Coverage",
      "id": "35c16ac2-f99f-40a6-8e6e-8d279ae9be4e",
      "status": "active",
      "beneficiary": {
        "reference": "Patient/b9c40fdd-af88-483a-b987-a00753c70eb9"
      },
      "period": {
        "start": "1975-03-03T08:00:00.000+00:00"
      },
      "payor": [ {
        "reference": "Organization/28cf8efc-81fa-4199-83fc-bd6ebe938dde"
      } ]
    },
    "request": {
      "method": "PUT",
      "url": "Coverage/35c16ac2-f99f-40a6-8e6e-8d279ae9be4e"
    }
  }, {
    "fullUrl": "https://madie.cms.gov/Location/d62995dc-caf1-4c96-9335-012007d6a831",
    "resource": {
      "resourceType": "Location",
      "id": "d62995dc-caf1-4c96-9335-012007d6a831",
      "meta": {
        "profile": [ "http://hl7.org/fhir/us/qicore/StructureDefinition/qicore-location" ]
      },
      "identifier": [ {
        "use": "usual",
        "system": "http://exampleoflocation.com",
        "value": "B1-S.F2"
      } ],
      "name": "Medical Surgical East, first floor",
      "type": [ {
        "coding": [ {
          "system": "https://www.cdc.gov/nhsn/cdaportal/terminology/codesystem/hsloc.html",
          "code": "1025-6",
          "display": "Trauma Critical Care",
          "userSelected": true
        } ]
      } ]
    },
    "request": {
      "method": "PUT",
      "url": "Location/d62995dc-caf1-4c96-9335-012007d6a831"
    }
  }, {
    "fullUrl": "https://madie.cms.gov/Organization/28cf8efc-81fa-4199-83fc-bd6ebe938dde",
    "resource": {
      "resourceType": "Organization",
      "id": "28cf8efc-81fa-4199-83fc-bd6ebe938dde",
      "meta": {
        "profile": [ "http://hl7.org/fhir/us/qicore/StructureDefinition/qicore-organization" ]
      },
      "identifier": [ {
        "use": "temp",
        "system": "urn:oid:2.16.840.1.113883.4.4",
        "value": "21-3259825"
      } ],
      "active": true,
      "type": [ {
        "coding": [ {
          "system": "http://terminology.hl7.org/CodeSystem/organization-type",
          "code": "pay",
          "display": "Payer"
        } ]
      } ],
      "name": "Blue Cross Blue Shield of Texas",
      "telecom": [ {
        "system": "phone",
        "value": "(+1) 972-766-6900"
      } ],
      "address": [ {
        "use": "billing",
        "type": "postal",
        "line": [ "P.O. Box 660044" ],
        "city": "Dallas",
        "state": "TX",
        "postalCode": "75266-0044",
        "country": "USA"
      } ]
    },
    "request": {
      "method": "PUT",
      "url": "Organization/28cf8efc-81fa-4199-83fc-bd6ebe938dde"
    }
  }, {
    "fullUrl": "https://madie.cms.gov/Practitioner/2ce0ae52-07cd-4caa-a52f-c640b13b7143",
    "resource": {
      "resourceType": "Practitioner",
      "id": "2ce0ae52-07cd-4caa-a52f-c640b13b7143",
      "identifier": [ {
        "system": "http://hl7.org/fhir/sid/us-npi",
        "value": "123456"
      } ],
      "name": [ {
        "family": "Evil",
        "prefix": [ "Dr" ]
      } ]
    },
    "request": {
      "method": "PUT",
      "url": "Practitioner/2ce0ae52-07cd-4caa-a52f-c640b13b7143"
    }
  }, {
    "fullUrl": "https://madie.cms.gov/MeasureReport/cded6f1d-54cf-4c66-a2a8-684a056c18c3",
    "resource": {
      "resourceType": "MeasureReport",
      "id": "cded6f1d-54cf-4c66-a2a8-684a056c18c3",
      "meta": {
        "profile": [ "http://hl7.org/fhir/us/cqfmeasures/StructureDefinition/test-case-cqfm" ]
      },
      "contained": [ {
        "resourceType": "Parameters",
        "id": "4e70b946-3c78-421a-80b6-bbe408fcee1d-parameters",
        "parameter": [ {
          "name": "subject",
          "valueString": "b9c40fdd-af88-483a-b987-a00753c70eb9"
        } ]
      } ],
      "extension": [ {
        "url": "http://hl7.org/fhir/StructureDefinition/cqf-inputParameters",
        "valueReference": {
          "reference": "#4e70b946-3c78-421a-80b6-bbe408fcee1d-parameters"
        }
      }, {
        "url": "http://hl7.org/fhir/us/cqfmeasures/StructureDefinition/cqfm-testCaseDescription",
        "valueMarkdown": "meets IPP, meets Denominator, RCA VTErisk during ED, ED endTime less than 1 hour before Start of ICU\n"
      } ],
      "modifierExtension": [ {
        "url": "http://hl7.org/fhir/us/cqfmeasures/StructureDefinition/cqfm-isTestCase",
        "valueBoolean": true
      } ],
      "status": "complete",
      "type": "individual",
      "measure": "https://madie.cms.gov/Measure/CMS190FHIRVTEProphylaxisICU",
      "period": {
        "start": "2026-01-01",
        "end": "2026-12-31"
      },
      "group": [ {
        "id": "Group_1",
        "population": [ {
          "id": "InitialPopulation_1",
          "code": {
            "coding": [ {
              "system": "http://terminology.hl7.org/CodeSystem/measure-population",
              "code": "initial-population",
              "display": "Initial Population"
            } ]
          },
          "count": 1
        }, {
          "id": "Denominator_1",
          "code": {
            "coding": [ {
              "system": "http://terminology.hl7.org/CodeSystem/measure-population",
              "code": "denominator",
              "display": "Denominator"
            } ]
          },
          "count": 1
        }, {
          "id": "DenominatorExclusion_1",
          "code": {
            "coding": [ {
              "system": "http://terminology.hl7.org/CodeSystem/measure-population",
              "code": "denominator-exclusion",
              "display": "Denominator Exclusion"
            } ]
          },
          "count": 0
        }, {
          "id": "Numerator_1",
          "code": {
            "coding": [ {
              "system": "http://terminology.hl7.org/CodeSystem/measure-population",
              "code": "numerator",
              "display": "Numerator"
            } ]
          },
          "count": 1
        }, {
          "id": "DenominatorException_1",
          "code": {
            "coding": [ {
              "system": "http://terminology.hl7.org/CodeSystem/measure-population",
              "code": "denominator-exception",
              "display": "Denominator Exception"
            } ]
          },
          "count": 0
        } ],
        "measureScore": {
          "value": 0.0
        }
      } ],
      "evaluatedResource": [ {
        "reference": "Patient/b9c40fdd-af88-483a-b987-a00753c70eb9"
      }, {
        "reference": "Encounter/83226f1f-2c83-47c1-81be-7c5a5f5a6598"
      }, {
        "reference": "Encounter/1de2f1b2-fabc-439f-8f4d-f47565a639e3"
      }, {
        "reference": "Observation/109692de-92ed-4a5b-b937-9b61c9917753"
      }, {
        "reference": "Coverage/35c16ac2-f99f-40a6-8e6e-8d279ae9be4e"
      }, {
        "reference": "Location/d62995dc-caf1-4c96-9335-012007d6a831"
      }, {
        "reference": "Organization/28cf8efc-81fa-4199-83fc-bd6ebe938dde"
      }, {
        "reference": "Practitioner/2ce0ae52-07cd-4caa-a52f-c640b13b7143"
      } ]
    },
    "request": {
      "method": "PUT",
      "url": "MeasureReport/cded6f1d-54cf-4c66-a2a8-684a056c18c3"
    }
  } ]
}