{
  "resourceType": "Bundle",
  "id": "NUMERPass-AllVaccinesAsProcedures2-Hib4-LAIV-RV3",
  "type": "transaction",
  "entry": [ {
    "fullUrl": "https://madie.cms.gov/Patient/15067a1f-bfa9-4dbc-b622-b2da823bea79",
    "resource": {
      "resourceType": "Patient",
      "id": "15067a1f-bfa9-4dbc-b622-b2da823bea79",
      "meta": {
        "profile": [ "http://hl7.org/fhir/us/qicore/StructureDefinition/qicore-patient" ]
      },
      "extension": [ {
        "url": "http://hl7.org/fhir/us/core/StructureDefinition/us-core-race",
        "extension": [ {
          "url": "ombCategory",
          "valueCoding": {
            "system": "urn:oid:2.16.840.1.113883.6.238",
            "code": "2028-9",
            "display": "Asian",
            "userSelected": true
          }
        }, {
          "url": "text",
          "valueString": "Asian"
        } ]
      }, {
        "url": "http://hl7.org/fhir/us/core/StructureDefinition/us-core-ethnicity",
        "extension": [ {
          "url": "ombCategory",
          "valueCoding": {
            "system": "urn:oid:2.16.840.1.113883.6.238",
            "code": "2135-2",
            "display": "Hispanic or Latino",
            "userSelected": true
          }
        }, {
          "url": "text",
          "valueString": "Hispanic or Latino"
        } ]
      } ],
      "identifier": [ {
        "type": {
          "coding": [ {
            "system": "http://terminology.hl7.org/CodeSystem/v2-0203",
            "code": "MR"
          } ]
        },
        "system": "http://hospital.smarthealthit.org",
        "value": "999999995"
      } ],
      "name": [ {
        "family": "Bertha",
        "given": [ "Betty" ]
      } ],
      "gender": "female",
      "birthDate": "2024-01-01"
    },
    "request": {
      "method": "PUT",
      "url": "Patient/15067a1f-bfa9-4dbc-b622-b2da823bea79"
    }
  }, {
    "fullUrl": "https://madie.cms.gov/Encounter/e1d213f3-01ae-4c0e-8db6-f824ab61e7f1",
    "resource": {
      "resourceType": "Encounter",
      "id": "e1d213f3-01ae-4c0e-8db6-f824ab61e7f1",
      "meta": {
        "profile": [ "http://hl7.org/fhir/us/qicore/StructureDefinition/qicore-encounter" ]
      },
      "status": "finished",
      "class": {
        "system": "http://terminology.hl7.org/CodeSystem/v3-ActCode",
        "code": "AMB",
        "display": "ambulatory"
      },
      "type": [ {
        "coding": [ {
          "system": "http://snomed.info/sct",
          "code": "185317003",
          "display": "Telephone encounter (procedure)"
        } ]
      } ],
      "subject": {
        "reference": "Patient/15067a1f-bfa9-4dbc-b622-b2da823bea79"
      },
      "period": {
        "start": "2026-01-01T01:00:00.000+00:00",
        "end": "2026-01-01T01:15:00.000+00:00"
      }
    },
    "request": {
      "method": "PUT",
      "url": "Encounter/e1d213f3-01ae-4c0e-8db6-f824ab61e7f1"
    }
  }, {
    "fullUrl": "https://madie.cms.gov/Immunization/93a3189b-fc0b-48c5-a385-3ee224ab290a",
    "resource": {
      "resourceType": "Immunization",
      "id": "93a3189b-fc0b-48c5-a385-3ee224ab290a",
      "meta": {
        "profile": [ "http://hl7.org/fhir/us/qicore/StructureDefinition/qicore-immunization" ]
      },
      "status": "completed",
      "vaccineCode": {
        "coding": [ {
          "system": "http://hl7.org/fhir/sid/cvx",
          "code": "146",
          "display": "DTaP,IPV,Hib,HepB"
        } ]
      },
      "patient": {
        "reference": "Patient/15067a1f-bfa9-4dbc-b622-b2da823bea79"
      },
      "occurrenceDateTime": "2025-01-02T00:00:00.000+00:00",
      "recorded": "2025-01-02T00:00:00.000+00:00",
      "primarySource": true
    },
    "request": {
      "method": "PUT",
      "url": "Immunization/93a3189b-fc0b-48c5-a385-3ee224ab290a"
    }
  }, {
    "fullUrl": "https://madie.cms.gov/Immunization/9d90b6d4-96d6-4ddd-8143-7dc83a4f46f4",
    "resource": {
      "resourceType": "Immunization",
      "id": "9d90b6d4-96d6-4ddd-8143-7dc83a4f46f4",
      "meta": {
        "profile": [ "http://hl7.org/fhir/us/qicore/StructureDefinition/qicore-immunization" ]
      },
      "status": "completed",
      "vaccineCode": {
        "coding": [ {
          "system": "http://hl7.org/fhir/sid/cvx",
          "code": "146",
          "display": "DTaP,IPV,Hib,HepB"
        } ]
      },
      "patient": {
        "reference": "Patient/15067a1f-bfa9-4dbc-b622-b2da823bea79"
      },
      "occurrenceDateTime": "2025-01-05T00:00:00.000+00:00",
      "recorded": "2025-01-02T00:00:00.000+00:00",
      "primarySource": true
    },
    "request": {
      "method": "PUT",
      "url": "Immunization/9d90b6d4-96d6-4ddd-8143-7dc83a4f46f4"
    }
  }, {
    "fullUrl": "https://madie.cms.gov/Immunization/3d5fd9de-5646-430d-a0da-03e55fd97cb6",
    "resource": {
      "resourceType": "Immunization",
      "id": "3d5fd9de-5646-430d-a0da-03e55fd97cb6",
      "meta": {
        "profile": [ "http://hl7.org/fhir/us/qicore/StructureDefinition/qicore-immunization" ]
      },
      "status": "completed",
      "vaccineCode": {
        "coding": [ {
          "system": "http://hl7.org/fhir/sid/cvx",
          "code": "146",
          "display": "DTaP,IPV,Hib,HepB"
        } ]
      },
      "patient": {
        "reference": "Patient/15067a1f-bfa9-4dbc-b622-b2da823bea79"
      },
      "occurrenceDateTime": "2025-01-07T00:00:00.000+00:00",
      "recorded": "2025-01-02T00:00:00.000+00:00",
      "primarySource": true
    },
    "request": {
      "method": "PUT",
      "url": "Immunization/3d5fd9de-5646-430d-a0da-03e55fd97cb6"
    }
  }, {
    "fullUrl": "https://madie.cms.gov/Procedure/9c1d1ced-e2e9-4137-a133-b28c7b8f02cf",
    "resource": {
      "resourceType": "Procedure",
      "id": "9c1d1ced-e2e9-4137-a133-b28c7b8f02cf",
      "meta": {
        "profile": [ "http://hl7.org/fhir/us/qicore/StructureDefinition/qicore-procedure" ]
      },
      "extension": [ {
        "url": "http://hl7.org/fhir/us/qicore/StructureDefinition/qicore-recorded",
        "valueDateTime": "2025-01-02T00:00:00.000+00:00"
      } ],
      "status": "completed",
      "code": {
        "coding": [ {
          "system": "http://www.ama-assn.org/go/cpt",
          "code": "90700",
          "display": "Diphtheria, tetanus toxoids, and acellular pertussis vaccine (DTaP), when administered to individuals younger than 7 years, for intramuscular use"
        } ]
      },
      "subject": {
        "reference": "Patient/15067a1f-bfa9-4dbc-b622-b2da823bea79"
      },
      "performedPeriod": {
        "start": "2025-01-02T00:00:00.000+00:00",
        "end": "2025-01-02T23:59:59.000+00:00"
      }
    },
    "request": {
      "method": "PUT",
      "url": "Procedure/9c1d1ced-e2e9-4137-a133-b28c7b8f02cf"
    }
  }, {
    "fullUrl": "https://madie.cms.gov/Immunization/f1b638e9-de7f-424c-87ed-c775cb11cfc8",
    "resource": {
      "resourceType": "Immunization",
      "id": "f1b638e9-de7f-424c-87ed-c775cb11cfc8",
      "meta": {
        "profile": [ "http://hl7.org/fhir/us/qicore/StructureDefinition/qicore-immunization" ]
      },
      "status": "completed",
      "vaccineCode": {
        "coding": [ {
          "system": "http://hl7.org/fhir/sid/cvx",
          "code": "146",
          "display": "DTaP,IPV,Hib,HepB"
        } ]
      },
      "patient": {
        "reference": "Patient/15067a1f-bfa9-4dbc-b622-b2da823bea79"
      },
      "occurrenceDateTime": "2025-01-02T00:00:00.000+00:00",
      "recorded": "2025-01-02T00:00:00.000+00:00",
      "primarySource": true
    },
    "request": {
      "method": "PUT",
      "url": "Immunization/f1b638e9-de7f-424c-87ed-c775cb11cfc8"
    }
  }, {
    "fullUrl": "https://madie.cms.gov/Immunization/4640ef18-d6f9-4aa8-b998-7bb8ce7cb000",
    "resource": {
      "resourceType": "Immunization",
      "id": "4640ef18-d6f9-4aa8-b998-7bb8ce7cb000",
      "meta": {
        "profile": [ "http://hl7.org/fhir/us/qicore/StructureDefinition/qicore-immunization" ]
      },
      "status": "completed",
      "vaccineCode": {
        "coding": [ {
          "system": "http://hl7.org/fhir/sid/cvx",
          "code": "146",
          "display": "DTaP,IPV,Hib,HepB"
        } ]
      },
      "patient": {
        "reference": "Patient/15067a1f-bfa9-4dbc-b622-b2da823bea79"
      },
      "occurrenceDateTime": "2025-01-06T00:00:00.000+00:00",
      "recorded": "2025-01-02T00:00:00.000+00:00",
      "primarySource": true
    },
    "request": {
      "method": "PUT",
      "url": "Immunization/4640ef18-d6f9-4aa8-b998-7bb8ce7cb000"
    }
  }, {
    "fullUrl": "https://madie.cms.gov/Procedure/d6fe617b-2bb0-4171-a9f9-6ef3801efe4d",
    "resource": {
      "resourceType": "Procedure",
      "id": "d6fe617b-2bb0-4171-a9f9-6ef3801efe4d",
      "meta": {
        "profile": [ "http://hl7.org/fhir/us/qicore/StructureDefinition/qicore-procedure" ]
      },
      "extension": [ {
        "url": "http://hl7.org/fhir/us/qicore/StructureDefinition/qicore-recorded",
        "valueDateTime": "2025-01-02T00:00:00.000+00:00"
      } ],
      "status": "completed",
      "code": {
        "coding": [ {
          "system": "http://www.ama-assn.org/go/cpt",
          "code": "90713",
          "display": "Poliovirus vaccine, inactivated (IPV), for subcutaneous or intramuscular use"
        } ]
      },
      "subject": {
        "reference": "Patient/15067a1f-bfa9-4dbc-b622-b2da823bea79"
      },
      "performedPeriod": {
        "start": "2025-01-02T00:00:00.000+00:00",
        "end": "2025-01-02T23:59:59.000+00:00"
      }
    },
    "request": {
      "method": "PUT",
      "url": "Procedure/d6fe617b-2bb0-4171-a9f9-6ef3801efe4d"
    }
  }, {
    "fullUrl": "https://madie.cms.gov/Procedure/005fbea9-a6f4-437f-a876-61ceb02aba72",
    "resource": {
      "resourceType": "Procedure",
      "id": "005fbea9-a6f4-437f-a876-61ceb02aba72",
      "meta": {
        "profile": [ "http://hl7.org/fhir/us/qicore/StructureDefinition/qicore-procedure" ]
      },
      "extension": [ {
        "url": "http://hl7.org/fhir/us/qicore/StructureDefinition/qicore-recorded",
        "valueDateTime": "2025-01-02T00:00:00.000+00:00"
      } ],
      "status": "completed",
      "code": {
        "coding": [ {
          "system": "http://www.ama-assn.org/go/cpt",
          "code": "90710",
          "display": "Measles, mumps, rubella, and varicella vaccine (MMRV), live, for subcutaneous use"
        } ]
      },
      "subject": {
        "reference": "Patient/15067a1f-bfa9-4dbc-b622-b2da823bea79"
      },
      "performedPeriod": {
        "start": "2025-01-02T00:00:00.000+00:00",
        "end": "2025-01-02T23:59:59.000+00:00"
      }
    },
    "request": {
      "method": "PUT",
      "url": "Procedure/005fbea9-a6f4-437f-a876-61ceb02aba72"
    }
  }, {
    "fullUrl": "https://madie.cms.gov/Immunization/0765e2ae-88c5-468c-9e00-bca87f8f9704",
    "resource": {
      "resourceType": "Immunization",
      "id": "0765e2ae-88c5-468c-9e00-bca87f8f9704",
      "meta": {
        "profile": [ "http://hl7.org/fhir/us/qicore/StructureDefinition/qicore-immunization" ]
      },
      "status": "completed",
      "vaccineCode": {
        "coding": [ {
          "system": "http://hl7.org/fhir/sid/cvx",
          "code": "49",
          "display": "Haemophilus influenzae type b vaccine, PRP-OMP conjugate"
        } ]
      },
      "patient": {
        "reference": "Patient/15067a1f-bfa9-4dbc-b622-b2da823bea79"
      },
      "occurrenceDateTime": "2025-01-02T00:00:00.000+00:00",
      "recorded": "2025-01-02T00:00:00.000+00:00",
      "primarySource": true
    },
    "request": {
      "method": "PUT",
      "url": "Immunization/0765e2ae-88c5-468c-9e00-bca87f8f9704"
    }
  }, {
    "fullUrl": "https://madie.cms.gov/Immunization/31c64d84-7090-4bca-a50a-95e3ef83a3e9",
    "resource": {
      "resourceType": "Immunization",
      "id": "31c64d84-7090-4bca-a50a-95e3ef83a3e9",
      "meta": {
        "profile": [ "http://hl7.org/fhir/us/qicore/StructureDefinition/qicore-immunization" ]
      },
      "status": "completed",
      "vaccineCode": {
        "coding": [ {
          "system": "http://hl7.org/fhir/sid/cvx",
          "code": "49",
          "display": "Haemophilus influenzae type b vaccine, PRP-OMP conjugate"
        } ]
      },
      "patient": {
        "reference": "Patient/15067a1f-bfa9-4dbc-b622-b2da823bea79"
      },
      "occurrenceDateTime": "2025-01-02T00:00:00.000+00:00",
      "recorded": "2025-01-02T00:00:00.000+00:00",
      "primarySource": true
    },
    "request": {
      "method": "PUT",
      "url": "Immunization/31c64d84-7090-4bca-a50a-95e3ef83a3e9"
    }
  }, {
    "fullUrl": "https://madie.cms.gov/Procedure/42bcb828-e305-47f0-a12c-0f799fb73750",
    "resource": {
      "resourceType": "Procedure",
      "id": "42bcb828-e305-47f0-a12c-0f799fb73750",
      "meta": {
        "profile": [ "http://hl7.org/fhir/us/qicore/StructureDefinition/qicore-procedure" ]
      },
      "extension": [ {
        "url": "http://hl7.org/fhir/us/qicore/StructureDefinition/qicore-recorded",
        "valueDateTime": "2025-01-02T00:00:00.000+00:00"
      } ],
      "status": "completed",
      "code": {
        "coding": [ {
          "system": "http://www.ama-assn.org/go/cpt",
          "code": "90697",
          "display": "Diphtheria, tetanus toxoids, acellular pertussis vaccine, inactivated poliovirus vaccine, Haemophilus influenzae type b PRP-OMP conjugate vaccine, and hepatitis B vaccine (DTaP-IPV-Hib-HepB), for intramuscular use"
        } ]
      },
      "subject": {
        "reference": "Patient/15067a1f-bfa9-4dbc-b622-b2da823bea79"
      },
      "performedPeriod": {
        "start": "2025-01-02T00:00:00.000+00:00",
        "end": "2025-01-02T23:59:59.000+00:00"
      }
    },
    "request": {
      "method": "PUT",
      "url": "Procedure/42bcb828-e305-47f0-a12c-0f799fb73750"
    }
  }, {
    "fullUrl": "https://madie.cms.gov/Procedure/cc49b262-3746-4bd6-b679-c68230af5c5d",
    "resource": {
      "resourceType": "Procedure",
      "id": "cc49b262-3746-4bd6-b679-c68230af5c5d",
      "meta": {
        "profile": [ "http://hl7.org/fhir/us/qicore/StructureDefinition/qicore-procedure" ]
      },
      "extension": [ {
        "url": "http://hl7.org/fhir/us/qicore/StructureDefinition/qicore-recorded",
        "valueDateTime": "2025-01-02T00:00:00.000+00:00"
      } ],
      "status": "completed",
      "code": {
        "coding": [ {
          "system": "http://www.ama-assn.org/go/cpt",
          "code": "90648",
          "display": "Haemophilus influenzae type b vaccine (Hib), PRP-T conjugate, 4 dose schedule, for intramuscular use"
        } ]
      },
      "subject": {
        "reference": "Patient/15067a1f-bfa9-4dbc-b622-b2da823bea79"
      },
      "performedPeriod": {
        "start": "2025-01-02T00:00:00.000+00:00",
        "end": "2025-01-02T23:59:59.000+00:00"
      }
    },
    "request": {
      "method": "PUT",
      "url": "Procedure/cc49b262-3746-4bd6-b679-c68230af5c5d"
    }
  }, {
    "fullUrl": "https://madie.cms.gov/Immunization/e351a2cd-4ca7-4279-9c6d-68179de597f4",
    "resource": {
      "resourceType": "Immunization",
      "id": "e351a2cd-4ca7-4279-9c6d-68179de597f4",
      "meta": {
        "profile": [ "http://hl7.org/fhir/us/qicore/StructureDefinition/qicore-immunization" ]
      },
      "status": "completed",
      "vaccineCode": {
        "coding": [ {
          "system": "http://hl7.org/fhir/sid/cvx",
          "code": "51",
          "display": "Haemophilus influenzae type b conjugate and Hepatitis B vaccine"
        } ]
      },
      "patient": {
        "reference": "Patient/15067a1f-bfa9-4dbc-b622-b2da823bea79"
      },
      "occurrenceDateTime": "2025-01-02T00:00:00.000+00:00",
      "recorded": "2025-01-02T00:00:00.000+00:00",
      "primarySource": true
    },
    "request": {
      "method": "PUT",
      "url": "Immunization/e351a2cd-4ca7-4279-9c6d-68179de597f4"
    }
  }, {
    "fullUrl": "https://madie.cms.gov/Immunization/c91fb2e7-9a64-478d-af79-0683d89a5024",
    "resource": {
      "resourceType": "Immunization",
      "id": "c91fb2e7-9a64-478d-af79-0683d89a5024",
      "meta": {
        "profile": [ "http://hl7.org/fhir/us/qicore/StructureDefinition/qicore-immunization" ]
      },
      "status": "completed",
      "vaccineCode": {
        "coding": [ {
          "system": "http://hl7.org/fhir/sid/cvx",
          "code": "51",
          "display": "Haemophilus influenzae type b conjugate and Hepatitis B vaccine"
        } ]
      },
      "patient": {
        "reference": "Patient/15067a1f-bfa9-4dbc-b622-b2da823bea79"
      },
      "occurrenceDateTime": "2025-01-10T00:00:00.000+00:00",
      "recorded": "2025-01-02T00:00:00.000+00:00",
      "primarySource": true
    },
    "request": {
      "method": "PUT",
      "url": "Immunization/c91fb2e7-9a64-478d-af79-0683d89a5024"
    }
  }, {
    "fullUrl": "https://madie.cms.gov/Procedure/bea7fb59-73d9-410b-aa8a-1d03ff434bd5",
    "resource": {
      "resourceType": "Procedure",
      "id": "bea7fb59-73d9-410b-aa8a-1d03ff434bd5",
      "meta": {
        "profile": [ "http://hl7.org/fhir/us/qicore/StructureDefinition/qicore-procedure" ]
      },
      "extension": [ {
        "url": "http://hl7.org/fhir/us/qicore/StructureDefinition/qicore-recorded",
        "valueDateTime": "2025-01-02T00:00:00.000+00:00"
      } ],
      "status": "completed",
      "code": {
        "coding": [ {
          "system": "http://www.ama-assn.org/go/cpt",
          "code": "90740",
          "display": "Hepatitis B vaccine (HepB), dialysis or immunosuppressed patient dosage, 3 dose schedule, for intramuscular use"
        } ]
      },
      "subject": {
        "reference": "Patient/15067a1f-bfa9-4dbc-b622-b2da823bea79"
      },
      "performedPeriod": {
        "start": "2025-01-02T00:00:00.000+00:00",
        "end": "2025-01-02T23:59:59.000+00:00"
      }
    },
    "request": {
      "method": "PUT",
      "url": "Procedure/bea7fb59-73d9-410b-aa8a-1d03ff434bd5"
    }
  }, {
    "fullUrl": "https://madie.cms.gov/Immunization/6e75af91-dbe0-4cd7-b0d6-0a2a2835561e",
    "resource": {
      "resourceType": "Immunization",
      "id": "6e75af91-dbe0-4cd7-b0d6-0a2a2835561e",
      "meta": {
        "profile": [ "http://hl7.org/fhir/us/qicore/StructureDefinition/qicore-immunization" ]
      },
      "status": "completed",
      "vaccineCode": {
        "coding": [ {
          "system": "http://hl7.org/fhir/sid/cvx",
          "code": "94",
          "display": "measles, mumps, rubella, and varicella virus vaccine"
        } ]
      },
      "patient": {
        "reference": "Patient/15067a1f-bfa9-4dbc-b622-b2da823bea79"
      },
      "occurrenceDateTime": "2025-01-02T00:00:00.000+00:00",
      "recorded": "2025-01-02T00:00:00.000+00:00",
      "primarySource": true
    },
    "request": {
      "method": "PUT",
      "url": "Immunization/6e75af91-dbe0-4cd7-b0d6-0a2a2835561e"
    }
  }, {
    "fullUrl": "https://madie.cms.gov/Immunization/86e30fe9-ed34-4e98-9d28-5fe57986e9dd",
    "resource": {
      "resourceType": "Immunization",
      "id": "86e30fe9-ed34-4e98-9d28-5fe57986e9dd",
      "meta": {
        "profile": [ "http://hl7.org/fhir/us/qicore/StructureDefinition/qicore-immunization" ]
      },
      "status": "completed",
      "vaccineCode": {
        "coding": [ {
          "system": "http://hl7.org/fhir/sid/cvx",
          "code": "215",
          "display": "Pneumococcal conjugate vaccine 15-valent (PCV15), polysaccharide CRM197 conjugate, adjuvant, preservative free"
        } ]
      },
      "patient": {
        "reference": "Patient/15067a1f-bfa9-4dbc-b622-b2da823bea79"
      },
      "occurrenceDateTime": "2025-01-12T00:00:00.000+00:00",
      "recorded": "2025-01-02T00:00:00.000+00:00",
      "primarySource": true
    },
    "request": {
      "method": "PUT",
      "url": "Immunization/86e30fe9-ed34-4e98-9d28-5fe57986e9dd"
    }
  }, {
    "fullUrl": "https://madie.cms.gov/Immunization/fc296fc6-3b0c-4980-b2e3-c9d6d83080ba",
    "resource": {
      "resourceType": "Immunization",
      "id": "fc296fc6-3b0c-4980-b2e3-c9d6d83080ba",
      "meta": {
        "profile": [ "http://hl7.org/fhir/us/qicore/StructureDefinition/qicore-immunization" ]
      },
      "status": "completed",
      "vaccineCode": {
        "coding": [ {
          "system": "http://hl7.org/fhir/sid/cvx",
          "code": "215",
          "display": "Pneumococcal conjugate vaccine 15-valent (PCV15), polysaccharide CRM197 conjugate, adjuvant, preservative free"
        } ]
      },
      "patient": {
        "reference": "Patient/15067a1f-bfa9-4dbc-b622-b2da823bea79"
      },
      "occurrenceDateTime": "2025-01-14T00:00:00.000+00:00",
      "recorded": "2025-01-02T00:00:00.000+00:00",
      "primarySource": true
    },
    "request": {
      "method": "PUT",
      "url": "Immunization/fc296fc6-3b0c-4980-b2e3-c9d6d83080ba"
    }
  }, {
    "fullUrl": "https://madie.cms.gov/Immunization/67c99513-71ed-4d78-bf1a-1ad3ecc515ee",
    "resource": {
      "resourceType": "Immunization",
      "id": "67c99513-71ed-4d78-bf1a-1ad3ecc515ee",
      "meta": {
        "profile": [ "http://hl7.org/fhir/us/qicore/StructureDefinition/qicore-immunization" ]
      },
      "status": "completed",
      "vaccineCode": {
        "coding": [ {
          "system": "http://hl7.org/fhir/sid/cvx",
          "code": "215",
          "display": "Pneumococcal conjugate vaccine 15-valent (PCV15), polysaccharide CRM197 conjugate, adjuvant, preservative free"
        } ]
      },
      "patient": {
        "reference": "Patient/15067a1f-bfa9-4dbc-b622-b2da823bea79"
      },
      "occurrenceDateTime": "2025-01-20T00:00:00.000+00:00",
      "recorded": "2025-01-02T00:00:00.000+00:00",
      "primarySource": true
    },
    "request": {
      "method": "PUT",
      "url": "Immunization/67c99513-71ed-4d78-bf1a-1ad3ecc515ee"
    }
  }, {
    "fullUrl": "https://madie.cms.gov/Procedure/a3963ff5-7b8d-48ba-b2e2-d39b7660d28d",
    "resource": {
      "resourceType": "Procedure",
      "id": "a3963ff5-7b8d-48ba-b2e2-d39b7660d28d",
      "meta": {
        "profile": [ "http://hl7.org/fhir/us/qicore/StructureDefinition/qicore-procedure" ]
      },
      "extension": [ {
        "url": "http://hl7.org/fhir/us/qicore/StructureDefinition/qicore-recorded",
        "valueDateTime": "2025-01-02T00:00:00.000+00:00"
      } ],
      "status": "completed",
      "code": {
        "coding": [ {
          "system": "http://www.ama-assn.org/go/cpt",
          "code": "90670",
          "display": "Pneumococcal conjugate vaccine, 13 valent (PCV13), for intramuscular use"
        } ]
      },
      "subject": {
        "reference": "Patient/15067a1f-bfa9-4dbc-b622-b2da823bea79"
      },
      "performedPeriod": {
        "start": "2025-01-02T00:00:00.000+00:00",
        "end": "2025-01-02T23:59:59.000+00:00"
      }
    },
    "request": {
      "method": "PUT",
      "url": "Procedure/a3963ff5-7b8d-48ba-b2e2-d39b7660d28d"
    }
  }, {
    "fullUrl": "https://madie.cms.gov/Procedure/d0ab8f37-34ea-4600-928f-644231d3a72a",
    "resource": {
      "resourceType": "Procedure",
      "id": "d0ab8f37-34ea-4600-928f-644231d3a72a",
      "meta": {
        "profile": [ "http://hl7.org/fhir/us/qicore/StructureDefinition/qicore-procedure" ]
      },
      "extension": [ {
        "url": "http://hl7.org/fhir/us/qicore/StructureDefinition/qicore-recorded",
        "valueDateTime": "2025-01-02T00:00:00.000+00:00"
      } ],
      "status": "completed",
      "code": {
        "coding": [ {
          "system": "http://www.ama-assn.org/go/cpt",
          "code": "90633",
          "display": "Hepatitis A vaccine (HepA), pediatric/adolescent dosage-2 dose schedule, for intramuscular use"
        } ]
      },
      "subject": {
        "reference": "Patient/15067a1f-bfa9-4dbc-b622-b2da823bea79"
      },
      "performedPeriod": {
        "start": "2025-01-02T00:00:00.000+00:00",
        "end": "2025-01-02T23:59:59.000+00:00"
      }
    },
    "request": {
      "method": "PUT",
      "url": "Procedure/d0ab8f37-34ea-4600-928f-644231d3a72a"
    }
  }, {
    "fullUrl": "https://madie.cms.gov/Immunization/a50125f8-a71b-43e7-b707-ce5acf1cebb8",
    "resource": {
      "resourceType": "Immunization",
      "id": "a50125f8-a71b-43e7-b707-ce5acf1cebb8",
      "meta": {
        "profile": [ "http://hl7.org/fhir/us/qicore/StructureDefinition/qicore-immunization" ]
      },
      "status": "completed",
      "vaccineCode": {
        "coding": [ {
          "system": "http://hl7.org/fhir/sid/cvx",
          "code": "119",
          "display": "rotavirus, live, monovalent vaccine"
        } ]
      },
      "patient": {
        "reference": "Patient/15067a1f-bfa9-4dbc-b622-b2da823bea79"
      },
      "occurrenceDateTime": "2025-01-02T00:00:00.000+00:00",
      "recorded": "2025-01-02T00:00:00.000+00:00",
      "primarySource": true
    },
    "request": {
      "method": "PUT",
      "url": "Immunization/a50125f8-a71b-43e7-b707-ce5acf1cebb8"
    }
  }, {
    "fullUrl": "https://madie.cms.gov/Procedure/4ccb6914-5fd7-4ab9-8e92-5527d94bc03d",
    "resource": {
      "resourceType": "Procedure",
      "id": "4ccb6914-5fd7-4ab9-8e92-5527d94bc03d",
      "meta": {
        "profile": [ "http://hl7.org/fhir/us/qicore/StructureDefinition/qicore-procedure" ]
      },
      "extension": [ {
        "url": "http://hl7.org/fhir/us/qicore/StructureDefinition/qicore-recorded",
        "valueDateTime": "2025-01-07T00:00:00.000+00:00"
      } ],
      "status": "completed",
      "code": {
        "coding": [ {
          "system": "http://www.ama-assn.org/go/cpt",
          "code": "90681",
          "display": "Rotavirus vaccine, human, attenuated (RV1), 2 dose schedule, live, for oral use"
        } ]
      },
      "subject": {
        "reference": "Patient/15067a1f-bfa9-4dbc-b622-b2da823bea79"
      },
      "performedPeriod": {
        "start": "2025-01-07T00:00:00.000+00:00",
        "end": "2025-01-07T23:59:59.000+00:00"
      }
    },
    "request": {
      "method": "PUT",
      "url": "Procedure/4ccb6914-5fd7-4ab9-8e92-5527d94bc03d"
    }
  }, {
    "fullUrl": "https://madie.cms.gov/Procedure/75666d23-10a4-4e08-872d-b0be1ee5ac08",
    "resource": {
      "resourceType": "Procedure",
      "id": "75666d23-10a4-4e08-872d-b0be1ee5ac08",
      "meta": {
        "profile": [ "http://hl7.org/fhir/us/qicore/StructureDefinition/qicore-procedure" ]
      },
      "extension": [ {
        "url": "http://hl7.org/fhir/us/qicore/StructureDefinition/qicore-recorded",
        "valueDateTime": "2025-01-08T00:00:00.000+00:00"
      } ],
      "status": "completed",
      "code": {
        "coding": [ {
          "system": "http://www.ama-assn.org/go/cpt",
          "code": "90680",
          "display": "Rotavirus vaccine, pentavalent (RV5), 3 dose schedule, live, for oral use"
        } ]
      },
      "subject": {
        "reference": "Patient/15067a1f-bfa9-4dbc-b622-b2da823bea79"
      },
      "performedPeriod": {
        "start": "2025-01-08T00:00:00.000+00:00",
        "end": "2025-01-08T23:59:59.000+00:00"
      }
    },
    "request": {
      "method": "PUT",
      "url": "Procedure/75666d23-10a4-4e08-872d-b0be1ee5ac08"
    }
  }, {
    "fullUrl": "https://madie.cms.gov/Immunization/2eebd2f0-f60b-436b-a284-afdc609d7d2b",
    "resource": {
      "resourceType": "Immunization",
      "id": "2eebd2f0-f60b-436b-a284-afdc609d7d2b",
      "meta": {
        "profile": [ "http://hl7.org/fhir/us/qicore/StructureDefinition/qicore-immunization" ]
      },
      "status": "completed",
      "vaccineCode": {
        "coding": [ {
          "system": "http://hl7.org/fhir/sid/cvx",
          "code": "153",
          "display": "Influenza, injectable, MDCK, preservative free"
        } ]
      },
      "patient": {
        "reference": "Patient/15067a1f-bfa9-4dbc-b622-b2da823bea79"
      },
      "occurrenceDateTime": "2025-01-02T00:00:00.000+00:00",
      "recorded": "2025-01-02T00:00:00.000+00:00",
      "primarySource": true
    },
    "request": {
      "method": "PUT",
      "url": "Immunization/2eebd2f0-f60b-436b-a284-afdc609d7d2b"
    }
  }, {
    "fullUrl": "https://madie.cms.gov/Procedure/11eb414e-f578-40a7-a07e-21a1b8078b4e",
    "resource": {
      "resourceType": "Procedure",
      "id": "11eb414e-f578-40a7-a07e-21a1b8078b4e",
      "meta": {
        "profile": [ "http://hl7.org/fhir/us/qicore/StructureDefinition/qicore-procedure" ]
      },
      "extension": [ {
        "url": "http://hl7.org/fhir/us/qicore/StructureDefinition/qicore-recorded",
        "valueDateTime": "2026-01-01T00:00:00.000+00:00"
      } ],
      "status": "completed",
      "code": {
        "coding": [ {
          "system": "http://www.ama-assn.org/go/cpt",
          "code": "90672",
          "display": "Influenza virus vaccine, quadrivalent, live (LAIV4), for intranasal use"
        } ]
      },
      "subject": {
        "reference": "Patient/15067a1f-bfa9-4dbc-b622-b2da823bea79"
      },
      "performedPeriod": {
        "start": "2026-01-01T00:00:00.000+00:00",
        "end": "2026-01-01T23:59:59.000+00:00"
      }
    },
    "request": {
      "method": "PUT",
      "url": "Procedure/11eb414e-f578-40a7-a07e-21a1b8078b4e"
    }
  }, {
    "fullUrl": "https://madie.cms.gov/MeasureReport/59a55f6d-351f-4909-bb96-24d2b2e5bc68",
    "resource": {
      "resourceType": "MeasureReport",
      "id": "59a55f6d-351f-4909-bb96-24d2b2e5bc68",
      "meta": {
        "profile": [ "http://hl7.org/fhir/us/cqfmeasures/StructureDefinition/test-case-cqfm" ]
      },
      "contained": [ {
        "resourceType": "Parameters",
        "id": "27cd0764-bb2a-40e8-a350-34f9b81b8490-parameters",
        "parameter": [ {
          "name": "subject",
          "valueString": "15067a1f-bfa9-4dbc-b622-b2da823bea79"
        } ]
      } ],
      "extension": [ {
        "url": "http://hl7.org/fhir/StructureDefinition/cqf-inputParameters",
        "valueReference": {
          "reference": "#27cd0764-bb2a-40e8-a350-34f9b81b8490-parameters"
        }
      }, {
        "url": "http://hl7.org/fhir/us/cqfmeasures/StructureDefinition/cqfm-testCaseDescription",
        "valueMarkdown": "All vaccines met - procedures - with Hib4, LAIV, RV3 codes"
      } ],
      "modifierExtension": [ {
        "url": "http://hl7.org/fhir/us/cqfmeasures/StructureDefinition/cqfm-isTestCase",
        "valueBoolean": true
      } ],
      "status": "complete",
      "type": "individual",
      "measure": "https://madie.cms.gov/Measure/CMS117FHIRChildImmunStatus",
      "period": {
        "start": "2026-01-01",
        "end": "2026-12-31"
      },
      "group": [ {
        "id": "Group_1",
        "population": [ {
          "id": "InitialPopulation_1",
          "code": {
            "coding": [ {
              "system": "http://terminology.hl7.org/CodeSystem/measure-population",
              "code": "initial-population",
              "display": "Initial Population"
            } ]
          },
          "count": 1
        }, {
          "id": "Denominator_1",
          "code": {
            "coding": [ {
              "system": "http://terminology.hl7.org/CodeSystem/measure-population",
              "code": "denominator",
              "display": "Denominator"
            } ]
          },
          "count": 1
        }, {
          "id": "DenominatorExclusion_1",
          "code": {
            "coding": [ {
              "system": "http://terminology.hl7.org/CodeSystem/measure-population",
              "code": "denominator-exclusion",
              "display": "Denominator Exclusion"
            } ]
          },
          "count": 0
        }, {
          "id": "Numerator_1",
          "code": {
            "coding": [ {
              "system": "http://terminology.hl7.org/CodeSystem/measure-population",
              "code": "numerator",
              "display": "Numerator"
            } ]
          },
          "count": 1
        } ],
        "measureScore": {
          "value": 1.0
        }
      } ],
      "evaluatedResource": [ {
        "reference": "Patient/15067a1f-bfa9-4dbc-b622-b2da823bea79"
      }, {
        "reference": "Encounter/e1d213f3-01ae-4c0e-8db6-f824ab61e7f1"
      }, {
        "reference": "Immunization/93a3189b-fc0b-48c5-a385-3ee224ab290a"
      }, {
        "reference": "Immunization/9d90b6d4-96d6-4ddd-8143-7dc83a4f46f4"
      }, {
        "reference": "Immunization/3d5fd9de-5646-430d-a0da-03e55fd97cb6"
      }, {
        "reference": "Procedure/9c1d1ced-e2e9-4137-a133-b28c7b8f02cf"
      }, {
        "reference": "Immunization/f1b638e9-de7f-424c-87ed-c775cb11cfc8"
      }, {
        "reference": "Immunization/4640ef18-d6f9-4aa8-b998-7bb8ce7cb000"
      }, {
        "reference": "Procedure/d6fe617b-2bb0-4171-a9f9-6ef3801efe4d"
      }, {
        "reference": "Procedure/005fbea9-a6f4-437f-a876-61ceb02aba72"
      }, {
        "reference": "Immunization/0765e2ae-88c5-468c-9e00-bca87f8f9704"
      }, {
        "reference": "Immunization/31c64d84-7090-4bca-a50a-95e3ef83a3e9"
      }, {
        "reference": "Procedure/42bcb828-e305-47f0-a12c-0f799fb73750"
      }, {
        "reference": "Procedure/cc49b262-3746-4bd6-b679-c68230af5c5d"
      }, {
        "reference": "Immunization/e351a2cd-4ca7-4279-9c6d-68179de597f4"
      }, {
        "reference": "Immunization/c91fb2e7-9a64-478d-af79-0683d89a5024"
      }, {
        "reference": "Procedure/bea7fb59-73d9-410b-aa8a-1d03ff434bd5"
      }, {
        "reference": "Immunization/6e75af91-dbe0-4cd7-b0d6-0a2a2835561e"
      }, {
        "reference": "Immunization/86e30fe9-ed34-4e98-9d28-5fe57986e9dd"
      }, {
        "reference": "Immunization/fc296fc6-3b0c-4980-b2e3-c9d6d83080ba"
      }, {
        "reference": "Immunization/67c99513-71ed-4d78-bf1a-1ad3ecc515ee"
      }, {
        "reference": "Procedure/a3963ff5-7b8d-48ba-b2e2-d39b7660d28d"
      }, {
        "reference": "Procedure/d0ab8f37-34ea-4600-928f-644231d3a72a"
      }, {
        "reference": "Immunization/a50125f8-a71b-43e7-b707-ce5acf1cebb8"
      }, {
        "reference": "Procedure/4ccb6914-5fd7-4ab9-8e92-5527d94bc03d"
      }, {
        "reference": "Procedure/75666d23-10a4-4e08-872d-b0be1ee5ac08"
      }, {
        "reference": "Immunization/2eebd2f0-f60b-436b-a284-afdc609d7d2b"
      }, {
        "reference": "Procedure/11eb414e-f578-40a7-a07e-21a1b8078b4e"
      } ]
    },
    "request": {
      "method": "PUT",
      "url": "MeasureReport/59a55f6d-351f-4909-bb96-24d2b2e5bc68"
    }
  } ]
}