{
  "resourceType": "Bundle",
  "id": "63487c2e0968f8012254016e",
  "type": "transaction",
  "entry": [ {
    "fullUrl": "https://madie.cms.gov/Patient/6bbb349d-5c6b-486d-96f3-6a80b923e17e",
    "resource": {
      "resourceType": "Patient",
      "id": "6bbb349d-5c6b-486d-96f3-6a80b923e17e",
      "meta": {
        "profile": [ "http://hl7.org/fhir/us/qicore/StructureDefinition/qicore-patient" ]
      },
      "text": {
        "status": "generated",
        "div": "<div xmlns=\"http://www.w3.org/1999/xhtml\"><div class=\"hapiHeaderText\">AssessG1RelDtTimeEQTimeOfDelivTime <b>DENFAIL </b></div><table class=\"hapiPropertyTable\"><tbody><tr><td>Identifier</td><td>1708e167118eb3c6ba503e3f4dd6b33e8139c84285201cfc9988c13f48ee7f27</td></tr><tr><td>Date of birth</td><td><span>14 February 1985</span></td></tr></tbody></table></div>"
      },
      "extension": [ {
        "url": "http://hl7.org/fhir/us/core/StructureDefinition/us-core-race",
        "extension": [ {
          "url": "ombCategory",
          "valueCoding": {
            "system": "urn:oid:2.16.840.1.113883.6.238",
            "code": "1002-5",
            "display": "American Indian or Alaska Native",
            "userSelected": true
          }
        }, {
          "url": "text",
          "valueString": "American Indian or Alaska Native"
        } ]
      }, {
        "url": "http://hl7.org/fhir/us/core/StructureDefinition/us-core-ethnicity",
        "extension": [ {
          "url": "ombCategory",
          "valueCoding": {
            "system": "urn:oid:2.16.840.1.113883.6.238",
            "code": "2135-2",
            "display": "Hispanic or Latino",
            "userSelected": true
          }
        }, {
          "url": "text",
          "valueString": "Hispanic or Latino"
        } ]
      } ],
      "identifier": [ {
        "type": {
          "coding": [ {
            "system": "http://terminology.hl7.org/CodeSystem/v2-0203",
            "code": "MR"
          } ]
        },
        "system": "https://bonnie-fhir.healthit.gov/",
        "value": "63487c2e0968f8012254016e"
      } ],
      "active": true,
      "name": [ {
        "use": "usual",
        "family": "DENFail",
        "given": [ "AssessG1RelDtTimeEQTimeOfDelivTime" ]
      } ],
      "gender": "female",
      "birthDate": "1998-02-14"
    },
    "request": {
      "method": "PUT",
      "url": "Patient/6bbb349d-5c6b-486d-96f3-6a80b923e17e"
    }
  }, {
    "fullUrl": "https://madie.cms.gov/Observation/07f1ab01-af65-4575-917d-321b5c2579b9",
    "resource": {
      "resourceType": "Observation",
      "id": "07f1ab01-af65-4575-917d-321b5c2579b9",
      "meta": {
        "profile": [ "http://hl7.org/fhir/us/qicore/StructureDefinition/qicore-simple-observation" ]
      },
      "status": "final",
      "category": [ {
        "coding": [ {
          "system": "http://terminology.hl7.org/CodeSystem/observation-category",
          "code": "exam",
          "display": "exam",
          "userSelected": true
        } ]
      } ],
      "code": {
        "coding": [ {
          "system": "http://loinc.org",
          "code": "11884-4"
        } ]
      },
      "subject": {
        "reference": "Patient/6bbb349d-5c6b-486d-96f3-6a80b923e17e"
      },
      "effectiveDateTime": "2026-06-08T09:15:00.000+00:00",
      "valueQuantity": {
        "value": 38,
        "system": "http://unitsofmeasure.org",
        "code": "wk"
      }
    },
    "request": {
      "method": "PUT",
      "url": "Observation/07f1ab01-af65-4575-917d-321b5c2579b9"
    }
  }, {
    "fullUrl": "https://madie.cms.gov/Observation/be52e068-3754-4487-86bb-76ae2754e6dd",
    "resource": {
      "resourceType": "Observation",
      "id": "be52e068-3754-4487-86bb-76ae2754e6dd",
      "meta": {
        "profile": [ "http://hl7.org/fhir/us/qicore/StructureDefinition/qicore-simple-observation" ]
      },
      "status": "final",
      "category": [ {
        "coding": [ {
          "system": "http://terminology.hl7.org/CodeSystem/observation-category",
          "code": "exam",
          "display": "exam",
          "userSelected": true
        } ]
      } ],
      "code": {
        "coding": [ {
          "system": "http://loinc.org",
          "code": "11996-6"
        } ]
      },
      "subject": {
        "reference": "Patient/6bbb349d-5c6b-486d-96f3-6a80b923e17e"
      },
      "effectiveDateTime": "2026-06-08T20:00:00.000+00:00",
      "valueInteger": 1
    },
    "request": {
      "method": "PUT",
      "url": "Observation/be52e068-3754-4487-86bb-76ae2754e6dd"
    }
  }, {
    "fullUrl": "https://madie.cms.gov/Observation/7344abc8-5f43-4b03-935d-6be2e7368cf0",
    "resource": {
      "resourceType": "Observation",
      "id": "7344abc8-5f43-4b03-935d-6be2e7368cf0",
      "meta": {
        "profile": [ "http://hl7.org/fhir/us/qicore/StructureDefinition/qicore-simple-observation" ]
      },
      "status": "final",
      "category": [ {
        "coding": [ {
          "system": "http://terminology.hl7.org/CodeSystem/observation-category",
          "code": "exam",
          "display": "exam",
          "userSelected": true
        } ]
      } ],
      "code": {
        "coding": [ {
          "system": "http://loinc.org",
          "code": "93857-1"
        } ]
      },
      "subject": {
        "reference": "Patient/6bbb349d-5c6b-486d-96f3-6a80b923e17e"
      },
      "effectiveDateTime": "2026-06-08T20:00:00.000+00:00",
      "valueDateTime": "2026-06-08T20:00:00.000+00:00"
    },
    "request": {
      "method": "PUT",
      "url": "Observation/7344abc8-5f43-4b03-935d-6be2e7368cf0"
    }
  }, {
    "fullUrl": "https://madie.cms.gov/Encounter/2b6b9ef8-3953-4406-b7d5-7a613d7af540",
    "resource": {
      "resourceType": "Encounter",
      "id": "2b6b9ef8-3953-4406-b7d5-7a613d7af540",
      "meta": {
        "profile": [ "http://hl7.org/fhir/us/qicore/StructureDefinition/qicore-encounter" ]
      },
      "status": "finished",
      "class": {
        "system": "http://terminology.hl7.org/CodeSystem/v3-ActCode",
        "code": "IMP",
        "display": "inpatient encounter"
      },
      "type": [ {
        "coding": [ {
          "system": "http://snomed.info/sct",
          "code": "183452005"
        } ]
      } ],
      "subject": {
        "reference": "Patient/6bbb349d-5c6b-486d-96f3-6a80b923e17e"
      },
      "period": {
        "start": "2026-06-08T08:00:00.000+00:00",
        "end": "2026-06-10T08:15:00.000+00:00"
      },
      "length": {
        "value": 2,
        "unit": "days"
      },
      "reasonReference": [ {
        "reference": "Condition/4df23369-c925-4a61-b081-09a2d920ca53"
      } ]
    },
    "request": {
      "method": "PUT",
      "url": "Encounter/2b6b9ef8-3953-4406-b7d5-7a613d7af540"
    }
  }, {
    "fullUrl": "https://madie.cms.gov/Procedure/edbb8017-aa56-4042-b906-a13f741d00be",
    "resource": {
      "resourceType": "Procedure",
      "id": "edbb8017-aa56-4042-b906-a13f741d00be",
      "meta": {
        "profile": [ "http://hl7.org/fhir/us/qicore/StructureDefinition/qicore-procedure" ]
      },
      "extension": [ {
        "url": "http://hl7.org/fhir/us/qicore/StructureDefinition/qicore-recorded",
        "valueDateTime": "2014-04-05T13:35:00.000+00:00"
      } ],
      "status": "completed",
      "code": {
        "coding": [ {
          "system": "http://www.cms.gov/Medicare/Coding/ICD10",
          "code": "10D07Z3"
        } ]
      },
      "subject": {
        "reference": "Patient/6bbb349d-5c6b-486d-96f3-6a80b923e17e"
      },
      "performedPeriod": {
        "start": "2026-06-08T08:10:00.000+00:00",
        "end": "2026-06-08T09:14:00.000+00:00"
      }
    },
    "request": {
      "method": "PUT",
      "url": "Procedure/edbb8017-aa56-4042-b906-a13f741d00be"
    }
  }, {
    "fullUrl": "https://madie.cms.gov/Coverage/c94d120a-2c5f-41a8-ac4f-29edbe64a17f",
    "resource": {
      "resourceType": "Coverage",
      "id": "c94d120a-2c5f-41a8-ac4f-29edbe64a17f",
      "meta": {
        "profile": [ "http://hl7.org/fhir/us/qicore/StructureDefinition/qicore-coverage" ]
      },
      "status": "active",
      "subscriberId": "523435",
      "beneficiary": {
        "reference": "Patient/6bbb349d-5c6b-486d-96f3-6a80b923e17e"
      },
      "relationship": {
        "coding": [ {
          "system": "http://terminology.hl7.org/CodeSystem/subscriber-relationship",
          "code": "self"
        } ]
      },
      "payor": [ {
        "reference": "Organization/ba1f7986-7872-4b01-a3dd-ddceb61e4fd7"
      } ]
    },
    "request": {
      "method": "PUT",
      "url": "Coverage/c94d120a-2c5f-41a8-ac4f-29edbe64a17f"
    }
  }, {
    "fullUrl": "https://madie.cms.gov/Organization/ba1f7986-7872-4b01-a3dd-ddceb61e4fd7",
    "resource": {
      "resourceType": "Organization",
      "id": "ba1f7986-7872-4b01-a3dd-ddceb61e4fd7",
      "meta": {
        "profile": [ "http://hl7.org/fhir/us/qicore/StructureDefinition/qicore-organization" ]
      },
      "identifier": [ {
        "use": "temp",
        "system": "urn:oid:2.16.840.1.113883.4.4",
        "value": "21-3259825"
      } ],
      "active": true,
      "type": [ {
        "coding": [ {
          "system": "http://terminology.hl7.org/CodeSystem/organization-type",
          "code": "pay",
          "display": "Payer"
        } ]
      } ],
      "name": "Blue Cross Blue Shield of Texas",
      "telecom": [ {
        "system": "phone",
        "value": "(+1) 972-766-6900"
      } ],
      "address": [ {
        "use": "billing",
        "type": "postal",
        "line": [ "P.O. Box 660044" ],
        "city": "Dallas",
        "state": "TX",
        "postalCode": "75266-0044",
        "country": "USA"
      } ]
    },
    "request": {
      "method": "PUT",
      "url": "Organization/ba1f7986-7872-4b01-a3dd-ddceb61e4fd7"
    }
  }, {
    "fullUrl": "https://madie.cms.gov/Condition/4df23369-c925-4a61-b081-09a2d920ca53",
    "resource": {
      "resourceType": "Condition",
      "id": "4df23369-c925-4a61-b081-09a2d920ca53",
      "meta": {
        "profile": [ "http://hl7.org/fhir/us/qicore/StructureDefinition/qicore-condition-encounter-diagnosis" ]
      },
      "category": [ {
        "coding": [ {
          "system": "http://terminology.hl7.org/CodeSystem/condition-category",
          "code": "encounter-diagnosis",
          "display": "Encounter Diagnosis"
        } ]
      } ],
      "code": {
        "coding": [ {
          "system": "http://snomed.info/sct",
          "code": "169826009",
          "display": "Single live birth from singleton pregnancy (finding)"
        } ]
      },
      "subject": {
        "reference": "Patient/6bbb349d-5c6b-486d-96f3-6a80b923e17e"
      },
      "encounter": {
        "reference": "Encounter/2b6b9ef8-3953-4406-b7d5-7a613d7af540"
      }
    },
    "request": {
      "method": "PUT",
      "url": "Condition/4df23369-c925-4a61-b081-09a2d920ca53"
    }
  }, {
    "fullUrl": "https://madie.cms.gov/Practitioner/354f5068-9018-482e-bc1c-6a4e85ab929a",
    "resource": {
      "resourceType": "Practitioner",
      "id": "354f5068-9018-482e-bc1c-6a4e85ab929a",
      "meta": {
        "profile": [ "http://hl7.org/fhir/us/qicore/StructureDefinition/qicore-practitioner" ]
      },
      "identifier": [ {
        "system": "http://hl7.org/fhir/sid/us-npi",
        "value": "1234567890"
      } ],
      "name": [ {
        "family": "Evil",
        "prefix": [ "Dr" ]
      } ]
    },
    "request": {
      "method": "PUT",
      "url": "Practitioner/354f5068-9018-482e-bc1c-6a4e85ab929a"
    }
  }, {
    "fullUrl": "https://madie.cms.gov/MeasureReport/63bf48de-d450-46e5-b40a-4f73e58e463d",
    "resource": {
      "resourceType": "MeasureReport",
      "id": "63bf48de-d450-46e5-b40a-4f73e58e463d",
      "meta": {
        "profile": [ "http://hl7.org/fhir/us/cqfmeasures/StructureDefinition/test-case-cqfm" ]
      },
      "contained": [ {
        "resourceType": "Parameters",
        "id": "ec9e1f36-9562-4eba-8d70-03953c58494e-parameters",
        "parameter": [ {
          "name": "subject",
          "valueString": "6bbb349d-5c6b-486d-96f3-6a80b923e17e"
        } ]
      } ],
      "extension": [ {
        "url": "http://hl7.org/fhir/StructureDefinition/cqf-inputParameters",
        "valueReference": {
          "reference": "#ec9e1f36-9562-4eba-8d70-03953c58494e-parameters"
        }
      }, {
        "url": "http://hl7.org/fhir/us/cqfmeasures/StructureDefinition/cqfm-testCaseDescription",
        "valueMarkdown": " Pt is 27 years of age,  encounter dx delivery of singleton, gravida rel date/time exactly equal to time of delivery.  This fails as logic states gravida rel date/time is 42 weeks OR LESS before time of delivery\n"
      } ],
      "modifierExtension": [ {
        "url": "http://hl7.org/fhir/us/cqfmeasures/StructureDefinition/cqfm-isTestCase",
        "valueBoolean": true
      } ],
      "status": "complete",
      "type": "individual",
      "measure": "https://madie.cms.gov/Measure/CMS0334FHIRPCCesareanBirth",
      "period": {
        "start": "2026-01-01",
        "end": "2026-12-31"
      },
      "group": [ {
        "id": "Group_1",
        "population": [ {
          "id": "InitialPopulation_1",
          "code": {
            "coding": [ {
              "system": "http://terminology.hl7.org/CodeSystem/measure-population",
              "code": "initial-population",
              "display": "Initial Population"
            } ]
          },
          "count": 1
        }, {
          "id": "Denominator_1",
          "code": {
            "coding": [ {
              "system": "http://terminology.hl7.org/CodeSystem/measure-population",
              "code": "denominator",
              "display": "Denominator"
            } ]
          },
          "count": 0
        }, {
          "id": "DenominatorExclusion_1",
          "code": {
            "coding": [ {
              "system": "http://terminology.hl7.org/CodeSystem/measure-population",
              "code": "denominator-exclusion",
              "display": "Denominator Exclusion"
            } ]
          },
          "count": 0
        }, {
          "id": "Numerator_1",
          "code": {
            "coding": [ {
              "system": "http://terminology.hl7.org/CodeSystem/measure-population",
              "code": "numerator",
              "display": "Numerator"
            } ]
          },
          "count": 0
        } ],
        "measureScore": {
          "value": 0.0
        }
      } ],
      "evaluatedResource": [ {
        "reference": "Patient/6bbb349d-5c6b-486d-96f3-6a80b923e17e"
      }, {
        "reference": "Observation/07f1ab01-af65-4575-917d-321b5c2579b9"
      }, {
        "reference": "Observation/be52e068-3754-4487-86bb-76ae2754e6dd"
      }, {
        "reference": "Observation/7344abc8-5f43-4b03-935d-6be2e7368cf0"
      }, {
        "reference": "Encounter/2b6b9ef8-3953-4406-b7d5-7a613d7af540"
      }, {
        "reference": "Procedure/edbb8017-aa56-4042-b906-a13f741d00be"
      }, {
        "reference": "Coverage/c94d120a-2c5f-41a8-ac4f-29edbe64a17f"
      }, {
        "reference": "Organization/ba1f7986-7872-4b01-a3dd-ddceb61e4fd7"
      }, {
        "reference": "Condition/4df23369-c925-4a61-b081-09a2d920ca53"
      }, {
        "reference": "Practitioner/354f5068-9018-482e-bc1c-6a4e85ab929a"
      } ]
    },
    "request": {
      "method": "PUT",
      "url": "MeasureReport/63bf48de-d450-46e5-b40a-4f73e58e463d"
    }
  } ]
}