{
  "resourceType": "Bundle",
  "id": "61152a3b98086b7a79cbd7b6",
  "type": "transaction",
  "entry": [ {
    "fullUrl": "https://madie.cms.gov/Patient/9dedcbcd-e0e4-4841-b6a1-971321758ab2",
    "resource": {
      "resourceType": "Patient",
      "id": "9dedcbcd-e0e4-4841-b6a1-971321758ab2",
      "meta": {
        "profile": [ "http://hl7.org/fhir/us/qicore/StructureDefinition/qicore-patient" ]
      },
      "extension": [ {
        "url": "http://hl7.org/fhir/us/core/StructureDefinition/us-core-race",
        "extension": [ {
          "url": "ombCategory",
          "valueCoding": {
            "system": "urn:oid:2.16.840.1.113883.6.238",
            "code": "1002-5",
            "display": "American Indian or Alaska Native",
            "userSelected": true
          }
        }, {
          "url": "text",
          "valueString": "American Indian or Alaska Native"
        } ]
      }, {
        "url": "http://hl7.org/fhir/us/core/StructureDefinition/us-core-ethnicity",
        "extension": [ {
          "url": "ombCategory",
          "valueCoding": {
            "system": "urn:oid:2.16.840.1.113883.6.238",
            "code": "2135-2",
            "display": "Hispanic or Latino",
            "userSelected": true
          }
        }, {
          "url": "text",
          "valueString": "Hispanic or Latino"
        } ]
      } ],
      "identifier": [ {
        "type": {
          "coding": [ {
            "system": "http://terminology.hl7.org/CodeSystem/v2-0203",
            "code": "MR"
          } ]
        },
        "system": "https://bonnie-fhir.healthit.gov/",
        "value": "61152a3b98086b7a79cbd7b6"
      } ],
      "active": true,
      "name": [ {
        "use": "usual",
        "family": "DENOMPass",
        "given": [ "Age17inEDAge18StartOfIPEnc" ]
      } ],
      "gender": "male",
      "birthDate": "2008-07-11"
    },
    "request": {
      "method": "PUT",
      "url": "Patient/9dedcbcd-e0e4-4841-b6a1-971321758ab2"
    }
  }, {
    "fullUrl": "https://madie.cms.gov/Encounter/1bbc90e5-aa71-4563-9be2-d563a15c32a8",
    "resource": {
      "resourceType": "Encounter",
      "id": "1bbc90e5-aa71-4563-9be2-d563a15c32a8",
      "meta": {
        "profile": [ "http://hl7.org/fhir/us/qicore/StructureDefinition/qicore-encounter" ]
      },
      "status": "finished",
      "class": {
        "system": "http://terminology.hl7.org/CodeSystem/v3-ActCode",
        "code": "IMP"
      },
      "type": [ {
        "coding": [ {
          "system": "http://snomed.info/sct",
          "code": "4525004"
        } ]
      } ],
      "subject": {
        "reference": "Patient/9dedcbcd-e0e4-4841-b6a1-971321758ab2"
      },
      "period": {
        "start": "2026-07-11T08:00:00.000Z",
        "end": "2026-07-12T08:00:00.000Z"
      }
    },
    "request": {
      "method": "PUT",
      "url": "Encounter/1bbc90e5-aa71-4563-9be2-d563a15c32a8"
    }
  }, {
    "fullUrl": "https://madie.cms.gov/Encounter/e9884990-bedb-4f55-9ffa-1da52eeb17a7",
    "resource": {
      "resourceType": "Encounter",
      "id": "e9884990-bedb-4f55-9ffa-1da52eeb17a7",
      "meta": {
        "profile": [ "http://hl7.org/fhir/us/qicore/StructureDefinition/qicore-encounter" ]
      },
      "status": "finished",
      "class": {
        "system": "http://terminology.hl7.org/CodeSystem/v3-ActCode",
        "code": "IMP"
      },
      "type": [ {
        "coding": [ {
          "system": "http://snomed.info/sct",
          "code": "183452005"
        } ]
      } ],
      "subject": {
        "reference": "Patient/9dedcbcd-e0e4-4841-b6a1-971321758ab2"
      },
      "period": {
        "start": "2026-07-12T08:30:00.000Z",
        "end": "2026-07-13T21:00:00.000Z"
      }
    },
    "request": {
      "method": "PUT",
      "url": "Encounter/e9884990-bedb-4f55-9ffa-1da52eeb17a7"
    }
  }, {
    "fullUrl": "https://madie.cms.gov/MedicationAdministration/7ac2d27b-eee0-4a83-a14b-ff8ffc196e90",
    "resource": {
      "resourceType": "MedicationAdministration",
      "id": "7ac2d27b-eee0-4a83-a14b-ff8ffc196e90",
      "meta": {
        "profile": [ "http://hl7.org/fhir/us/qicore/StructureDefinition/qicore-medicationadministration" ]
      },
      "status": "completed",
      "medicationCodeableConcept": {
        "coding": [ {
          "system": "http://www.nlm.nih.gov/research/umls/rxnorm",
          "code": "1361493",
          "display": "glimepiride 6 MG Oral Tablet",
          "userSelected": true
        } ]
      },
      "subject": {
        "reference": "Patient/9dedcbcd-e0e4-4841-b6a1-971321758ab2"
      },
      "effectivePeriod": {
        "start": "2026-07-11T08:00:00.000Z",
        "end": "2026-07-11T09:00:00.000Z"
      }
    },
    "request": {
      "method": "PUT",
      "url": "MedicationAdministration/7ac2d27b-eee0-4a83-a14b-ff8ffc196e90"
    }
  }, {
    "fullUrl": "https://madie.cms.gov/Coverage/d53aa940-8a2a-4c83-b4d6-d484cf7dad86",
    "resource": {
      "resourceType": "Coverage",
      "id": "d53aa940-8a2a-4c83-b4d6-d484cf7dad86",
      "meta": {
        "profile": [ "http://hl7.org/fhir/us/qicore/StructureDefinition/qicore-coverage" ]
      },
      "status": "active",
      "subscriberId": "AB9876",
      "beneficiary": {
        "reference": "Patient/9dedcbcd-e0e4-4841-b6a1-971321758ab2"
      },
      "relationship": {
        "coding": [ {
          "system": "http://terminology.hl7.org/CodeSystem/subscriber-relationship",
          "code": "self",
          "display": "Self"
        } ]
      },
      "payor": [ {
        "reference": "Organization/b29684ba-a1bf-4f26-b09f-d76c8842c08d"
      } ]
    },
    "request": {
      "method": "PUT",
      "url": "Coverage/d53aa940-8a2a-4c83-b4d6-d484cf7dad86"
    }
  }, {
    "fullUrl": "https://madie.cms.gov/Organization/b29684ba-a1bf-4f26-b09f-d76c8842c08d",
    "resource": {
      "resourceType": "Organization",
      "id": "b29684ba-a1bf-4f26-b09f-d76c8842c08d",
      "meta": {
        "profile": [ "http://hl7.org/fhir/us/qicore/StructureDefinition/qicore-organization" ]
      },
      "identifier": [ {
        "use": "temp",
        "system": "urn:oid:2.16.840.1.113883.4.4",
        "value": "21-3259825"
      } ],
      "active": true,
      "type": [ {
        "coding": [ {
          "system": "http://terminology.hl7.org/CodeSystem/organization-type",
          "code": "pay",
          "display": "Payer"
        } ]
      } ],
      "name": "Blue Cross Blue Shield of Texas",
      "telecom": [ {
        "system": "phone",
        "value": "(+1) 972-766-6900"
      } ],
      "address": [ {
        "use": "billing",
        "type": "postal",
        "line": [ "P.O. Box 660044" ],
        "city": "Dallas",
        "state": "TX",
        "postalCode": "75266-0044",
        "country": "USA"
      } ]
    },
    "request": {
      "method": "PUT",
      "url": "Organization/b29684ba-a1bf-4f26-b09f-d76c8842c08d"
    }
  }, {
    "fullUrl": "https://madie.cms.gov/Practitioner/fe2b2f68-7404-4cf1-8fac-f9cc67bcb26a",
    "resource": {
      "resourceType": "Practitioner",
      "id": "fe2b2f68-7404-4cf1-8fac-f9cc67bcb26a",
      "meta": {
        "profile": [ "http://hl7.org/fhir/us/qicore/StructureDefinition/qicore-practitioner" ]
      },
      "identifier": [ {
        "system": "http://hl7.org/fhir/sid/us-npi",
        "value": "6822915578"
      } ],
      "name": [ {
        "family": "Evil",
        "prefix": [ "Dr" ]
      } ]
    },
    "request": {
      "method": "PUT",
      "url": "Practitioner/fe2b2f68-7404-4cf1-8fac-f9cc67bcb26a"
    }
  }, {
    "fullUrl": "https://madie.cms.gov/MeasureReport/ccf23a8f-4c86-4628-b119-265098929b56",
    "resource": {
      "resourceType": "MeasureReport",
      "id": "ccf23a8f-4c86-4628-b119-265098929b56",
      "meta": {
        "profile": [ "http://hl7.org/fhir/us/cqfmeasures/StructureDefinition/test-case-cqfm" ]
      },
      "contained": [ {
        "resourceType": "Parameters",
        "id": "c631a780-03b5-41c4-b12f-40a4898e1568-parameters",
        "parameter": [ {
          "name": "subject",
          "valueString": "9dedcbcd-e0e4-4841-b6a1-971321758ab2"
        } ]
      } ],
      "extension": [ {
        "url": "http://hl7.org/fhir/StructureDefinition/cqf-inputParameters",
        "valueReference": {
          "reference": "#c631a780-03b5-41c4-b12f-40a4898e1568-parameters"
        }
      }, {
        "url": "http://hl7.org/fhir/us/cqfmeasures/StructureDefinition/cqfm-testCaseDescription",
        "valueMarkdown": "Inpt encounter; patient started in ER prior to admission. Age 17 in ER, turns 18 at start of IP encounter, meds administered, no lab tests. Edge case. Denom pass. (CMS #1)"
      } ],
      "modifierExtension": [ {
        "url": "http://hl7.org/fhir/us/cqfmeasures/StructureDefinition/cqfm-isTestCase",
        "valueBoolean": true
      } ],
      "status": "complete",
      "type": "individual",
      "measure": "https://madie.cms.gov/Measure/NHSNGlycemicControlHypoglycemiaInitialPopulation",
      "period": {
        "start": "2026-01-01",
        "end": "2026-12-31"
      },
      "group": [ {
        "id": "Group_1",
        "population": [ {
          "id": "InitialPopulation_1",
          "code": {
            "coding": [ {
              "system": "http://terminology.hl7.org/CodeSystem/measure-population",
              "code": "initial-population",
              "display": "Initial Population"
            } ]
          },
          "count": 1
        } ],
        "measureScore": {
          "value": 0.0
        }
      } ],
      "evaluatedResource": [ {
        "reference": "Patient/9dedcbcd-e0e4-4841-b6a1-971321758ab2"
      }, {
        "reference": "Encounter/1bbc90e5-aa71-4563-9be2-d563a15c32a8"
      }, {
        "reference": "Encounter/e9884990-bedb-4f55-9ffa-1da52eeb17a7"
      }, {
        "reference": "MedicationAdministration/7ac2d27b-eee0-4a83-a14b-ff8ffc196e90"
      }, {
        "reference": "Coverage/d53aa940-8a2a-4c83-b4d6-d484cf7dad86"
      }, {
        "reference": "Organization/b29684ba-a1bf-4f26-b09f-d76c8842c08d"
      }, {
        "reference": "Practitioner/fe2b2f68-7404-4cf1-8fac-f9cc67bcb26a"
      } ]
    },
    "request": {
      "method": "PUT",
      "url": "MeasureReport/ccf23a8f-4c86-4628-b119-265098929b56"
    }
  } ]
}