{
  "resourceType": "Bundle",
  "id": "633c9d030968f8012250fc7a",
  "type": "transaction",
  "entry": [ {
    "fullUrl": "https://madie.cms.gov/Patient/5dd3cb00-eb9b-42ba-9af5-9cafa1475528",
    "resource": {
      "resourceType": "Patient",
      "id": "5dd3cb00-eb9b-42ba-9af5-9cafa1475528",
      "meta": {
        "profile": [ "http://hl7.org/fhir/us/qicore/StructureDefinition/qicore-patient" ]
      },
      "text": {
        "status": "generated",
        "div": "<div xmlns=\"http://www.w3.org/1999/xhtml\"><div class=\"hapiHeaderText\">AtrialAblStartTM=EncStartTM <b>DENOMFAIL </b></div><table class=\"hapiPropertyTable\"><tbody><tr><td>Identifier</td><td>17e7285219c0bb5f087df79f6dd558b0</td></tr><tr><td>Date of birth</td><td><span>01 December 1960</span></td></tr></tbody></table></div>"
      },
      "extension": [ {
        "url": "http://hl7.org/fhir/us/core/StructureDefinition/us-core-race",
        "extension": [ {
          "url": "ombCategory",
          "valueCoding": {
            "system": "urn:oid:2.16.840.1.113883.6.238",
            "code": "1002-5",
            "display": "American Indian or Alaska Native",
            "userSelected": true
          }
        }, {
          "url": "text",
          "valueString": "American Indian or Alaska Native"
        } ]
      }, {
        "url": "http://hl7.org/fhir/us/core/StructureDefinition/us-core-ethnicity",
        "extension": [ {
          "url": "ombCategory",
          "valueCoding": {
            "system": "urn:oid:2.16.840.1.113883.6.238",
            "code": "2135-2",
            "display": "Hispanic or Latino",
            "userSelected": true
          }
        }, {
          "url": "text",
          "valueString": "Hispanic or Latino"
        } ]
      } ],
      "identifier": [ {
        "type": {
          "coding": [ {
            "system": "http://terminology.hl7.org/CodeSystem/v2-0203",
            "code": "MR"
          } ]
        },
        "system": "https://bonnie-fhir.healthit.gov/",
        "value": "633c9d030968f8012250fc7a"
      } ],
      "active": true,
      "name": [ {
        "use": "usual",
        "family": "DENOMFail",
        "given": [ "AtrialAblStartTM=EncStartTM" ]
      } ],
      "gender": "male",
      "birthDate": "1961-12-01"
    },
    "request": {
      "method": "PUT",
      "url": "Patient/5dd3cb00-eb9b-42ba-9af5-9cafa1475528"
    }
  }, {
    "fullUrl": "https://madie.cms.gov/claim/5ca62962b8484628b8de1ec5",
    "resource": {
      "resourceType": "Claim",
      "id": "5ca62962b8484628b8de1ec5",
      "meta": {
        "profile": [ "http://hl7.org/fhir/us/qicore/StructureDefinition/qicore-claim" ]
      },
      "status": "active",
      "type": {
        "coding": [ {
          "system": "http://terminology.hl7.org/CodeSystem/claim-type",
          "code": "institutional"
        } ]
      },
      "use": "claim",
      "patient": {
        "reference": "Patient/d170a0a8-b5ad-4303-b6df-e304dd5f92ad"
      },
      "created": "2026-12-01",
      "provider": {
        "reference": "Practitioner/f6e09131-5cfb-41b1-a984-b981bf3ddef3"
      },
      "priority": {
        "coding": [ {
          "system": "http://terminology.hl7.org/CodeSystem/processpriority",
          "code": "normal"
        } ]
      },
      "diagnosis": [ {
        "sequence": 1,
        "diagnosisCodeableConcept": {
          "coding": [ {
            "system": "http://hl7.org/fhir/sid/icd-10-cm",
            "code": "I63.00"
          } ]
        },
        "type": [ {
          "coding": [ {
            "system": "http://terminology.hl7.org/CodeSystem/ex-diagnosistype",
            "code": "principal"
          } ]
        } ]
      } ],
      "insurance": [ {
        "sequence": 1,
        "focal": true,
        "coverage": {
          "reference": "Coverage/5fa041661c76ba66d9959367"
        }
      } ],
      "item": [ {
        "sequence": 1,
        "diagnosisSequence": [ 1 ],
        "productOrService": {
          "coding": [ {
            "system": "http://terminology.hl7.org/CodeSystem/ex-USCLS",
            "code": "99555"
          } ]
        },
        "encounter": [ {
          "reference": "Encounter/e474ef41-96d0-432a-a7d8-55aa70f6d6e0"
        } ]
      } ]
    },
    "request": {
      "method": "PUT",
      "url": "Claim/5ca62962b8484628b8de1ec5"
    }
  }, {
    "fullUrl": "https://madie.cms.gov/Encounter/e474ef41-96d0-432a-a7d8-55aa70f6d6e0",
    "resource": {
      "resourceType": "Encounter",
      "id": "e474ef41-96d0-432a-a7d8-55aa70f6d6e0",
      "meta": {
        "profile": [ "http://hl7.org/fhir/us/qicore/StructureDefinition/qicore-encounter" ]
      },
      "status": "finished",
      "class": {
        "system": "http://terminology.hl7.org/CodeSystem/v3-ActCode",
        "code": "IMP",
        "display": "inpatient encounter"
      },
      "type": [ {
        "coding": [ {
          "system": "http://snomed.info/sct",
          "code": "32485007"
        } ]
      } ],
      "subject": {
        "reference": "Patient/5dd3cb00-eb9b-42ba-9af5-9cafa1475528"
      },
      "period": {
        "start": "2026-02-08T08:00:00.000+00:00",
        "end": "2026-02-10T08:15:00.000+00:00"
      },
      "length": {
        "value": 2,
        "unit": "days"
      },
      "reasonReference": [ {
        "reference": "Condition/667e3c92-c696-4a6c-98fa-bf842d8d9085"
      } ]
    },
    "request": {
      "method": "PUT",
      "url": "Encounter/e474ef41-96d0-432a-a7d8-55aa70f6d6e0"
    }
  }, {
    "fullUrl": "https://madie.cms.gov/Coverage/6e26fb1d-80e9-4a2b-8684-509f98bbce15",
    "resource": {
      "resourceType": "Coverage",
      "id": "6e26fb1d-80e9-4a2b-8684-509f98bbce15",
      "status": "active",
      "subscriberId": "523435",
      "beneficiary": {
        "reference": "Patient/5dd3cb00-eb9b-42ba-9af5-9cafa1475528"
      },
      "relationship": {
        "coding": [ {
          "system": "http://terminology.hl7.org/CodeSystem/subscriber-relationship",
          "code": "self"
        } ]
      },
      "period": {
        "start": "1961-12-01T08:00:00.000+00:00"
      },
      "payor": [ {
        "reference": "Organization/30301864-5d63-4f07-a2df-a83dcc510317"
      } ]
    },
    "request": {
      "method": "PUT",
      "url": "Coverage/6e26fb1d-80e9-4a2b-8684-509f98bbce15"
    }
  }, {
    "fullUrl": "https://madie.cms.gov/Procedure/0f72921b-cc5d-49eb-ab9e-1af8954a6e4b",
    "resource": {
      "resourceType": "Procedure",
      "id": "0f72921b-cc5d-49eb-ab9e-1af8954a6e4b",
      "meta": {
        "profile": [ "http://hl7.org/fhir/us/qicore/StructureDefinition/qicore-procedure" ]
      },
      "extension": [ {
        "url": "http://hl7.org/fhir/us/qicore/StructureDefinition/qicore-recorded",
        "valueDateTime": "2026-11-19T13:35:00.000+00:00"
      } ],
      "status": "completed",
      "code": {
        "coding": [ {
          "system": "http://www.cms.gov/Medicare/Coding/ICD10",
          "code": "02560ZZ"
        }, {
          "system": "http://snomed.info/sct",
          "code": "175095005"
        } ]
      },
      "subject": {
        "reference": "Patient/5dd3cb00-eb9b-42ba-9af5-9cafa1475528"
      },
      "performedPeriod": {
        "start": "2026-02-08T08:00:00.000+00:00"
      }
    },
    "request": {
      "method": "PUT",
      "url": "Procedure/0f72921b-cc5d-49eb-ab9e-1af8954a6e4b"
    }
  }, {
    "fullUrl": "https://madie.cms.gov/Condition/667e3c92-c696-4a6c-98fa-bf842d8d9085",
    "resource": {
      "resourceType": "Condition",
      "id": "667e3c92-c696-4a6c-98fa-bf842d8d9085",
      "meta": {
        "profile": [ "http://hl7.org/fhir/us/qicore/StructureDefinition/qicore-condition-problems-health-concerns" ]
      },
      "clinicalStatus": {
        "coding": [ {
          "system": "http://terminology.hl7.org/CodeSystem/condition-clinical",
          "code": "active"
        } ]
      },
      "verificationStatus": {
        "coding": [ {
          "system": "http://terminology.hl7.org/CodeSystem/condition-ver-status",
          "code": "confirmed"
        } ]
      },
      "category": [ {
        "coding": [ {
          "system": "http://terminology.hl7.org/CodeSystem/condition-category",
          "code": "encounter-diagnosis",
          "display": "Encounter Diagnosis"
        } ]
      } ],
      "code": {
        "coding": [ {
          "system": "http://snomed.info/sct",
          "version": "2021-09",
          "code": "111297002",
          "display": "Nonparalytic stroke (disorder)",
          "userSelected": true
        } ]
      },
      "subject": {
        "reference": "Patient/5dd3cb00-eb9b-42ba-9af5-9cafa1475528"
      },
      "recordedDate": "2026-10-13T08:00:00.000+00:00"
    },
    "request": {
      "method": "PUT",
      "url": "Condition/667e3c92-c696-4a6c-98fa-bf842d8d9085"
    }
  }, {
    "fullUrl": "https://madie.cms.gov/Organization/30301864-5d63-4f07-a2df-a83dcc510317",
    "resource": {
      "resourceType": "Organization",
      "id": "30301864-5d63-4f07-a2df-a83dcc510317",
      "meta": {
        "profile": [ "http://hl7.org/fhir/us/qicore/StructureDefinition/qicore-organization" ]
      },
      "identifier": [ {
        "use": "temp",
        "system": "urn:oid:2.16.840.1.113883.4.4",
        "value": "21-3259825"
      } ],
      "active": true,
      "type": [ {
        "coding": [ {
          "system": "http://terminology.hl7.org/CodeSystem/organization-type",
          "code": "pay",
          "display": "Payer"
        } ]
      } ],
      "name": "Blue Cross Blue Shield of Texas",
      "telecom": [ {
        "system": "phone",
        "value": "(+1) 972-766-6900"
      } ],
      "address": [ {
        "use": "billing",
        "type": "postal",
        "line": [ "P.O. Box 660044" ],
        "city": "Dallas",
        "state": "TX",
        "postalCode": "75266-0044",
        "country": "USA"
      } ]
    },
    "request": {
      "method": "PUT",
      "url": "Organization/30301864-5d63-4f07-a2df-a83dcc510317"
    }
  }, {
    "fullUrl": "https://madie.cms.gov/Practitioner/f6e09131-5cfb-41b1-a984-b981bf3ddef3",
    "resource": {
      "resourceType": "Practitioner",
      "id": "f6e09131-5cfb-41b1-a984-b981bf3ddef3",
      "meta": {
        "profile": [ "http://hl7.org/fhir/us/qicore/StructureDefinition/qicore-practitioner" ]
      },
      "identifier": [ {
        "system": "http://hl7.org/fhir/sid/us-npi",
        "value": "9999999896"
      } ],
      "name": [ {
        "family": "Evil",
        "prefix": [ "Dr" ]
      } ]
    },
    "request": {
      "method": "PUT",
      "url": "Practitioner/f6e09131-5cfb-41b1-a984-b981bf3ddef3"
    }
  }, {
    "fullUrl": "https://madie.cms.gov/MeasureReport/eb4a9494-936a-40f1-9e53-9fc85cf9b01e",
    "resource": {
      "resourceType": "MeasureReport",
      "id": "eb4a9494-936a-40f1-9e53-9fc85cf9b01e",
      "meta": {
        "profile": [ "http://hl7.org/fhir/us/cqfmeasures/StructureDefinition/test-case-cqfm" ]
      },
      "contained": [ {
        "resourceType": "Parameters",
        "id": "9b065607-91f9-4503-8f3b-b5362ebbef68-parameters",
        "parameter": [ {
          "name": "subject",
          "valueString": "5dd3cb00-eb9b-42ba-9af5-9cafa1475528"
        } ]
      } ],
      "extension": [ {
        "url": "http://hl7.org/fhir/StructureDefinition/cqf-inputParameters",
        "valueReference": {
          "reference": "#9b065607-91f9-4503-8f3b-b5362ebbef68-parameters"
        }
      }, {
        "url": "http://hl7.org/fhir/us/cqfmeasures/StructureDefinition/cqfm-testCaseDescription",
        "valueMarkdown": "Procedure performed Atrial Ablation starts at same time as OccA start time\n"
      } ],
      "modifierExtension": [ {
        "url": "http://hl7.org/fhir/us/cqfmeasures/StructureDefinition/cqfm-isTestCase",
        "valueBoolean": true
      } ],
      "status": "complete",
      "type": "individual",
      "measure": "https://madie.cms.gov/Measure/CMS71FHIRSTKAnticoagAFFlutter",
      "period": {
        "start": "2026-01-01",
        "end": "2026-12-31"
      },
      "group": [ {
        "id": "Group_1",
        "population": [ {
          "id": "InitialPopulation_1",
          "code": {
            "coding": [ {
              "system": "http://terminology.hl7.org/CodeSystem/measure-population",
              "code": "initial-population",
              "display": "Initial Population"
            } ]
          },
          "count": 1
        }, {
          "id": "Denominator_1",
          "code": {
            "coding": [ {
              "system": "http://terminology.hl7.org/CodeSystem/measure-population",
              "code": "denominator",
              "display": "Denominator"
            } ]
          },
          "count": 0
        }, {
          "id": "DenominatorExclusion_1",
          "code": {
            "coding": [ {
              "system": "http://terminology.hl7.org/CodeSystem/measure-population",
              "code": "denominator-exclusion",
              "display": "Denominator Exclusion"
            } ]
          },
          "count": 0
        }, {
          "id": "Numerator_1",
          "code": {
            "coding": [ {
              "system": "http://terminology.hl7.org/CodeSystem/measure-population",
              "code": "numerator",
              "display": "Numerator"
            } ]
          },
          "count": 0
        }, {
          "id": "DenominatorException_1",
          "code": {
            "coding": [ {
              "system": "http://terminology.hl7.org/CodeSystem/measure-population",
              "code": "denominator-exception",
              "display": "Denominator Exception"
            } ]
          },
          "count": 0
        } ],
        "measureScore": {
          "value": 0.0
        }
      } ],
      "evaluatedResource": [ {
        "reference": "Patient/5dd3cb00-eb9b-42ba-9af5-9cafa1475528"
      }, {
        "reference": "Claim/5ca62962b8484628b8de1ec5"
      }, {
        "reference": "Encounter/e474ef41-96d0-432a-a7d8-55aa70f6d6e0"
      }, {
        "reference": "Coverage/6e26fb1d-80e9-4a2b-8684-509f98bbce15"
      }, {
        "reference": "Procedure/0f72921b-cc5d-49eb-ab9e-1af8954a6e4b"
      }, {
        "reference": "Condition/667e3c92-c696-4a6c-98fa-bf842d8d9085"
      }, {
        "reference": "Organization/30301864-5d63-4f07-a2df-a83dcc510317"
      }, {
        "reference": "Practitioner/f6e09131-5cfb-41b1-a984-b981bf3ddef3"
      } ]
    },
    "request": {
      "method": "PUT",
      "url": "MeasureReport/eb4a9494-936a-40f1-9e53-9fc85cf9b01e"
    }
  } ]
}