{
  "resourceType": "Bundle",
  "id": "TMT-PATIENT-BUNDLE-21",
  "type": "collection",
  "entry": [ {
    "fullUrl": "https://madie.cms.gov/Patient/0170a407-20f1-4d94-8a33-bb861e4c7697",
    "resource": {
      "resourceType": "Patient",
      "id": "0170a407-20f1-4d94-8a33-bb861e4c7697",
      "meta": {
        "profile": [ "http://hl7.org/fhir/us/qicore/StructureDefinition/qicore-patient" ]
      },
      "text": {
        "status": "generated",
        "div": "<div xmlns=\"http://www.w3.org/1999/xhtml\"><div class=\"hapiHeaderText\">DOVE-IPP-PASS <b>PATIENT </b></div><table class=\"hapiPropertyTable\"><tbody><tr><td>Identifier</td><td>679a60f5-1866-49a0-9992-a7ded2451985</td></tr><tr><td>Date of birth</td><td><span>10 May 1960</span></td></tr></tbody></table></div>"
      },
      "extension": [ {
        "url": "http://hl7.org/fhir/us/core/StructureDefinition/us-core-race",
        "extension": [ {
          "url": "ombCategory",
          "valueCoding": {
            "system": "urn:oid:2.16.840.1.113883.6.238",
            "code": "1002-5",
            "display": "American Indian or Alaska Native",
            "userSelected": true
          }
        }, {
          "url": "text",
          "valueString": "American Indian or Alaska Native"
        }, {
          "url": "detailed",
          "valueCoding": {
            "system": "urn:oid:2.16.840.1.113883.6.238",
            "code": "1653-5",
            "display": "Tohono O'Odham"
          }
        } ]
      }, {
        "url": "http://hl7.org/fhir/us/core/StructureDefinition/us-core-ethnicity",
        "extension": [ {
          "url": "ombCategory",
          "valueCoding": {
            "system": "urn:oid:2.16.840.1.113883.6.238",
            "code": "2135-2",
            "display": "Hispanic or Latino",
            "userSelected": true
          }
        }, {
          "url": "text",
          "valueString": "Hispanic or Latino"
        }, {
          "url": "detailed",
          "valueCoding": {
            "system": "urn:oid:2.16.840.1.113883.6.238",
            "code": "2153-5",
            "display": "Mexican American Indian"
          }
        } ]
      }, {
        "id": "sex",
        "url": "http://hl7.org/fhir/us/core/StructureDefinition/us-core-sex",
        "valueCode": "184115007"
      } ],
      "identifier": [ {
        "use": "usual",
        "type": {
          "coding": [ {
            "system": "http://terminology.hl7.org/CodeSystem/v2-0203",
            "code": "MR"
          } ]
        },
        "system": "urn:oid:1.2.36.146.595.217.0.1",
        "value": "12345",
        "period": {
          "start": "1995-05-06"
        },
        "assigner": {
          "display": "Acme Healthcare"
        }
      } ],
      "active": true,
      "name": [ {
        "use": "official",
        "family": "Dovetestpatient21",
        "given": [ "Tom" ]
      } ],
      "telecom": [ {
        "system": "phone",
        "value": "(212) 212 1212",
        "use": "mobile",
        "rank": 1
      } ],
      "gender": "male",
      "birthDate": "1946-02-25",
      "_birthDate": {
        "extension": [ {
          "url": "http://hl7.org/fhir/StructureDefinition/patient-birthTime",
          "valueDateTime": "1946-02-25T19:35:45.000+00:00"
        } ]
      },
      "deceasedBoolean": false,
      "address": [ {
        "use": "home",
        "type": "both",
        "text": "1600 Pennslyvania Ave",
        "line": [ "1600 Pennslyvania Ave" ],
        "city": "Washington DC",
        "state": "DC",
        "postalCode": "20500",
        "period": {
          "start": "1946-12-25"
        }
      } ],
      "contact": [ {
        "relationship": [ {
          "coding": [ {
            "system": "http://terminology.hl7.org/CodeSystem/v2-0131",
            "code": "N"
          } ]
        } ],
        "name": {
          "family": "du Marché",
          "_family": {
            "extension": [ {
              "url": "http://hl7.org/fhir/StructureDefinition/humanname-own-prefix",
              "valueString": "VV"
            } ]
          },
          "given": [ "Bénédicte" ]
        },
        "telecom": [ {
          "system": "phone",
          "value": "+33 (237) 998327"
        } ],
        "address": {
          "use": "home",
          "type": "both",
          "line": [ "534 Erewhon St" ],
          "city": "PleasantVille",
          "district": "Rainbow",
          "state": "VT",
          "postalCode": "3999",
          "period": {
            "start": "1974-12-25"
          }
        },
        "gender": "female",
        "period": {
          "start": "2012"
        }
      } ],
      "managingOrganization": {
        "reference": "Organization/example"
      }
    }
  }, {
    "fullUrl": "https://madie.cms.gov/Encounter/d6b46018-4d8b-4063-bcfc-3bf8a2f736e4",
    "resource": {
      "resourceType": "Encounter",
      "id": "d6b46018-4d8b-4063-bcfc-3bf8a2f736e4",
      "meta": {
        "profile": [ "http://hl7.org/fhir/us/qicore/StructureDefinition/qicore-encounter" ]
      },
      "text": {
        "status": "generated",
        "div": "<div xmlns=\"http://www.w3.org/1999/xhtml\"><div class=\"hapiHeaderText\">Encounter Resource</div><table class=\"hapiPropertyTable\"><tbody><tr><td>Identifier</td><td>679a60f5-1866-49a0-9992-a7ded2451985</td></tr><tr><td>Date of birth</td><td><span>10 May 1960</span></td></tr></tbody></table></div>"
      },
      "status": "finished",
      "class": {
        "system": "http://terminology.hl7.org/CodeSystem/v3-ActCode",
        "code": "AMB",
        "display": "ambulatory"
      },
      "type": [ {
        "coding": [ {
          "system": "http://www.ama-assn.org/go/cpt",
          "code": "99202",
          "display": "Office or other outpatient visit for the evaluation and management of a new patient, which requires a medically appropriate history and/or examination and straightforward medical decision making. When using time for code selection, 15-29 minutes of total time is spent on the date of the encounter."
        } ]
      } ],
      "subject": {
        "reference": "Patient/0170a407-20f1-4d94-8a33-bb861e4c7697"
      },
      "period": {
        "start": "2026-05-15T02:30:00.000+00:00",
        "end": "2026-05-15T22:30:00.000+00:00"
      },
      "length": {
        "value": 20,
        "unit": "hours"
      },
      "reasonCode": [ {
        "coding": [ {
          "system": "http://hl7.org/fhir/sid/icd-10-cm",
          "code": "I26.01",
          "display": "Septic pulmonary embolism with acute cor pulmonale",
          "userSelected": true
        } ]
      } ],
      "reasonReference": [ {
        "reference": "Condition/23195465-5fcf-4243-8232-02b22a80d481"
      } ]
    }
  }, {
    "fullUrl": "https://madie.cms.gov/Condition/23195465-5fcf-4243-8232-02b22a80d481",
    "resource": {
      "resourceType": "Condition",
      "id": "23195465-5fcf-4243-8232-02b22a80d481",
      "meta": {
        "profile": [ "http://hl7.org/fhir/us/qicore/StructureDefinition/qicore-condition-encounter-diagnosis" ]
      },
      "text": {
        "status": "generated",
        "div": "<div xmlns=\"http://www.w3.org/1999/xhtml\"><p><b>Generated Narrative: Condition</b><a name=\"appendicitis-example\"> </a></p><div style=\"display: inline-block; background-color: #d9e0e7; padding: 6px; margin: 4px; border: 1px solid #8da1b4; border-radius: 5px; line-height: 60%\"><p style=\"margin-bottom: 0px\">Resource Condition &quot;appendicitis-example&quot; </p><p style=\"margin-bottom: 0px\">Profile: <a href=\"StructureDefinition-qicore-condition-encounter-diagnosis.html\">QICore Condition Encounter Diagnosis</a></p></div><p><b>clinicalStatus</b>: Active <span style=\"background: LightGoldenRodYellow; margin: 4px; border: 1px solid khaki\"> (<a href=\"http://terminology.hl7.org/5.4.0/CodeSystem-condition-clinical.html\">Condition Clinical Status Codes</a>#active)</span></p><p><b>verificationStatus</b>: Confirmed <span style=\"background: LightGoldenRodYellow; margin: 4px; border: 1px solid khaki\"> (<a href=\"http://terminology.hl7.org/5.4.0/CodeSystem-condition-ver-status.html\">ConditionVerificationStatus</a>#confirmed)</span></p><p><b>category</b>: Encounter Diagnosis <span style=\"background: LightGoldenRodYellow; margin: 4px; border: 1px solid khaki\"> (<a href=\"http://terminology.hl7.org/5.4.0/CodeSystem-condition-category.html\">Condition Category Codes</a>#encounter-diagnosis)</span></p><p><b>severity</b>: Severe (severity modifier) <span style=\"background: LightGoldenRodYellow; margin: 4px; border: 1px solid khaki\"> (<a href=\"https://browser.ihtsdotools.org/\">SNOMED CT</a>#24484000)</span></p><p><b>code</b>: Appendicitis <span style=\"background: LightGoldenRodYellow; margin: 4px; border: 1px solid khaki\"> (<a href=\"https://browser.ihtsdotools.org/\">SNOMED CT</a>#74400008 &quot;Appendicitis (disorder)&quot;)</span></p><p><b>bodySite</b>: Appendix structure <span style=\"background: LightGoldenRodYellow; margin: 4px; border: 1px solid khaki\"> (<a href=\"https://browser.ihtsdotools.org/\">SNOMED CT</a>#66754008)</span></p><p><b>subject</b>: <a href=\"Patient-example.html\">Patient/example</a> &quot; CHALMERS&quot;</p><p><b>encounter</b>: <a href=\"Encounter-example.html\">Encounter/example</a></p><p><b>onset</b>: 2012-05-24 00:00:00+0000</p><p><b>recordedDate</b>: 2012-05-24 00:00:00+0000</p></div>"
      },
      "clinicalStatus": {
        "coding": [ {
          "system": "http://terminology.hl7.org/CodeSystem/condition-clinical",
          "code": "active"
        } ]
      },
      "verificationStatus": {
        "coding": [ {
          "system": "http://terminology.hl7.org/CodeSystem/condition-ver-status",
          "code": "confirmed"
        } ]
      },
      "category": [ {
        "coding": [ {
          "system": "http://terminology.hl7.org/CodeSystem/condition-category",
          "code": "encounter-diagnosis",
          "display": "Encounter Diagnosis"
        } ]
      } ],
      "code": {
        "coding": [ {
          "system": "http://hl7.org/fhir/sid/icd-10-cm",
          "code": "I26.01",
          "display": "Septic pulmonary embolism with acute cor pulmonale"
        } ],
        "text": "Septic pulmonary embolism with acute cor pulmonale"
      },
      "subject": {
        "reference": "Patient/0170a407-20f1-4d94-8a33-bb861e4c7697"
      },
      "encounter": {
        "reference": "Encounter/d6b46018-4d8b-4063-bcfc-3bf8a2f736e4"
      },
      "onsetDateTime": "2026-05-15T02:30:00.000+00:00",
      "recordedDate": "2026-05-15T22:30:00.000+00:00"
    }
  }, {
    "fullUrl": "https://madie.cms.gov/Encounter/0b4c1d3d-df22-40a6-a71c-fe17124278c5",
    "resource": {
      "resourceType": "Encounter",
      "id": "0b4c1d3d-df22-40a6-a71c-fe17124278c5",
      "meta": {
        "profile": [ "http://hl7.org/fhir/us/qicore/StructureDefinition/qicore-encounter" ]
      },
      "text": {
        "status": "generated",
        "div": "<div xmlns=\"http://www.w3.org/1999/xhtml\"><div class=\"hapiHeaderText\">Generic Resource Narrative for Testing</div><table class=\"hapiPropertyTable\"><tbody><tr><td>Identifier</td><td>resource narrative</td></tr></tbody></table></div>"
      },
      "status": "finished",
      "class": {
        "system": "http://terminology.hl7.org/CodeSystem/v3-ActCode",
        "code": "AMB",
        "display": "ambulatory"
      },
      "type": [ {
        "coding": [ {
          "system": "http://www.ama-assn.org/go/cpt",
          "code": "99202",
          "display": "Office or other outpatient visit for the evaluation and management of a new patient, which requires a medically appropriate history and/or examination and straightforward medical decision making. When using time for code selection, 15-29 minutes of total time is spent on the date of the encounter."
        } ]
      } ],
      "subject": {
        "reference": "Patient/0170a407-20f1-4d94-8a33-bb861e4c7697"
      },
      "period": {
        "start": "2026-04-15T17:48:57.000+00:00",
        "end": "2026-04-15T17:48:57.000+00:00"
      },
      "length": {
        "value": 20,
        "unit": "hours"
      },
      "reasonCode": [ {
        "coding": [ {
          "system": "http://snomed.info/sct",
          "code": "10601006",
          "display": "Pain in lower limb (finding)",
          "userSelected": true
        } ]
      } ],
      "reasonReference": [ {
        "reference": "Condition/841186b8-3de2-468c-a486-9a9bd94c8a39"
      } ]
    }
  }, {
    "fullUrl": "https://madie.cms.gov/Condition/841186b8-3de2-468c-a486-9a9bd94c8a39",
    "resource": {
      "resourceType": "Condition",
      "id": "841186b8-3de2-468c-a486-9a9bd94c8a39",
      "meta": {
        "profile": [ "http://hl7.org/fhir/us/qicore/StructureDefinition/qicore-condition-encounter-diagnosis" ]
      },
      "text": {
        "status": "generated",
        "div": "<div xmlns=\"http://www.w3.org/1999/xhtml\"><p><b>Generated Narrative: Condition</b><a name=\"appendicitis-example\"> </a></p><div style=\"display: inline-block; background-color: #d9e0e7; padding: 6px; margin: 4px; border: 1px solid #8da1b4; border-radius: 5px; line-height: 60%\"><p style=\"margin-bottom: 0px\">Resource Condition &quot;appendicitis-example&quot; </p><p style=\"margin-bottom: 0px\">Profile: <a href=\"StructureDefinition-qicore-condition-encounter-diagnosis.html\">QICore Condition Encounter Diagnosis</a></p></div><p><b>clinicalStatus</b>: Active <span style=\"background: LightGoldenRodYellow; margin: 4px; border: 1px solid khaki\"> (<a href=\"http://terminology.hl7.org/5.4.0/CodeSystem-condition-clinical.html\">Condition Clinical Status Codes</a>#active)</span></p><p><b>verificationStatus</b>: Confirmed <span style=\"background: LightGoldenRodYellow; margin: 4px; border: 1px solid khaki\"> (<a href=\"http://terminology.hl7.org/5.4.0/CodeSystem-condition-ver-status.html\">ConditionVerificationStatus</a>#confirmed)</span></p><p><b>category</b>: Encounter Diagnosis <span style=\"background: LightGoldenRodYellow; margin: 4px; border: 1px solid khaki\"> (<a href=\"http://terminology.hl7.org/5.4.0/CodeSystem-condition-category.html\">Condition Category Codes</a>#encounter-diagnosis)</span></p><p><b>severity</b>: Severe (severity modifier) <span style=\"background: LightGoldenRodYellow; margin: 4px; border: 1px solid khaki\"> (<a href=\"https://browser.ihtsdotools.org/\">SNOMED CT</a>#24484000)</span></p><p><b>code</b>: Appendicitis <span style=\"background: LightGoldenRodYellow; margin: 4px; border: 1px solid khaki\"> (<a href=\"https://browser.ihtsdotools.org/\">SNOMED CT</a>#74400008 &quot;Appendicitis (disorder)&quot;)</span></p><p><b>bodySite</b>: Appendix structure <span style=\"background: LightGoldenRodYellow; margin: 4px; border: 1px solid khaki\"> (<a href=\"https://browser.ihtsdotools.org/\">SNOMED CT</a>#66754008)</span></p><p><b>subject</b>: <a href=\"Patient-example.html\">Patient/example</a> &quot; CHALMERS&quot;</p><p><b>encounter</b>: <a href=\"Encounter-example.html\">Encounter/example</a></p><p><b>onset</b>: 2012-05-24 00:00:00+0000</p><p><b>recordedDate</b>: 2012-05-24 00:00:00+0000</p></div>"
      },
      "clinicalStatus": {
        "coding": [ {
          "system": "http://terminology.hl7.org/CodeSystem/condition-clinical",
          "code": "active"
        } ]
      },
      "verificationStatus": {
        "coding": [ {
          "system": "http://terminology.hl7.org/CodeSystem/condition-ver-status",
          "code": "unconfirmed"
        } ]
      },
      "category": [ {
        "coding": [ {
          "system": "http://terminology.hl7.org/CodeSystem/condition-category",
          "code": "encounter-diagnosis",
          "display": "Encounter Diagnosis"
        } ]
      } ],
      "code": {
        "coding": [ {
          "system": "http://snomed.info/sct",
          "code": "10601006",
          "display": "Pain in lower limb (finding)"
        } ],
        "text": "Pain in lower limb (finding)"
      },
      "subject": {
        "reference": "Patient/0170a407-20f1-4d94-8a33-bb861e4c7697"
      },
      "encounter": {
        "reference": "Encounter/0b4c1d3d-df22-40a6-a71c-fe17124278c5"
      },
      "onsetDateTime": "2026-01-05T02:30:00.000+00:00",
      "recordedDate": "2026-01-05T22:30:00.000+00:00"
    }
  }, {
    "fullUrl": "https://madie.cms.gov/Observation/ba8e8b58-6609-4f49-82d8-49204730ffe9",
    "resource": {
      "resourceType": "Observation",
      "id": "ba8e8b58-6609-4f49-82d8-49204730ffe9",
      "meta": {
        "profile": [ "http://hl7.org/fhir/us/qicore/StructureDefinition/qicore-observation-clinical-result" ]
      },
      "text": {
        "status": "generated",
        "div": "<div xmlns=\"http://www.w3.org/1999/xhtml\"><p><b>Generated Narrative: Observation</b><a name=\"clinical-result-heart-rate-rhythm\"> </a></p><div style=\"display: inline-block; background-color: #d9e0e7; padding: 6px; margin: 4px; border: 1px solid #8da1b4; border-radius: 5px; line-height: 60%\"><p style=\"margin-bottom: 0px\">Resource Observation &quot;clinical-result-heart-rate-rhythm&quot; </p><p style=\"margin-bottom: 0px\">Profile: <a href=\"StructureDefinition-qicore-observation-clinical-result.html\">QICore Observation Clinical Result</a></p></div><p><b>status</b>: final</p><p><b>category</b>: Exam <span style=\"background: LightGoldenRodYellow; margin: 4px; border: 1px solid khaki\"> (<a href=\"http://terminology.hl7.org/5.4.0/CodeSystem-observation-category.html\">Observation Category Codes</a>#exam)</span></p><p><b>code</b>: Heart rate rhythm <span style=\"background: LightGoldenRodYellow; margin: 4px; border: 1px solid khaki\"> (<a href=\"https://loinc.org/\">LOINC</a>#8884-9)</span></p><p><b>subject</b>: <a href=\"Patient-example.html\">Patient/example</a> &quot; CHALMERS&quot;</p><p><b>encounter</b>: <span>: Cardiology Consult</span></p><p><b>effective</b>: 2021-11-10 16:48:57-0800</p><p><b>performer</b>: <a href=\"Practitioner-example.html\">Practitioner/example: Practitioner</a> &quot; CAREFUL&quot;</p><p><b>value</b>: Regular (R)</p></div>"
      },
      "status": "preliminary",
      "category": [ {
        "coding": [ {
          "system": "http://terminology.hl7.org/CodeSystem/observation-category",
          "code": "imaging",
          "display": "Imaging"
        } ],
        "text": "Imaging"
      } ],
      "code": {
        "coding": [ {
          "system": "http://www.ama-assn.org/go/cpt",
          "code": "71260",
          "display": "Computed tomography, thorax, diagnostic; with contrast material(s)"
        } ],
        "text": "Computed tomography, thorax, diagnostic; with contrast material(s)"
      },
      "subject": {
        "reference": "Patient/0170a407-20f1-4d94-8a33-bb861e4c7697"
      },
      "encounter": {
        "display": "Computed tomography"
      },
      "effectiveDateTime": "2026-05-15T17:48:57.000+00:00",
      "performer": [ {
        "reference": "Practitioner/example",
        "display": "Practitioner"
      } ],
      "valueString": "positive"
    }
  }, {
    "fullUrl": "https://madie.cms.gov/DiagnosticReport/2c3bbb20-397a-40d2-b331-54736347364e",
    "resource": {
      "resourceType": "DiagnosticReport",
      "id": "2c3bbb20-397a-40d2-b331-54736347364e",
      "meta": {
        "profile": [ "http://hl7.org/fhir/us/qicore/StructureDefinition/qicore-diagnosticreport-note" ]
      },
      "text": {
        "status": "generated",
        "div": "<div xmlns=\"http://www.w3.org/1999/xhtml\"><p><b>Generated Narrative: DiagnosticReport</b><a name=\"clinical-result-heart-rate-rhythm\"> </a></p><div style=\"display: inline-block; background-color: #d9e0e7; padding: 6px; margin: 4px; border: 1px solid #8da1b4; border-radius: 5px; line-height: 60%\"><p style=\"margin-bottom: 0px\">Resource Observation &quot;clinical-result-heart-rate-rhythm&quot; </p><p style=\"margin-bottom: 0px\">Profile: <a href=\"StructureDefinition-qicore-observation-clinical-result.html\">QICore Observation Clinical Result</a></p></div><p><b>status</b>: final</p><p><b>category</b>: Exam <span style=\"background: LightGoldenRodYellow; margin: 4px; border: 1px solid khaki\"> (<a href=\"http://terminology.hl7.org/5.4.0/CodeSystem-observation-category.html\">Observation Category Codes</a>#exam)</span></p><p><b>code</b>: Heart rate rhythm <span style=\"background: LightGoldenRodYellow; margin: 4px; border: 1px solid khaki\"> (<a href=\"https://loinc.org/\">LOINC</a>#8884-9)</span></p><p><b>subject</b>: <a href=\"Patient-example.html\">Patient/example</a> &quot; CHALMERS&quot;</p><p><b>encounter</b>: <span>: Cardiology Consult</span></p><p><b>effective</b>: 2021-11-10 16:48:57-0800</p><p><b>performer</b>: <a href=\"Practitioner-example.html\">Practitioner/example: Practitioner</a> &quot; CAREFUL&quot;</p><p><b>value</b>: Regular (R)</p></div>"
      },
      "status": "partial",
      "category": [ {
        "coding": [ {
          "system": "http://loinc.org",
          "code": "LP29684-5",
          "display": "Radiology"
        } ],
        "text": "Imaging"
      } ],
      "code": {
        "coding": [ {
          "system": "http://www.ama-assn.org/go/cpt",
          "code": "71260",
          "display": "Computed tomography, thorax, diagnostic; with contrast material(s)"
        } ],
        "text": "Computed tomography, thorax, diagnostic; with contrast material(s)"
      },
      "subject": {
        "reference": "Patient/0170a407-20f1-4d94-8a33-bb861e4c7697"
      },
      "encounter": {
        "display": "Computed tomography"
      },
      "effectiveDateTime": "2026-05-15T17:48:57.000+00:00",
      "performer": [ {
        "reference": "Practitioner/example",
        "display": "Practitioner"
      } ]
    }
  }, {
    "fullUrl": "https://madie.cms.gov/MedicationRequest/7395ceb7-8785-4049-9855-3a7dcc1908ac",
    "resource": {
      "resourceType": "MedicationRequest",
      "id": "7395ceb7-8785-4049-9855-3a7dcc1908ac",
      "meta": {
        "profile": [ "http://hl7.org/fhir/us/qicore/StructureDefinition/qicore-medicationrequest" ]
      },
      "text": {
        "status": "generated",
        "div": "<div xmlns=\"http://www.w3.org/1999/xhtml\"><div class=\"hapiHeaderText\">Generic Resource Narrative for Testing</div><table class=\"hapiPropertyTable\"><tbody><tr><td>Identifier</td><td>resource narrative</td></tr></tbody></table></div>"
      },
      "status": "active",
      "intent": "order",
      "category": [ {
        "coding": [ {
          "system": "http://terminology.hl7.org/CodeSystem/medicationrequest-category",
          "code": "discharge",
          "display": "Discharge",
          "userSelected": true
        } ]
      } ],
      "medicationCodeableConcept": {
        "coding": [ {
          "system": "http://www.nlm.nih.gov/research/umls/rxnorm",
          "code": "114194"
        } ]
      },
      "subject": {
        "reference": "Patient/0170a407-20f1-4d94-8a33-bb861e4c7697"
      },
      "authoredOn": "2026-05-15T10:48:57.000+00:00",
      "requester": {
        "reference": "Practitioner/example"
      }
    }
  }, {
    "fullUrl": "https://madie.cms.gov/Coverage/63ffdc26-47fa-478b-9bec-0111cba332ce",
    "resource": {
      "resourceType": "Coverage",
      "id": "63ffdc26-47fa-478b-9bec-0111cba332ce",
      "meta": {
        "profile": [ "http://hl7.org/fhir/us/qicore/StructureDefinition/qicore-coverage" ]
      },
      "text": {
        "status": "generated",
        "div": "<div xmlns=\"http://www.w3.org/1999/xhtml\"><div class=\"hapiHeaderText\">Generic Resource Narrative for Testing</div><table class=\"hapiPropertyTable\"><tbody><tr><td>Identifier</td><td>resource narrative</td></tr></tbody></table></div>"
      },
      "identifier": [ {
        "type": {
          "coding": [ {
            "system": "http://terminology.hl7.org/CodeSystem/v2-0203",
            "code": "MB"
          } ]
        }
      } ],
      "status": "active",
      "subscriber": {
        "reference": "Patient/0170a407-20f1-4d94-8a33-bb861e4c7697"
      },
      "beneficiary": {
        "reference": "Patient/0170a407-20f1-4d94-8a33-bb861e4c7697"
      },
      "relationship": {
        "coding": [ {
          "system": "http://terminology.hl7.org/CodeSystem/subscriber-relationship",
          "code": "self"
        } ]
      },
      "payor": [ {
        "reference": "Organization/258bc375-30d9-4bd8-ab58-dc4aae17f440"
      } ]
    }
  }, {
    "fullUrl": "https://madie.cms.gov/Claim/22d53557-c4e6-4ac9-81b7-baa4fc92598b",
    "resource": {
      "resourceType": "Claim",
      "id": "22d53557-c4e6-4ac9-81b7-baa4fc92598b",
      "meta": {
        "profile": [ "http://hl7.org/fhir/us/qicore/StructureDefinition/qicore-claim" ]
      },
      "text": {
        "status": "generated",
        "div": "<div xmlns=\"http://www.w3.org/1999/xhtml\"><div class=\"hapiHeaderText\">Generic Resource Narrative for Testing</div><table class=\"hapiPropertyTable\"><tbody><tr><td>Identifier</td><td>resource narrative</td></tr></tbody></table></div>"
      },
      "status": "active",
      "type": {
        "coding": [ {
          "system": "http://terminology.hl7.org/CodeSystem/claim-type",
          "code": "institutional"
        } ]
      },
      "use": "claim",
      "patient": {
        "reference": "Patient/0170a407-20f1-4d94-8a33-bb861e4c7697"
      },
      "created": "2026-01-01",
      "provider": {
        "reference": "Practitioner/practitioner-123456"
      },
      "priority": {
        "coding": [ {
          "system": "http://terminology.hl7.org/CodeSystem/processpriority",
          "code": "normal"
        } ]
      },
      "diagnosis": [ {
        "sequence": 1,
        "diagnosisCodeableConcept": {
          "coding": [ {
            "system": "http://hl7.org/fhir/sid/icd-10-cm",
            "code": "I63.00"
          } ]
        },
        "type": [ {
          "coding": [ {
            "system": "http://terminology.hl7.org/CodeSystem/ex-diagnosistype",
            "code": "principal"
          } ]
        } ]
      } ],
      "insurance": [ {
        "sequence": 1,
        "focal": true,
        "coverage": {
          "reference": "Coverage/5fa041661c76ba66d9959367"
        }
      } ],
      "item": [ {
        "sequence": 1,
        "diagnosisSequence": [ 1 ],
        "productOrService": {
          "coding": [ {
            "system": "http://terminology.hl7.org/CodeSystem/ex-USCLS",
            "code": "99555"
          } ]
        },
        "encounter": [ {
          "reference": "Encounter/d6b46018-4d8b-4063-bcfc-3bf8a2f736e4"
        } ]
      } ]
    }
  }, {
    "fullUrl": "https://madie.cms.gov/Organization/258bc375-30d9-4bd8-ab58-dc4aae17f440",
    "resource": {
      "resourceType": "Organization",
      "id": "258bc375-30d9-4bd8-ab58-dc4aae17f440",
      "meta": {
        "profile": [ "http://hl7.org/fhir/us/qicore/StructureDefinition/qicore-organization" ]
      },
      "text": {
        "status": "generated",
        "div": "<div xmlns=\"http://www.w3.org/1999/xhtml\"><div class=\"hapiHeaderText\">Generic Resource Narrative for Testing</div><table class=\"hapiPropertyTable\"><tbody><tr><td>Identifier</td><td>resource narrative</td></tr></tbody></table></div>"
      },
      "identifier": [ {
        "use": "temp",
        "system": "urn:oid:2.16.840.1.113883.4.4",
        "value": "21-3259825"
      } ],
      "active": true,
      "type": [ {
        "coding": [ {
          "system": "http://terminology.hl7.org/CodeSystem/organization-type",
          "code": "pay",
          "display": "Payer"
        } ]
      } ],
      "name": "Blue Cross Blue Shield of Texas",
      "telecom": [ {
        "system": "phone",
        "value": "(+1) 972-766-6900"
      } ],
      "address": [ {
        "use": "billing",
        "type": "postal",
        "line": [ "P.O. Box 660044" ],
        "city": "Dallas",
        "state": "TX",
        "postalCode": "75266-0044",
        "country": "USA"
      } ]
    }
  }, {
    "fullUrl": "https://madie.cms.gov/MeasureReport/79b37819-e802-4c24-b23d-063b382f8b49",
    "resource": {
      "resourceType": "MeasureReport",
      "id": "79b37819-e802-4c24-b23d-063b382f8b49",
      "meta": {
        "profile": [ "http://hl7.org/fhir/us/cqfmeasures/StructureDefinition/test-case-cqfm" ]
      },
      "contained": [ {
        "resourceType": "Parameters",
        "id": "3981c954-793e-49af-8205-d779527e6c1c-parameters",
        "parameter": [ {
          "name": "subject",
          "valueString": "0170a407-20f1-4d94-8a33-bb861e4c7697"
        } ]
      } ],
      "extension": [ {
        "url": "http://hl7.org/fhir/StructureDefinition/cqf-inputParameters",
        "valueReference": {
          "reference": "#3981c954-793e-49af-8205-d779527e6c1c-parameters"
        }
      }, {
        "url": "http://hl7.org/fhir/us/cqfmeasures/StructureDefinition/cqfm-testCaseDescription",
        "valueMarkdown": "The VTE Imaging's status is not in final, amended, or corrected status"
      } ],
      "modifierExtension": [ {
        "url": "http://hl7.org/fhir/us/cqfmeasures/StructureDefinition/cqfm-isTestCase",
        "valueBoolean": true
      } ],
      "status": "complete",
      "type": "individual",
      "measure": "https://madie.cms.gov/Measure/CMS1173FHIRDiagnosticDelayVTE",
      "period": {
        "start": "2026-01-01",
        "end": "2026-12-31"
      },
      "group": [ {
        "id": "Group_1",
        "population": [ {
          "id": "InitialPopulation_1",
          "code": {
            "coding": [ {
              "system": "http://terminology.hl7.org/CodeSystem/measure-population",
              "code": "initial-population",
              "display": "Initial Population"
            } ]
          },
          "count": 0
        }, {
          "id": "Denominator_1",
          "code": {
            "coding": [ {
              "system": "http://terminology.hl7.org/CodeSystem/measure-population",
              "code": "denominator",
              "display": "Denominator"
            } ]
          },
          "count": 0
        }, {
          "id": "DenominatorExclusion_1",
          "code": {
            "coding": [ {
              "system": "http://terminology.hl7.org/CodeSystem/measure-population",
              "code": "denominator-exclusion",
              "display": "Denominator Exclusion"
            } ]
          },
          "count": 0
        }, {
          "id": "Numerator_1",
          "code": {
            "coding": [ {
              "system": "http://terminology.hl7.org/CodeSystem/measure-population",
              "code": "numerator",
              "display": "Numerator"
            } ]
          },
          "count": 0
        } ],
        "measureScore": {
          "value": 0.0
        }
      } ],
      "evaluatedResource": [ {
        "reference": "Patient/0170a407-20f1-4d94-8a33-bb861e4c7697"
      }, {
        "reference": "Encounter/d6b46018-4d8b-4063-bcfc-3bf8a2f736e4"
      }, {
        "reference": "Condition/23195465-5fcf-4243-8232-02b22a80d481"
      }, {
        "reference": "Encounter/0b4c1d3d-df22-40a6-a71c-fe17124278c5"
      }, {
        "reference": "Condition/841186b8-3de2-468c-a486-9a9bd94c8a39"
      }, {
        "reference": "Observation/ba8e8b58-6609-4f49-82d8-49204730ffe9"
      }, {
        "reference": "DiagnosticReport/2c3bbb20-397a-40d2-b331-54736347364e"
      }, {
        "reference": "MedicationRequest/7395ceb7-8785-4049-9855-3a7dcc1908ac"
      }, {
        "reference": "Coverage/63ffdc26-47fa-478b-9bec-0111cba332ce"
      }, {
        "reference": "Claim/22d53557-c4e6-4ac9-81b7-baa4fc92598b"
      }, {
        "reference": "Organization/258bc375-30d9-4bd8-ab58-dc4aae17f440"
      } ]
    }
  } ]
}