{
  "resourceType": "Bundle",
  "id": "tests-DENEX-Pass-DTI-with-POA-bundle",
  "type": "transaction",
  "entry": [ {
    "fullUrl": "https://madie.cms.gov/Patient/f43f3deb-0762-48f6-a8c5-81303d6cd681",
    "resource": {
      "resourceType": "Patient",
      "id": "f43f3deb-0762-48f6-a8c5-81303d6cd681",
      "meta": {
        "profile": [ "http://hl7.org/fhir/us/qicore/StructureDefinition/qicore-patient" ]
      },
      "extension": [ {
        "url": "http://hl7.org/fhir/us/core/StructureDefinition/us-core-race",
        "extension": [ {
          "url": "ombCategory",
          "valueCoding": {
            "system": "urn:oid:2.16.840.1.113883.6.238",
            "code": "2028-9",
            "display": "Asian",
            "userSelected": true
          }
        }, {
          "url": "text",
          "valueString": "Asian"
        } ]
      }, {
        "url": "http://hl7.org/fhir/us/core/StructureDefinition/us-core-ethnicity",
        "extension": [ {
          "url": "ombCategory",
          "valueCoding": {
            "system": "urn:oid:2.16.840.1.113883.6.238",
            "code": "2186-5",
            "display": "Not Hispanic or Latino",
            "userSelected": true
          }
        }, {
          "url": "text",
          "valueString": "Not Hispanic or Latino"
        } ]
      } ],
      "identifier": [ {
        "type": {
          "coding": [ {
            "system": "http://terminology.hl7.org/CodeSystem/v2-0203",
            "code": "MR"
          } ]
        },
        "system": "https://bonnie-fhir.healthit.gov/",
        "value": "647f51ab5e6d159b6e36ee31"
      } ],
      "name": [ {
        "family": "DENEXPass",
        "given": [ "DTIwPOAequalY" ]
      } ],
      "gender": "other",
      "birthDate": "2006-02-01"
    },
    "request": {
      "method": "PUT",
      "url": "Patient/f43f3deb-0762-48f6-a8c5-81303d6cd681"
    }
  }, {
    "fullUrl": "https://madie.cms.gov/Encounter/f716e7ed-6067-4bc5-b40b-0df94fd4916e",
    "resource": {
      "resourceType": "Encounter",
      "id": "f716e7ed-6067-4bc5-b40b-0df94fd4916e",
      "meta": {
        "profile": [ "http://hl7.org/fhir/us/qicore/StructureDefinition/qicore-encounter" ]
      },
      "status": "finished",
      "class": {
        "system": "http://terminology.hl7.org/CodeSystem/v3-ActCode",
        "code": "IMP",
        "display": "inpatient encounter"
      },
      "type": [ {
        "coding": [ {
          "system": "http://snomed.info/sct",
          "version": "2022-09",
          "code": "183452005",
          "display": "Emergency hospital admission (procedure)",
          "userSelected": true
        } ]
      } ],
      "subject": {
        "reference": "Patient/f43f3deb-0762-48f6-a8c5-81303d6cd681"
      },
      "period": {
        "start": "2026-02-01T08:30:00.000+00:00",
        "end": "2026-02-06T08:15:00.000+00:00"
      }
    },
    "request": {
      "method": "PUT",
      "url": "Encounter/f716e7ed-6067-4bc5-b40b-0df94fd4916e"
    }
  }, {
    "fullUrl": "https://madie.cms.gov/Encounter/a08ddb56-1113-4674-9225-5fd18051832f",
    "resource": {
      "resourceType": "Encounter",
      "id": "a08ddb56-1113-4674-9225-5fd18051832f",
      "meta": {
        "profile": [ "http://hl7.org/fhir/us/qicore/StructureDefinition/qicore-encounter" ]
      },
      "status": "finished",
      "class": {
        "system": "http://terminology.hl7.org/CodeSystem/v3-ActCode",
        "code": "EMER",
        "display": "emergency"
      },
      "type": [ {
        "coding": [ {
          "system": "http://snomed.info/sct",
          "version": "2022-09",
          "code": "4525004",
          "display": "Emergency department patient visit (procedure)",
          "userSelected": true
        } ]
      } ],
      "subject": {
        "reference": "Patient/f43f3deb-0762-48f6-a8c5-81303d6cd681"
      },
      "period": {
        "start": "2026-01-31T08:00:00.000+00:00",
        "end": "2026-02-01T08:15:00.000+00:00"
      }
    },
    "request": {
      "method": "PUT",
      "url": "Encounter/a08ddb56-1113-4674-9225-5fd18051832f"
    }
  }, {
    "fullUrl": "https://madie.cms.gov/Claim/d74174ca-5561-498a-8992-0ae837a25c4d",
    "resource": {
      "resourceType": "Claim",
      "id": "d74174ca-5561-498a-8992-0ae837a25c4d",
      "meta": {
        "profile": [ "http://hl7.org/fhir/us/qicore/StructureDefinition/qicore-claim" ]
      },
      "status": "active",
      "type": {
        "coding": [ {
          "system": "http://terminology.hl7.org/CodeSystem/claim-type",
          "code": "professional"
        } ]
      },
      "use": "claim",
      "patient": {
        "reference": "Patient/f43f3deb-0762-48f6-a8c5-81303d6cd681"
      },
      "created": "2026-05-16",
      "priority": {
        "coding": [ {
          "system": "http://terminology.hl7.org/CodeSystem/processpriority",
          "code": "normal"
        } ]
      },
      "diagnosis": [ {
        "sequence": 1,
        "diagnosisCodeableConcept": {
          "coding": [ {
            "system": "http://hl7.org/fhir/sid/icd-10-cm",
            "code": "L89.006",
            "display": "Pressure-induced deep tissue damage of unspecified elbow"
          } ]
        },
        "type": [ {
          "coding": [ {
            "system": "http://terminology.hl7.org/CodeSystem/ex-diagnosistype",
            "code": "principal"
          } ]
        } ],
        "onAdmission": {
          "coding": [ {
            "system": "https://www.cms.gov/Medicare/Medicare-Fee-for-Service-Payment/HospitalAcqCond/Coding",
            "code": "Y"
          } ]
        }
      } ],
      "item": [ {
        "sequence": 1,
        "diagnosisSequence": [ 1, 5, 7 ],
        "productOrService": {
          "coding": [ {
            "system": "http://example.org/fhir/CodeSystem/ex-professionalservice",
            "code": "anesthesia"
          } ]
        },
        "servicedDate": "2026-04-11",
        "encounter": [ {
          "reference": "Encounter/f716e7ed-6067-4bc5-b40b-0df94fd4916e"
        } ]
      } ]
    },
    "request": {
      "method": "PUT",
      "url": "Claim/d74174ca-5561-498a-8992-0ae837a25c4d"
    }
  }, {
    "fullUrl": "https://madie.cms.gov/MeasureReport/836b19cd-b019-4152-9a63-09ce6881afb9",
    "resource": {
      "resourceType": "MeasureReport",
      "id": "836b19cd-b019-4152-9a63-09ce6881afb9",
      "meta": {
        "profile": [ "http://hl7.org/fhir/us/cqfmeasures/StructureDefinition/test-case-cqfm" ]
      },
      "contained": [ {
        "resourceType": "Parameters",
        "id": "05a29a7c-ca21-47b8-9f73-7a4ce1aee8d3-parameters",
        "parameter": [ {
          "name": "subject",
          "valueString": "f43f3deb-0762-48f6-a8c5-81303d6cd681"
        } ]
      } ],
      "extension": [ {
        "url": "http://hl7.org/fhir/StructureDefinition/cqf-inputParameters",
        "valueReference": {
          "reference": "#05a29a7c-ca21-47b8-9f73-7a4ce1aee8d3-parameters"
        }
      }, {
        "url": "http://hl7.org/fhir/us/cqfmeasures/StructureDefinition/cqfm-testCaseDescription",
        "valueMarkdown": "Inpatient encounter during MP. DTI present on Admission = Y, Denex pass"
      } ],
      "modifierExtension": [ {
        "url": "http://hl7.org/fhir/us/cqfmeasures/StructureDefinition/cqfm-isTestCase",
        "valueBoolean": true
      } ],
      "status": "complete",
      "type": "individual",
      "measure": "https://madie.cms.gov/Measure/CMS826FHIRHHPI",
      "period": {
        "start": "2026-01-01",
        "end": "2026-12-31"
      },
      "group": [ {
        "id": "Group_1",
        "population": [ {
          "id": "InitialPopulation_1",
          "code": {
            "coding": [ {
              "system": "http://terminology.hl7.org/CodeSystem/measure-population",
              "code": "initial-population",
              "display": "Initial Population"
            } ]
          },
          "count": 1
        }, {
          "id": "Denominator_1",
          "code": {
            "coding": [ {
              "system": "http://terminology.hl7.org/CodeSystem/measure-population",
              "code": "denominator",
              "display": "Denominator"
            } ]
          },
          "count": 1
        }, {
          "id": "DenominatorExclusion_1",
          "code": {
            "coding": [ {
              "system": "http://terminology.hl7.org/CodeSystem/measure-population",
              "code": "denominator-exclusion",
              "display": "Denominator Exclusion"
            } ]
          },
          "count": 1
        }, {
          "id": "Numerator_1",
          "code": {
            "coding": [ {
              "system": "http://terminology.hl7.org/CodeSystem/measure-population",
              "code": "numerator",
              "display": "Numerator"
            } ]
          },
          "count": 0
        } ],
        "measureScore": {
          "value": 0.0
        }
      } ],
      "evaluatedResource": [ {
        "reference": "Patient/f43f3deb-0762-48f6-a8c5-81303d6cd681"
      }, {
        "reference": "Encounter/f716e7ed-6067-4bc5-b40b-0df94fd4916e"
      }, {
        "reference": "Encounter/a08ddb56-1113-4674-9225-5fd18051832f"
      }, {
        "reference": "Claim/d74174ca-5561-498a-8992-0ae837a25c4d"
      } ]
    },
    "request": {
      "method": "PUT",
      "url": "MeasureReport/836b19cd-b019-4152-9a63-09ce6881afb9"
    }
  } ]
}