{
  "resourceType": "Bundle",
  "id": "60f82c2f98086b570510e2ca",
  "type": "transaction",
  "entry": [ {
    "fullUrl": "https://madie.cms.gov/Patient/cc23329d-6635-4347-8669-a98c921f4381",
    "resource": {
      "resourceType": "Patient",
      "id": "cc23329d-6635-4347-8669-a98c921f4381",
      "meta": {
        "profile": [ "http://hl7.org/fhir/us/qicore/StructureDefinition/qicore-patient" ]
      },
      "text": {
        "status": "generated",
        "div": "<div xmlns=\"http://www.w3.org/1999/xhtml\"><div class=\"hapiHeaderText\">INRdurED_ED=1hrNoObsBFEncDayOf_INR_Att <b>DENEXCEPASS </b></div><table class=\"hapiPropertyTable\"><tbody><tr><td>Identifier</td><td>b60c027f1b1c264b4ad909c1c0014b64a063a10a885e293b05b431fd30fe7c78</td></tr><tr><td>Date of birth</td><td><span>26 September 1975</span></td></tr></tbody></table></div>"
      },
      "extension": [ {
        "url": "http://hl7.org/fhir/us/core/StructureDefinition/us-core-race",
        "extension": [ {
          "url": "ombCategory",
          "valueCoding": {
            "system": "urn:oid:2.16.840.1.113883.6.238",
            "code": "2054-5",
            "display": "Black or African American",
            "userSelected": true
          }
        }, {
          "url": "text",
          "valueString": "Black or African American"
        } ]
      }, {
        "url": "http://hl7.org/fhir/us/core/StructureDefinition/us-core-ethnicity",
        "extension": [ {
          "url": "ombCategory",
          "valueCoding": {
            "system": "urn:oid:2.16.840.1.113883.6.238",
            "code": "2186-5",
            "display": "Not Hispanic or Latino",
            "userSelected": true
          }
        }, {
          "url": "text",
          "valueString": "Not Hispanic or Latino"
        } ]
      } ],
      "identifier": [ {
        "type": {
          "coding": [ {
            "system": "http://terminology.hl7.org/CodeSystem/v2-0203",
            "code": "MR"
          } ]
        },
        "system": "https://bonnie-fhir.healthit.gov/",
        "value": "60f82c2f98086b570510e2ca"
      } ],
      "active": true,
      "name": [ {
        "use": "usual",
        "family": "DENEXCEPass",
        "given": [ "INRdurED_ED=1hrNoObsBFEncDayOf_INR_Att " ]
      } ],
      "gender": "female",
      "birthDate": "1976-09-26"
    },
    "request": {
      "method": "PUT",
      "url": "Patient/cc23329d-6635-4347-8669-a98c921f4381"
    }
  }, {
    "fullUrl": "https://madie.cms.gov/Encounter/989e553e-d099-435c-8b45-8e7e75ce6789",
    "resource": {
      "resourceType": "Encounter",
      "id": "989e553e-d099-435c-8b45-8e7e75ce6789",
      "meta": {
        "profile": [ "http://hl7.org/fhir/us/qicore/StructureDefinition/qicore-encounter" ]
      },
      "status": "finished",
      "class": {
        "system": "http://terminology.hl7.org/CodeSystem/v3-ActCode",
        "code": "EMER",
        "display": "emergency",
        "userSelected": true
      },
      "type": [ {
        "coding": [ {
          "system": "http://snomed.info/sct",
          "code": "4525004"
        } ]
      } ],
      "subject": {
        "reference": "Patient/cc23329d-6635-4347-8669-a98c921f4381"
      },
      "period": {
        "start": "2026-10-10T06:15:00.000+00:00",
        "end": "2026-10-10T06:31:00.000+00:00"
      },
      "length": {
        "value": 0,
        "unit": "days"
      }
    },
    "request": {
      "method": "PUT",
      "url": "Encounter/989e553e-d099-435c-8b45-8e7e75ce6789"
    }
  }, {
    "fullUrl": "https://madie.cms.gov/Encounter/be0089fa-6380-4a05-befb-58c51b61fc53",
    "resource": {
      "resourceType": "Encounter",
      "id": "be0089fa-6380-4a05-befb-58c51b61fc53",
      "meta": {
        "profile": [ "http://hl7.org/fhir/us/qicore/StructureDefinition/qicore-encounter" ]
      },
      "status": "finished",
      "class": {
        "system": "http://terminology.hl7.org/CodeSystem/v3-ActCode",
        "code": "IMP",
        "display": "inpatient encounter",
        "userSelected": true
      },
      "type": [ {
        "coding": [ {
          "system": "http://snomed.info/sct",
          "code": "32485007"
        } ]
      } ],
      "subject": {
        "reference": "Patient/cc23329d-6635-4347-8669-a98c921f4381"
      },
      "period": {
        "start": "2026-10-10T07:31:00.000+00:00",
        "end": "2026-10-15T11:30:00.000+00:00"
      },
      "length": {
        "value": 5,
        "unit": "days"
      },
      "reasonReference": [ {
        "reference": "Condition/db2f36e5-5edf-47bf-bd48-a832c1e325ca"
      } ]
    },
    "request": {
      "method": "PUT",
      "url": "Encounter/be0089fa-6380-4a05-befb-58c51b61fc53"
    }
  }, {
    "fullUrl": "https://madie.cms.gov/claim/5ca62962b8484628b8de1ec5",
    "resource": {
      "resourceType": "Claim",
      "id": "5ca62962b8484628b8de1ec5",
      "meta": {
        "profile": [ "http://hl7.org/fhir/us/qicore/StructureDefinition/qicore-claim" ]
      },
      "status": "active",
      "type": {
        "coding": [ {
          "system": "http://terminology.hl7.org/CodeSystem/claim-type",
          "code": "institutional"
        } ]
      },
      "use": "claim",
      "patient": {
        "reference": "Patient/d170a0a8-b5ad-4303-b6df-e304dd5f92ad"
      },
      "created": "2026-12-01",
      "provider": {
        "reference": "Practitioner/practitioner-123456"
      },
      "priority": {
        "coding": [ {
          "system": "http://terminology.hl7.org/CodeSystem/processpriority",
          "code": "normal"
        } ]
      },
      "diagnosis": [ {
        "sequence": 1,
        "diagnosisCodeableConcept": {
          "coding": [ {
            "system": "http://hl7.org/fhir/sid/icd-10-cm",
            "code": "I63.00"
          } ]
        },
        "type": [ {
          "coding": [ {
            "system": "http://terminology.hl7.org/CodeSystem/ex-diagnosistype",
            "code": "principal"
          } ]
        } ]
      } ],
      "insurance": [ {
        "sequence": 1,
        "focal": true,
        "coverage": {
          "reference": "Coverage/5fa041661c76ba66d9959367"
        }
      } ],
      "item": [ {
        "sequence": 1,
        "diagnosisSequence": [ 1 ],
        "productOrService": {
          "coding": [ {
            "system": "http://terminology.hl7.org/CodeSystem/ex-USCLS",
            "code": "99555"
          } ]
        },
        "encounter": [ {
          "reference": "Encounter/be0089fa-6380-4a05-befb-58c51b61fc53"
        } ]
      } ]
    },
    "request": {
      "method": "PUT",
      "url": "Claim/5ca62962b8484628b8de1ec5"
    }
  }, {
    "fullUrl": "https://madie.cms.gov/Observation/6374987a-b707-47ab-81ac-0ff2dc684ac2",
    "resource": {
      "resourceType": "Observation",
      "id": "6374987a-b707-47ab-81ac-0ff2dc684ac2",
      "meta": {
        "profile": [ "http://hl7.org/fhir/us/qicore/StructureDefinition/qicore-observation-lab" ]
      },
      "status": "final",
      "category": [ {
        "coding": [ {
          "system": "http://terminology.hl7.org/CodeSystem/observation-category",
          "code": "laboratory",
          "display": "Laboratory"
        } ]
      } ],
      "code": {
        "coding": [ {
          "system": "http://loinc.org",
          "code": "34714-6"
        } ]
      },
      "subject": {
        "reference": "Patient/cc23329d-6635-4347-8669-a98c921f4381"
      },
      "effectivePeriod": {
        "start": "2026-10-10T06:15:00.000+00:00"
      },
      "issued": "2026-10-10T06:31:00.000+00:00",
      "valueQuantity": {
        "value": 3.6
      },
      "method": {
        "coding": [ {
          "system": "http://loinc.org",
          "code": "34714-6",
          "display": "INR in Blood by Coagulation assay"
        } ]
      },
      "referenceRange": [ {
        "low": {
          "value": 1,
          "system": "http://unitsofmeasure.org"
        },
        "high": {
          "value": 4,
          "system": "http://unitsofmeasure.org"
        }
      } ]
    },
    "request": {
      "method": "PUT",
      "url": "Observation/6374987a-b707-47ab-81ac-0ff2dc684ac2"
    }
  }, {
    "fullUrl": "https://madie.cms.gov/Coverage/fea38cbf-bae3-4176-ae49-6bb2a4fb7fcf",
    "resource": {
      "resourceType": "Coverage",
      "id": "fea38cbf-bae3-4176-ae49-6bb2a4fb7fcf",
      "status": "active",
      "subscriberId": "523435",
      "beneficiary": {
        "reference": "Patient/cc23329d-6635-4347-8669-a98c921f4381"
      },
      "relationship": {
        "coding": [ {
          "system": "http://terminology.hl7.org/CodeSystem/subscriber-relationship",
          "code": "self"
        } ]
      },
      "period": {
        "start": "1976-09-26T08:00:00.000+00:00"
      },
      "payor": [ {
        "reference": "Organization/8d36be61-feeb-46b2-8d65-286090543dc3"
      } ]
    },
    "request": {
      "method": "PUT",
      "url": "Coverage/fea38cbf-bae3-4176-ae49-6bb2a4fb7fcf"
    }
  }, {
    "fullUrl": "https://madie.cms.gov/Condition/db2f36e5-5edf-47bf-bd48-a832c1e325ca",
    "resource": {
      "resourceType": "Condition",
      "id": "db2f36e5-5edf-47bf-bd48-a832c1e325ca",
      "meta": {
        "profile": [ "http://hl7.org/fhir/us/qicore/StructureDefinition/qicore-condition-encounter-diagnosis" ]
      },
      "clinicalStatus": {
        "coding": [ {
          "system": "http://terminology.hl7.org/CodeSystem/condition-clinical",
          "code": "active"
        } ]
      },
      "verificationStatus": {
        "coding": [ {
          "system": "http://terminology.hl7.org/CodeSystem/condition-ver-status",
          "code": "confirmed"
        } ]
      },
      "category": [ {
        "coding": [ {
          "system": "http://terminology.hl7.org/CodeSystem/condition-category",
          "code": "encounter-diagnosis",
          "display": "Encounter Diagnosis"
        } ]
      } ],
      "code": {
        "coding": [ {
          "system": "http://snomed.info/sct",
          "version": "2020-09",
          "code": "111297002",
          "display": "Nonparalytic stroke (disorder)",
          "userSelected": true
        } ]
      },
      "subject": {
        "reference": "Patient/cc23329d-6635-4347-8669-a98c921f4381"
      },
      "recordedDate": "2026-08-06T08:00:00.000+00:00"
    },
    "request": {
      "method": "PUT",
      "url": "Condition/db2f36e5-5edf-47bf-bd48-a832c1e325ca"
    }
  }, {
    "fullUrl": "https://madie.cms.gov/Organization/8d36be61-feeb-46b2-8d65-286090543dc3",
    "resource": {
      "resourceType": "Organization",
      "id": "8d36be61-feeb-46b2-8d65-286090543dc3",
      "meta": {
        "profile": [ "http://hl7.org/fhir/us/qicore/StructureDefinition/qicore-organization" ]
      },
      "identifier": [ {
        "use": "temp",
        "system": "urn:oid:2.16.840.1.113883.4.4",
        "value": "21-3259825"
      } ],
      "active": true,
      "type": [ {
        "coding": [ {
          "system": "http://terminology.hl7.org/CodeSystem/organization-type",
          "code": "pay",
          "display": "Payer"
        } ]
      } ],
      "name": "Blue Cross Blue Shield of Texas",
      "telecom": [ {
        "system": "phone",
        "value": "(+1) 972-766-6900"
      } ],
      "address": [ {
        "use": "billing",
        "type": "postal",
        "line": [ "P.O. Box 660044" ],
        "city": "Dallas",
        "state": "TX",
        "postalCode": "75266-0044",
        "country": "USA"
      } ]
    },
    "request": {
      "method": "PUT",
      "url": "Organization/8d36be61-feeb-46b2-8d65-286090543dc3"
    }
  }, {
    "fullUrl": "https://madie.cms.gov/MeasureReport/26cd60cb-66de-4731-a260-357cb4ad0fb1",
    "resource": {
      "resourceType": "MeasureReport",
      "id": "26cd60cb-66de-4731-a260-357cb4ad0fb1",
      "meta": {
        "profile": [ "http://hl7.org/fhir/us/cqfmeasures/StructureDefinition/test-case-cqfm" ]
      },
      "contained": [ {
        "resourceType": "Parameters",
        "id": "5c60eb17-9b07-478e-8f2d-37552ddac970-parameters",
        "parameter": [ {
          "name": "subject",
          "valueString": "cc23329d-6635-4347-8669-a98c921f4381"
        } ]
      } ],
      "extension": [ {
        "url": "http://hl7.org/fhir/StructureDefinition/cqf-inputParameters",
        "valueReference": {
          "reference": "#5c60eb17-9b07-478e-8f2d-37552ddac970-parameters"
        }
      }, {
        "url": "http://hl7.org/fhir/us/cqfmeasures/StructureDefinition/cqfm-testCaseDescription",
        "valueMarkdown": "Patient receives INR of 3.6 the day of ED start. ED ends 60 minute before IP on the same day. No Obs. Testing Day of operator with HospitalizationWithObservation function.\n"
      } ],
      "modifierExtension": [ {
        "url": "http://hl7.org/fhir/us/cqfmeasures/StructureDefinition/cqfm-isTestCase",
        "valueBoolean": true
      } ],
      "status": "complete",
      "type": "individual",
      "measure": "https://madie.cms.gov/Measure/CMS72FHIRSTKAntithromboticDay2",
      "period": {
        "start": "2026-01-01",
        "end": "2026-12-31"
      },
      "group": [ {
        "id": "Group_1",
        "population": [ {
          "id": "InitialPopulation_1",
          "code": {
            "coding": [ {
              "system": "http://terminology.hl7.org/CodeSystem/measure-population",
              "code": "initial-population",
              "display": "Initial Population"
            } ]
          },
          "count": 1
        }, {
          "id": "Denominator_1",
          "code": {
            "coding": [ {
              "system": "http://terminology.hl7.org/CodeSystem/measure-population",
              "code": "denominator",
              "display": "Denominator"
            } ]
          },
          "count": 1
        }, {
          "id": "DenominatorExclusion_1",
          "code": {
            "coding": [ {
              "system": "http://terminology.hl7.org/CodeSystem/measure-population",
              "code": "denominator-exclusion",
              "display": "Denominator Exclusion"
            } ]
          },
          "count": 0
        }, {
          "id": "Numerator_1",
          "code": {
            "coding": [ {
              "system": "http://terminology.hl7.org/CodeSystem/measure-population",
              "code": "numerator",
              "display": "Numerator"
            } ]
          },
          "count": 0
        }, {
          "id": "DenominatorException_1",
          "code": {
            "coding": [ {
              "system": "http://terminology.hl7.org/CodeSystem/measure-population",
              "code": "denominator-exception",
              "display": "Denominator Exception"
            } ]
          },
          "count": 1
        } ],
        "measureScore": {
          "value": 0.0
        }
      } ],
      "evaluatedResource": [ {
        "reference": "Patient/cc23329d-6635-4347-8669-a98c921f4381"
      }, {
        "reference": "Encounter/989e553e-d099-435c-8b45-8e7e75ce6789"
      }, {
        "reference": "Encounter/be0089fa-6380-4a05-befb-58c51b61fc53"
      }, {
        "reference": "Claim/5ca62962b8484628b8de1ec5"
      }, {
        "reference": "Observation/6374987a-b707-47ab-81ac-0ff2dc684ac2"
      }, {
        "reference": "Coverage/fea38cbf-bae3-4176-ae49-6bb2a4fb7fcf"
      }, {
        "reference": "Condition/db2f36e5-5edf-47bf-bd48-a832c1e325ca"
      }, {
        "reference": "Organization/8d36be61-feeb-46b2-8d65-286090543dc3"
      } ]
    },
    "request": {
      "method": "PUT",
      "url": "MeasureReport/26cd60cb-66de-4731-a260-357cb4ad0fb1"
    }
  } ]
}