{
  "resourceType": "Bundle",
  "id": "Patient-IPPass-MedicalNutritionTherapy",
  "type": "transaction",
  "entry": [ {
    "fullUrl": "https://madie.cms.gov/Patient/1e954801-6437-4abc-8fb8-d36b5b5b97d8",
    "resource": {
      "resourceType": "Patient",
      "id": "1e954801-6437-4abc-8fb8-d36b5b5b97d8",
      "meta": {
        "profile": [ "http://hl7.org/fhir/us/qicore/StructureDefinition/qicore-patient" ]
      },
      "extension": [ {
        "url": "http://hl7.org/fhir/us/core/StructureDefinition/us-core-race",
        "extension": [ {
          "url": "ombCategory",
          "valueCoding": {
            "system": "urn:oid:2.16.840.1.113883.6.238",
            "code": "2028-9",
            "display": "Asian"
          }
        }, {
          "url": "text",
          "valueString": "Asian"
        } ]
      }, {
        "url": "http://hl7.org/fhir/us/core/StructureDefinition/us-core-ethnicity",
        "extension": [ {
          "url": "ombCategory",
          "valueCoding": {
            "system": "urn:oid:2.16.840.1.113883.6.238",
            "code": "2135-2",
            "display": "Hispanic or Latino"
          }
        }, {
          "url": "text",
          "valueString": "Hispanic or Latino"
        } ]
      } ],
      "identifier": [ {
        "system": "http://hospital.smarthealthit.org",
        "value": "999999995"
      } ],
      "name": [ {
        "family": "Bertha",
        "given": [ "Betty" ]
      } ],
      "gender": "female",
      "birthDate": "2008-01-01"
    },
    "request": {
      "method": "PUT",
      "url": "Patient/1e954801-6437-4abc-8fb8-d36b5b5b97d8"
    }
  }, {
    "fullUrl": "https://madie.cms.gov/Encounter/bd002c27-7a87-4139-b217-51681aff55fe",
    "resource": {
      "resourceType": "Encounter",
      "id": "bd002c27-7a87-4139-b217-51681aff55fe",
      "meta": {
        "profile": [ "http://hl7.org/fhir/us/qicore/StructureDefinition/qicore-encounter" ]
      },
      "status": "finished",
      "class": {
        "system": "http://terminology.hl7.org/CodeSystem/v3-ActCode",
        "code": "AMB",
        "display": "ambulatory"
      },
      "type": [ {
        "coding": [ {
          "system": "http://www.cms.gov/Medicare/Coding/HCPCSReleaseCodeSets",
          "code": "G0271",
          "display": "Medical nutrition therapy, reassessment and subsequent intervention(s) following second referral in same year for change in diagnosis, medical condition, or treatment regimen (including additional hours needed for renal disease), group (2 or more individuals), each 30 minutes"
        } ]
      } ],
      "subject": {
        "reference": "Patient/1e954801-6437-4abc-8fb8-d36b5b5b97d8"
      },
      "period": {
        "start": "2026-01-01T00:00:00.000+00:00",
        "end": "2026-01-01T00:15:00.000+00:00"
      }
    },
    "request": {
      "method": "PUT",
      "url": "Encounter/bd002c27-7a87-4139-b217-51681aff55fe"
    }
  }, {
    "fullUrl": "https://madie.cms.gov/Condition/40c7558e-d817-44ff-a55c-10586c279122",
    "resource": {
      "resourceType": "Condition",
      "id": "40c7558e-d817-44ff-a55c-10586c279122",
      "meta": {
        "profile": [ "http://hl7.org/fhir/us/qicore/StructureDefinition/qicore-condition-encounter-diagnosis" ]
      },
      "clinicalStatus": {
        "coding": [ {
          "system": "http://terminology.hl7.org/CodeSystem/condition-clinical",
          "code": "active"
        } ]
      },
      "category": [ {
        "coding": [ {
          "system": "http://terminology.hl7.org/CodeSystem/condition-category",
          "code": "encounter-diagnosis",
          "display": "Encounter Diagnosis"
        } ]
      } ],
      "code": {
        "coding": [ {
          "system": "http://snomed.info/sct",
          "code": "102781000119107",
          "display": "Sensory neuropathy due to type 1 diabetes mellitus (disorder)"
        } ]
      },
      "subject": {
        "reference": "Patient/1e954801-6437-4abc-8fb8-d36b5b5b97d8"
      },
      "onsetDateTime": "2026-01-01T23:59:00.000+00:00"
    },
    "request": {
      "method": "PUT",
      "url": "Condition/40c7558e-d817-44ff-a55c-10586c279122"
    }
  }, {
    "fullUrl": "https://madie.cms.gov/MeasureReport/a3aca61d-6c98-479b-b73e-e620f588670a",
    "resource": {
      "resourceType": "MeasureReport",
      "id": "a3aca61d-6c98-479b-b73e-e620f588670a",
      "meta": {
        "profile": [ "http://hl7.org/fhir/us/cqfmeasures/StructureDefinition/test-case-cqfm" ]
      },
      "contained": [ {
        "resourceType": "Parameters",
        "id": "b134ee24-3f76-4191-8b1f-48b481d75a9a-parameters",
        "parameter": [ {
          "name": "subject",
          "valueString": "1e954801-6437-4abc-8fb8-d36b5b5b97d8"
        } ]
      } ],
      "extension": [ {
        "url": "http://hl7.org/fhir/StructureDefinition/cqf-inputParameters",
        "valueReference": {
          "reference": "#b134ee24-3f76-4191-8b1f-48b481d75a9a-parameters"
        }
      }, {
        "url": "http://hl7.org/fhir/us/cqfmeasures/StructureDefinition/cqfm-testCaseDescription",
        "valueMarkdown": "Encounter is medical nutrition therapy, reassessment/subsequent intervention(s) after 2nd referral same year for dx change, med condition, or treatment regimen (incl. additional hrs. needed for renal disease), group (2+ individuals), each 30 minutes"
      } ],
      "modifierExtension": [ {
        "url": "http://hl7.org/fhir/us/cqfmeasures/StructureDefinition/cqfm-isTestCase",
        "valueBoolean": true
      } ],
      "status": "complete",
      "type": "individual",
      "measure": "https://madie.cms.gov/Measure/CMS122FHIRDiabetesAssessGT9Pct",
      "period": {
        "start": "2026-01-01",
        "end": "2026-12-31"
      },
      "group": [ {
        "id": "Group_1",
        "population": [ {
          "id": "InitialPopulation_1",
          "code": {
            "coding": [ {
              "system": "http://terminology.hl7.org/CodeSystem/measure-population",
              "code": "initial-population",
              "display": "Initial Population"
            } ]
          },
          "count": 1
        }, {
          "id": "Denominator_1",
          "code": {
            "coding": [ {
              "system": "http://terminology.hl7.org/CodeSystem/measure-population",
              "code": "denominator",
              "display": "Denominator"
            } ]
          },
          "count": 1
        }, {
          "id": "DenominatorExclusion_1",
          "code": {
            "coding": [ {
              "system": "http://terminology.hl7.org/CodeSystem/measure-population",
              "code": "denominator-exclusion",
              "display": "Denominator Exclusion"
            } ]
          },
          "count": 0
        }, {
          "id": "Numerator_1",
          "code": {
            "coding": [ {
              "system": "http://terminology.hl7.org/CodeSystem/measure-population",
              "code": "numerator",
              "display": "Numerator"
            } ]
          },
          "count": 1
        } ],
        "measureScore": {
          "value": 1.0
        }
      } ],
      "evaluatedResource": [ {
        "reference": "Patient/1e954801-6437-4abc-8fb8-d36b5b5b97d8"
      }, {
        "reference": "Encounter/bd002c27-7a87-4139-b217-51681aff55fe"
      }, {
        "reference": "Condition/40c7558e-d817-44ff-a55c-10586c279122"
      } ]
    },
    "request": {
      "method": "PUT",
      "url": "MeasureReport/a3aca61d-6c98-479b-b73e-e620f588670a"
    }
  } ]
}