{
  "resourceType": "Bundle",
  "id": "63487c2f0968f801225401a5",
  "type": "transaction",
  "entry": [ {
    "fullUrl": "https://madie.cms.gov/Patient/6c971e14-ca68-41a3-ae18-1c5b7954cf50",
    "resource": {
      "resourceType": "Patient",
      "id": "6c971e14-ca68-41a3-ae18-1c5b7954cf50",
      "meta": {
        "profile": [ "http://hl7.org/fhir/us/qicore/StructureDefinition/qicore-patient" ]
      },
      "text": {
        "status": "generated",
        "div": "<div xmlns=\"http://www.w3.org/1999/xhtml\"><div class=\"hapiHeaderText\">CalcEGALastEstDelivNULL_EDDRvltPeriodDuringObserv <b>DENPASS </b></div><table class=\"hapiPropertyTable\"><tbody><tr><td>Identifier</td><td>b00b06f67015bda652373741cca10f65466d828e3a674df9528f73ec417ce0bb</td></tr><tr><td>Date of birth</td><td><span>14 February 1985</span></td></tr></tbody></table></div>"
      },
      "extension": [ {
        "url": "http://hl7.org/fhir/us/core/StructureDefinition/us-core-race",
        "extension": [ {
          "url": "ombCategory",
          "valueCoding": {
            "system": "urn:oid:2.16.840.1.113883.6.238",
            "code": "1002-5",
            "display": "American Indian or Alaska Native",
            "userSelected": true
          }
        }, {
          "url": "text",
          "valueString": "American Indian or Alaska Native"
        } ]
      }, {
        "url": "http://hl7.org/fhir/us/core/StructureDefinition/us-core-ethnicity",
        "extension": [ {
          "url": "ombCategory",
          "valueCoding": {
            "system": "urn:oid:2.16.840.1.113883.6.238",
            "code": "2135-2",
            "display": "Hispanic or Latino",
            "userSelected": true
          }
        }, {
          "url": "text",
          "valueString": "Hispanic or Latino"
        } ]
      } ],
      "identifier": [ {
        "type": {
          "coding": [ {
            "system": "http://terminology.hl7.org/CodeSystem/v2-0203",
            "code": "MR"
          } ]
        },
        "system": "https://bonnie-fhir.healthit.gov/",
        "value": "63487c2f0968f801225401a5"
      } ],
      "active": true,
      "name": [ {
        "use": "usual",
        "family": "DENPass",
        "given": [ "CalcEGALastEstDelivNULL_EDDRvltPeriodDuringObserv" ]
      } ],
      "gender": "female",
      "birthDate": "1998-02-14"
    },
    "request": {
      "method": "PUT",
      "url": "Patient/6c971e14-ca68-41a3-ae18-1c5b7954cf50"
    }
  }, {
    "fullUrl": "https://madie.cms.gov/Observation/fc479bad-386e-4f88-a957-6613b0a4d326",
    "resource": {
      "resourceType": "Observation",
      "id": "fc479bad-386e-4f88-a957-6613b0a4d326",
      "meta": {
        "profile": [ "http://hl7.org/fhir/us/qicore/StructureDefinition/qicore-simple-observation" ]
      },
      "status": "final",
      "category": [ {
        "coding": [ {
          "system": "http://terminology.hl7.org/CodeSystem/observation-category",
          "code": "exam",
          "display": "exam",
          "userSelected": true
        } ]
      } ],
      "code": {
        "coding": [ {
          "system": "http://loinc.org",
          "code": "93857-1"
        } ]
      },
      "subject": {
        "reference": "Patient/6c971e14-ca68-41a3-ae18-1c5b7954cf50"
      },
      "effectiveDateTime": "2026-01-15T08:00:00.000+00:00",
      "valueDateTime": "2026-01-15T08:00:00.000+00:00"
    },
    "request": {
      "method": "PUT",
      "url": "Observation/fc479bad-386e-4f88-a957-6613b0a4d326"
    }
  }, {
    "fullUrl": "https://madie.cms.gov/Observation/0ac5afb8-2cb6-4a55-9784-8dafc4d71f90",
    "resource": {
      "resourceType": "Observation",
      "id": "0ac5afb8-2cb6-4a55-9784-8dafc4d71f90",
      "meta": {
        "profile": [ "http://hl7.org/fhir/us/qicore/StructureDefinition/qicore-simple-observation" ]
      },
      "status": "final",
      "category": [ {
        "coding": [ {
          "system": "http://terminology.hl7.org/CodeSystem/observation-category",
          "code": "exam",
          "display": "exam",
          "userSelected": true
        } ]
      } ],
      "code": {
        "coding": [ {
          "system": "http://loinc.org",
          "code": "11778-8"
        } ]
      },
      "subject": {
        "reference": "Patient/6c971e14-ca68-41a3-ae18-1c5b7954cf50"
      },
      "effectiveDateTime": "2026-01-15T07:00:00.000+00:00",
      "valueDateTime": "2026-02-04T08:00:00.000+00:00"
    },
    "request": {
      "method": "PUT",
      "url": "Observation/0ac5afb8-2cb6-4a55-9784-8dafc4d71f90"
    }
  }, {
    "fullUrl": "https://madie.cms.gov/Observation/6631dff5-cc15-47cc-94b0-4ab5886a6016",
    "resource": {
      "resourceType": "Observation",
      "id": "6631dff5-cc15-47cc-94b0-4ab5886a6016",
      "meta": {
        "profile": [ "http://hl7.org/fhir/us/qicore/StructureDefinition/qicore-simple-observation" ]
      },
      "status": "final",
      "category": [ {
        "coding": [ {
          "system": "http://terminology.hl7.org/CodeSystem/observation-category",
          "code": "exam",
          "display": "exam",
          "userSelected": true
        } ]
      } ],
      "code": {
        "coding": [ {
          "system": "http://loinc.org",
          "code": "11996-6"
        } ]
      },
      "subject": {
        "reference": "Patient/6c971e14-ca68-41a3-ae18-1c5b7954cf50"
      },
      "effectiveDateTime": "2026-01-15T07:59:00.000+00:00",
      "valueInteger": 1
    },
    "request": {
      "method": "PUT",
      "url": "Observation/6631dff5-cc15-47cc-94b0-4ab5886a6016"
    }
  }, {
    "fullUrl": "https://madie.cms.gov/Observation/b874e297-1851-4db9-b73b-4e1ad3d8c5c2",
    "resource": {
      "resourceType": "Observation",
      "id": "b874e297-1851-4db9-b73b-4e1ad3d8c5c2",
      "meta": {
        "profile": [ "http://hl7.org/fhir/us/qicore/StructureDefinition/qicore-simple-observation" ]
      },
      "status": "final",
      "category": [ {
        "coding": [ {
          "system": "http://terminology.hl7.org/CodeSystem/observation-category",
          "code": "exam",
          "display": "exam",
          "userSelected": true
        } ]
      } ],
      "code": {
        "coding": [ {
          "system": "http://loinc.org",
          "code": "11778-8"
        } ]
      },
      "subject": {
        "reference": "Patient/6c971e14-ca68-41a3-ae18-1c5b7954cf50"
      }
    },
    "request": {
      "method": "PUT",
      "url": "Observation/b874e297-1851-4db9-b73b-4e1ad3d8c5c2"
    }
  }, {
    "fullUrl": "https://madie.cms.gov/Encounter/e1e07a6e-f4cc-4f2f-93bb-c304470f5ec7",
    "resource": {
      "resourceType": "Encounter",
      "id": "e1e07a6e-f4cc-4f2f-93bb-c304470f5ec7",
      "meta": {
        "profile": [ "http://hl7.org/fhir/us/qicore/StructureDefinition/qicore-encounter" ]
      },
      "status": "finished",
      "class": {
        "system": "http://terminology.hl7.org/CodeSystem/v3-ActCode",
        "code": "IMP",
        "display": "inpatient encounter"
      },
      "type": [ {
        "coding": [ {
          "system": "http://snomed.info/sct",
          "code": "183452005"
        } ]
      } ],
      "subject": {
        "reference": "Patient/6c971e14-ca68-41a3-ae18-1c5b7954cf50"
      },
      "period": {
        "start": "2026-01-15T08:00:00.000+00:00",
        "end": "2026-01-20T08:15:00.000+00:00"
      },
      "reasonReference": [ {
        "reference": "Condition/79813634-1026-4795-a9d7-12006cd0ee09"
      } ]
    },
    "request": {
      "method": "PUT",
      "url": "Encounter/e1e07a6e-f4cc-4f2f-93bb-c304470f5ec7"
    }
  }, {
    "fullUrl": "https://madie.cms.gov/Encounter/68530d1c-7044-410a-b366-2339c37db6ac",
    "resource": {
      "resourceType": "Encounter",
      "id": "68530d1c-7044-410a-b366-2339c37db6ac",
      "meta": {
        "profile": [ "http://hl7.org/fhir/us/qicore/StructureDefinition/qicore-encounter" ]
      },
      "status": "finished",
      "class": {
        "system": "http://terminology.hl7.org/CodeSystem/v3-ActCode",
        "code": "IMP",
        "display": "inpatient encounter"
      },
      "type": [ {
        "coding": [ {
          "system": "http://snomed.info/sct",
          "code": "448951000124107"
        } ]
      } ],
      "subject": {
        "reference": "Patient/6c971e14-ca68-41a3-ae18-1c5b7954cf50"
      },
      "period": {
        "start": "2026-01-15T06:00:00.000+00:00",
        "end": "2026-01-15T07:15:00.000+00:00"
      }
    },
    "request": {
      "method": "PUT",
      "url": "Encounter/68530d1c-7044-410a-b366-2339c37db6ac"
    }
  }, {
    "fullUrl": "https://madie.cms.gov/Procedure/63de802e-62e0-454a-8297-644545e4432d",
    "resource": {
      "resourceType": "Procedure",
      "id": "63de802e-62e0-454a-8297-644545e4432d",
      "meta": {
        "profile": [ "http://hl7.org/fhir/us/qicore/StructureDefinition/qicore-procedure" ]
      },
      "extension": [ {
        "url": "http://hl7.org/fhir/us/qicore/StructureDefinition/qicore-recorded",
        "valueDateTime": "2014-04-05T13:35:00.000+00:00"
      } ],
      "status": "completed",
      "code": {
        "coding": [ {
          "system": "http://www.cms.gov/Medicare/Coding/ICD10",
          "code": "10D07Z3"
        } ]
      },
      "subject": {
        "reference": "Patient/6c971e14-ca68-41a3-ae18-1c5b7954cf50"
      },
      "performedPeriod": {
        "start": "2026-01-15T08:10:00.000+00:00",
        "end": "2026-01-15T09:14:00.000+00:00"
      }
    },
    "request": {
      "method": "PUT",
      "url": "Procedure/63de802e-62e0-454a-8297-644545e4432d"
    }
  }, {
    "fullUrl": "https://madie.cms.gov/Condition/79813634-1026-4795-a9d7-12006cd0ee09",
    "resource": {
      "resourceType": "Condition",
      "id": "79813634-1026-4795-a9d7-12006cd0ee09",
      "meta": {
        "profile": [ "http://hl7.org/fhir/us/qicore/StructureDefinition/qicore-condition-encounter-diagnosis" ]
      },
      "category": [ {
        "coding": [ {
          "system": "http://terminology.hl7.org/CodeSystem/condition-category",
          "code": "encounter-diagnosis",
          "display": "Encounter Diagnosis"
        } ]
      } ],
      "code": {
        "coding": [ {
          "system": "http://snomed.info/sct",
          "version": "2022-09",
          "code": "169826009",
          "display": "Single live birth from singleton pregnancy (finding)",
          "userSelected": true
        } ]
      },
      "subject": {
        "reference": "Patient/6c971e14-ca68-41a3-ae18-1c5b7954cf50"
      },
      "encounter": {
        "reference": "Encounter/e1e07a6e-f4cc-4f2f-93bb-c304470f5ec7"
      },
      "recordedDate": "2026-10-20T08:00:00.000+00:00"
    },
    "request": {
      "method": "PUT",
      "url": "Condition/79813634-1026-4795-a9d7-12006cd0ee09"
    }
  }, {
    "fullUrl": "https://madie.cms.gov/Coverage/efa3a378-cf36-4273-93e1-926e7c90e65a",
    "resource": {
      "resourceType": "Coverage",
      "id": "efa3a378-cf36-4273-93e1-926e7c90e65a",
      "meta": {
        "profile": [ "http://hl7.org/fhir/us/qicore/StructureDefinition/qicore-coverage" ]
      },
      "status": "active",
      "beneficiary": {
        "reference": "Patient/6c971e14-ca68-41a3-ae18-1c5b7954cf50"
      },
      "payor": [ {
        "reference": "Organization/0e0daeae-3bf7-4b5d-b12a-b91757cc9d54"
      } ]
    },
    "request": {
      "method": "PUT",
      "url": "Coverage/efa3a378-cf36-4273-93e1-926e7c90e65a"
    }
  }, {
    "fullUrl": "https://madie.cms.gov/Organization/0e0daeae-3bf7-4b5d-b12a-b91757cc9d54",
    "resource": {
      "resourceType": "Organization",
      "id": "0e0daeae-3bf7-4b5d-b12a-b91757cc9d54",
      "meta": {
        "profile": [ "http://hl7.org/fhir/us/qicore/StructureDefinition/qicore-organization" ]
      },
      "identifier": [ {
        "use": "temp",
        "system": "urn:oid:2.16.840.1.113883.4.4",
        "value": "21-3259825"
      } ],
      "active": true,
      "type": [ {
        "coding": [ {
          "system": "http://terminology.hl7.org/CodeSystem/organization-type",
          "code": "pay",
          "display": "Payer"
        } ]
      } ],
      "name": "Blue Cross Blue Shield of Texas",
      "telecom": [ {
        "system": "phone",
        "value": "(+1) 972-766-6900"
      } ],
      "address": [ {
        "use": "billing",
        "type": "postal",
        "line": [ "P.O. Box 660044" ],
        "city": "Dallas",
        "state": "TX",
        "postalCode": "75266-0044",
        "country": "USA"
      } ]
    },
    "request": {
      "method": "PUT",
      "url": "Organization/0e0daeae-3bf7-4b5d-b12a-b91757cc9d54"
    }
  }, {
    "fullUrl": "https://madie.cms.gov/Practitioner/98557a70-12be-4977-b6e5-2628987b22c7",
    "resource": {
      "resourceType": "Practitioner",
      "id": "98557a70-12be-4977-b6e5-2628987b22c7",
      "identifier": [ {
        "system": "http://hl7.org/fhir/sid/us-npi",
        "value": "123456"
      } ],
      "name": [ {
        "family": "Evil",
        "prefix": [ "Dr" ]
      } ]
    },
    "request": {
      "method": "PUT",
      "url": "Practitioner/98557a70-12be-4977-b6e5-2628987b22c7"
    }
  }, {
    "fullUrl": "https://madie.cms.gov/MeasureReport/c8df18ec-4dee-4cf6-bc81-e6e05dc960df",
    "resource": {
      "resourceType": "MeasureReport",
      "id": "c8df18ec-4dee-4cf6-bc81-e6e05dc960df",
      "meta": {
        "profile": [ "http://hl7.org/fhir/us/cqfmeasures/StructureDefinition/test-case-cqfm" ]
      },
      "contained": [ {
        "resourceType": "Parameters",
        "id": "3fc7217f-7bc4-4835-84ef-02eec69fc0d2-parameters",
        "parameter": [ {
          "name": "subject",
          "valueString": "6c971e14-ca68-41a3-ae18-1c5b7954cf50"
        } ]
      } ],
      "extension": [ {
        "url": "http://hl7.org/fhir/StructureDefinition/cqf-inputParameters",
        "valueReference": {
          "reference": "#3fc7217f-7bc4-4835-84ef-02eec69fc0d2-parameters"
        }
      }, {
        "url": "http://hl7.org/fhir/us/cqfmeasures/StructureDefinition/cqfm-testCaseDescription",
        "valueMarkdown": " Pt is 27 years of age,  encounter dx delivery of singleton, gravida=1authored less than 42 weeks prior to delivery.  Last Est Deliv is NULL, however previous meets.\n"
      } ],
      "modifierExtension": [ {
        "url": "http://hl7.org/fhir/us/cqfmeasures/StructureDefinition/cqfm-isTestCase",
        "valueBoolean": true
      } ],
      "status": "complete",
      "type": "individual",
      "measure": "https://madie.cms.gov/Measure/CMS0334FHIRPCCesareanBirth",
      "period": {
        "start": "2026-01-01",
        "end": "2026-12-31"
      },
      "group": [ {
        "id": "Group_1",
        "population": [ {
          "id": "InitialPopulation_1",
          "code": {
            "coding": [ {
              "system": "http://terminology.hl7.org/CodeSystem/measure-population",
              "code": "initial-population",
              "display": "Initial Population"
            } ]
          },
          "count": 1
        }, {
          "id": "Denominator_1",
          "code": {
            "coding": [ {
              "system": "http://terminology.hl7.org/CodeSystem/measure-population",
              "code": "denominator",
              "display": "Denominator"
            } ]
          },
          "count": 1
        }, {
          "id": "DenominatorExclusion_1",
          "code": {
            "coding": [ {
              "system": "http://terminology.hl7.org/CodeSystem/measure-population",
              "code": "denominator-exclusion",
              "display": "Denominator Exclusion"
            } ]
          },
          "count": 0
        }, {
          "id": "Numerator_1",
          "code": {
            "coding": [ {
              "system": "http://terminology.hl7.org/CodeSystem/measure-population",
              "code": "numerator",
              "display": "Numerator"
            } ]
          },
          "count": 0
        } ],
        "measureScore": {
          "value": 0.0
        }
      } ],
      "evaluatedResource": [ {
        "reference": "Patient/6c971e14-ca68-41a3-ae18-1c5b7954cf50"
      }, {
        "reference": "Observation/fc479bad-386e-4f88-a957-6613b0a4d326"
      }, {
        "reference": "Observation/0ac5afb8-2cb6-4a55-9784-8dafc4d71f90"
      }, {
        "reference": "Observation/6631dff5-cc15-47cc-94b0-4ab5886a6016"
      }, {
        "reference": "Observation/b874e297-1851-4db9-b73b-4e1ad3d8c5c2"
      }, {
        "reference": "Encounter/e1e07a6e-f4cc-4f2f-93bb-c304470f5ec7"
      }, {
        "reference": "Encounter/68530d1c-7044-410a-b366-2339c37db6ac"
      }, {
        "reference": "Procedure/63de802e-62e0-454a-8297-644545e4432d"
      }, {
        "reference": "Condition/79813634-1026-4795-a9d7-12006cd0ee09"
      }, {
        "reference": "Coverage/efa3a378-cf36-4273-93e1-926e7c90e65a"
      }, {
        "reference": "Organization/0e0daeae-3bf7-4b5d-b12a-b91757cc9d54"
      }, {
        "reference": "Practitioner/98557a70-12be-4977-b6e5-2628987b22c7"
      } ]
    },
    "request": {
      "method": "PUT",
      "url": "MeasureReport/c8df18ec-4dee-4cf6-bc81-e6e05dc960df"
    }
  } ]
}