{
  "resourceType": "Bundle",
  "id": "63487c2e0968f80122540172",
  "type": "transaction",
  "entry": [ {
    "fullUrl": "https://madie.cms.gov/Patient/3e948892-1ae0-4aa5-8a64-55248d3864f8",
    "resource": {
      "resourceType": "Patient",
      "id": "3e948892-1ae0-4aa5-8a64-55248d3864f8",
      "meta": {
        "profile": [ "http://hl7.org/fhir/us/qicore/StructureDefinition/qicore-patient" ]
      },
      "text": {
        "status": "generated",
        "div": "<div xmlns=\"http://www.w3.org/1999/xhtml\"><div class=\"hapiHeaderText\">AssessTimeOfDelivRelvDateTimeEQDelivEncStart <b>DENPASS </b></div><table class=\"hapiPropertyTable\"><tbody><tr><td>Identifier</td><td>2b1f0141ffe85efd85bb0ba18ddf833ac147ccc7ffd86f1de2a9b7f23de6478b</td></tr><tr><td>Date of birth</td><td><span>14 February 1985</span></td></tr></tbody></table></div>"
      },
      "extension": [ {
        "url": "http://hl7.org/fhir/us/core/StructureDefinition/us-core-race",
        "extension": [ {
          "url": "ombCategory",
          "valueCoding": {
            "system": "urn:oid:2.16.840.1.113883.6.238",
            "code": "1002-5",
            "display": "American Indian or Alaska Native",
            "userSelected": true
          }
        }, {
          "url": "text",
          "valueString": "American Indian or Alaska Native"
        } ]
      }, {
        "url": "http://hl7.org/fhir/us/core/StructureDefinition/us-core-ethnicity",
        "extension": [ {
          "url": "ombCategory",
          "valueCoding": {
            "system": "urn:oid:2.16.840.1.113883.6.238",
            "code": "2135-2",
            "display": "Hispanic or Latino",
            "userSelected": true
          }
        }, {
          "url": "text",
          "valueString": "Hispanic or Latino"
        } ]
      } ],
      "identifier": [ {
        "type": {
          "coding": [ {
            "system": "http://terminology.hl7.org/CodeSystem/v2-0203",
            "code": "MR"
          } ]
        },
        "system": "https://bonnie-fhir.healthit.gov/",
        "value": "63487c2e0968f80122540172"
      } ],
      "active": true,
      "name": [ {
        "use": "usual",
        "family": "DENPass",
        "given": [ "AssessTimeOfDelivRelvDateTimeEQDelivEncStart" ]
      } ],
      "gender": "female",
      "birthDate": "1998-02-14"
    },
    "request": {
      "method": "PUT",
      "url": "Patient/3e948892-1ae0-4aa5-8a64-55248d3864f8"
    }
  }, {
    "fullUrl": "https://madie.cms.gov/Observation/ea222659-6354-44bd-a2cb-36886ecf0a91",
    "resource": {
      "resourceType": "Observation",
      "id": "ea222659-6354-44bd-a2cb-36886ecf0a91",
      "meta": {
        "profile": [ "http://hl7.org/fhir/us/qicore/StructureDefinition/qicore-simple-observation" ]
      },
      "status": "final",
      "category": [ {
        "coding": [ {
          "system": "http://terminology.hl7.org/CodeSystem/observation-category",
          "code": "exam",
          "display": "exam",
          "userSelected": true
        } ]
      } ],
      "code": {
        "coding": [ {
          "system": "http://loinc.org",
          "code": "11884-4"
        } ]
      },
      "subject": {
        "reference": "Patient/3e948892-1ae0-4aa5-8a64-55248d3864f8"
      },
      "effectiveDateTime": "2026-06-08T07:15:00.000+00:00",
      "valueQuantity": {
        "value": 38,
        "system": "http://unitsofmeasure.org",
        "code": "wk"
      }
    },
    "request": {
      "method": "PUT",
      "url": "Observation/ea222659-6354-44bd-a2cb-36886ecf0a91"
    }
  }, {
    "fullUrl": "https://madie.cms.gov/Observation/00411251-5164-4db5-b83a-4fc408940d6f",
    "resource": {
      "resourceType": "Observation",
      "id": "00411251-5164-4db5-b83a-4fc408940d6f",
      "meta": {
        "profile": [ "http://hl7.org/fhir/us/qicore/StructureDefinition/qicore-simple-observation" ]
      },
      "status": "final",
      "category": [ {
        "coding": [ {
          "system": "http://terminology.hl7.org/CodeSystem/observation-category",
          "code": "exam",
          "display": "exam",
          "userSelected": true
        } ]
      } ],
      "code": {
        "coding": [ {
          "system": "http://loinc.org",
          "code": "11996-6"
        } ]
      },
      "subject": {
        "reference": "Patient/3e948892-1ae0-4aa5-8a64-55248d3864f8"
      },
      "effectiveDateTime": "2026-06-08T07:59:00.000+00:00",
      "valueInteger": 1
    },
    "request": {
      "method": "PUT",
      "url": "Observation/00411251-5164-4db5-b83a-4fc408940d6f"
    }
  }, {
    "fullUrl": "https://madie.cms.gov/Observation/f229434c-9508-4cda-b29c-070002a097bb",
    "resource": {
      "resourceType": "Observation",
      "id": "f229434c-9508-4cda-b29c-070002a097bb",
      "meta": {
        "profile": [ "http://hl7.org/fhir/us/qicore/StructureDefinition/qicore-simple-observation" ]
      },
      "status": "final",
      "category": [ {
        "coding": [ {
          "system": "http://terminology.hl7.org/CodeSystem/observation-category",
          "code": "exam",
          "display": "exam",
          "userSelected": true
        } ]
      } ],
      "code": {
        "coding": [ {
          "system": "http://loinc.org",
          "code": "93857-1"
        } ]
      },
      "subject": {
        "reference": "Patient/3e948892-1ae0-4aa5-8a64-55248d3864f8"
      },
      "effectiveDateTime": "2026-06-08T08:00:00.000+00:00",
      "issued": "2026-06-08T08:00:00.000+00:00",
      "valueDateTime": "2026-06-08T08:00:00.000+00:00"
    },
    "request": {
      "method": "PUT",
      "url": "Observation/f229434c-9508-4cda-b29c-070002a097bb"
    }
  }, {
    "fullUrl": "https://madie.cms.gov/Encounter/92a3e535-c34c-4924-82e9-4b8ca6bd81f1",
    "resource": {
      "resourceType": "Encounter",
      "id": "92a3e535-c34c-4924-82e9-4b8ca6bd81f1",
      "meta": {
        "profile": [ "http://hl7.org/fhir/us/qicore/StructureDefinition/qicore-encounter" ]
      },
      "status": "finished",
      "class": {
        "system": "http://terminology.hl7.org/CodeSystem/v3-ActCode",
        "code": "IMP",
        "display": "inpatient encounter"
      },
      "type": [ {
        "coding": [ {
          "system": "http://snomed.info/sct",
          "code": "183452005"
        } ]
      } ],
      "subject": {
        "reference": "Patient/3e948892-1ae0-4aa5-8a64-55248d3864f8"
      },
      "period": {
        "start": "2026-06-08T08:00:00.000+00:00",
        "end": "2026-06-10T08:15:00.000+00:00"
      },
      "length": {
        "value": 2,
        "unit": "days"
      },
      "reasonReference": [ {
        "reference": "Condition/f29bb957-8d4d-48b6-988d-fd670a00d9c5"
      } ]
    },
    "request": {
      "method": "PUT",
      "url": "Encounter/92a3e535-c34c-4924-82e9-4b8ca6bd81f1"
    }
  }, {
    "fullUrl": "https://madie.cms.gov/Coverage/5f5f9e491c76ba674bb032f5",
    "resource": {
      "resourceType": "Coverage",
      "id": "5f5f9e491c76ba674bb032f5",
      "meta": {
        "profile": [ "http://hl7.org/fhir/us/qicore/StructureDefinition/qicore-coverage" ]
      },
      "status": "active",
      "subscriberId": "523435",
      "beneficiary": {
        "reference": "Patient/3e948892-1ae0-4aa5-8a64-55248d3864f8"
      },
      "relationship": {
        "coding": [ {
          "system": "http://terminology.hl7.org/CodeSystem/subscriber-relationship",
          "code": "self"
        } ]
      },
      "period": {
        "start": "1986-02-14T08:00:00.000+00:00"
      },
      "payor": [ {
        "reference": "Organization/d3053934-682e-41ce-aaaa-2c2f3a0cf7e9"
      } ]
    },
    "request": {
      "method": "PUT",
      "url": "Coverage/5f5f9e491c76ba674bb032f5"
    }
  }, {
    "fullUrl": "https://madie.cms.gov/Procedure/ff2837b5-1ecc-4a05-8340-5b5d4fad49a4",
    "resource": {
      "resourceType": "Procedure",
      "id": "ff2837b5-1ecc-4a05-8340-5b5d4fad49a4",
      "meta": {
        "profile": [ "http://hl7.org/fhir/us/qicore/StructureDefinition/qicore-procedure" ]
      },
      "extension": [ {
        "url": "http://hl7.org/fhir/us/qicore/StructureDefinition/qicore-recorded",
        "valueDateTime": "2014-04-05T13:35:00.000+00:00"
      } ],
      "status": "completed",
      "code": {
        "coding": [ {
          "system": "http://www.cms.gov/Medicare/Coding/ICD10",
          "code": "10D00Z0"
        } ]
      },
      "subject": {
        "reference": "Patient/3e948892-1ae0-4aa5-8a64-55248d3864f8"
      },
      "performedPeriod": {
        "start": "2026-06-08T08:00:00.000+00:00",
        "end": "2026-06-08T09:15:00.000+00:00"
      }
    },
    "request": {
      "method": "PUT",
      "url": "Procedure/ff2837b5-1ecc-4a05-8340-5b5d4fad49a4"
    }
  }, {
    "fullUrl": "https://madie.cms.gov/Condition/f29bb957-8d4d-48b6-988d-fd670a00d9c5",
    "resource": {
      "resourceType": "Condition",
      "id": "f29bb957-8d4d-48b6-988d-fd670a00d9c5",
      "meta": {
        "profile": [ "http://hl7.org/fhir/us/qicore/StructureDefinition/qicore-condition-encounter-diagnosis" ]
      },
      "category": [ {
        "coding": [ {
          "system": "http://terminology.hl7.org/CodeSystem/condition-category",
          "code": "encounter-diagnosis",
          "display": "Encounter Diagnosis"
        } ]
      } ],
      "code": {
        "coding": [ {
          "system": "http://snomed.info/sct",
          "version": "2022-09",
          "code": "169826009",
          "display": "Single live birth from singleton pregnancy (finding)",
          "userSelected": true
        } ]
      },
      "subject": {
        "reference": "Patient/3e948892-1ae0-4aa5-8a64-55248d3864f8"
      },
      "encounter": {
        "reference": "Encounter/92a3e535-c34c-4924-82e9-4b8ca6bd81f1"
      },
      "recordedDate": "2026-10-20T08:00:00.000+00:00"
    },
    "request": {
      "method": "PUT",
      "url": "Condition/f29bb957-8d4d-48b6-988d-fd670a00d9c5"
    }
  }, {
    "fullUrl": "https://madie.cms.gov/Organization/d3053934-682e-41ce-aaaa-2c2f3a0cf7e9",
    "resource": {
      "resourceType": "Organization",
      "id": "d3053934-682e-41ce-aaaa-2c2f3a0cf7e9",
      "meta": {
        "profile": [ "http://hl7.org/fhir/us/qicore/StructureDefinition/qicore-organization" ]
      },
      "identifier": [ {
        "use": "temp",
        "system": "urn:oid:2.16.840.1.113883.4.4",
        "value": "21-3259825"
      } ],
      "active": true,
      "type": [ {
        "coding": [ {
          "system": "http://terminology.hl7.org/CodeSystem/organization-type",
          "code": "pay",
          "display": "Payer"
        } ]
      } ],
      "name": "Blue Cross Blue Shield of Texas",
      "telecom": [ {
        "system": "phone",
        "value": "(+1) 972-766-6900"
      } ],
      "address": [ {
        "use": "billing",
        "type": "postal",
        "line": [ "P.O. Box 660044" ],
        "city": "Dallas",
        "state": "TX",
        "postalCode": "75266-0044",
        "country": "USA"
      } ]
    },
    "request": {
      "method": "PUT",
      "url": "Organization/d3053934-682e-41ce-aaaa-2c2f3a0cf7e9"
    }
  }, {
    "fullUrl": "https://madie.cms.gov/Practitioner/509a7d20-06bd-4c09-8889-f4d6688dc44c",
    "resource": {
      "resourceType": "Practitioner",
      "id": "509a7d20-06bd-4c09-8889-f4d6688dc44c",
      "meta": {
        "profile": [ "http://hl7.org/fhir/us/qicore/StructureDefinition/qicore-practitioner" ]
      },
      "identifier": [ {
        "system": "http://hl7.org/fhir/sid/us-npi",
        "value": "1234567890"
      } ],
      "name": [ {
        "family": "Evil",
        "prefix": [ "Dr" ]
      } ]
    },
    "request": {
      "method": "PUT",
      "url": "Practitioner/509a7d20-06bd-4c09-8889-f4d6688dc44c"
    }
  }, {
    "fullUrl": "https://madie.cms.gov/MeasureReport/290f86f2-be8e-44cf-a641-415aa7c8ed7c",
    "resource": {
      "resourceType": "MeasureReport",
      "id": "290f86f2-be8e-44cf-a641-415aa7c8ed7c",
      "meta": {
        "profile": [ "http://hl7.org/fhir/us/cqfmeasures/StructureDefinition/test-case-cqfm" ]
      },
      "contained": [ {
        "resourceType": "Parameters",
        "id": "a5278903-72b2-45e9-ae54-e5fd309b14e9-parameters",
        "parameter": [ {
          "name": "subject",
          "valueString": "3e948892-1ae0-4aa5-8a64-55248d3864f8"
        } ]
      } ],
      "extension": [ {
        "url": "http://hl7.org/fhir/StructureDefinition/cqf-inputParameters",
        "valueReference": {
          "reference": "#a5278903-72b2-45e9-ae54-e5fd309b14e9-parameters"
        }
      }, {
        "url": "http://hl7.org/fhir/us/cqfmeasures/StructureDefinition/cqfm-testCaseDescription",
        "valueMarkdown": "Passes: IP, Pt is 27 years of age,  encounter dx of delivery of singleton, gravida, EGA( >37 ) and @ 38 weeks, AsseDelivTm Is DelivEncStart.  Tests \"TimeOfDelivery.relevantDatetime during DeliveryEncounters.relevantPeriod\".\n"
      } ],
      "modifierExtension": [ {
        "url": "http://hl7.org/fhir/us/cqfmeasures/StructureDefinition/cqfm-isTestCase",
        "valueBoolean": true
      } ],
      "status": "complete",
      "type": "individual",
      "measure": "https://madie.cms.gov/Measure/CMS0334FHIRPCCesareanBirth",
      "period": {
        "start": "2026-01-01",
        "end": "2026-12-31"
      },
      "group": [ {
        "id": "Group_1",
        "population": [ {
          "id": "InitialPopulation_1",
          "code": {
            "coding": [ {
              "system": "http://terminology.hl7.org/CodeSystem/measure-population",
              "code": "initial-population",
              "display": "Initial Population"
            } ]
          },
          "count": 1
        }, {
          "id": "Denominator_1",
          "code": {
            "coding": [ {
              "system": "http://terminology.hl7.org/CodeSystem/measure-population",
              "code": "denominator",
              "display": "Denominator"
            } ]
          },
          "count": 1
        }, {
          "id": "DenominatorExclusion_1",
          "code": {
            "coding": [ {
              "system": "http://terminology.hl7.org/CodeSystem/measure-population",
              "code": "denominator-exclusion",
              "display": "Denominator Exclusion"
            } ]
          },
          "count": 0
        }, {
          "id": "Numerator_1",
          "code": {
            "coding": [ {
              "system": "http://terminology.hl7.org/CodeSystem/measure-population",
              "code": "numerator",
              "display": "Numerator"
            } ]
          },
          "count": 1
        } ],
        "measureScore": {
          "value": 0.0
        }
      } ],
      "evaluatedResource": [ {
        "reference": "Patient/3e948892-1ae0-4aa5-8a64-55248d3864f8"
      }, {
        "reference": "Observation/ea222659-6354-44bd-a2cb-36886ecf0a91"
      }, {
        "reference": "Observation/00411251-5164-4db5-b83a-4fc408940d6f"
      }, {
        "reference": "Observation/f229434c-9508-4cda-b29c-070002a097bb"
      }, {
        "reference": "Encounter/92a3e535-c34c-4924-82e9-4b8ca6bd81f1"
      }, {
        "reference": "Coverage/5f5f9e491c76ba674bb032f5"
      }, {
        "reference": "Procedure/ff2837b5-1ecc-4a05-8340-5b5d4fad49a4"
      }, {
        "reference": "Condition/f29bb957-8d4d-48b6-988d-fd670a00d9c5"
      }, {
        "reference": "Organization/d3053934-682e-41ce-aaaa-2c2f3a0cf7e9"
      }, {
        "reference": "Practitioner/509a7d20-06bd-4c09-8889-f4d6688dc44c"
      } ]
    },
    "request": {
      "method": "PUT",
      "url": "MeasureReport/290f86f2-be8e-44cf-a641-415aa7c8ed7c"
    }
  } ]
}