{
  "resourceType": "Bundle",
  "id": "633b3fa00968f80122503d14",
  "type": "transaction",
  "entry": [ {
    "fullUrl": "https://madie.cms.gov/Patient/17a60467-f536-44d0-9b89-cd390a1fbee7",
    "resource": {
      "resourceType": "Patient",
      "id": "17a60467-f536-44d0-9b89-cd390a1fbee7",
      "meta": {
        "profile": [ "http://hl7.org/fhir/us/qicore/StructureDefinition/qicore-patient" ]
      },
      "text": {
        "status": "generated",
        "div": "<div xmlns=\"http://www.w3.org/1999/xhtml\"><div class=\"hapiHeaderText\">DelProcRelDtTmEQEDEnd <b>IPPASS </b></div><table class=\"hapiPropertyTable\"><tbody><tr><td>Date of birth</td><td><span>31 January 2004</span></td></tr></tbody></table></div>"
      },
      "extension": [ {
        "url": "http://hl7.org/fhir/us/core/StructureDefinition/us-core-race",
        "extension": [ {
          "url": "ombCategory",
          "valueCoding": {
            "system": "urn:oid:2.16.840.1.113883.6.238",
            "code": "1002-5",
            "display": "American Indian or Alaska Native",
            "userSelected": true
          }
        }, {
          "url": "text",
          "valueString": "American Indian or Alaska Native"
        } ]
      }, {
        "url": "http://hl7.org/fhir/us/core/StructureDefinition/us-core-ethnicity",
        "extension": [ {
          "url": "ombCategory",
          "valueCoding": {
            "system": "urn:oid:2.16.840.1.113883.6.238",
            "code": "2135-2",
            "display": "Hispanic or Latino",
            "userSelected": true
          }
        }, {
          "url": "text",
          "valueString": "Hispanic or Latino"
        } ]
      } ],
      "identifier": [ {
        "type": {
          "coding": [ {
            "system": "http://terminology.hl7.org/CodeSystem/v2-0203",
            "code": "MR"
          } ]
        },
        "system": "https://bonnie-fhir.healthit.gov/",
        "value": "633b3fa00968f80122503d14"
      } ],
      "active": true,
      "name": [ {
        "use": "usual",
        "family": "IPPass",
        "given": [ "DelProcRelDtTmEQEDEnd" ]
      } ],
      "gender": "female",
      "birthDate": "2005-01-31"
    },
    "request": {
      "method": "PUT",
      "url": "Patient/17a60467-f536-44d0-9b89-cd390a1fbee7"
    }
  }, {
    "fullUrl": "https://madie.cms.gov/Encounter/a6bec6b4-f2b0-4b10-8a43-a692869648b0",
    "resource": {
      "resourceType": "Encounter",
      "id": "a6bec6b4-f2b0-4b10-8a43-a692869648b0",
      "meta": {
        "profile": [ "http://hl7.org/fhir/us/qicore/StructureDefinition/qicore-encounter" ]
      },
      "status": "finished",
      "class": {
        "system": "http://terminology.hl7.org/CodeSystem/v3-ActCode",
        "code": "IMP",
        "display": "inpatient encounter"
      },
      "type": [ {
        "coding": [ {
          "system": "http://snomed.info/sct",
          "code": "183452005"
        } ]
      } ],
      "subject": {
        "reference": "Patient/17a60467-f536-44d0-9b89-cd390a1fbee7"
      },
      "period": {
        "start": "2026-02-01T09:00:00.000+00:00",
        "end": "2026-02-05T08:15:00.000+00:00"
      }
    },
    "request": {
      "method": "PUT",
      "url": "Encounter/a6bec6b4-f2b0-4b10-8a43-a692869648b0"
    }
  }, {
    "fullUrl": "https://madie.cms.gov/Encounter/2f46c35b-c2fe-4776-96e0-cdcaa34b9666",
    "resource": {
      "resourceType": "Encounter",
      "id": "2f46c35b-c2fe-4776-96e0-cdcaa34b9666",
      "meta": {
        "profile": [ "http://hl7.org/fhir/us/qicore/StructureDefinition/qicore-encounter" ]
      },
      "status": "finished",
      "class": {
        "system": "http://terminology.hl7.org/CodeSystem/v3-ActCode",
        "code": "IMP",
        "display": "inpatient encounter"
      },
      "type": [ {
        "coding": [ {
          "system": "http://snomed.info/sct",
          "code": "448951000124107"
        } ]
      } ],
      "subject": {
        "reference": "Patient/17a60467-f536-44d0-9b89-cd390a1fbee7"
      },
      "period": {
        "start": "2026-02-01T08:00:00.000+00:00",
        "end": "2026-02-01T08:59:00.000+00:00"
      }
    },
    "request": {
      "method": "PUT",
      "url": "Encounter/2f46c35b-c2fe-4776-96e0-cdcaa34b9666"
    }
  }, {
    "fullUrl": "https://madie.cms.gov/Encounter/8382db1a-8d0b-4401-a495-06677090790b",
    "resource": {
      "resourceType": "Encounter",
      "id": "8382db1a-8d0b-4401-a495-06677090790b",
      "meta": {
        "profile": [ "http://hl7.org/fhir/us/qicore/StructureDefinition/qicore-encounter" ]
      },
      "status": "finished",
      "class": {
        "system": "http://terminology.hl7.org/CodeSystem/v3-ActCode",
        "code": "IMP",
        "display": "inpatient encounter"
      },
      "type": [ {
        "coding": [ {
          "system": "http://snomed.info/sct",
          "code": "4525004"
        } ]
      } ],
      "subject": {
        "reference": "Patient/17a60467-f536-44d0-9b89-cd390a1fbee7"
      },
      "period": {
        "start": "2026-02-01T07:00:00.000+00:00",
        "end": "2026-02-01T07:59:00.000+00:00"
      }
    },
    "request": {
      "method": "PUT",
      "url": "Encounter/8382db1a-8d0b-4401-a495-06677090790b"
    }
  }, {
    "fullUrl": "https://madie.cms.gov/Coverage/8f2769d4-125a-49c6-8514-6245328294e6",
    "resource": {
      "resourceType": "Coverage",
      "id": "8f2769d4-125a-49c6-8514-6245328294e6",
      "status": "active",
      "beneficiary": {
        "reference": "Patient/17a60467-f536-44d0-9b89-cd390a1fbee7"
      },
      "period": {
        "start": "2005-01-31T01:00:00.000+00:00"
      },
      "payor": [ {
        "reference": "Organization/a74d56fa-7421-4fbf-96ae-abad5dda4000"
      } ]
    },
    "request": {
      "method": "PUT",
      "url": "Coverage/8f2769d4-125a-49c6-8514-6245328294e6"
    }
  }, {
    "fullUrl": "https://madie.cms.gov/Procedure/371ca76d-73a4-4b10-b053-e45b6f7ab609",
    "resource": {
      "resourceType": "Procedure",
      "id": "371ca76d-73a4-4b10-b053-e45b6f7ab609",
      "meta": {
        "profile": [ "http://hl7.org/fhir/us/qicore/StructureDefinition/qicore-procedure" ]
      },
      "extension": [ {
        "url": "http://hl7.org/fhir/us/qicore/StructureDefinition/qicore-recorded",
        "valueDateTime": "2014-04-05T13:35:00.000+00:00"
      } ],
      "status": "completed",
      "code": {
        "coding": [ {
          "system": "http://snomed.info/sct",
          "code": "10745001"
        } ]
      },
      "subject": {
        "reference": "Patient/17a60467-f536-44d0-9b89-cd390a1fbee7"
      },
      "performedDateTime": "2026-02-01T07:59:00.000+00:00"
    },
    "request": {
      "method": "PUT",
      "url": "Procedure/371ca76d-73a4-4b10-b053-e45b6f7ab609"
    }
  }, {
    "fullUrl": "https://madie.cms.gov/Organization/a74d56fa-7421-4fbf-96ae-abad5dda4000",
    "resource": {
      "resourceType": "Organization",
      "id": "a74d56fa-7421-4fbf-96ae-abad5dda4000",
      "meta": {
        "profile": [ "http://hl7.org/fhir/us/qicore/StructureDefinition/qicore-organization" ]
      },
      "identifier": [ {
        "use": "temp",
        "system": "urn:oid:2.16.840.1.113883.4.4",
        "value": "21-3259825"
      } ],
      "active": true,
      "type": [ {
        "coding": [ {
          "system": "http://terminology.hl7.org/CodeSystem/organization-type",
          "code": "pay",
          "display": "Payer"
        } ]
      } ],
      "name": "Blue Cross Blue Shield of Texas",
      "telecom": [ {
        "system": "phone",
        "value": "(+1) 972-766-6900"
      } ],
      "address": [ {
        "use": "billing",
        "type": "postal",
        "line": [ "P.O. Box 660044" ],
        "city": "Dallas",
        "state": "TX",
        "postalCode": "75266-0044",
        "country": "USA"
      } ]
    },
    "request": {
      "method": "PUT",
      "url": "Organization/a74d56fa-7421-4fbf-96ae-abad5dda4000"
    }
  }, {
    "fullUrl": "https://madie.cms.gov/Practitioner/15a08408-2bc0-4455-b672-98a2c7b9a0b4",
    "resource": {
      "resourceType": "Practitioner",
      "id": "15a08408-2bc0-4455-b672-98a2c7b9a0b4",
      "identifier": [ {
        "system": "http://hl7.org/fhir/sid/us-npi",
        "value": "123456"
      } ],
      "name": [ {
        "family": "Evil",
        "prefix": [ "Dr" ]
      } ]
    },
    "request": {
      "method": "PUT",
      "url": "Practitioner/15a08408-2bc0-4455-b672-98a2c7b9a0b4"
    }
  }, {
    "fullUrl": "https://madie.cms.gov/MeasureReport/6056bc91-3be4-46b7-8d94-f3ad5d97b7c4",
    "resource": {
      "resourceType": "MeasureReport",
      "id": "6056bc91-3be4-46b7-8d94-f3ad5d97b7c4",
      "meta": {
        "profile": [ "http://hl7.org/fhir/us/cqfmeasures/StructureDefinition/test-case-cqfm" ]
      },
      "contained": [ {
        "resourceType": "Parameters",
        "id": "8bdb530b-937b-42e8-baae-8618567d6293-parameters",
        "parameter": [ {
          "name": "subject",
          "valueString": "17a60467-f536-44d0-9b89-cd390a1fbee7"
        } ]
      } ],
      "extension": [ {
        "url": "http://hl7.org/fhir/StructureDefinition/cqf-inputParameters",
        "valueReference": {
          "reference": "#8bdb530b-937b-42e8-baae-8618567d6293-parameters"
        }
      }, {
        "url": "http://hl7.org/fhir/us/cqfmeasures/StructureDefinition/cqfm-testCaseDescription",
        "valueMarkdown": "Delivery Procedure rel date/time = ED end.  ED/OBS/IP all meet global hospitalization criteria.\n"
      } ],
      "modifierExtension": [ {
        "url": "http://hl7.org/fhir/us/cqfmeasures/StructureDefinition/cqfm-isTestCase",
        "valueBoolean": true
      } ],
      "status": "complete",
      "type": "individual",
      "measure": "https://madie.cms.gov/Measure/CMS1028FHIRPCSevereOBComps",
      "period": {
        "start": "2026-01-01",
        "end": "2026-12-31"
      },
      "group": [ {
        "id": "Group_1",
        "population": [ {
          "id": "InitialPopulation_1",
          "code": {
            "coding": [ {
              "system": "http://terminology.hl7.org/CodeSystem/measure-population",
              "code": "initial-population",
              "display": "Initial Population"
            } ]
          },
          "count": 1
        }, {
          "id": "Denominator_1",
          "code": {
            "coding": [ {
              "system": "http://terminology.hl7.org/CodeSystem/measure-population",
              "code": "denominator",
              "display": "Denominator"
            } ]
          },
          "count": 0
        }, {
          "id": "Numerator_1",
          "code": {
            "coding": [ {
              "system": "http://terminology.hl7.org/CodeSystem/measure-population",
              "code": "numerator",
              "display": "Numerator"
            } ]
          },
          "count": 0
        }, {
          "id": "NumeratorExclusion_1",
          "code": {
            "coding": [ {
              "system": "http://terminology.hl7.org/CodeSystem/measure-population",
              "code": "numerator-exclusion",
              "display": "Numerator Exclusion"
            } ]
          },
          "count": 0
        } ],
        "measureScore": {
          "value": 0.0
        }
      }, {
        "id": "Group_2",
        "population": [ {
          "id": "InitialPopulation_2",
          "code": {
            "coding": [ {
              "system": "http://terminology.hl7.org/CodeSystem/measure-population",
              "code": "initial-population",
              "display": "Initial Population"
            } ]
          },
          "count": 1
        }, {
          "id": "Denominator_2",
          "code": {
            "coding": [ {
              "system": "http://terminology.hl7.org/CodeSystem/measure-population",
              "code": "denominator",
              "display": "Denominator"
            } ]
          },
          "count": 0
        }, {
          "id": "Numerator_2",
          "code": {
            "coding": [ {
              "system": "http://terminology.hl7.org/CodeSystem/measure-population",
              "code": "numerator",
              "display": "Numerator"
            } ]
          },
          "count": 0
        }, {
          "id": "NumeratorExclusion_2",
          "code": {
            "coding": [ {
              "system": "http://terminology.hl7.org/CodeSystem/measure-population",
              "code": "numerator-exclusion",
              "display": "Numerator Exclusion"
            } ]
          },
          "count": 0
        } ],
        "measureScore": {
          "value": 0.0
        }
      } ],
      "evaluatedResource": [ {
        "reference": "Patient/17a60467-f536-44d0-9b89-cd390a1fbee7"
      }, {
        "reference": "Encounter/a6bec6b4-f2b0-4b10-8a43-a692869648b0"
      }, {
        "reference": "Encounter/2f46c35b-c2fe-4776-96e0-cdcaa34b9666"
      }, {
        "reference": "Encounter/8382db1a-8d0b-4401-a495-06677090790b"
      }, {
        "reference": "Coverage/8f2769d4-125a-49c6-8514-6245328294e6"
      }, {
        "reference": "Procedure/371ca76d-73a4-4b10-b053-e45b6f7ab609"
      }, {
        "reference": "Organization/a74d56fa-7421-4fbf-96ae-abad5dda4000"
      }, {
        "reference": "Practitioner/15a08408-2bc0-4455-b672-98a2c7b9a0b4"
      } ]
    },
    "request": {
      "method": "PUT",
      "url": "MeasureReport/6056bc91-3be4-46b7-8d94-f3ad5d97b7c4"
    }
  } ]
}