{
  "resourceType": "Bundle",
  "id": "2EncounterOneWithMultipleFalls-bundle",
  "type": "transaction",
  "entry": [ {
    "fullUrl": "https://madie.cms.gov/Encounter/d1013dad-bc4d-4f35-9f4a-fd6149ed258b",
    "resource": {
      "resourceType": "Encounter",
      "id": "d1013dad-bc4d-4f35-9f4a-fd6149ed258b",
      "meta": {
        "profile": [ "http://hl7.org/fhir/us/qicore/StructureDefinition/qicore-encounter" ]
      },
      "status": "finished",
      "class": {
        "system": "http://terminology.hl7.org/CodeSystem/v3-ActCode",
        "code": "IMP",
        "display": "inpatient encounter"
      },
      "type": [ {
        "coding": [ {
          "system": "http://snomed.info/sct",
          "code": "183452005"
        } ]
      } ],
      "subject": {
        "reference": "Patient/8045dee0-645e-497b-a5e8-ad659cdcf8c6"
      },
      "period": {
        "start": "2026-12-08T08:00:00.000+00:00",
        "end": "2026-12-12T08:15:00.000+00:00"
      },
      "reasonCode": [ {
        "coding": [ {
          "system": "http://snomed.info/sct",
          "code": "14047009"
        } ]
      }, {
        "coding": [ {
          "system": "http://hl7.org/fhir/sid/icd-10-cm",
          "code": "W01.0XXA"
        } ]
      }, {
        "coding": [ {
          "system": "http://hl7.org/fhir/sid/icd-10-cm",
          "code": "S01.00XA"
        } ]
      } ]
    },
    "request": {
      "method": "PUT",
      "url": "Encounter/d1013dad-bc4d-4f35-9f4a-fd6149ed258b"
    }
  }, {
    "fullUrl": "https://madie.cms.gov/Encounter/e1aeae0d-47d3-4525-a229-73d3e99cade1",
    "resource": {
      "resourceType": "Encounter",
      "id": "e1aeae0d-47d3-4525-a229-73d3e99cade1",
      "meta": {
        "profile": [ "http://hl7.org/fhir/us/qicore/StructureDefinition/qicore-encounter" ]
      },
      "status": "finished",
      "class": {
        "system": "http://terminology.hl7.org/CodeSystem/v3-ActCode",
        "code": "IMP",
        "display": "inpatient encounter"
      },
      "type": [ {
        "coding": [ {
          "system": "http://snomed.info/sct",
          "code": "183452005"
        } ]
      } ],
      "subject": {
        "reference": "Patient/8045dee0-645e-497b-a5e8-ad659cdcf8c6"
      },
      "period": {
        "start": "2026-11-09T11:00:00.000+00:00",
        "end": "2026-11-12T08:15:00.000+00:00"
      },
      "reasonCode": [ {
        "coding": [ {
          "system": "http://snomed.info/sct",
          "code": "14047009"
        } ]
      }, {
        "coding": [ {
          "system": "http://hl7.org/fhir/sid/icd-10-cm",
          "code": "M80.00XA"
        } ]
      } ]
    },
    "request": {
      "method": "PUT",
      "url": "Encounter/e1aeae0d-47d3-4525-a229-73d3e99cade1"
    }
  }, {
    "fullUrl": "https://madie.cms.gov/Patient/8045dee0-645e-497b-a5e8-ad659cdcf8c6",
    "resource": {
      "resourceType": "Patient",
      "id": "8045dee0-645e-497b-a5e8-ad659cdcf8c6",
      "meta": {
        "profile": [ "http://hl7.org/fhir/us/qicore/StructureDefinition/qicore-patient" ]
      },
      "extension": [ {
        "url": "http://hl7.org/fhir/us/core/StructureDefinition/us-core-race",
        "extension": [ {
          "url": "ombCategory",
          "valueCoding": {
            "system": "urn:oid:2.16.840.1.113883.6.238",
            "code": "2054-5",
            "display": "Black or African American",
            "userSelected": true
          }
        }, {
          "url": "text",
          "valueString": "Black or African American"
        } ]
      }, {
        "url": "http://hl7.org/fhir/us/core/StructureDefinition/us-core-ethnicity",
        "extension": [ {
          "url": "ombCategory",
          "valueCoding": {
            "system": "urn:oid:2.16.840.1.113883.6.238",
            "code": "2186-5",
            "display": "Not Hispanic or Latino",
            "userSelected": true
          }
        }, {
          "url": "text",
          "valueString": "Not Hispanic or Latino"
        } ]
      } ],
      "identifier": [ {
        "type": {
          "coding": [ {
            "system": "http://terminology.hl7.org/CodeSystem/v2-0203",
            "code": "MR"
          } ]
        },
        "system": "https://bonnie-fhir.healthit.gov/",
        "value": "61152a3b98086b7a79cbd7c1"
      } ],
      "active": true,
      "name": [ {
        "use": "usual",
        "family": "NUMERPass",
        "given": [ "2EncounterOneWithMultipleFalls" ]
      } ],
      "gender": "male",
      "birthDate": "1964-12-11"
    },
    "request": {
      "method": "PUT",
      "url": "Patient/8045dee0-645e-497b-a5e8-ad659cdcf8c6"
    }
  }, {
    "fullUrl": "https://madie.cms.gov/AdverseEvent/93f84e4d-c830-472b-8ce7-bf8c209a8e2c",
    "resource": {
      "resourceType": "AdverseEvent",
      "id": "93f84e4d-c830-472b-8ce7-bf8c209a8e2c",
      "meta": {
        "profile": [ "http://hl7.org/fhir/us/qicore/StructureDefinition/qicore-adverseevent" ]
      },
      "actuality": "actual",
      "event": {
        "coding": [ {
          "system": "http://hl7.org/fhir/sid/icd-10-cm",
          "code": "W01.0XXA"
        } ]
      },
      "subject": {
        "reference": "Patient/8045dee0-645e-497b-a5e8-ad659cdcf8c6"
      },
      "encounter": {
        "reference": "Encounter/d1013dad-bc4d-4f35-9f4a-fd6149ed258b"
      },
      "date": "2026-12-09T08:00:00.000+00:00"
    },
    "request": {
      "method": "PUT",
      "url": "AdverseEvent/93f84e4d-c830-472b-8ce7-bf8c209a8e2c"
    }
  }, {
    "fullUrl": "https://madie.cms.gov/AdverseEvent/1cb9f846-57dd-45e3-a05a-29ad10e17c9b",
    "resource": {
      "resourceType": "AdverseEvent",
      "id": "1cb9f846-57dd-45e3-a05a-29ad10e17c9b",
      "meta": {
        "profile": [ "http://hl7.org/fhir/us/qicore/StructureDefinition/qicore-adverseevent" ]
      },
      "actuality": "actual",
      "event": {
        "coding": [ {
          "system": "http://snomed.info/sct",
          "code": "14047009"
        } ]
      },
      "subject": {
        "reference": "Patient/8045dee0-645e-497b-a5e8-ad659cdcf8c6"
      },
      "encounter": {
        "reference": "Encounter/e1aeae0d-47d3-4525-a229-73d3e99cade1"
      },
      "recordedDate": "2026-11-09T08:00:00.000+00:00"
    },
    "request": {
      "method": "PUT",
      "url": "AdverseEvent/1cb9f846-57dd-45e3-a05a-29ad10e17c9b"
    }
  }, {
    "fullUrl": "https://madie.cms.gov/Claim/58b8be7c-d8df-406b-9097-70aabb17777a",
    "resource": {
      "resourceType": "Claim",
      "id": "58b8be7c-d8df-406b-9097-70aabb17777a",
      "meta": {
        "profile": [ "http://hl7.org/fhir/us/qicore/StructureDefinition/qicore-claim" ]
      },
      "status": "active",
      "type": {
        "coding": [ {
          "system": "http://terminology.hl7.org/CodeSystem/claim-type",
          "code": "professional",
          "display": "Professional"
        } ]
      },
      "use": "claim",
      "patient": {
        "reference": "Patient/8045dee0-645e-497b-a5e8-ad659cdcf8c6"
      },
      "created": "2026-11-12",
      "provider": {
        "reference": "Practitioner/53774d6b-fd76-47c1-9f5a-648c2b49bf63"
      },
      "priority": {
        "coding": [ {
          "system": "http://terminology.hl7.org/CodeSystem/processpriority",
          "code": "normal"
        } ]
      },
      "diagnosis": [ {
        "sequence": 1,
        "diagnosisCodeableConcept": {
          "coding": [ {
            "system": "http://snomed.info/sct",
            "code": "14047009"
          } ]
        },
        "onAdmission": {
          "coding": [ {
            "system": "https://www.cms.gov/Medicare/Medicare-Fee-for-Service-Payment/HospitalAcqCond/Coding",
            "code": "N"
          } ]
        }
      } ],
      "insurance": [ {
        "sequence": 1,
        "focal": true,
        "coverage": {
          "reference": "Coverage/f76a113f-7cbb-4e1a-bf26-a40e9e582e69"
        }
      } ],
      "item": [ {
        "sequence": 1,
        "diagnosisSequence": [ 1, 2 ],
        "productOrService": {
          "coding": [ {
            "system": "http://terminology.hl7.org/CodeSystem/ex-USCLS",
            "code": "1101"
          } ]
        },
        "encounter": [ {
          "reference": "Encounter/e1aeae0d-47d3-4525-a229-73d3e99cade1"
        } ]
      } ]
    },
    "request": {
      "method": "PUT",
      "url": "Claim/58b8be7c-d8df-406b-9097-70aabb17777a"
    }
  }, {
    "fullUrl": "https://madie.cms.gov/Claim/8c742a7b-6e5e-4c44-9d1f-cfccd1f5f9ec",
    "resource": {
      "resourceType": "Claim",
      "id": "8c742a7b-6e5e-4c44-9d1f-cfccd1f5f9ec",
      "meta": {
        "profile": [ "http://hl7.org/fhir/us/qicore/StructureDefinition/qicore-claim" ]
      },
      "status": "active",
      "type": {
        "coding": [ {
          "system": "http://terminology.hl7.org/CodeSystem/claim-type",
          "code": "professional",
          "display": "Professional"
        } ]
      },
      "use": "claim",
      "patient": {
        "reference": "Patient/8045dee0-645e-497b-a5e8-ad659cdcf8c6"
      },
      "created": "2026-11-12",
      "provider": {
        "reference": "Practitioner/53774d6b-fd76-47c1-9f5a-648c2b49bf63"
      },
      "priority": {
        "coding": [ {
          "system": "http://terminology.hl7.org/CodeSystem/processpriority",
          "code": "normal"
        } ]
      },
      "diagnosis": [ {
        "sequence": 2,
        "diagnosisCodeableConcept": {
          "coding": [ {
            "system": "http://hl7.org/fhir/sid/icd-10-cm",
            "code": "M80.00XA"
          } ]
        },
        "onAdmission": {
          "coding": [ {
            "system": "https://www.cms.gov/Medicare/Medicare-Fee-for-Service-Payment/HospitalAcqCond/Coding",
            "code": "N"
          } ]
        }
      } ],
      "insurance": [ {
        "sequence": 1,
        "focal": true,
        "coverage": {
          "reference": "Coverage/f76a113f-7cbb-4e1a-bf26-a40e9e582e69"
        }
      } ],
      "item": [ {
        "sequence": 1,
        "diagnosisSequence": [ 1, 2 ],
        "productOrService": {
          "coding": [ {
            "system": "http://terminology.hl7.org/CodeSystem/ex-USCLS",
            "code": "1101"
          } ]
        },
        "encounter": [ {
          "reference": "Encounter/e1aeae0d-47d3-4525-a229-73d3e99cade1"
        } ]
      } ]
    },
    "request": {
      "method": "PUT",
      "url": "Claim/8c742a7b-6e5e-4c44-9d1f-cfccd1f5f9ec"
    }
  }, {
    "fullUrl": "https://madie.cms.gov/Claim/1ecce509-2a88-41a9-835a-45ccbfedf4a3",
    "resource": {
      "resourceType": "Claim",
      "id": "1ecce509-2a88-41a9-835a-45ccbfedf4a3",
      "meta": {
        "profile": [ "http://hl7.org/fhir/us/qicore/StructureDefinition/qicore-claim" ]
      },
      "status": "active",
      "type": {
        "coding": [ {
          "system": "http://terminology.hl7.org/CodeSystem/claim-type",
          "code": "professional",
          "display": "Professional"
        } ]
      },
      "use": "claim",
      "patient": {
        "reference": "Patient/8045dee0-645e-497b-a5e8-ad659cdcf8c6"
      },
      "created": "2026-12-12",
      "provider": {
        "reference": "Practitioner/53774d6b-fd76-47c1-9f5a-648c2b49bf63"
      },
      "priority": {
        "coding": [ {
          "system": "http://terminology.hl7.org/CodeSystem/processpriority",
          "code": "normal"
        } ]
      },
      "diagnosis": [ {
        "sequence": 1,
        "diagnosisCodeableConcept": {
          "coding": [ {
            "system": "http://snomed.info/sct",
            "code": "14047009"
          } ]
        },
        "onAdmission": {
          "coding": [ {
            "system": "https://www.cms.gov/Medicare/Medicare-Fee-for-Service-Payment/HospitalAcqCond/Coding",
            "code": "Y"
          } ]
        }
      } ],
      "insurance": [ {
        "sequence": 1,
        "focal": true,
        "coverage": {
          "reference": "Coverage/f76a113f-7cbb-4e1a-bf26-a40e9e582e69"
        }
      } ],
      "item": [ {
        "sequence": 1,
        "diagnosisSequence": [ 1, 2, 3 ],
        "productOrService": {
          "coding": [ {
            "system": "http://terminology.hl7.org/CodeSystem/ex-USCLS",
            "code": "1101"
          } ]
        },
        "encounter": [ {
          "reference": "Encounter/d1013dad-bc4d-4f35-9f4a-fd6149ed258b"
        } ]
      } ]
    },
    "request": {
      "method": "PUT",
      "url": "Claim/1ecce509-2a88-41a9-835a-45ccbfedf4a3"
    }
  }, {
    "fullUrl": "https://madie.cms.gov/Claim/cbf79315-b346-4f6f-856a-22433d4aee85",
    "resource": {
      "resourceType": "Claim",
      "id": "cbf79315-b346-4f6f-856a-22433d4aee85",
      "meta": {
        "profile": [ "http://hl7.org/fhir/us/qicore/StructureDefinition/qicore-claim" ]
      },
      "status": "active",
      "type": {
        "coding": [ {
          "system": "http://terminology.hl7.org/CodeSystem/claim-type",
          "code": "professional",
          "display": "Professional"
        } ]
      },
      "use": "claim",
      "patient": {
        "reference": "Patient/8045dee0-645e-497b-a5e8-ad659cdcf8c6"
      },
      "created": "2026-12-12",
      "provider": {
        "reference": "Practitioner/53774d6b-fd76-47c1-9f5a-648c2b49bf63"
      },
      "priority": {
        "coding": [ {
          "system": "http://terminology.hl7.org/CodeSystem/processpriority",
          "code": "normal"
        } ]
      },
      "diagnosis": [ {
        "sequence": 2,
        "diagnosisCodeableConcept": {
          "coding": [ {
            "system": "http://hl7.org/fhir/sid/icd-10-cm",
            "code": "W01.0XXA"
          } ]
        },
        "onAdmission": {
          "coding": [ {
            "system": "https://www.cms.gov/Medicare/Medicare-Fee-for-Service-Payment/HospitalAcqCond/Coding",
            "code": "N"
          } ]
        }
      } ],
      "insurance": [ {
        "sequence": 1,
        "focal": true,
        "coverage": {
          "reference": "Coverage/f76a113f-7cbb-4e1a-bf26-a40e9e582e69"
        }
      } ],
      "item": [ {
        "sequence": 2,
        "diagnosisSequence": [ 1, 2, 3 ],
        "productOrService": {
          "coding": [ {
            "system": "http://terminology.hl7.org/CodeSystem/ex-USCLS",
            "code": "1101"
          } ]
        },
        "encounter": [ {
          "reference": "Encounter/d1013dad-bc4d-4f35-9f4a-fd6149ed258b"
        } ]
      } ]
    },
    "request": {
      "method": "PUT",
      "url": "Claim/cbf79315-b346-4f6f-856a-22433d4aee85"
    }
  }, {
    "fullUrl": "https://madie.cms.gov/Claim/e9ef4caa-8404-429c-a500-f0183ab0d6ae",
    "resource": {
      "resourceType": "Claim",
      "id": "e9ef4caa-8404-429c-a500-f0183ab0d6ae",
      "meta": {
        "profile": [ "http://hl7.org/fhir/us/qicore/StructureDefinition/qicore-claim" ]
      },
      "status": "active",
      "type": {
        "coding": [ {
          "system": "http://terminology.hl7.org/CodeSystem/claim-type",
          "code": "professional",
          "display": "Professional"
        } ]
      },
      "use": "claim",
      "patient": {
        "reference": "Patient/8045dee0-645e-497b-a5e8-ad659cdcf8c6"
      },
      "created": "2026-12-12",
      "provider": {
        "reference": "Practitioner/53774d6b-fd76-47c1-9f5a-648c2b49bf63"
      },
      "priority": {
        "coding": [ {
          "system": "http://terminology.hl7.org/CodeSystem/processpriority",
          "code": "normal"
        } ]
      },
      "diagnosis": [ {
        "sequence": 3,
        "diagnosisCodeableConcept": {
          "coding": [ {
            "system": "http://hl7.org/fhir/sid/icd-10-cm",
            "code": "S01.00XA"
          } ]
        },
        "onAdmission": {
          "coding": [ {
            "system": "https://www.cms.gov/Medicare/Medicare-Fee-for-Service-Payment/HospitalAcqCond/Coding",
            "code": "N"
          } ]
        }
      } ],
      "insurance": [ {
        "sequence": 1,
        "focal": true,
        "coverage": {
          "reference": "Coverage/f76a113f-7cbb-4e1a-bf26-a40e9e582e69"
        }
      } ],
      "item": [ {
        "sequence": 3,
        "diagnosisSequence": [ 1, 2, 3 ],
        "productOrService": {
          "coding": [ {
            "system": "http://terminology.hl7.org/CodeSystem/ex-USCLS",
            "code": "1101"
          } ]
        },
        "encounter": [ {
          "reference": "Encounter/d1013dad-bc4d-4f35-9f4a-fd6149ed258b"
        } ]
      } ]
    },
    "request": {
      "method": "PUT",
      "url": "Claim/e9ef4caa-8404-429c-a500-f0183ab0d6ae"
    }
  }, {
    "fullUrl": "https://madie.cms.gov/Practitioner/53774d6b-fd76-47c1-9f5a-648c2b49bf63",
    "resource": {
      "resourceType": "Practitioner",
      "id": "53774d6b-fd76-47c1-9f5a-648c2b49bf63",
      "identifier": [ {
        "system": "http://www.cms.gov/identifiers/pracitioners",
        "value": "P12345"
      } ],
      "name": [ {
        "use": "official",
        "family": "Smith",
        "given": [ "John" ]
      } ],
      "qualification": [ {
        "identifier": [ {
          "system": "http://hl7.org/fhir/sid/us-npi",
          "value": "1234567890"
        } ],
        "code": {
          "coding": [ {
            "system": "http://terminology.hl7.org/CodeSystem/v2-0203",
            "code": "MD",
            "display": "Medical License number"
          } ]
        }
      } ]
    },
    "request": {
      "method": "PUT",
      "url": "Practitioner/53774d6b-fd76-47c1-9f5a-648c2b49bf63"
    }
  }, {
    "fullUrl": "https://madie.cms.gov/Coverage/f76a113f-7cbb-4e1a-bf26-a40e9e582e69",
    "resource": {
      "resourceType": "Coverage",
      "id": "f76a113f-7cbb-4e1a-bf26-a40e9e582e69",
      "status": "active",
      "beneficiary": {
        "reference": "Patient/8045dee0-645e-497b-a5e8-ad659cdcf8c6"
      },
      "payor": [ {
        "reference": "Organization/21f51dda-4e0c-46aa-9f52-15b37402a162"
      } ]
    },
    "request": {
      "method": "PUT",
      "url": "Coverage/f76a113f-7cbb-4e1a-bf26-a40e9e582e69"
    }
  }, {
    "fullUrl": "https://madie.cms.gov/Organization/21f51dda-4e0c-46aa-9f52-15b37402a162",
    "resource": {
      "resourceType": "Organization",
      "id": "21f51dda-4e0c-46aa-9f52-15b37402a162",
      "identifier": [ {
        "system": "http://cms.gov/insurance-ids",
        "value": "AET12345"
      } ],
      "type": [ {
        "coding": [ {
          "system": "http://terminology.hl7.org/CodeSystem/organization-type",
          "code": "prov",
          "display": "Healthcare Provider"
        } ]
      } ],
      "name": "Aetna Insurance",
      "telecom": [ {
        "system": "phone",
        "value": "+1-800-123-4567"
      } ],
      "address": [ {
        "line": [ "123 Main Street" ],
        "city": "Cityville",
        "state": "CA",
        "postalCode": "12345",
        "country": "USA"
      } ]
    },
    "request": {
      "method": "PUT",
      "url": "Organization/21f51dda-4e0c-46aa-9f52-15b37402a162"
    }
  }, {
    "fullUrl": "https://madie.cms.gov/MeasureReport/9418fb72-ca02-4a6f-9a0f-067090c8e5f1",
    "resource": {
      "resourceType": "MeasureReport",
      "id": "9418fb72-ca02-4a6f-9a0f-067090c8e5f1",
      "meta": {
        "profile": [ "http://hl7.org/fhir/us/cqfmeasures/StructureDefinition/test-case-cqfm" ]
      },
      "contained": [ {
        "resourceType": "Parameters",
        "id": "9aaad3e9-6eb9-49d2-91bd-0e0e10767312-parameters",
        "parameter": [ {
          "name": "subject",
          "valueString": "8045dee0-645e-497b-a5e8-ad659cdcf8c6"
        } ]
      } ],
      "extension": [ {
        "url": "http://hl7.org/fhir/StructureDefinition/cqf-inputParameters",
        "valueReference": {
          "reference": "#9aaad3e9-6eb9-49d2-91bd-0e0e10767312-parameters"
        }
      }, {
        "url": "http://hl7.org/fhir/us/cqfmeasures/StructureDefinition/cqfm-testCaseDescription",
        "valueMarkdown": "Enc 1: Adverse Event Fall in Observation. Injury NPOA.  Num =1\nEnc 2:  Fall POA. Injury NPOA and adverse event Fall during encounter meets Num.  Num =1 Num Exclusion =1"
      } ],
      "modifierExtension": [ {
        "url": "http://hl7.org/fhir/us/cqfmeasures/StructureDefinition/cqfm-isTestCase",
        "valueBoolean": true
      } ],
      "status": "complete",
      "type": "individual",
      "measure": "https://madie.cms.gov/Measure/CMS1017FHIRHHFI",
      "period": {
        "start": "2026-01-01",
        "end": "2026-12-31"
      },
      "group": [ {
        "id": "Group_1",
        "population": [ {
          "id": "InitialPopulation_1",
          "code": {
            "coding": [ {
              "system": "http://terminology.hl7.org/CodeSystem/measure-population",
              "code": "initial-population",
              "display": "Initial Population"
            } ]
          },
          "count": 2
        }, {
          "id": "Denominator_1",
          "code": {
            "coding": [ {
              "system": "http://terminology.hl7.org/CodeSystem/measure-population",
              "code": "denominator",
              "display": "Denominator"
            } ]
          },
          "count": 2
        }, {
          "id": "DenominatorExclusion_1",
          "code": {
            "coding": [ {
              "system": "http://terminology.hl7.org/CodeSystem/measure-population",
              "code": "denominator-exclusion",
              "display": "Denominator Exclusion"
            } ]
          },
          "count": 1
        }, {
          "id": "Numerator_1",
          "code": {
            "coding": [ {
              "system": "http://terminology.hl7.org/CodeSystem/measure-population",
              "code": "numerator",
              "display": "Numerator"
            } ]
          },
          "count": 2
        }, {
          "id": "NumeratorExclusion_1",
          "code": {
            "coding": [ {
              "system": "http://terminology.hl7.org/CodeSystem/measure-population",
              "code": "numerator-exclusion",
              "display": "Numerator Exclusion"
            } ]
          },
          "count": 1
        }, {
          "id": "MeasureObservation_1_1_1",
          "code": {
            "coding": [ {
              "system": "http://terminology.hl7.org/CodeSystem/measure-population",
              "code": "measure-observation",
              "display": "Measure Observation"
            } ]
          },
          "count": 4
        }, {
          "id": "MeasureObservation_1_2_1",
          "code": {
            "coding": [ {
              "system": "http://terminology.hl7.org/CodeSystem/measure-population",
              "code": "measure-observation",
              "display": "Measure Observation"
            } ]
          },
          "count": 1
        } ],
        "measureScore": {
          "value": 0.0
        }
      } ],
      "evaluatedResource": [ {
        "reference": "Encounter/d1013dad-bc4d-4f35-9f4a-fd6149ed258b"
      }, {
        "reference": "Encounter/e1aeae0d-47d3-4525-a229-73d3e99cade1"
      }, {
        "reference": "Patient/8045dee0-645e-497b-a5e8-ad659cdcf8c6"
      }, {
        "reference": "AdverseEvent/93f84e4d-c830-472b-8ce7-bf8c209a8e2c"
      }, {
        "reference": "AdverseEvent/1cb9f846-57dd-45e3-a05a-29ad10e17c9b"
      }, {
        "reference": "Claim/58b8be7c-d8df-406b-9097-70aabb17777a"
      }, {
        "reference": "Claim/8c742a7b-6e5e-4c44-9d1f-cfccd1f5f9ec"
      }, {
        "reference": "Claim/1ecce509-2a88-41a9-835a-45ccbfedf4a3"
      }, {
        "reference": "Claim/cbf79315-b346-4f6f-856a-22433d4aee85"
      }, {
        "reference": "Claim/e9ef4caa-8404-429c-a500-f0183ab0d6ae"
      }, {
        "reference": "Practitioner/53774d6b-fd76-47c1-9f5a-648c2b49bf63"
      }, {
        "reference": "Coverage/f76a113f-7cbb-4e1a-bf26-a40e9e582e69"
      }, {
        "reference": "Organization/21f51dda-4e0c-46aa-9f52-15b37402a162"
      } ]
    },
    "request": {
      "method": "PUT",
      "url": "MeasureReport/9418fb72-ca02-4a6f-9a0f-067090c8e5f1"
    }
  } ]
}