{
  "resourceType": "Bundle",
  "id": "6109650598086b538055a0dd",
  "type": "transaction",
  "entry": [ {
    "fullUrl": "https://madie.cms.gov/Patient/3f4922e2-57b0-4e2f-97d6-7c1edf156f56",
    "resource": {
      "resourceType": "Patient",
      "id": "3f4922e2-57b0-4e2f-97d6-7c1edf156f56",
      "meta": {
        "profile": [ "http://hl7.org/fhir/us/qicore/StructureDefinition/qicore-patient" ]
      },
      "text": {
        "status": "generated",
        "div": "<div xmlns=\"http://www.w3.org/1999/xhtml\"><div class=\"hapiHeaderText\">RiskAssessMultOVEncrelevantDatetime <b>NUMERPASS </b></div><table class=\"hapiPropertyTable\"><tbody><tr><td>Identifier</td><td>4acdd1ab2ce8b6b5853988f06278aa61</td></tr><tr><td>Date of birth</td><td><span>25 April 2000</span></td></tr></tbody></table></div>"
      },
      "extension": [ {
        "url": "http://hl7.org/fhir/us/core/StructureDefinition/us-core-race",
        "extension": [ {
          "url": "ombCategory",
          "valueCoding": {
            "system": "urn:oid:2.16.840.1.113883.6.238",
            "code": "1002-5",
            "display": "American Indian or Alaska Native",
            "userSelected": true
          }
        }, {
          "url": "text",
          "valueString": "American Indian or Alaska Native"
        } ]
      }, {
        "url": "http://hl7.org/fhir/us/core/StructureDefinition/us-core-ethnicity",
        "extension": [ {
          "url": "ombCategory",
          "valueCoding": {
            "system": "urn:oid:2.16.840.1.113883.6.238",
            "code": "2186-5",
            "display": "Not Hispanic or Latino",
            "userSelected": true
          }
        }, {
          "url": "text",
          "valueString": "Not Hispanic or Latino"
        } ]
      } ],
      "identifier": [ {
        "type": {
          "coding": [ {
            "system": "http://terminology.hl7.org/CodeSystem/v2-0203",
            "code": "MR"
          } ]
        },
        "system": "https://bonnie-fhir.healthit.gov/",
        "value": "6109650598086b538055a0dd"
      } ],
      "active": true,
      "name": [ {
        "use": "usual",
        "family": "NUMPass",
        "given": [ "RiskAssmtMultEncrelevantDatetime" ]
      } ],
      "gender": "female",
      "birthDate": "2015-04-25"
    },
    "request": {
      "method": "PUT",
      "url": "Patient/3f4922e2-57b0-4e2f-97d6-7c1edf156f56"
    }
  }, {
    "fullUrl": "https://madie.cms.gov/Encounter/012b86fe-f8af-49b8-9b90-b08ffb32ee44",
    "resource": {
      "resourceType": "Encounter",
      "id": "012b86fe-f8af-49b8-9b90-b08ffb32ee44",
      "meta": {
        "profile": [ "http://hl7.org/fhir/us/qicore/StructureDefinition/qicore-encounter" ]
      },
      "status": "finished",
      "class": {
        "system": "http://terminology.hl7.org/CodeSystem/v3-ActCode",
        "code": "AMB",
        "display": "ambulatory",
        "userSelected": true
      },
      "type": [ {
        "coding": [ {
          "system": "http://www.ama-assn.org/go/cpt",
          "code": "99213"
        } ]
      } ],
      "subject": {
        "reference": "Patient/3f4922e2-57b0-4e2f-97d6-7c1edf156f56"
      },
      "period": {
        "start": "2026-03-27T14:30:00.000+00:00",
        "end": "2026-03-27T15:00:00.000+00:00"
      },
      "length": {
        "value": 0.0,
        "unit": "days"
      },
      "reasonCode": [ {
        "coding": [ {
          "system": "http://hl7.org/fhir/sid/icd-10-cm",
          "version": "2021",
          "code": "F32.2",
          "display": "Major depressive disorder, single episode, severe without psychotic features",
          "userSelected": true
        } ]
      } ],
      "diagnosis": [ {
        "condition": {
          "reference": "Condition/3110b40c-3ab8-4adf-8369-a283c05cc778"
        },
        "use": {
          "coding": [ {
            "system": "http://snomed.info/sct",
            "version": "2023-09",
            "code": "10811161000119107",
            "display": "Major depressive disorder in mother complicating pregnancy (disorder)",
            "userSelected": true
          } ]
        }
      } ]
    },
    "request": {
      "method": "PUT",
      "url": "Encounter/012b86fe-f8af-49b8-9b90-b08ffb32ee44"
    }
  }, {
    "fullUrl": "https://madie.cms.gov/Encounter/ffcc5c3b-7877-4fed-a71d-74a3b22a977a",
    "resource": {
      "resourceType": "Encounter",
      "id": "ffcc5c3b-7877-4fed-a71d-74a3b22a977a",
      "meta": {
        "profile": [ "http://hl7.org/fhir/us/qicore/StructureDefinition/qicore-encounter" ]
      },
      "status": "finished",
      "class": {
        "system": "http://terminology.hl7.org/CodeSystem/v3-ActCode",
        "code": "AMB",
        "display": "ambulatory",
        "userSelected": true
      },
      "type": [ {
        "coding": [ {
          "system": "http://www.ama-assn.org/go/cpt",
          "code": "99212"
        } ]
      } ],
      "subject": {
        "reference": "Patient/3f4922e2-57b0-4e2f-97d6-7c1edf156f56"
      },
      "period": {
        "start": "2026-05-15T11:30:00.000+00:00",
        "end": "2026-05-15T12:00:00.000+00:00"
      },
      "length": {
        "value": 0.0,
        "unit": "days"
      }
    },
    "request": {
      "method": "PUT",
      "url": "Encounter/ffcc5c3b-7877-4fed-a71d-74a3b22a977a"
    }
  }, {
    "fullUrl": "https://madie.cms.gov/Encounter/b1615b46-efe1-4f63-943c-78c42e663b46",
    "resource": {
      "resourceType": "Encounter",
      "id": "b1615b46-efe1-4f63-943c-78c42e663b46",
      "meta": {
        "profile": [ "http://hl7.org/fhir/us/qicore/StructureDefinition/qicore-encounter" ]
      },
      "status": "finished",
      "class": {
        "system": "http://terminology.hl7.org/CodeSystem/v3-ActCode",
        "code": "AMB",
        "display": "ambulatory",
        "userSelected": true
      },
      "type": [ {
        "coding": [ {
          "system": "http://www.ama-assn.org/go/cpt",
          "code": "99212"
        } ]
      } ],
      "subject": {
        "reference": "Patient/3f4922e2-57b0-4e2f-97d6-7c1edf156f56"
      },
      "period": {
        "start": "2026-07-12T11:30:00.000+00:00",
        "end": "2026-07-12T12:00:00.000+00:00"
      },
      "length": {
        "value": 0.0,
        "unit": "days"
      },
      "reasonCode": [ {
        "coding": [ {
          "system": "http://snomed.info/sct",
          "version": "2020-09",
          "code": "10811161000119107",
          "display": "Major depressive disorder in mother complicating pregnancy (disorder)",
          "userSelected": true
        } ]
      } ],
      "diagnosis": [ {
        "condition": {
          "reference": "Condition/627ad270-739f-4c7f-85c1-06c8f2044993"
        },
        "use": {
          "coding": [ {
            "system": "http://snomed.info/sct",
            "version": "2023-09",
            "code": "10811161000119107",
            "display": "Major depressive disorder in mother complicating pregnancy (disorder)",
            "userSelected": true
          } ]
        }
      } ]
    },
    "request": {
      "method": "PUT",
      "url": "Encounter/b1615b46-efe1-4f63-943c-78c42e663b46"
    }
  }, {
    "fullUrl": "https://madie.cms.gov/Encounter/a110a769-1e2c-4313-9b02-225922bc6e2c",
    "resource": {
      "resourceType": "Encounter",
      "id": "a110a769-1e2c-4313-9b02-225922bc6e2c",
      "meta": {
        "profile": [ "http://hl7.org/fhir/us/qicore/StructureDefinition/qicore-encounter" ]
      },
      "status": "finished",
      "class": {
        "system": "http://terminology.hl7.org/CodeSystem/v3-ActCode",
        "code": "AMB",
        "display": "ambulatory",
        "userSelected": true
      },
      "type": [ {
        "coding": [ {
          "system": "http://www.ama-assn.org/go/cpt",
          "code": "99212"
        } ]
      } ],
      "subject": {
        "reference": "Patient/3f4922e2-57b0-4e2f-97d6-7c1edf156f56"
      },
      "period": {
        "start": "2026-12-30T09:30:00.000+00:00",
        "end": "2026-12-30T10:00:00.000+00:00"
      },
      "length": {
        "value": 0.0,
        "unit": "days"
      }
    },
    "request": {
      "method": "PUT",
      "url": "Encounter/a110a769-1e2c-4313-9b02-225922bc6e2c"
    }
  }, {
    "fullUrl": "https://madie.cms.gov/Procedure/6d8df389-b038-46f3-847f-bd4b833ed693",
    "resource": {
      "resourceType": "Procedure",
      "id": "6d8df389-b038-46f3-847f-bd4b833ed693",
      "meta": {
        "profile": [ "http://hl7.org/fhir/us/qicore/StructureDefinition/qicore-procedure" ]
      },
      "extension": [ {
        "url": "http://hl7.org/fhir/us/qicore/StructureDefinition/qicore-recorded",
        "valueDateTime": "2026-03-27T14:45:00.000+00:00"
      } ],
      "status": "completed",
      "code": {
        "coding": [ {
          "system": "http://snomed.info/sct",
          "code": "225337009"
        } ]
      },
      "subject": {
        "reference": "Patient/3f4922e2-57b0-4e2f-97d6-7c1edf156f56"
      },
      "performedDateTime": "2026-03-27T14:45:00.000+00:00"
    },
    "request": {
      "method": "PUT",
      "url": "Procedure/6d8df389-b038-46f3-847f-bd4b833ed693"
    }
  }, {
    "fullUrl": "https://madie.cms.gov/Procedure/055296ee-8cd9-43d8-a562-aa8c44b365bb",
    "resource": {
      "resourceType": "Procedure",
      "id": "055296ee-8cd9-43d8-a562-aa8c44b365bb",
      "meta": {
        "profile": [ "http://hl7.org/fhir/us/qicore/StructureDefinition/qicore-procedure" ]
      },
      "extension": [ {
        "url": "http://hl7.org/fhir/us/qicore/StructureDefinition/qicore-recorded",
        "valueDateTime": "2026-07-12T11:45:00.000+00:00"
      } ],
      "status": "completed",
      "code": {
        "coding": [ {
          "system": "http://snomed.info/sct",
          "code": "225337009"
        } ]
      },
      "subject": {
        "reference": "Patient/3f4922e2-57b0-4e2f-97d6-7c1edf156f56"
      },
      "performedDateTime": "2026-07-12T11:45:00.000+00:00"
    },
    "request": {
      "method": "PUT",
      "url": "Procedure/055296ee-8cd9-43d8-a562-aa8c44b365bb"
    }
  }, {
    "fullUrl": "https://madie.cms.gov/Condition/3110b40c-3ab8-4adf-8369-a283c05cc778",
    "resource": {
      "resourceType": "Condition",
      "id": "3110b40c-3ab8-4adf-8369-a283c05cc778",
      "meta": {
        "profile": [ "http://hl7.org/fhir/us/qicore/StructureDefinition/qicore-condition" ]
      },
      "category": [ {
        "coding": [ {
          "system": "http://terminology.hl7.org/CodeSystem/condition-category",
          "code": "encounter-diagnosis",
          "display": "encounter-diagnosis",
          "userSelected": true
        } ]
      } ],
      "code": {
        "coding": [ {
          "system": "http://snomed.info/sct",
          "version": "2023-09",
          "code": "10811121000119102",
          "display": "Major depressive disorder in mother complicating childbirth (disorder)",
          "userSelected": true
        } ]
      },
      "subject": {
        "reference": "Patient/3f4922e2-57b0-4e2f-97d6-7c1edf156f56"
      },
      "recordedDate": "2026-03-27T14:30:00.000+00:00"
    },
    "request": {
      "method": "PUT",
      "url": "Condition/3110b40c-3ab8-4adf-8369-a283c05cc778"
    }
  }, {
    "fullUrl": "https://madie.cms.gov/Condition/627ad270-739f-4c7f-85c1-06c8f2044993",
    "resource": {
      "resourceType": "Condition",
      "id": "627ad270-739f-4c7f-85c1-06c8f2044993",
      "meta": {
        "profile": [ "http://hl7.org/fhir/us/qicore/StructureDefinition/qicore-condition" ]
      },
      "category": [ {
        "coding": [ {
          "system": "http://terminology.hl7.org/CodeSystem/condition-category",
          "code": "encounter-diagnosis",
          "display": "encounter-diagnosis",
          "userSelected": true
        } ]
      } ],
      "code": {
        "coding": [ {
          "system": "http://snomed.info/sct",
          "version": "2023-09",
          "code": "10811121000119102",
          "display": "Major depressive disorder in mother complicating childbirth (disorder)",
          "userSelected": true
        } ]
      },
      "subject": {
        "reference": "Patient/3f4922e2-57b0-4e2f-97d6-7c1edf156f56"
      },
      "recordedDate": "2026-07-12T11:30:00.000+00:00"
    },
    "request": {
      "method": "PUT",
      "url": "Condition/627ad270-739f-4c7f-85c1-06c8f2044993"
    }
  }, {
    "fullUrl": "https://madie.cms.gov/Coverage/f47813ab-a9f7-40c8-bfb8-cd4a841ee691",
    "resource": {
      "resourceType": "Coverage",
      "id": "f47813ab-a9f7-40c8-bfb8-cd4a841ee691",
      "meta": {
        "profile": [ "http://hl7.org/fhir/us/qicore/StructureDefinition/qicore-coverage" ]
      },
      "identifier": [ {
        "system": "http://benefitsinc.com/certificate",
        "value": "12345"
      } ],
      "status": "active",
      "type": {
        "coding": [ {
          "system": "https://nahdo.org/sopt",
          "code": "14",
          "userSelected": true
        } ]
      },
      "beneficiary": {
        "reference": "Patient/3f4922e2-57b0-4e2f-97d6-7c1edf156f56"
      },
      "period": {
        "start": "2026-01-01T08:00:00.000+00:00",
        "end": "2026-12-31T11:59:00.000+00:00"
      },
      "payor": [ {
        "reference": "Organization/c30f85fb-32b0-4434-9082-c8420b0a4966"
      } ]
    },
    "request": {
      "method": "PUT",
      "url": "Coverage/f47813ab-a9f7-40c8-bfb8-cd4a841ee691"
    }
  }, {
    "fullUrl": "https://madie.cms.gov/Organization/c30f85fb-32b0-4434-9082-c8420b0a4966",
    "resource": {
      "resourceType": "Organization",
      "id": "c30f85fb-32b0-4434-9082-c8420b0a4966",
      "meta": {
        "profile": [ "http://hl7.org/fhir/us/qicore/StructureDefinition/qicore-organization" ]
      },
      "identifier": [ {
        "use": "temp",
        "system": "urn:oid:2.16.840.1.113883.4.4",
        "value": "21-3259825"
      } ],
      "active": true,
      "type": [ {
        "coding": [ {
          "system": "http://terminology.hl7.org/CodeSystem/organization-type",
          "code": "pay",
          "display": "Payer"
        } ]
      } ],
      "name": "Blue Cross Blue Shield of Texas",
      "telecom": [ {
        "system": "phone",
        "value": "(+1) 972-766-6900"
      } ],
      "address": [ {
        "use": "billing",
        "type": "postal",
        "line": [ "P.O. Box 660044" ],
        "city": "Dallas",
        "state": "TX",
        "postalCode": "75266-0044",
        "country": "USA"
      } ]
    },
    "request": {
      "method": "PUT",
      "url": "Organization/c30f85fb-32b0-4434-9082-c8420b0a4966"
    }
  }, {
    "fullUrl": "https://madie.cms.gov/Practitioner/f532889d-5648-465a-8912-e1a7fb4cb3e4",
    "resource": {
      "resourceType": "Practitioner",
      "id": "f532889d-5648-465a-8912-e1a7fb4cb3e4",
      "meta": {
        "profile": [ "http://hl7.org/fhir/us/qicore/StructureDefinition/qicore-practitioner" ]
      },
      "identifier": [ {
        "system": "http://hl7.org/fhir/sid/us-npi",
        "value": "123456"
      } ],
      "name": [ {
        "family": "Evil",
        "prefix": [ "Dr" ]
      } ]
    },
    "request": {
      "method": "PUT",
      "url": "Practitioner/f532889d-5648-465a-8912-e1a7fb4cb3e4"
    }
  }, {
    "fullUrl": "https://madie.cms.gov/MeasureReport/1fa8c0b2-2ae7-498c-acb8-b99937490812",
    "resource": {
      "resourceType": "MeasureReport",
      "id": "1fa8c0b2-2ae7-498c-acb8-b99937490812",
      "meta": {
        "profile": [ "http://hl7.org/fhir/us/cqfmeasures/StructureDefinition/test-case-cqfm" ]
      },
      "contained": [ {
        "resourceType": "Parameters",
        "id": "ff6c43c3-ce8e-44d9-896b-08c96f952c9c-parameters",
        "parameter": [ {
          "name": "subject",
          "valueString": "3f4922e2-57b0-4e2f-97d6-7c1edf156f56"
        } ]
      } ],
      "extension": [ {
        "url": "http://hl7.org/fhir/StructureDefinition/cqf-inputParameters",
        "valueReference": {
          "reference": "#ff6c43c3-ce8e-44d9-896b-08c96f952c9c-parameters"
        }
      }, {
        "url": "http://hl7.org/fhir/us/cqfmeasures/StructureDefinition/cqfm-testCaseDescription",
        "valueMarkdown": "Patient with depression and suicide risk assessment during multiple office visit encounter using relevantDatetime"
      } ],
      "modifierExtension": [ {
        "url": "http://hl7.org/fhir/us/cqfmeasures/StructureDefinition/cqfm-isTestCase",
        "valueBoolean": true
      } ],
      "status": "complete",
      "type": "individual",
      "measure": "https://madie.cms.gov/Measure/CMS177FHIRChildMDDSuicideAssmt",
      "period": {
        "start": "2026-01-01",
        "end": "2026-12-31"
      },
      "group": [ {
        "id": "Group_1",
        "population": [ {
          "id": "InitialPopulation_1",
          "code": {
            "coding": [ {
              "system": "http://terminology.hl7.org/CodeSystem/measure-population",
              "code": "initial-population",
              "display": "Initial Population"
            } ]
          },
          "count": 2
        }, {
          "id": "Denominator_1",
          "code": {
            "coding": [ {
              "system": "http://terminology.hl7.org/CodeSystem/measure-population",
              "code": "denominator",
              "display": "Denominator"
            } ]
          },
          "count": 2
        }, {
          "id": "Numerator_1",
          "code": {
            "coding": [ {
              "system": "http://terminology.hl7.org/CodeSystem/measure-population",
              "code": "numerator",
              "display": "Numerator"
            } ]
          },
          "count": 2
        } ],
        "measureScore": {
          "value": 0.0
        }
      } ],
      "evaluatedResource": [ {
        "reference": "Patient/3f4922e2-57b0-4e2f-97d6-7c1edf156f56"
      }, {
        "reference": "Encounter/012b86fe-f8af-49b8-9b90-b08ffb32ee44"
      }, {
        "reference": "Encounter/ffcc5c3b-7877-4fed-a71d-74a3b22a977a"
      }, {
        "reference": "Encounter/b1615b46-efe1-4f63-943c-78c42e663b46"
      }, {
        "reference": "Encounter/a110a769-1e2c-4313-9b02-225922bc6e2c"
      }, {
        "reference": "Procedure/6d8df389-b038-46f3-847f-bd4b833ed693"
      }, {
        "reference": "Procedure/055296ee-8cd9-43d8-a562-aa8c44b365bb"
      }, {
        "reference": "Condition/3110b40c-3ab8-4adf-8369-a283c05cc778"
      }, {
        "reference": "Condition/627ad270-739f-4c7f-85c1-06c8f2044993"
      }, {
        "reference": "Coverage/f47813ab-a9f7-40c8-bfb8-cd4a841ee691"
      }, {
        "reference": "Organization/c30f85fb-32b0-4434-9082-c8420b0a4966"
      }, {
        "reference": "Practitioner/f532889d-5648-465a-8912-e1a7fb4cb3e4"
      } ]
    },
    "request": {
      "method": "PUT",
      "url": "MeasureReport/1fa8c0b2-2ae7-498c-acb8-b99937490812"
    }
  } ]
}