{
  "resourceType": "Bundle",
  "id": "64a2f1af41237ac3c42036b6",
  "type": "collection",
  "entry": [ {
    "fullUrl": "https://madie.cms.gov/Patient/3aa2678e-0a9c-4233-9634-daae7e0e31e9",
    "resource": {
      "resourceType": "Patient",
      "id": "3aa2678e-0a9c-4233-9634-daae7e0e31e9",
      "meta": {
        "profile": [ "http://hl7.org/fhir/us/qicore/StructureDefinition/qicore-patient" ]
      },
      "extension": [ {
        "url": "http://hl7.org/fhir/us/core/StructureDefinition/us-core-race",
        "extension": [ {
          "url": "ombCategory",
          "valueCoding": {
            "system": "urn:oid:2.16.840.1.113883.6.238",
            "code": "2054-5",
            "display": "Black or African American",
            "userSelected": true
          }
        }, {
          "url": "text",
          "valueString": "Black or African American"
        } ]
      }, {
        "url": "http://hl7.org/fhir/us/core/StructureDefinition/us-core-ethnicity",
        "extension": [ {
          "url": "ombCategory",
          "valueCoding": {
            "system": "urn:oid:2.16.840.1.113883.6.238",
            "code": "2186-5",
            "display": "Not Hispanic or Latino",
            "userSelected": true
          }
        }, {
          "url": "text",
          "valueString": "Not Hispanic or Latino"
        } ]
      } ],
      "identifier": [ {
        "type": {
          "coding": [ {
            "system": "http://terminology.hl7.org/CodeSystem/v2-0203",
            "code": "MR"
          } ]
        },
        "system": "https://bonnie-fhir.healthit.gov/",
        "value": "64a2f1af41237ac3c42036b6"
      } ],
      "name": [ {
        "family": "NumPass",
        "given": [ "AllLabTestsAfterEncReleventPeriod" ]
      } ],
      "gender": "unknown",
      "birthDate": "2001-02-04"
    }
  }, {
    "fullUrl": "https://madie.cms.gov/Condition/7985e715-9bf4-4e84-9f54-ac5fd6823184",
    "resource": {
      "resourceType": "Condition",
      "id": "7985e715-9bf4-4e84-9f54-ac5fd6823184",
      "meta": {
        "profile": [ "http://hl7.org/fhir/us/qicore/StructureDefinition/qicore-condition-problems-health-concerns" ]
      },
      "clinicalStatus": {
        "coding": [ {
          "system": "http://terminology.hl7.org/CodeSystem/condition-clinical",
          "code": "active",
          "display": "active",
          "userSelected": true
        } ]
      },
      "category": [ {
        "coding": [ {
          "system": "http://terminology.hl7.org/CodeSystem/condition-category",
          "code": "problem-list-item",
          "display": "Problem List Item"
        } ]
      } ],
      "code": {
        "coding": [ {
          "system": "http://hl7.org/fhir/sid/icd-9-cm",
          "version": "2013",
          "code": "042",
          "display": "Human immunodeficiency virus [HIV] disease",
          "userSelected": true
        }, {
          "system": "http://snomed.info/sct",
          "version": "http://snomed.info/sct/731000124108/version/20250301",
          "code": "165816005",
          "userSelected": true
        } ]
      },
      "subject": {
        "reference": "Patient/3aa2678e-0a9c-4233-9634-daae7e0e31e9"
      },
      "onsetDateTime": "2018-09-28T08:00:00.000+00:00",
      "recordedDate": "2018-09-28T08:00:00.000+00:00"
    }
  }, {
    "fullUrl": "https://madie.cms.gov/Encounter/645faaf4-3557-4fd6-86fe-de616c28af36",
    "resource": {
      "resourceType": "Encounter",
      "id": "645faaf4-3557-4fd6-86fe-de616c28af36",
      "meta": {
        "profile": [ "http://hl7.org/fhir/us/qicore/StructureDefinition/qicore-encounter" ]
      },
      "status": "finished",
      "class": {
        "system": "http://terminology.hl7.org/CodeSystem/v3-ActCode",
        "code": "AMB",
        "display": "ambulatory"
      },
      "type": [ {
        "coding": [ {
          "system": "http://www.ama-assn.org/go/cpt",
          "version": "2023",
          "code": "99391",
          "display": "Periodic comprehensive preventive medicine reevaluation and management of an individual including an age and gender appropriate history, examination, counseling/anticipatory guidance/risk factor reduction interventions, and the ordering of laboratory/diagnostic procedures, established patient; infant (age younger than 1 year)",
          "userSelected": true
        } ]
      } ],
      "subject": {
        "reference": "Patient/3aa2678e-0a9c-4233-9634-daae7e0e31e9"
      },
      "period": {
        "start": "2026-09-29T08:00:00.000+00:00",
        "end": "2026-09-29T08:30:00.000+00:00"
      }
    }
  }, {
    "fullUrl": "https://madie.cms.gov/Observation/64c0f096-57ce-4c6b-916c-490cf71fa212",
    "resource": {
      "resourceType": "Observation",
      "id": "64c0f096-57ce-4c6b-916c-490cf71fa212",
      "meta": {
        "profile": [ "http://hl7.org/fhir/us/qicore/StructureDefinition/qicore-observation-lab" ]
      },
      "status": "final",
      "category": [ {
        "coding": [ {
          "system": "http://terminology.hl7.org/CodeSystem/observation-category",
          "code": "laboratory",
          "display": "Laboratory"
        } ]
      }, {
        "coding": [ {
          "system": "http://terminology.hl7.org/CodeSystem/observation-category",
          "code": "survey"
        } ]
      } ],
      "code": {
        "coding": [ {
          "system": "http://loinc.org",
          "version": "2.73",
          "code": "11084-1",
          "display": "Reagin Ab [Titer] in Serum",
          "userSelected": true
        } ]
      },
      "subject": {
        "reference": "Patient/3aa2678e-0a9c-4233-9634-daae7e0e31e9"
      },
      "effectivePeriod": {
        "start": "2026-09-30T08:00:00.000+00:00",
        "end": "2026-09-30T08:15:00.000+00:00"
      },
      "issued": "2026-09-30T08:00:00.000+00:00",
      "valueQuantity": {
        "value": 12.3
      }
    }
  }, {
    "fullUrl": "https://madie.cms.gov/Observation/5bf39c99-de36-41da-9387-6319060164a1",
    "resource": {
      "resourceType": "Observation",
      "id": "5bf39c99-de36-41da-9387-6319060164a1",
      "meta": {
        "profile": [ "http://hl7.org/fhir/us/qicore/StructureDefinition/qicore-observation-lab" ]
      },
      "status": "final",
      "category": [ {
        "coding": [ {
          "system": "http://terminology.hl7.org/CodeSystem/observation-category",
          "code": "laboratory",
          "display": "Laboratory"
        } ]
      }, {
        "coding": [ {
          "system": "http://terminology.hl7.org/CodeSystem/observation-category",
          "code": "survey"
        } ]
      } ],
      "code": {
        "coding": [ {
          "system": "http://loinc.org",
          "version": "2.73",
          "code": "14463-4",
          "display": "Chlamydia trachomatis [Presence] in Cervix by Organism specific culture",
          "userSelected": true
        } ]
      },
      "subject": {
        "reference": "Patient/3aa2678e-0a9c-4233-9634-daae7e0e31e9"
      },
      "effectivePeriod": {
        "start": "2026-09-30T08:00:00.000+00:00",
        "end": "2026-09-30T08:15:00.000+00:00"
      },
      "issued": "2026-09-30T08:00:00.000+00:00",
      "valueQuantity": {
        "value": 16
      }
    }
  }, {
    "fullUrl": "https://madie.cms.gov/Observation/d7a8e16b-08ec-4805-b4e3-1dcc95b72146",
    "resource": {
      "resourceType": "Observation",
      "id": "d7a8e16b-08ec-4805-b4e3-1dcc95b72146",
      "meta": {
        "profile": [ "http://hl7.org/fhir/us/qicore/StructureDefinition/qicore-observation-lab" ]
      },
      "status": "final",
      "category": [ {
        "coding": [ {
          "system": "http://terminology.hl7.org/CodeSystem/observation-category",
          "code": "laboratory",
          "display": "Laboratory"
        } ]
      }, {
        "coding": [ {
          "system": "http://terminology.hl7.org/CodeSystem/observation-category",
          "code": "survey"
        } ]
      } ],
      "code": {
        "coding": [ {
          "system": "http://loinc.org",
          "version": "2.73",
          "code": "21415-5",
          "display": "Neisseria gonorrhoeae DNA [Presence] in Urethra by NAA with probe detection",
          "userSelected": true
        } ]
      },
      "subject": {
        "reference": "Patient/3aa2678e-0a9c-4233-9634-daae7e0e31e9"
      },
      "effectivePeriod": {
        "start": "2026-09-30T08:00:00.000+00:00",
        "end": "2026-09-30T08:15:00.000+00:00"
      },
      "issued": "2026-09-30T08:00:00.000+00:00",
      "valueQuantity": {
        "value": 14
      }
    }
  }, {
    "fullUrl": "https://madie.cms.gov/Coverage/f68dc323-772b-4262-a31f-db2e7842abac",
    "resource": {
      "resourceType": "Coverage",
      "id": "f68dc323-772b-4262-a31f-db2e7842abac",
      "meta": {
        "profile": [ "http://hl7.org/fhir/us/qicore/StructureDefinition/qicore-coverage" ]
      },
      "status": "active",
      "subscriberId": "123456",
      "beneficiary": {
        "reference": "Patient/3aa2678e-0a9c-4233-9634-daae7e0e31e9"
      },
      "relationship": {
        "coding": [ {
          "system": "http://terminology.hl7.org/CodeSystem/subscriber-relationship",
          "code": "self",
          "display": "Self"
        } ]
      },
      "payor": [ {
        "reference": "Organization/e1bca1f7-1378-4ece-935a-1c5c53194231"
      } ]
    }
  }, {
    "fullUrl": "https://madie.cms.gov/Organization/e1bca1f7-1378-4ece-935a-1c5c53194231",
    "resource": {
      "resourceType": "Organization",
      "id": "e1bca1f7-1378-4ece-935a-1c5c53194231",
      "meta": {
        "profile": [ "http://hl7.org/fhir/us/qicore/StructureDefinition/qicore-organization" ]
      },
      "identifier": [ {
        "use": "temp",
        "system": "urn:oid:2.16.840.1.113883.4.4",
        "value": "21-3259825"
      } ],
      "active": true,
      "type": [ {
        "coding": [ {
          "system": "http://terminology.hl7.org/CodeSystem/organization-type",
          "code": "pay",
          "display": "Payer"
        } ]
      } ],
      "name": "Blue Cross Blue Shield of Texas",
      "telecom": [ {
        "system": "phone",
        "value": "(+1) 972-766-6900"
      } ],
      "address": [ {
        "use": "billing",
        "type": "postal",
        "line": [ "P.O. Box 660044" ],
        "city": "Dallas",
        "state": "TX",
        "postalCode": "75266-0044",
        "country": "USA"
      } ]
    }
  }, {
    "fullUrl": "https://madie.cms.gov/Practitioner/d961add9-d1c1-476d-b90b-84742a8601ee",
    "resource": {
      "resourceType": "Practitioner",
      "id": "d961add9-d1c1-476d-b90b-84742a8601ee",
      "meta": {
        "profile": [ "http://hl7.org/fhir/us/qicore/StructureDefinition/qicore-practitioner" ]
      },
      "identifier": [ {
        "system": "http://hl7.org/fhir/sid/us-npi",
        "value": "1689411712"
      } ],
      "name": [ {
        "family": "Evil",
        "prefix": [ "Dr" ]
      } ]
    }
  }, {
    "fullUrl": "https://madie.cms.gov/MeasureReport/2353222a-fc57-4227-ab17-689a36e4fd71",
    "resource": {
      "resourceType": "MeasureReport",
      "id": "2353222a-fc57-4227-ab17-689a36e4fd71",
      "meta": {
        "profile": [ "http://hl7.org/fhir/us/cqfmeasures/StructureDefinition/test-case-cqfm" ]
      },
      "contained": [ {
        "resourceType": "Parameters",
        "id": "7c0f121a-d5cb-4fcb-b4fc-afd001fc7720-parameters",
        "parameter": [ {
          "name": "subject",
          "valueString": "3aa2678e-0a9c-4233-9634-daae7e0e31e9"
        } ]
      } ],
      "extension": [ {
        "url": "http://hl7.org/fhir/StructureDefinition/cqf-inputParameters",
        "valueReference": {
          "reference": "#7c0f121a-d5cb-4fcb-b4fc-afd001fc7720-parameters"
        }
      }, {
        "url": "http://hl7.org/fhir/us/cqfmeasures/StructureDefinition/cqfm-testCaseDescription",
        "valueMarkdown": "Patient is over 13 years old and has an encounter during the MP and has all three lab tests during the MP AFTER the encounter"
      } ],
      "modifierExtension": [ {
        "url": "http://hl7.org/fhir/us/cqfmeasures/StructureDefinition/cqfm-isTestCase",
        "valueBoolean": true
      } ],
      "status": "complete",
      "type": "individual",
      "measure": "https://madie.cms.gov/Measure/CMS1188FHIRHIVSTITesting",
      "period": {
        "start": "2026-01-01",
        "end": "2026-12-31"
      },
      "group": [ {
        "id": "Group_1",
        "population": [ {
          "id": "InitialPopulation_1",
          "code": {
            "coding": [ {
              "system": "http://terminology.hl7.org/CodeSystem/measure-population",
              "code": "initial-population",
              "display": "Initial Population"
            } ]
          },
          "count": 1
        }, {
          "id": "Denominator_1",
          "code": {
            "coding": [ {
              "system": "http://terminology.hl7.org/CodeSystem/measure-population",
              "code": "denominator",
              "display": "Denominator"
            } ]
          },
          "count": 1
        }, {
          "id": "Numerator_1",
          "code": {
            "coding": [ {
              "system": "http://terminology.hl7.org/CodeSystem/measure-population",
              "code": "numerator",
              "display": "Numerator"
            } ]
          },
          "count": 1
        } ],
        "measureScore": {
          "value": 1.0
        }
      } ],
      "evaluatedResource": [ {
        "reference": "Patient/3aa2678e-0a9c-4233-9634-daae7e0e31e9"
      }, {
        "reference": "Condition/7985e715-9bf4-4e84-9f54-ac5fd6823184"
      }, {
        "reference": "Encounter/645faaf4-3557-4fd6-86fe-de616c28af36"
      }, {
        "reference": "Observation/64c0f096-57ce-4c6b-916c-490cf71fa212"
      }, {
        "reference": "Observation/5bf39c99-de36-41da-9387-6319060164a1"
      }, {
        "reference": "Observation/d7a8e16b-08ec-4805-b4e3-1dcc95b72146"
      }, {
        "reference": "Coverage/f68dc323-772b-4262-a31f-db2e7842abac"
      }, {
        "reference": "Organization/e1bca1f7-1378-4ece-935a-1c5c53194231"
      }, {
        "reference": "Practitioner/d961add9-d1c1-476d-b90b-84742a8601ee"
      } ]
    }
  } ]
}