{
  "resourceType": "Bundle",
  "id": "63f628d8d289cd498bb84238",
  "type": "collection",
  "entry": [ {
    "fullUrl": "https://madie.cms.gov/Patient/356705b1-d6dd-44fd-916e-209c55981b0a",
    "resource": {
      "resourceType": "Patient",
      "id": "356705b1-d6dd-44fd-916e-209c55981b0a",
      "meta": {
        "profile": [ "http://hl7.org/fhir/us/qicore/StructureDefinition/qicore-patient" ]
      },
      "extension": [ {
        "url": "http://hl7.org/fhir/us/core/StructureDefinition/us-core-race",
        "extension": [ {
          "url": "ombCategory",
          "valueCoding": {
            "system": "urn:oid:2.16.840.1.113883.6.238",
            "code": "2106-3",
            "display": "White",
            "userSelected": true
          }
        }, {
          "url": "text",
          "valueString": "White"
        } ]
      }, {
        "url": "http://hl7.org/fhir/us/core/StructureDefinition/us-core-ethnicity",
        "extension": [ {
          "url": "ombCategory",
          "valueCoding": {
            "system": "urn:oid:2.16.840.1.113883.6.238",
            "code": "2135-2",
            "display": "Hispanic or Latino",
            "userSelected": true
          }
        }, {
          "url": "text",
          "valueString": "Hispanic or Latino"
        } ]
      } ],
      "identifier": [ {
        "type": {
          "coding": [ {
            "system": "http://terminology.hl7.org/CodeSystem/v2-0203",
            "code": "MR"
          } ]
        },
        "system": "https://GoodHealthCare.com/",
        "value": "63f628d8d289cd498bb84238"
      } ],
      "name": [ {
        "family": "DENOMPass",
        "given": [ "FundusExam1MinAfterEncStart" ]
      } ],
      "gender": "female",
      "birthDate": "1967-05-01"
    }
  }, {
    "fullUrl": "https://madie.cms.gov/Encounter/0c9d84b1-3c71-412f-b929-024b583e1eb6",
    "resource": {
      "resourceType": "Encounter",
      "id": "0c9d84b1-3c71-412f-b929-024b583e1eb6",
      "meta": {
        "profile": [ "http://hl7.org/fhir/us/qicore/StructureDefinition/qicore-encounter" ]
      },
      "status": "finished",
      "class": {
        "system": "http://terminology.hl7.org/CodeSystem/v3-ActCode",
        "code": "AMB",
        "display": "ambulatory",
        "userSelected": true
      },
      "type": [ {
        "coding": [ {
          "system": "http://snomed.info/sct",
          "version": "http://snomed.info/sct/731000124108/version/20230301",
          "code": "207195004",
          "display": "History and physical examination with evaluation and management of nursing facility patient (procedure)"
        } ]
      } ],
      "subject": {
        "reference": "Patient/356705b1-d6dd-44fd-916e-209c55981b0a"
      },
      "period": {
        "start": "2026-03-09T08:00:00.000+00:00",
        "end": "2026-03-09T08:15:00.000+00:00"
      }
    }
  }, {
    "fullUrl": "https://madie.cms.gov/Condition/482d3a77-b5f7-49da-861a-506d8483e41b",
    "resource": {
      "resourceType": "Condition",
      "id": "482d3a77-b5f7-49da-861a-506d8483e41b",
      "meta": {
        "profile": [ "http://hl7.org/fhir/us/qicore/StructureDefinition/qicore-condition-problems-health-concerns" ]
      },
      "clinicalStatus": {
        "coding": [ {
          "system": "http://terminology.hl7.org/CodeSystem/condition-clinical",
          "code": "active",
          "display": "active",
          "userSelected": true
        } ]
      },
      "category": [ {
        "coding": [ {
          "system": "http://terminology.hl7.org/CodeSystem/condition-category",
          "code": "problem-list-item",
          "display": "Problem List Item"
        } ]
      }, {
        "coding": [ {
          "system": "http://terminology.hl7.org/CodeSystem/condition-ver-status",
          "code": "confirmed",
          "display": "confirmed",
          "userSelected": true
        } ]
      } ],
      "code": {
        "coding": [ {
          "system": "http://snomed.info/sct",
          "version": "http://snomed.info/sct/731000124108/version/20250301",
          "code": "193350004",
          "display": "Advanced maculopathy due to diabetes mellitus (disorder)"
        } ]
      },
      "subject": {
        "reference": "Patient/356705b1-d6dd-44fd-916e-209c55981b0a"
      },
      "onsetDateTime": "2026-01-09T08:00:00.000+00:00"
    }
  }, {
    "fullUrl": "https://madie.cms.gov/Observation/7264428e-8c86-48ea-b355-c81708e254ff",
    "resource": {
      "resourceType": "Observation",
      "id": "7264428e-8c86-48ea-b355-c81708e254ff",
      "meta": {
        "profile": [ "http://hl7.org/fhir/us/qicore/StructureDefinition/qicore-observation-clinical-result" ]
      },
      "status": "final",
      "category": [ {
        "coding": [ {
          "system": "http://terminology.hl7.org/CodeSystem/condition-ver-status",
          "code": "confirmed",
          "display": "confirmed",
          "userSelected": true
        } ]
      }, {
        "coding": [ {
          "system": "http://terminology.hl7.org/CodeSystem/observation-category",
          "code": "survey"
        } ]
      } ],
      "code": {
        "coding": [ {
          "system": "http://loinc.org",
          "version": "2.73",
          "code": "32451-7",
          "display": "Physical findings of Macula",
          "userSelected": true
        } ]
      },
      "subject": {
        "reference": "Patient/356705b1-d6dd-44fd-916e-209c55981b0a"
      },
      "effectiveDateTime": "2026-03-09T08:01:00.000+00:00",
      "issued": "2026-03-09T08:01:00.000+00:00",
      "valueBoolean": true
    }
  }, {
    "fullUrl": "https://madie.cms.gov/Coverage/6b08b741-98df-46b9-b0bd-fadb94b037ce",
    "resource": {
      "resourceType": "Coverage",
      "id": "6b08b741-98df-46b9-b0bd-fadb94b037ce",
      "meta": {
        "profile": [ "http://hl7.org/fhir/us/qicore/StructureDefinition/qicore-coverage" ]
      },
      "status": "active",
      "subscriberId": "123456",
      "beneficiary": {
        "reference": "Patient/356705b1-d6dd-44fd-916e-209c55981b0a"
      },
      "relationship": {
        "coding": [ {
          "system": "http://terminology.hl7.org/CodeSystem/subscriber-relationship",
          "code": "self",
          "display": "Self"
        } ]
      },
      "payor": [ {
        "reference": "Organization/d43d8d3b-e8a1-43c2-b087-a67ece313380"
      } ]
    }
  }, {
    "fullUrl": "https://madie.cms.gov/Organization/d43d8d3b-e8a1-43c2-b087-a67ece313380",
    "resource": {
      "resourceType": "Organization",
      "id": "d43d8d3b-e8a1-43c2-b087-a67ece313380",
      "meta": {
        "profile": [ "http://hl7.org/fhir/us/qicore/StructureDefinition/qicore-organization" ]
      },
      "identifier": [ {
        "use": "temp",
        "system": "urn:oid:2.16.840.1.113883.4.4",
        "value": "21-3259825"
      } ],
      "active": true,
      "type": [ {
        "coding": [ {
          "system": "http://terminology.hl7.org/CodeSystem/organization-type",
          "code": "pay",
          "display": "Payer"
        } ]
      } ],
      "name": "Blue Cross Blue Shield of Texas",
      "telecom": [ {
        "system": "phone",
        "value": "(+1) 972-766-6900"
      } ],
      "address": [ {
        "use": "billing",
        "type": "postal",
        "line": [ "P.O. Box 660044" ],
        "city": "Dallas",
        "state": "TX",
        "postalCode": "75266-0044",
        "country": "USA"
      } ]
    }
  }, {
    "fullUrl": "https://madie.cms.gov/Practitioner/7ed17f50-7dbc-4442-b4d4-77695cce042b",
    "resource": {
      "resourceType": "Practitioner",
      "id": "7ed17f50-7dbc-4442-b4d4-77695cce042b",
      "meta": {
        "profile": [ "http://hl7.org/fhir/us/qicore/StructureDefinition/qicore-practitioner" ]
      },
      "identifier": [ {
        "system": "http://hl7.org/fhir/sid/us-npi",
        "value": "1689411712"
      } ],
      "name": [ {
        "family": "Evil",
        "prefix": [ "Dr" ]
      } ]
    }
  }, {
    "fullUrl": "https://madie.cms.gov/MeasureReport/cbd80a50-0447-4c85-b629-5262e44342da",
    "resource": {
      "resourceType": "MeasureReport",
      "id": "cbd80a50-0447-4c85-b629-5262e44342da",
      "meta": {
        "profile": [ "http://hl7.org/fhir/us/cqfmeasures/StructureDefinition/test-case-cqfm" ]
      },
      "contained": [ {
        "resourceType": "Parameters",
        "id": "2a750f25-2129-4692-b254-92d52e6dc44c-parameters",
        "parameter": [ {
          "name": "subject",
          "valueString": "356705b1-d6dd-44fd-916e-209c55981b0a"
        } ]
      } ],
      "extension": [ {
        "url": "http://hl7.org/fhir/StructureDefinition/cqf-inputParameters",
        "valueReference": {
          "reference": "#2a750f25-2129-4692-b254-92d52e6dc44c-parameters"
        }
      }, {
        "url": "http://hl7.org/fhir/us/cqfmeasures/StructureDefinition/cqfm-testCaseDescription",
        "valueMarkdown": "Fundus Exam is Performed 1 minute After Start of Encounter (Edge)"
      } ],
      "modifierExtension": [ {
        "url": "http://hl7.org/fhir/us/cqfmeasures/StructureDefinition/cqfm-isTestCase",
        "valueBoolean": true
      } ],
      "status": "complete",
      "type": "individual",
      "measure": "https://madie.cms.gov/Measure/CMS142FHIRCommWithDrManagingDiab",
      "period": {
        "start": "2026-01-01",
        "end": "2026-12-31"
      },
      "group": [ {
        "id": "Group_1",
        "population": [ {
          "id": "InitialPopulation_1",
          "code": {
            "coding": [ {
              "system": "http://terminology.hl7.org/CodeSystem/measure-population",
              "code": "initial-population",
              "display": "Initial Population"
            } ]
          },
          "count": 1
        }, {
          "id": "Denominator_1",
          "code": {
            "coding": [ {
              "system": "http://terminology.hl7.org/CodeSystem/measure-population",
              "code": "denominator",
              "display": "Denominator"
            } ]
          },
          "count": 1
        }, {
          "id": "Numerator_1",
          "code": {
            "coding": [ {
              "system": "http://terminology.hl7.org/CodeSystem/measure-population",
              "code": "numerator",
              "display": "Numerator"
            } ]
          },
          "count": 0
        }, {
          "id": "DenominatorException_1",
          "code": {
            "coding": [ {
              "system": "http://terminology.hl7.org/CodeSystem/measure-population",
              "code": "denominator-exception",
              "display": "Denominator Exception"
            } ]
          },
          "count": 0
        } ],
        "measureScore": {
          "value": 1.0
        }
      } ],
      "evaluatedResource": [ {
        "reference": "Patient/356705b1-d6dd-44fd-916e-209c55981b0a"
      }, {
        "reference": "Encounter/0c9d84b1-3c71-412f-b929-024b583e1eb6"
      }, {
        "reference": "Condition/482d3a77-b5f7-49da-861a-506d8483e41b"
      }, {
        "reference": "Observation/7264428e-8c86-48ea-b355-c81708e254ff"
      }, {
        "reference": "Coverage/6b08b741-98df-46b9-b0bd-fadb94b037ce"
      }, {
        "reference": "Organization/d43d8d3b-e8a1-43c2-b087-a67ece313380"
      }, {
        "reference": "Practitioner/7ed17f50-7dbc-4442-b4d4-77695cce042b"
      } ]
    }
  } ]
}