{
  "resourceType": "Bundle",
  "id": "DENEXPass-HIV",
  "type": "transaction",
  "entry": [ {
    "fullUrl": "https://madie.cms.gov/Patient/c96d4c6a-b9ee-4fdf-8e32-e8071dfcc4f9",
    "resource": {
      "resourceType": "Patient",
      "id": "c96d4c6a-b9ee-4fdf-8e32-e8071dfcc4f9",
      "meta": {
        "profile": [ "http://hl7.org/fhir/us/qicore/StructureDefinition/qicore-patient" ]
      },
      "extension": [ {
        "url": "http://hl7.org/fhir/us/core/StructureDefinition/us-core-race",
        "extension": [ {
          "url": "ombCategory",
          "valueCoding": {
            "system": "urn:oid:2.16.840.1.113883.6.238",
            "code": "2028-9",
            "display": "Asian"
          }
        }, {
          "url": "text",
          "valueString": "Asian"
        } ]
      }, {
        "url": "http://hl7.org/fhir/us/core/StructureDefinition/us-core-ethnicity",
        "extension": [ {
          "url": "ombCategory",
          "valueCoding": {
            "system": "urn:oid:2.16.840.1.113883.6.238",
            "code": "2135-2",
            "display": "Hispanic or Latino"
          }
        }, {
          "url": "text",
          "valueString": "Hispanic or Latino"
        } ]
      } ],
      "identifier": [ {
        "system": "http://hospital.smarthealthit.org",
        "value": "999999995"
      } ],
      "name": [ {
        "family": "Bertha",
        "given": [ "Betty" ]
      } ],
      "gender": "female",
      "birthDate": "2024-01-01"
    },
    "request": {
      "method": "PUT",
      "url": "Patient/c96d4c6a-b9ee-4fdf-8e32-e8071dfcc4f9"
    }
  }, {
    "fullUrl": "https://madie.cms.gov/Encounter/f7ad0cf6-a6df-4001-99d9-cecdc8cfbd14",
    "resource": {
      "resourceType": "Encounter",
      "id": "f7ad0cf6-a6df-4001-99d9-cecdc8cfbd14",
      "meta": {
        "profile": [ "http://hl7.org/fhir/us/qicore/StructureDefinition/qicore-encounter" ]
      },
      "status": "finished",
      "class": {
        "system": "http://terminology.hl7.org/CodeSystem/v3-ActCode",
        "code": "AMB",
        "display": "ambulatory"
      },
      "type": [ {
        "coding": [ {
          "system": "http://snomed.info/sct",
          "code": "185317003",
          "display": "Telephone encounter (procedure)"
        } ]
      } ],
      "subject": {
        "reference": "Patient/c96d4c6a-b9ee-4fdf-8e32-e8071dfcc4f9"
      },
      "period": {
        "start": "2026-01-01T01:00:00.000+00:00",
        "end": "2026-01-01T01:15:00.000+00:00"
      }
    },
    "request": {
      "method": "PUT",
      "url": "Encounter/f7ad0cf6-a6df-4001-99d9-cecdc8cfbd14"
    }
  }, {
    "fullUrl": "https://madie.cms.gov/Condition/3e828deb-c70d-4194-a384-50f3bb5b954b",
    "resource": {
      "resourceType": "Condition",
      "id": "3e828deb-c70d-4194-a384-50f3bb5b954b",
      "meta": {
        "profile": [ "http://hl7.org/fhir/us/qicore/StructureDefinition/qicore-condition-problems-health-concerns" ]
      },
      "clinicalStatus": {
        "coding": [ {
          "system": "http://terminology.hl7.org/CodeSystem/condition-clinical",
          "code": "active"
        } ]
      },
      "category": [ {
        "coding": [ {
          "system": "http://terminology.hl7.org/CodeSystem/condition-category",
          "code": "problem-list-item",
          "display": "Problem List Item"
        } ]
      } ],
      "code": {
        "coding": [ {
          "system": "http://snomed.info/sct",
          "code": "235726002",
          "display": "Human immunodeficiency virus enteropathy (disorder)"
        } ]
      },
      "subject": {
        "reference": "Patient/c96d4c6a-b9ee-4fdf-8e32-e8071dfcc4f9"
      },
      "onsetDateTime": "2025-01-02T00:00:00.000+00:00"
    },
    "request": {
      "method": "PUT",
      "url": "Condition/3e828deb-c70d-4194-a384-50f3bb5b954b"
    }
  }, {
    "fullUrl": "https://madie.cms.gov/Immunization/631a0137-639e-4d48-a822-40ee78f18169",
    "resource": {
      "resourceType": "Immunization",
      "id": "631a0137-639e-4d48-a822-40ee78f18169",
      "meta": {
        "profile": [ "http://hl7.org/fhir/us/qicore/StructureDefinition/qicore-immunization" ]
      },
      "status": "completed",
      "vaccineCode": {
        "coding": [ {
          "system": "http://hl7.org/fhir/sid/cvx",
          "code": "146",
          "display": "DTaP,IPV,Hib,HepB"
        } ]
      },
      "patient": {
        "reference": "Patient/c96d4c6a-b9ee-4fdf-8e32-e8071dfcc4f9"
      },
      "occurrenceDateTime": "2025-01-02T00:00:00.000+00:00",
      "recorded": "2025-01-02T00:00:00.000+00:00",
      "primarySource": true
    },
    "request": {
      "method": "PUT",
      "url": "Immunization/631a0137-639e-4d48-a822-40ee78f18169"
    }
  }, {
    "fullUrl": "https://madie.cms.gov/Immunization/60634f93-c914-43e9-9a17-10e270711fc3",
    "resource": {
      "resourceType": "Immunization",
      "id": "60634f93-c914-43e9-9a17-10e270711fc3",
      "meta": {
        "profile": [ "http://hl7.org/fhir/us/qicore/StructureDefinition/qicore-immunization" ]
      },
      "status": "completed",
      "vaccineCode": {
        "coding": [ {
          "system": "http://hl7.org/fhir/sid/cvx",
          "code": "146",
          "display": "DTaP,IPV,Hib,HepB"
        } ]
      },
      "patient": {
        "reference": "Patient/c96d4c6a-b9ee-4fdf-8e32-e8071dfcc4f9"
      },
      "occurrenceDateTime": "2025-01-05T00:00:00.000+00:00",
      "recorded": "2025-01-02T00:00:00.000+00:00",
      "primarySource": true
    },
    "request": {
      "method": "PUT",
      "url": "Immunization/60634f93-c914-43e9-9a17-10e270711fc3"
    }
  }, {
    "fullUrl": "https://madie.cms.gov/Immunization/b7dc552f-d679-4618-a9cc-ae93240956d1",
    "resource": {
      "resourceType": "Immunization",
      "id": "b7dc552f-d679-4618-a9cc-ae93240956d1",
      "meta": {
        "profile": [ "http://hl7.org/fhir/us/qicore/StructureDefinition/qicore-immunization" ]
      },
      "status": "completed",
      "vaccineCode": {
        "coding": [ {
          "system": "http://hl7.org/fhir/sid/cvx",
          "code": "146",
          "display": "DTaP,IPV,Hib,HepB"
        } ]
      },
      "patient": {
        "reference": "Patient/c96d4c6a-b9ee-4fdf-8e32-e8071dfcc4f9"
      },
      "occurrenceDateTime": "2025-01-07T00:00:00.000+00:00",
      "recorded": "2025-01-02T00:00:00.000+00:00",
      "primarySource": true
    },
    "request": {
      "method": "PUT",
      "url": "Immunization/b7dc552f-d679-4618-a9cc-ae93240956d1"
    }
  }, {
    "fullUrl": "https://madie.cms.gov/Immunization/f75fa5ea-20f4-414c-a225-2f3a307ee12f",
    "resource": {
      "resourceType": "Immunization",
      "id": "f75fa5ea-20f4-414c-a225-2f3a307ee12f",
      "meta": {
        "profile": [ "http://hl7.org/fhir/us/qicore/StructureDefinition/qicore-immunization" ]
      },
      "status": "completed",
      "vaccineCode": {
        "coding": [ {
          "system": "http://hl7.org/fhir/sid/cvx",
          "code": "146",
          "display": "DTaP,IPV,Hib,HepB"
        } ]
      },
      "patient": {
        "reference": "Patient/c96d4c6a-b9ee-4fdf-8e32-e8071dfcc4f9"
      },
      "occurrenceDateTime": "2025-01-10T00:00:00.000+00:00",
      "recorded": "2025-01-02T00:00:00.000+00:00",
      "primarySource": true
    },
    "request": {
      "method": "PUT",
      "url": "Immunization/f75fa5ea-20f4-414c-a225-2f3a307ee12f"
    }
  }, {
    "fullUrl": "https://madie.cms.gov/Immunization/4d96ccec-7ff9-4e1b-9fce-4fee9f5673e0",
    "resource": {
      "resourceType": "Immunization",
      "id": "4d96ccec-7ff9-4e1b-9fce-4fee9f5673e0",
      "meta": {
        "profile": [ "http://hl7.org/fhir/us/qicore/StructureDefinition/qicore-immunization" ]
      },
      "status": "completed",
      "vaccineCode": {
        "coding": [ {
          "system": "http://hl7.org/fhir/sid/cvx",
          "code": "146",
          "display": "DTaP,IPV,Hib,HepB"
        } ]
      },
      "patient": {
        "reference": "Patient/c96d4c6a-b9ee-4fdf-8e32-e8071dfcc4f9"
      },
      "occurrenceDateTime": "2025-01-02T00:00:00.000+00:00",
      "recorded": "2025-01-02T00:00:00.000+00:00",
      "primarySource": true
    },
    "request": {
      "method": "PUT",
      "url": "Immunization/4d96ccec-7ff9-4e1b-9fce-4fee9f5673e0"
    }
  }, {
    "fullUrl": "https://madie.cms.gov/Immunization/ead32abe-3f0b-4a6f-8841-911a2b45aa26",
    "resource": {
      "resourceType": "Immunization",
      "id": "ead32abe-3f0b-4a6f-8841-911a2b45aa26",
      "meta": {
        "profile": [ "http://hl7.org/fhir/us/qicore/StructureDefinition/qicore-immunization" ]
      },
      "status": "completed",
      "vaccineCode": {
        "coding": [ {
          "system": "http://hl7.org/fhir/sid/cvx",
          "code": "146",
          "display": "DTaP,IPV,Hib,HepB"
        } ]
      },
      "patient": {
        "reference": "Patient/c96d4c6a-b9ee-4fdf-8e32-e8071dfcc4f9"
      },
      "occurrenceDateTime": "2025-01-06T00:00:00.000+00:00",
      "recorded": "2025-01-02T00:00:00.000+00:00",
      "primarySource": true
    },
    "request": {
      "method": "PUT",
      "url": "Immunization/ead32abe-3f0b-4a6f-8841-911a2b45aa26"
    }
  }, {
    "fullUrl": "https://madie.cms.gov/Immunization/773493d7-62ad-4f82-b385-1f457b58c989",
    "resource": {
      "resourceType": "Immunization",
      "id": "773493d7-62ad-4f82-b385-1f457b58c989",
      "meta": {
        "profile": [ "http://hl7.org/fhir/us/qicore/StructureDefinition/qicore-immunization" ]
      },
      "status": "completed",
      "vaccineCode": {
        "coding": [ {
          "system": "http://hl7.org/fhir/sid/cvx",
          "code": "146",
          "display": "DTaP,IPV,Hib,HepB"
        } ]
      },
      "patient": {
        "reference": "Patient/c96d4c6a-b9ee-4fdf-8e32-e8071dfcc4f9"
      },
      "occurrenceDateTime": "2025-01-09T00:00:00.000+00:00",
      "recorded": "2025-01-02T00:00:00.000+00:00",
      "primarySource": true
    },
    "request": {
      "method": "PUT",
      "url": "Immunization/773493d7-62ad-4f82-b385-1f457b58c989"
    }
  }, {
    "fullUrl": "https://madie.cms.gov/Immunization/64769c08-872a-4a56-afdb-fa230bc4dc94",
    "resource": {
      "resourceType": "Immunization",
      "id": "64769c08-872a-4a56-afdb-fa230bc4dc94",
      "meta": {
        "profile": [ "http://hl7.org/fhir/us/qicore/StructureDefinition/qicore-immunization" ]
      },
      "status": "completed",
      "vaccineCode": {
        "coding": [ {
          "system": "http://hl7.org/fhir/sid/cvx",
          "code": "94",
          "display": "measles, mumps, rubella, and varicella virus vaccine"
        } ]
      },
      "patient": {
        "reference": "Patient/c96d4c6a-b9ee-4fdf-8e32-e8071dfcc4f9"
      },
      "occurrenceDateTime": "2025-01-02T00:00:00.000+00:00",
      "recorded": "2025-01-02T00:00:00.000+00:00",
      "primarySource": true
    },
    "request": {
      "method": "PUT",
      "url": "Immunization/64769c08-872a-4a56-afdb-fa230bc4dc94"
    }
  }, {
    "fullUrl": "https://madie.cms.gov/Immunization/e6318385-1297-4ced-9798-0ffe21944b30",
    "resource": {
      "resourceType": "Immunization",
      "id": "e6318385-1297-4ced-9798-0ffe21944b30",
      "meta": {
        "profile": [ "http://hl7.org/fhir/us/qicore/StructureDefinition/qicore-immunization" ]
      },
      "status": "completed",
      "vaccineCode": {
        "coding": [ {
          "system": "http://hl7.org/fhir/sid/cvx",
          "code": "49",
          "display": "Haemophilus influenzae type b vaccine, PRP-OMP conjugate"
        } ]
      },
      "patient": {
        "reference": "Patient/c96d4c6a-b9ee-4fdf-8e32-e8071dfcc4f9"
      },
      "occurrenceDateTime": "2025-01-02T00:00:00.000+00:00",
      "recorded": "2025-01-02T00:00:00.000+00:00",
      "primarySource": true
    },
    "request": {
      "method": "PUT",
      "url": "Immunization/e6318385-1297-4ced-9798-0ffe21944b30"
    }
  }, {
    "fullUrl": "https://madie.cms.gov/Immunization/beb97d06-949d-47ef-b394-4b876e6a63b0",
    "resource": {
      "resourceType": "Immunization",
      "id": "beb97d06-949d-47ef-b394-4b876e6a63b0",
      "meta": {
        "profile": [ "http://hl7.org/fhir/us/qicore/StructureDefinition/qicore-immunization" ]
      },
      "status": "completed",
      "vaccineCode": {
        "coding": [ {
          "system": "http://hl7.org/fhir/sid/cvx",
          "code": "49",
          "display": "Haemophilus influenzae type b vaccine, PRP-OMP conjugate"
        } ]
      },
      "patient": {
        "reference": "Patient/c96d4c6a-b9ee-4fdf-8e32-e8071dfcc4f9"
      },
      "occurrenceDateTime": "2025-01-02T00:00:00.000+00:00",
      "recorded": "2025-01-02T00:00:00.000+00:00",
      "primarySource": true
    },
    "request": {
      "method": "PUT",
      "url": "Immunization/beb97d06-949d-47ef-b394-4b876e6a63b0"
    }
  }, {
    "fullUrl": "https://madie.cms.gov/Immunization/ff94bfd3-9462-4e06-b2b5-2e2b03da25db",
    "resource": {
      "resourceType": "Immunization",
      "id": "ff94bfd3-9462-4e06-b2b5-2e2b03da25db",
      "meta": {
        "profile": [ "http://hl7.org/fhir/us/qicore/StructureDefinition/qicore-immunization" ]
      },
      "status": "completed",
      "vaccineCode": {
        "coding": [ {
          "system": "http://hl7.org/fhir/sid/cvx",
          "code": "49",
          "display": "Haemophilus influenzae type b vaccine, PRP-OMP conjugate"
        } ]
      },
      "patient": {
        "reference": "Patient/c96d4c6a-b9ee-4fdf-8e32-e8071dfcc4f9"
      },
      "occurrenceDateTime": "2025-01-02T00:00:00.000+00:00",
      "recorded": "2025-01-02T00:00:00.000+00:00",
      "primarySource": true
    },
    "request": {
      "method": "PUT",
      "url": "Immunization/ff94bfd3-9462-4e06-b2b5-2e2b03da25db"
    }
  }, {
    "fullUrl": "https://madie.cms.gov/Immunization/83003e2b-54fb-40e6-9561-ce870af8af41",
    "resource": {
      "resourceType": "Immunization",
      "id": "83003e2b-54fb-40e6-9561-ce870af8af41",
      "meta": {
        "profile": [ "http://hl7.org/fhir/us/qicore/StructureDefinition/qicore-immunization" ]
      },
      "status": "completed",
      "vaccineCode": {
        "coding": [ {
          "system": "http://hl7.org/fhir/sid/cvx",
          "code": "51",
          "display": "Haemophilus influenzae type b conjugate and Hepatitis B vaccine"
        } ]
      },
      "patient": {
        "reference": "Patient/c96d4c6a-b9ee-4fdf-8e32-e8071dfcc4f9"
      },
      "occurrenceDateTime": "2025-01-02T00:00:00.000+00:00",
      "recorded": "2025-01-02T00:00:00.000+00:00",
      "primarySource": true
    },
    "request": {
      "method": "PUT",
      "url": "Immunization/83003e2b-54fb-40e6-9561-ce870af8af41"
    }
  }, {
    "fullUrl": "https://madie.cms.gov/Immunization/9bf67f8d-f844-46c1-8fcb-0694fd37f12c",
    "resource": {
      "resourceType": "Immunization",
      "id": "9bf67f8d-f844-46c1-8fcb-0694fd37f12c",
      "meta": {
        "profile": [ "http://hl7.org/fhir/us/qicore/StructureDefinition/qicore-immunization" ]
      },
      "status": "completed",
      "vaccineCode": {
        "coding": [ {
          "system": "http://hl7.org/fhir/sid/cvx",
          "code": "51",
          "display": "Haemophilus influenzae type b conjugate and Hepatitis B vaccine"
        } ]
      },
      "patient": {
        "reference": "Patient/c96d4c6a-b9ee-4fdf-8e32-e8071dfcc4f9"
      },
      "occurrenceDateTime": "2025-01-10T00:00:00.000+00:00",
      "recorded": "2025-01-02T00:00:00.000+00:00",
      "primarySource": true
    },
    "request": {
      "method": "PUT",
      "url": "Immunization/9bf67f8d-f844-46c1-8fcb-0694fd37f12c"
    }
  }, {
    "fullUrl": "https://madie.cms.gov/Immunization/f21f9e02-962d-4331-a5a7-47d9e57ce49f",
    "resource": {
      "resourceType": "Immunization",
      "id": "f21f9e02-962d-4331-a5a7-47d9e57ce49f",
      "meta": {
        "profile": [ "http://hl7.org/fhir/us/qicore/StructureDefinition/qicore-immunization" ]
      },
      "status": "completed",
      "vaccineCode": {
        "coding": [ {
          "system": "http://hl7.org/fhir/sid/cvx",
          "code": "51",
          "display": "Haemophilus influenzae type b conjugate and Hepatitis B vaccine"
        } ]
      },
      "patient": {
        "reference": "Patient/c96d4c6a-b9ee-4fdf-8e32-e8071dfcc4f9"
      },
      "occurrenceDateTime": "2025-01-12T00:00:00.000+00:00",
      "recorded": "2025-01-02T00:00:00.000+00:00",
      "primarySource": true
    },
    "request": {
      "method": "PUT",
      "url": "Immunization/f21f9e02-962d-4331-a5a7-47d9e57ce49f"
    }
  }, {
    "fullUrl": "https://madie.cms.gov/Immunization/ccefdf81-cbee-4eb8-a0da-de951630fee0",
    "resource": {
      "resourceType": "Immunization",
      "id": "ccefdf81-cbee-4eb8-a0da-de951630fee0",
      "meta": {
        "profile": [ "http://hl7.org/fhir/us/qicore/StructureDefinition/qicore-immunization" ]
      },
      "status": "completed",
      "vaccineCode": {
        "coding": [ {
          "system": "http://hl7.org/fhir/sid/cvx",
          "code": "94",
          "display": "measles, mumps, rubella, and varicella virus vaccine"
        } ]
      },
      "patient": {
        "reference": "Patient/c96d4c6a-b9ee-4fdf-8e32-e8071dfcc4f9"
      },
      "occurrenceDateTime": "2025-01-02T00:00:00.000+00:00",
      "recorded": "2025-01-02T00:00:00.000+00:00",
      "primarySource": true
    },
    "request": {
      "method": "PUT",
      "url": "Immunization/ccefdf81-cbee-4eb8-a0da-de951630fee0"
    }
  }, {
    "fullUrl": "https://madie.cms.gov/Immunization/df5e82be-534c-4367-abcb-43168ce56f82",
    "resource": {
      "resourceType": "Immunization",
      "id": "df5e82be-534c-4367-abcb-43168ce56f82",
      "meta": {
        "profile": [ "http://hl7.org/fhir/us/qicore/StructureDefinition/qicore-immunization" ]
      },
      "status": "completed",
      "vaccineCode": {
        "coding": [ {
          "system": "http://hl7.org/fhir/sid/cvx",
          "code": "215",
          "display": "Pneumococcal conjugate vaccine 15-valent (PCV15), polysaccharide CRM197 conjugate, adjuvant, preservative free"
        } ]
      },
      "patient": {
        "reference": "Patient/c96d4c6a-b9ee-4fdf-8e32-e8071dfcc4f9"
      },
      "occurrenceDateTime": "2025-01-12T00:00:00.000+00:00",
      "recorded": "2025-01-02T00:00:00.000+00:00",
      "primarySource": true
    },
    "request": {
      "method": "PUT",
      "url": "Immunization/df5e82be-534c-4367-abcb-43168ce56f82"
    }
  }, {
    "fullUrl": "https://madie.cms.gov/Immunization/a6f43d4f-7e00-405e-8a69-6d9f42b57844",
    "resource": {
      "resourceType": "Immunization",
      "id": "a6f43d4f-7e00-405e-8a69-6d9f42b57844",
      "meta": {
        "profile": [ "http://hl7.org/fhir/us/qicore/StructureDefinition/qicore-immunization" ]
      },
      "status": "completed",
      "vaccineCode": {
        "coding": [ {
          "system": "http://hl7.org/fhir/sid/cvx",
          "code": "215",
          "display": "Pneumococcal conjugate vaccine 15-valent (PCV15), polysaccharide CRM197 conjugate, adjuvant, preservative free"
        } ]
      },
      "patient": {
        "reference": "Patient/c96d4c6a-b9ee-4fdf-8e32-e8071dfcc4f9"
      },
      "occurrenceDateTime": "2025-01-14T00:00:00.000+00:00",
      "recorded": "2025-01-02T00:00:00.000+00:00",
      "primarySource": true
    },
    "request": {
      "method": "PUT",
      "url": "Immunization/a6f43d4f-7e00-405e-8a69-6d9f42b57844"
    }
  }, {
    "fullUrl": "https://madie.cms.gov/Immunization/0aad08b1-0929-4504-8da2-9738e653fb3b",
    "resource": {
      "resourceType": "Immunization",
      "id": "0aad08b1-0929-4504-8da2-9738e653fb3b",
      "meta": {
        "profile": [ "http://hl7.org/fhir/us/qicore/StructureDefinition/qicore-immunization" ]
      },
      "status": "completed",
      "vaccineCode": {
        "coding": [ {
          "system": "http://hl7.org/fhir/sid/cvx",
          "code": "215",
          "display": "Pneumococcal conjugate vaccine 15-valent (PCV15), polysaccharide CRM197 conjugate, adjuvant, preservative free"
        } ]
      },
      "patient": {
        "reference": "Patient/c96d4c6a-b9ee-4fdf-8e32-e8071dfcc4f9"
      },
      "occurrenceDateTime": "2025-01-20T00:00:00.000+00:00",
      "recorded": "2025-01-02T00:00:00.000+00:00",
      "primarySource": true
    },
    "request": {
      "method": "PUT",
      "url": "Immunization/0aad08b1-0929-4504-8da2-9738e653fb3b"
    }
  }, {
    "fullUrl": "https://madie.cms.gov/Immunization/fbb77198-686f-4cc1-a50a-a48f8a26a574",
    "resource": {
      "resourceType": "Immunization",
      "id": "fbb77198-686f-4cc1-a50a-a48f8a26a574",
      "meta": {
        "profile": [ "http://hl7.org/fhir/us/qicore/StructureDefinition/qicore-immunization" ]
      },
      "status": "completed",
      "vaccineCode": {
        "coding": [ {
          "system": "http://hl7.org/fhir/sid/cvx",
          "code": "215",
          "display": "Pneumococcal conjugate vaccine 15-valent (PCV15), polysaccharide CRM197 conjugate, adjuvant, preservative free"
        } ]
      },
      "patient": {
        "reference": "Patient/c96d4c6a-b9ee-4fdf-8e32-e8071dfcc4f9"
      },
      "occurrenceDateTime": "2025-01-22T00:00:00.000+00:00",
      "recorded": "2025-01-02T00:00:00.000+00:00",
      "primarySource": true
    },
    "request": {
      "method": "PUT",
      "url": "Immunization/fbb77198-686f-4cc1-a50a-a48f8a26a574"
    }
  }, {
    "fullUrl": "https://madie.cms.gov/Immunization/d5be6b18-08a7-4cbe-bbf0-132267560a6c",
    "resource": {
      "resourceType": "Immunization",
      "id": "d5be6b18-08a7-4cbe-bbf0-132267560a6c",
      "meta": {
        "profile": [ "http://hl7.org/fhir/us/qicore/StructureDefinition/qicore-immunization" ]
      },
      "status": "completed",
      "vaccineCode": {
        "coding": [ {
          "system": "http://hl7.org/fhir/sid/cvx",
          "code": "85",
          "display": "hepatitis A vaccine, unspecified formulation"
        } ]
      },
      "patient": {
        "reference": "Patient/c96d4c6a-b9ee-4fdf-8e32-e8071dfcc4f9"
      },
      "occurrenceDateTime": "2025-01-02T00:00:00.000+00:00",
      "recorded": "2025-01-02T00:00:00.000+00:00",
      "primarySource": true
    },
    "request": {
      "method": "PUT",
      "url": "Immunization/d5be6b18-08a7-4cbe-bbf0-132267560a6c"
    }
  }, {
    "fullUrl": "https://madie.cms.gov/Immunization/a628af05-39c9-4a2d-a1c9-cddbafe4fbf7",
    "resource": {
      "resourceType": "Immunization",
      "id": "a628af05-39c9-4a2d-a1c9-cddbafe4fbf7",
      "meta": {
        "profile": [ "http://hl7.org/fhir/us/qicore/StructureDefinition/qicore-immunization" ]
      },
      "status": "completed",
      "vaccineCode": {
        "coding": [ {
          "system": "http://hl7.org/fhir/sid/cvx",
          "code": "119",
          "display": "rotavirus, live, monovalent vaccine"
        } ]
      },
      "patient": {
        "reference": "Patient/c96d4c6a-b9ee-4fdf-8e32-e8071dfcc4f9"
      },
      "occurrenceDateTime": "2025-01-02T00:00:00.000+00:00",
      "recorded": "2025-01-02T00:00:00.000+00:00",
      "primarySource": true
    },
    "request": {
      "method": "PUT",
      "url": "Immunization/a628af05-39c9-4a2d-a1c9-cddbafe4fbf7"
    }
  }, {
    "fullUrl": "https://madie.cms.gov/Immunization/3103f40c-02c5-4fb1-b9ed-535922477df6",
    "resource": {
      "resourceType": "Immunization",
      "id": "3103f40c-02c5-4fb1-b9ed-535922477df6",
      "meta": {
        "profile": [ "http://hl7.org/fhir/us/qicore/StructureDefinition/qicore-immunization" ]
      },
      "status": "completed",
      "vaccineCode": {
        "coding": [ {
          "system": "http://hl7.org/fhir/sid/cvx",
          "code": "119",
          "display": "rotavirus, live, monovalent vaccine"
        } ]
      },
      "patient": {
        "reference": "Patient/c96d4c6a-b9ee-4fdf-8e32-e8071dfcc4f9"
      },
      "occurrenceDateTime": "2025-01-07T00:00:00.000+00:00",
      "recorded": "2025-01-02T00:00:00.000+00:00",
      "primarySource": true
    },
    "request": {
      "method": "PUT",
      "url": "Immunization/3103f40c-02c5-4fb1-b9ed-535922477df6"
    }
  }, {
    "fullUrl": "https://madie.cms.gov/Immunization/cbd47fd4-b93a-4032-9003-3636326cd7dc",
    "resource": {
      "resourceType": "Immunization",
      "id": "cbd47fd4-b93a-4032-9003-3636326cd7dc",
      "meta": {
        "profile": [ "http://hl7.org/fhir/us/qicore/StructureDefinition/qicore-immunization" ]
      },
      "status": "completed",
      "vaccineCode": {
        "coding": [ {
          "system": "http://hl7.org/fhir/sid/cvx",
          "code": "153",
          "display": "Influenza, injectable, MDCK, preservative free"
        } ]
      },
      "patient": {
        "reference": "Patient/c96d4c6a-b9ee-4fdf-8e32-e8071dfcc4f9"
      },
      "occurrenceDateTime": "2025-01-02T00:00:00.000+00:00",
      "recorded": "2025-01-02T00:00:00.000+00:00",
      "primarySource": true
    },
    "request": {
      "method": "PUT",
      "url": "Immunization/cbd47fd4-b93a-4032-9003-3636326cd7dc"
    }
  }, {
    "fullUrl": "https://madie.cms.gov/Immunization/47116093-e140-4796-9bd3-e9ce62d560a0",
    "resource": {
      "resourceType": "Immunization",
      "id": "47116093-e140-4796-9bd3-e9ce62d560a0",
      "meta": {
        "profile": [ "http://hl7.org/fhir/us/qicore/StructureDefinition/qicore-immunization" ]
      },
      "status": "completed",
      "vaccineCode": {
        "coding": [ {
          "system": "http://hl7.org/fhir/sid/cvx",
          "code": "153",
          "display": "Influenza, injectable, MDCK, preservative free"
        } ]
      },
      "patient": {
        "reference": "Patient/c96d4c6a-b9ee-4fdf-8e32-e8071dfcc4f9"
      },
      "occurrenceDateTime": "2025-01-10T00:00:00.000+00:00",
      "recorded": "2025-01-02T00:00:00.000+00:00",
      "primarySource": true
    },
    "request": {
      "method": "PUT",
      "url": "Immunization/47116093-e140-4796-9bd3-e9ce62d560a0"
    }
  }, {
    "fullUrl": "https://madie.cms.gov/MeasureReport/1cddfb3f-ce4f-496e-a3cd-1d0e23d79022",
    "resource": {
      "resourceType": "MeasureReport",
      "id": "1cddfb3f-ce4f-496e-a3cd-1d0e23d79022",
      "meta": {
        "profile": [ "http://hl7.org/fhir/us/cqfmeasures/StructureDefinition/test-case-cqfm" ]
      },
      "contained": [ {
        "resourceType": "Parameters",
        "id": "195d8f01-8786-4fe3-8abb-337c215cee26-parameters",
        "parameter": [ {
          "name": "subject",
          "valueString": "c96d4c6a-b9ee-4fdf-8e32-e8071dfcc4f9"
        } ]
      } ],
      "extension": [ {
        "url": "http://hl7.org/fhir/StructureDefinition/cqf-inputParameters",
        "valueReference": {
          "reference": "#195d8f01-8786-4fe3-8abb-337c215cee26-parameters"
        }
      }, {
        "url": "http://hl7.org/fhir/us/cqfmeasures/StructureDefinition/cqfm-testCaseDescription",
        "valueMarkdown": "Patient has HIV"
      } ],
      "modifierExtension": [ {
        "url": "http://hl7.org/fhir/us/cqfmeasures/StructureDefinition/cqfm-isTestCase",
        "valueBoolean": true
      } ],
      "status": "complete",
      "type": "individual",
      "measure": "https://madie.cms.gov/Measure/ChildhoodImmunizationStatusFHIR",
      "period": {
        "start": "2026-01-01",
        "end": "2026-12-31"
      },
      "group": [ {
        "id": "Group_1",
        "population": [ {
          "id": "InitialPopulation_1",
          "code": {
            "coding": [ {
              "system": "http://terminology.hl7.org/CodeSystem/measure-population",
              "code": "initial-population",
              "display": "Initial Population"
            } ]
          },
          "count": 1
        }, {
          "id": "Denominator_1",
          "code": {
            "coding": [ {
              "system": "http://terminology.hl7.org/CodeSystem/measure-population",
              "code": "denominator",
              "display": "Denominator"
            } ]
          },
          "count": 1
        }, {
          "id": "DenominatorExclusion_1",
          "code": {
            "coding": [ {
              "system": "http://terminology.hl7.org/CodeSystem/measure-population",
              "code": "denominator-exclusion",
              "display": "Denominator Exclusion"
            } ]
          },
          "count": 1
        }, {
          "id": "Numerator_1",
          "code": {
            "coding": [ {
              "system": "http://terminology.hl7.org/CodeSystem/measure-population",
              "code": "numerator",
              "display": "Numerator"
            } ]
          },
          "count": 0
        } ],
        "measureScore": {
          "value": 1
        }
      } ],
      "evaluatedResource": [ {
        "reference": "Patient/c96d4c6a-b9ee-4fdf-8e32-e8071dfcc4f9"
      }, {
        "reference": "Encounter/f7ad0cf6-a6df-4001-99d9-cecdc8cfbd14"
      }, {
        "reference": "Condition/3e828deb-c70d-4194-a384-50f3bb5b954b"
      }, {
        "reference": "Immunization/631a0137-639e-4d48-a822-40ee78f18169"
      }, {
        "reference": "Immunization/60634f93-c914-43e9-9a17-10e270711fc3"
      }, {
        "reference": "Immunization/b7dc552f-d679-4618-a9cc-ae93240956d1"
      }, {
        "reference": "Immunization/f75fa5ea-20f4-414c-a225-2f3a307ee12f"
      }, {
        "reference": "Immunization/4d96ccec-7ff9-4e1b-9fce-4fee9f5673e0"
      }, {
        "reference": "Immunization/ead32abe-3f0b-4a6f-8841-911a2b45aa26"
      }, {
        "reference": "Immunization/773493d7-62ad-4f82-b385-1f457b58c989"
      }, {
        "reference": "Immunization/64769c08-872a-4a56-afdb-fa230bc4dc94"
      }, {
        "reference": "Immunization/e6318385-1297-4ced-9798-0ffe21944b30"
      }, {
        "reference": "Immunization/beb97d06-949d-47ef-b394-4b876e6a63b0"
      }, {
        "reference": "Immunization/ff94bfd3-9462-4e06-b2b5-2e2b03da25db"
      }, {
        "reference": "Immunization/83003e2b-54fb-40e6-9561-ce870af8af41"
      }, {
        "reference": "Immunization/9bf67f8d-f844-46c1-8fcb-0694fd37f12c"
      }, {
        "reference": "Immunization/f21f9e02-962d-4331-a5a7-47d9e57ce49f"
      }, {
        "reference": "Immunization/ccefdf81-cbee-4eb8-a0da-de951630fee0"
      }, {
        "reference": "Immunization/df5e82be-534c-4367-abcb-43168ce56f82"
      }, {
        "reference": "Immunization/a6f43d4f-7e00-405e-8a69-6d9f42b57844"
      }, {
        "reference": "Immunization/0aad08b1-0929-4504-8da2-9738e653fb3b"
      }, {
        "reference": "Immunization/fbb77198-686f-4cc1-a50a-a48f8a26a574"
      }, {
        "reference": "Immunization/d5be6b18-08a7-4cbe-bbf0-132267560a6c"
      }, {
        "reference": "Immunization/a628af05-39c9-4a2d-a1c9-cddbafe4fbf7"
      }, {
        "reference": "Immunization/3103f40c-02c5-4fb1-b9ed-535922477df6"
      }, {
        "reference": "Immunization/cbd47fd4-b93a-4032-9003-3636326cd7dc"
      }, {
        "reference": "Immunization/47116093-e140-4796-9bd3-e9ce62d560a0"
      } ]
    },
    "request": {
      "method": "PUT",
      "url": "MeasureReport/1cddfb3f-ce4f-496e-a3cd-1d0e23d79022"
    }
  }, {
    "fullUrl": "https://madie.cms.gov/MeasureReport/b51d2111-912e-4347-a14a-43bef90e2c25",
    "resource": {
      "resourceType": "MeasureReport",
      "id": "b51d2111-912e-4347-a14a-43bef90e2c25",
      "meta": {
        "profile": [ "http://hl7.org/fhir/us/cqfmeasures/StructureDefinition/test-case-cqfm" ]
      },
      "contained": [ {
        "resourceType": "Parameters",
        "id": "8d2cfef8-2fff-4db3-9e8f-e68bc384756c-parameters",
        "parameter": [ {
          "name": "subject",
          "valueString": "c96d4c6a-b9ee-4fdf-8e32-e8071dfcc4f9"
        } ]
      } ],
      "extension": [ {
        "url": "http://hl7.org/fhir/StructureDefinition/cqf-inputParameters",
        "valueReference": {
          "reference": "#8d2cfef8-2fff-4db3-9e8f-e68bc384756c-parameters"
        }
      }, {
        "url": "http://hl7.org/fhir/us/cqfmeasures/StructureDefinition/cqfm-testCaseDescription",
        "valueMarkdown": "Patient has HIV"
      } ],
      "modifierExtension": [ {
        "url": "http://hl7.org/fhir/us/cqfmeasures/StructureDefinition/cqfm-isTestCase",
        "valueBoolean": true
      } ],
      "status": "complete",
      "type": "individual",
      "measure": "https://madie.cms.gov/Measure/CMS117FHIRChildImmunStatus",
      "period": {
        "start": "2026-01-01",
        "end": "2026-12-31"
      },
      "group": [ {
        "id": "Group_1",
        "population": [ {
          "id": "InitialPopulation_1",
          "code": {
            "coding": [ {
              "system": "http://terminology.hl7.org/CodeSystem/measure-population",
              "code": "initial-population",
              "display": "Initial Population"
            } ]
          },
          "count": 1
        }, {
          "id": "Denominator_1",
          "code": {
            "coding": [ {
              "system": "http://terminology.hl7.org/CodeSystem/measure-population",
              "code": "denominator",
              "display": "Denominator"
            } ]
          },
          "count": 1
        }, {
          "id": "DenominatorExclusion_1",
          "code": {
            "coding": [ {
              "system": "http://terminology.hl7.org/CodeSystem/measure-population",
              "code": "denominator-exclusion",
              "display": "Denominator Exclusion"
            } ]
          },
          "count": 1
        }, {
          "id": "Numerator_1",
          "code": {
            "coding": [ {
              "system": "http://terminology.hl7.org/CodeSystem/measure-population",
              "code": "numerator",
              "display": "Numerator"
            } ]
          },
          "count": 0
        } ],
        "measureScore": {
          "value": 1.0
        }
      } ],
      "evaluatedResource": [ {
        "reference": "Patient/c96d4c6a-b9ee-4fdf-8e32-e8071dfcc4f9"
      }, {
        "reference": "Encounter/f7ad0cf6-a6df-4001-99d9-cecdc8cfbd14"
      }, {
        "reference": "Condition/3e828deb-c70d-4194-a384-50f3bb5b954b"
      }, {
        "reference": "Immunization/631a0137-639e-4d48-a822-40ee78f18169"
      }, {
        "reference": "Immunization/60634f93-c914-43e9-9a17-10e270711fc3"
      }, {
        "reference": "Immunization/b7dc552f-d679-4618-a9cc-ae93240956d1"
      }, {
        "reference": "Immunization/f75fa5ea-20f4-414c-a225-2f3a307ee12f"
      }, {
        "reference": "Immunization/4d96ccec-7ff9-4e1b-9fce-4fee9f5673e0"
      }, {
        "reference": "Immunization/ead32abe-3f0b-4a6f-8841-911a2b45aa26"
      }, {
        "reference": "Immunization/773493d7-62ad-4f82-b385-1f457b58c989"
      }, {
        "reference": "Immunization/64769c08-872a-4a56-afdb-fa230bc4dc94"
      }, {
        "reference": "Immunization/e6318385-1297-4ced-9798-0ffe21944b30"
      }, {
        "reference": "Immunization/beb97d06-949d-47ef-b394-4b876e6a63b0"
      }, {
        "reference": "Immunization/ff94bfd3-9462-4e06-b2b5-2e2b03da25db"
      }, {
        "reference": "Immunization/83003e2b-54fb-40e6-9561-ce870af8af41"
      }, {
        "reference": "Immunization/9bf67f8d-f844-46c1-8fcb-0694fd37f12c"
      }, {
        "reference": "Immunization/f21f9e02-962d-4331-a5a7-47d9e57ce49f"
      }, {
        "reference": "Immunization/ccefdf81-cbee-4eb8-a0da-de951630fee0"
      }, {
        "reference": "Immunization/df5e82be-534c-4367-abcb-43168ce56f82"
      }, {
        "reference": "Immunization/a6f43d4f-7e00-405e-8a69-6d9f42b57844"
      }, {
        "reference": "Immunization/0aad08b1-0929-4504-8da2-9738e653fb3b"
      }, {
        "reference": "Immunization/fbb77198-686f-4cc1-a50a-a48f8a26a574"
      }, {
        "reference": "Immunization/d5be6b18-08a7-4cbe-bbf0-132267560a6c"
      }, {
        "reference": "Immunization/a628af05-39c9-4a2d-a1c9-cddbafe4fbf7"
      }, {
        "reference": "Immunization/3103f40c-02c5-4fb1-b9ed-535922477df6"
      }, {
        "reference": "Immunization/cbd47fd4-b93a-4032-9003-3636326cd7dc"
      }, {
        "reference": "Immunization/47116093-e140-4796-9bd3-e9ce62d560a0"
      }, {
        "reference": "MeasureReport/1cddfb3f-ce4f-496e-a3cd-1d0e23d79022"
      } ]
    },
    "request": {
      "method": "PUT",
      "url": "MeasureReport/b51d2111-912e-4347-a14a-43bef90e2c25"
    }
  } ]
}