{
  "resourceType": "Bundle",
  "id": "DENEXPass-HospiceDiagnosisOverlapsMP",
  "type": "transaction",
  "entry": [ {
    "fullUrl": "https://madie.cms.gov/Patient/aa87ac34-227b-4424-84d2-62aaba57c232",
    "resource": {
      "resourceType": "Patient",
      "id": "aa87ac34-227b-4424-84d2-62aaba57c232",
      "meta": {
        "profile": [ "http://hl7.org/fhir/us/qicore/StructureDefinition/qicore-patient" ]
      },
      "extension": [ {
        "url": "http://hl7.org/fhir/us/core/StructureDefinition/us-core-race",
        "extension": [ {
          "url": "ombCategory",
          "valueCoding": {
            "system": "urn:oid:2.16.840.1.113883.6.238",
            "code": "2028-9",
            "display": "Asian"
          }
        }, {
          "url": "text",
          "valueString": "Asian"
        } ]
      }, {
        "url": "http://hl7.org/fhir/us/core/StructureDefinition/us-core-ethnicity",
        "extension": [ {
          "url": "ombCategory",
          "valueCoding": {
            "system": "urn:oid:2.16.840.1.113883.6.238",
            "code": "2135-2",
            "display": "Hispanic or Latino"
          }
        }, {
          "url": "text",
          "valueString": "Hispanic or Latino"
        } ]
      } ],
      "identifier": [ {
        "system": "http://hospital.smarthealthit.org",
        "value": "999999995"
      } ],
      "name": [ {
        "family": "DENEXPass",
        "given": [ "HospiceDiagnosisOverlapsMP" ]
      } ],
      "gender": "female",
      "birthDate": "2007-12-31"
    },
    "request": {
      "method": "PUT",
      "url": "Patient/aa87ac34-227b-4424-84d2-62aaba57c232"
    }
  }, {
    "fullUrl": "https://madie.cms.gov/Encounter/600cefab-e61e-4674-a687-79cb90d289a0",
    "resource": {
      "resourceType": "Encounter",
      "id": "600cefab-e61e-4674-a687-79cb90d289a0",
      "meta": {
        "profile": [ "http://hl7.org/fhir/us/qicore/StructureDefinition/qicore-encounter" ]
      },
      "status": "finished",
      "class": {
        "system": "http://terminology.hl7.org/CodeSystem/v3-ActCode",
        "code": "AMB",
        "display": "ambulatory"
      },
      "type": [ {
        "coding": [ {
          "system": "http://snomed.info/sct",
          "code": "3391000175108",
          "display": "Office visit for pediatric care and assessment (procedure)"
        } ]
      } ],
      "subject": {
        "reference": "Patient/aa87ac34-227b-4424-84d2-62aaba57c232"
      },
      "period": {
        "start": "2026-01-01T00:00:00.000+00:00",
        "end": "2026-01-01T01:00:00.000+00:00"
      }
    },
    "request": {
      "method": "PUT",
      "url": "Encounter/600cefab-e61e-4674-a687-79cb90d289a0"
    }
  }, {
    "fullUrl": "https://madie.cms.gov/Condition/79da53ef-5908-44d0-94d7-9dbd56b235e9",
    "resource": {
      "resourceType": "Condition",
      "id": "79da53ef-5908-44d0-94d7-9dbd56b235e9",
      "meta": {
        "profile": [ "http://hl7.org/fhir/us/qicore/StructureDefinition/qicore-condition-problems-health-concerns" ]
      },
      "clinicalStatus": {
        "coding": [ {
          "system": "http://terminology.hl7.org/CodeSystem/condition-clinical",
          "code": "active"
        } ]
      },
      "category": [ {
        "coding": [ {
          "system": "http://terminology.hl7.org/CodeSystem/condition-category",
          "code": "problem-list-item",
          "display": "Problem List Item"
        } ]
      } ],
      "code": {
        "coding": [ {
          "system": "http://snomed.info/sct",
          "code": "371125006",
          "display": "Labile essential hypertension (disorder)"
        } ]
      },
      "subject": {
        "reference": "Patient/aa87ac34-227b-4424-84d2-62aaba57c232"
      },
      "onsetDateTime": "2026-06-29T23:59:59.000+00:00"
    },
    "request": {
      "method": "PUT",
      "url": "Condition/79da53ef-5908-44d0-94d7-9dbd56b235e9"
    }
  }, {
    "fullUrl": "https://madie.cms.gov/Condition/a9811cae-193b-41cb-b31f-75cf9326d4b8",
    "resource": {
      "resourceType": "Condition",
      "id": "a9811cae-193b-41cb-b31f-75cf9326d4b8",
      "meta": {
        "profile": [ "http://hl7.org/fhir/us/qicore/StructureDefinition/qicore-condition-encounter-diagnosis" ]
      },
      "clinicalStatus": {
        "coding": [ {
          "system": "http://terminology.hl7.org/CodeSystem/condition-clinical",
          "code": "active"
        } ]
      },
      "category": [ {
        "coding": [ {
          "system": "http://terminology.hl7.org/CodeSystem/condition-category",
          "code": "encounter-diagnosis",
          "display": "Encounter Diagnosis"
        } ]
      } ],
      "code": {
        "coding": [ {
          "system": "http://snomed.info/sct",
          "code": "170935008",
          "display": "Full care by hospice (finding)"
        } ]
      },
      "subject": {
        "reference": "Patient/aa87ac34-227b-4424-84d2-62aaba57c232"
      },
      "onsetDateTime": "2026-12-31T23:59:59.000+00:00"
    },
    "request": {
      "method": "PUT",
      "url": "Condition/a9811cae-193b-41cb-b31f-75cf9326d4b8"
    }
  }, {
    "fullUrl": "https://madie.cms.gov/MeasureReport/f10641ad-4bdc-47c4-90ae-fbc2b80200de",
    "resource": {
      "resourceType": "MeasureReport",
      "id": "f10641ad-4bdc-47c4-90ae-fbc2b80200de",
      "meta": {
        "profile": [ "http://hl7.org/fhir/us/cqfmeasures/StructureDefinition/test-case-cqfm" ]
      },
      "contained": [ {
        "resourceType": "Parameters",
        "id": "977029ee-627f-4b3d-94da-880f39f25f83-parameters",
        "parameter": [ {
          "name": "subject",
          "valueString": "aa87ac34-227b-4424-84d2-62aaba57c232"
        } ]
      } ],
      "extension": [ {
        "url": "http://hl7.org/fhir/StructureDefinition/cqf-inputParameters",
        "valueReference": {
          "reference": "#977029ee-627f-4b3d-94da-880f39f25f83-parameters"
        }
      }, {
        "url": "http://hl7.org/fhir/us/cqfmeasures/StructureDefinition/cqfm-testCaseDescription",
        "valueMarkdown": "Hospice diagnosis overlaps MP - ConditionEncounterDiagnosis"
      } ],
      "modifierExtension": [ {
        "url": "http://hl7.org/fhir/us/cqfmeasures/StructureDefinition/cqfm-isTestCase",
        "valueBoolean": true
      } ],
      "status": "complete",
      "type": "individual",
      "measure": "https://madie.cms.gov/Measure/CMS165FHIRControllingHighBP",
      "period": {
        "start": "2026-01-01",
        "end": "2026-12-31"
      },
      "group": [ {
        "id": "Group_1",
        "population": [ {
          "id": "InitialPopulation_1",
          "code": {
            "coding": [ {
              "system": "http://terminology.hl7.org/CodeSystem/measure-population",
              "code": "initial-population",
              "display": "Initial Population"
            } ]
          },
          "count": 1
        }, {
          "id": "Denominator_1",
          "code": {
            "coding": [ {
              "system": "http://terminology.hl7.org/CodeSystem/measure-population",
              "code": "denominator",
              "display": "Denominator"
            } ]
          },
          "count": 1
        }, {
          "id": "DenominatorExclusion_1",
          "code": {
            "coding": [ {
              "system": "http://terminology.hl7.org/CodeSystem/measure-population",
              "code": "denominator-exclusion",
              "display": "Denominator Exclusion"
            } ]
          },
          "count": 1
        }, {
          "id": "Numerator_1",
          "code": {
            "coding": [ {
              "system": "http://terminology.hl7.org/CodeSystem/measure-population",
              "code": "numerator",
              "display": "Numerator"
            } ]
          },
          "count": 0
        } ],
        "measureScore": {
          "value": 1.0
        }
      } ],
      "evaluatedResource": [ {
        "reference": "Patient/aa87ac34-227b-4424-84d2-62aaba57c232"
      }, {
        "reference": "Encounter/600cefab-e61e-4674-a687-79cb90d289a0"
      }, {
        "reference": "Condition/79da53ef-5908-44d0-94d7-9dbd56b235e9"
      }, {
        "reference": "Condition/a9811cae-193b-41cb-b31f-75cf9326d4b8"
      } ]
    },
    "request": {
      "method": "PUT",
      "url": "MeasureReport/f10641ad-4bdc-47c4-90ae-fbc2b80200de"
    }
  } ]
}