{
  "resourceType": "Bundle",
  "id": "62c880ec0111a60120dc21f7",
  "type": "transaction",
  "entry": [ {
    "fullUrl": "https://madie.cms.gov/Patient/d7e9bf7d-2b55-4ae1-ab9e-c03cdedb1a2b",
    "resource": {
      "resourceType": "Patient",
      "id": "d7e9bf7d-2b55-4ae1-ab9e-c03cdedb1a2b",
      "meta": {
        "profile": [ "http://hl7.org/fhir/us/qicore/StructureDefinition/qicore-patient" ]
      },
      "extension": [ {
        "url": "http://hl7.org/fhir/us/core/StructureDefinition/us-core-race",
        "extension": [ {
          "url": "ombCategory",
          "valueCoding": {
            "system": "urn:oid:2.16.840.1.113883.6.238",
            "code": "1002-5",
            "display": "American Indian or Alaska Native",
            "userSelected": true
          }
        }, {
          "url": "text",
          "valueString": "American Indian or Alaska Native"
        } ]
      }, {
        "url": "http://hl7.org/fhir/us/core/StructureDefinition/us-core-ethnicity",
        "extension": [ {
          "url": "ombCategory",
          "valueCoding": {
            "system": "urn:oid:2.16.840.1.113883.6.238",
            "code": "2135-2",
            "display": "Hispanic or Latino",
            "userSelected": true
          }
        }, {
          "url": "text",
          "valueString": "Hispanic or Latino"
        } ]
      } ],
      "identifier": [ {
        "type": {
          "coding": [ {
            "system": "http://terminology.hl7.org/CodeSystem/v2-0203",
            "code": "MR"
          } ]
        },
        "system": "https://bonnie-fhir.healthit.gov/",
        "value": "62c880ec0111a60120dc21f7"
      } ],
      "active": true,
      "name": [ {
        "use": "usual",
        "family": "NUMERPassPop2",
        "given": [ "PainAssessEndsAfterRadTx" ]
      } ],
      "gender": "male",
      "birthDate": "1976-04-25"
    },
    "request": {
      "method": "PUT",
      "url": "Patient/d7e9bf7d-2b55-4ae1-ab9e-c03cdedb1a2b"
    }
  }, {
    "fullUrl": "https://madie.cms.gov/Observation/d6547f8d-673c-4f47-8010-9cd72488a1bc",
    "resource": {
      "resourceType": "Observation",
      "id": "d6547f8d-673c-4f47-8010-9cd72488a1bc",
      "meta": {
        "profile": [ "http://hl7.org/fhir/us/qicore/StructureDefinition/qicore-observation-screening-assessment" ]
      },
      "status": "final",
      "category": [ {
        "coding": [ {
          "system": "http://terminology.hl7.org/CodeSystem/observation-category",
          "code": "survey",
          "display": "Survey"
        } ],
        "text": "Survey"
      } ],
      "code": {
        "coding": [ {
          "system": "http://loinc.org",
          "code": "38208-5"
        } ]
      },
      "subject": {
        "reference": "Patient/d7e9bf7d-2b55-4ae1-ab9e-c03cdedb1a2b"
      },
      "effectivePeriod": {
        "start": "2026-05-06T12:55:00.000+00:00",
        "end": "2026-05-06T13:05:00.000+00:00"
      },
      "valueInteger": 5
    },
    "request": {
      "method": "PUT",
      "url": "Observation/d6547f8d-673c-4f47-8010-9cd72488a1bc"
    }
  }, {
    "fullUrl": "https://madie.cms.gov/Condition/828f34dd-f450-4d13-b277-ded85be4bb7b",
    "resource": {
      "resourceType": "Condition",
      "id": "828f34dd-f450-4d13-b277-ded85be4bb7b",
      "meta": {
        "profile": [ "http://hl7.org/fhir/us/qicore/StructureDefinition/qicore-condition-problems-health-concerns" ]
      },
      "clinicalStatus": {
        "coding": [ {
          "system": "http://terminology.hl7.org/CodeSystem/condition-clinical",
          "code": "active",
          "display": "active",
          "userSelected": true
        } ]
      },
      "verificationStatus": {
        "coding": [ {
          "system": "http://terminology.hl7.org/CodeSystem/condition-ver-status",
          "code": "confirmed",
          "display": "Confirmed"
        } ]
      },
      "category": [ {
        "coding": [ {
          "system": "http://terminology.hl7.org/CodeSystem/condition-category",
          "code": "problem-list-item",
          "display": "Problem List Item"
        } ]
      } ],
      "code": {
        "coding": [ {
          "system": "http://snomed.info/sct",
          "code": "107691000119101"
        } ]
      },
      "subject": {
        "reference": "Patient/d7e9bf7d-2b55-4ae1-ab9e-c03cdedb1a2b"
      },
      "onsetDateTime": "2022-05-06T12:45:00.000+00:00"
    },
    "request": {
      "method": "PUT",
      "url": "Condition/828f34dd-f450-4d13-b277-ded85be4bb7b"
    }
  }, {
    "fullUrl": "https://madie.cms.gov/Coverage/47bd2841-ee9b-416b-a725-d2e2209f0f65",
    "resource": {
      "resourceType": "Coverage",
      "id": "47bd2841-ee9b-416b-a725-d2e2209f0f65",
      "meta": {
        "profile": [ "http://hl7.org/fhir/us/qicore/StructureDefinition/qicore-coverage" ]
      },
      "status": "active",
      "beneficiary": {
        "reference": "Patient/d7e9bf7d-2b55-4ae1-ab9e-c03cdedb1a2b"
      },
      "period": {
        "start": "1976-04-25T08:00:00.000+00:00"
      },
      "payor": [ {
        "reference": "Organization/35fab348-1f38-4380-87ff-a62ef87a4f62"
      } ]
    },
    "request": {
      "method": "PUT",
      "url": "Coverage/47bd2841-ee9b-416b-a725-d2e2209f0f65"
    }
  }, {
    "fullUrl": "https://madie.cms.gov/Encounter/31fca4b3-cf05-458b-aabd-90ee90ae41d4",
    "resource": {
      "resourceType": "Encounter",
      "id": "31fca4b3-cf05-458b-aabd-90ee90ae41d4",
      "meta": {
        "profile": [ "http://hl7.org/fhir/us/qicore/StructureDefinition/qicore-encounter" ]
      },
      "status": "finished",
      "class": {
        "system": "http://terminology.hl7.org/CodeSystem/v3-ActCode",
        "code": "AMB",
        "display": "ambulatory",
        "userSelected": true
      },
      "type": [ {
        "coding": [ {
          "system": "http://www.ama-assn.org/go/cpt",
          "code": "77427",
          "userSelected": true
        } ]
      } ],
      "subject": {
        "reference": "Patient/d7e9bf7d-2b55-4ae1-ab9e-c03cdedb1a2b"
      },
      "period": {
        "start": "2026-05-06T09:00:00.000+00:00",
        "end": "2026-05-06T13:00:00.000+00:00"
      }
    },
    "request": {
      "method": "PUT",
      "url": "Encounter/31fca4b3-cf05-458b-aabd-90ee90ae41d4"
    }
  }, {
    "fullUrl": "https://madie.cms.gov/Organization/35fab348-1f38-4380-87ff-a62ef87a4f62",
    "resource": {
      "resourceType": "Organization",
      "id": "35fab348-1f38-4380-87ff-a62ef87a4f62",
      "meta": {
        "profile": [ "http://hl7.org/fhir/us/qicore/StructureDefinition/qicore-organization" ]
      },
      "identifier": [ {
        "use": "temp",
        "system": "urn:oid:2.16.840.1.113883.4.4",
        "value": "21-3259825"
      } ],
      "active": true,
      "type": [ {
        "coding": [ {
          "system": "http://terminology.hl7.org/CodeSystem/organization-type",
          "code": "pay",
          "display": "Payer"
        } ]
      } ],
      "name": "Blue Cross Blue Shield of Texas",
      "telecom": [ {
        "system": "phone",
        "value": "(+1) 972-766-6900"
      } ],
      "address": [ {
        "use": "billing",
        "type": "postal",
        "line": [ "P.O. Box 660044" ],
        "city": "Dallas",
        "state": "TX",
        "postalCode": "75266-0044",
        "country": "USA"
      } ]
    },
    "request": {
      "method": "PUT",
      "url": "Organization/35fab348-1f38-4380-87ff-a62ef87a4f62"
    }
  }, {
    "fullUrl": "https://madie.cms.gov/Practitioner/177fa3c8-6c74-47df-89da-e305e5185f24",
    "resource": {
      "resourceType": "Practitioner",
      "id": "177fa3c8-6c74-47df-89da-e305e5185f24",
      "meta": {
        "profile": [ "http://hl7.org/fhir/us/qicore/StructureDefinition/qicore-practitioner" ]
      },
      "identifier": [ {
        "system": "http://hl7.org/fhir/sid/us-npi",
        "value": "1234567890"
      } ],
      "name": [ {
        "family": "Evil",
        "prefix": [ "Dr" ]
      } ]
    },
    "request": {
      "method": "PUT",
      "url": "Practitioner/177fa3c8-6c74-47df-89da-e305e5185f24"
    }
  }, {
    "fullUrl": "https://madie.cms.gov/MeasureReport/e5eca920-68a7-4e79-acc1-f53d15f4d9e8",
    "resource": {
      "resourceType": "MeasureReport",
      "id": "e5eca920-68a7-4e79-acc1-f53d15f4d9e8",
      "meta": {
        "profile": [ "http://hl7.org/fhir/us/cqfmeasures/StructureDefinition/test-case-cqfm" ]
      },
      "contained": [ {
        "resourceType": "Parameters",
        "id": "8ebf6b5c-dbd9-409a-b8c5-077de902ab5e-parameters",
        "parameter": [ {
          "name": "subject",
          "valueString": "d7e9bf7d-2b55-4ae1-ab9e-c03cdedb1a2b"
        } ]
      } ],
      "extension": [ {
        "url": "http://hl7.org/fhir/StructureDefinition/cqf-inputParameters",
        "valueReference": {
          "reference": "#8ebf6b5c-dbd9-409a-b8c5-077de902ab5e-parameters"
        }
      }, {
        "url": "http://hl7.org/fhir/us/cqfmeasures/StructureDefinition/cqfm-testCaseDescription",
        "valueMarkdown": "Patient with cancer diagnosis that overlaps radiation treatment management during measurement period. Pain intensity assessment was performed on the same day of but the end time was after end of radiation treatment management encounter. "
      } ],
      "modifierExtension": [ {
        "url": "http://hl7.org/fhir/us/cqfmeasures/StructureDefinition/cqfm-isTestCase",
        "valueBoolean": true
      } ],
      "status": "complete",
      "type": "individual",
      "measure": "https://madie.cms.gov/Measure/CMS157FHIRPainIntensityQuantified",
      "period": {
        "start": "2026-01-01",
        "end": "2026-12-31"
      },
      "group": [ {
        "id": "Group_1",
        "population": [ {
          "id": "InitialPopulation_1",
          "code": {
            "coding": [ {
              "system": "http://terminology.hl7.org/CodeSystem/measure-population",
              "code": "initial-population",
              "display": "Initial Population"
            } ]
          },
          "count": 0
        }, {
          "id": "Denominator_1",
          "code": {
            "coding": [ {
              "system": "http://terminology.hl7.org/CodeSystem/measure-population",
              "code": "denominator",
              "display": "Denominator"
            } ]
          },
          "count": 0
        }, {
          "id": "Numerator_1",
          "code": {
            "coding": [ {
              "system": "http://terminology.hl7.org/CodeSystem/measure-population",
              "code": "numerator",
              "display": "Numerator"
            } ]
          },
          "count": 0
        } ],
        "measureScore": {
          "value": 0.0
        }
      }, {
        "id": "Group_2",
        "population": [ {
          "id": "InitialPopulation_2",
          "code": {
            "coding": [ {
              "system": "http://terminology.hl7.org/CodeSystem/measure-population",
              "code": "initial-population",
              "display": "Initial Population"
            } ]
          },
          "count": 1
        }, {
          "id": "Denominator_2",
          "code": {
            "coding": [ {
              "system": "http://terminology.hl7.org/CodeSystem/measure-population",
              "code": "denominator",
              "display": "Denominator"
            } ]
          },
          "count": 1
        }, {
          "id": "Numerator_2",
          "code": {
            "coding": [ {
              "system": "http://terminology.hl7.org/CodeSystem/measure-population",
              "code": "numerator",
              "display": "Numerator"
            } ]
          },
          "count": 1
        } ],
        "measureScore": {
          "value": 0.0
        }
      } ],
      "evaluatedResource": [ {
        "reference": "Patient/d7e9bf7d-2b55-4ae1-ab9e-c03cdedb1a2b"
      }, {
        "reference": "Observation/d6547f8d-673c-4f47-8010-9cd72488a1bc"
      }, {
        "reference": "Condition/828f34dd-f450-4d13-b277-ded85be4bb7b"
      }, {
        "reference": "Coverage/47bd2841-ee9b-416b-a725-d2e2209f0f65"
      }, {
        "reference": "Encounter/31fca4b3-cf05-458b-aabd-90ee90ae41d4"
      }, {
        "reference": "Organization/35fab348-1f38-4380-87ff-a62ef87a4f62"
      }, {
        "reference": "Practitioner/177fa3c8-6c74-47df-89da-e305e5185f24"
      } ]
    },
    "request": {
      "method": "PUT",
      "url": "MeasureReport/e5eca920-68a7-4e79-acc1-f53d15f4d9e8"
    }
  } ]
}