{
  "resourceType": "Bundle",
  "id": "61095b0998086b53805591a5",
  "type": "collection",
  "entry": [ {
    "fullUrl": "https://madie.cms.gov/Patient/7895aa7a-497f-45aa-bd57-4189cb14f222",
    "resource": {
      "resourceType": "Patient",
      "id": "7895aa7a-497f-45aa-bd57-4189cb14f222",
      "meta": {
        "profile": [ "http://hl7.org/fhir/us/qicore/StructureDefinition/qicore-patient" ]
      },
      "text": {
        "status": "generated",
        "div": "<div xmlns=\"http://www.w3.org/1999/xhtml\"><div class=\"hapiHeaderText\">Age@18 <b>DENOMPASS </b></div><table class=\"hapiPropertyTable\"><tbody><tr><td>Identifier</td><td>67f3e33acf17bcb386e754d726ed064ccd48ba21ff0ffb2eb678740a684398be</td></tr><tr><td>Date of birth</td><td><span>01 January 1994</span></td></tr></tbody></table></div>"
      },
      "extension": [ {
        "url": "http://hl7.org/fhir/us/core/StructureDefinition/us-core-race",
        "extension": [ {
          "url": "ombCategory",
          "valueCoding": {
            "system": "urn:oid:2.16.840.1.113883.6.238",
            "code": "1002-5",
            "display": "American Indian or Alaska Native",
            "userSelected": true
          }
        }, {
          "url": "text",
          "valueString": "American Indian or Alaska Native"
        } ]
      }, {
        "url": "http://hl7.org/fhir/us/core/StructureDefinition/us-core-ethnicity",
        "extension": [ {
          "url": "ombCategory",
          "valueCoding": {
            "system": "urn:oid:2.16.840.1.113883.6.238",
            "code": "2135-2",
            "display": "Hispanic or Latino",
            "userSelected": true
          }
        }, {
          "url": "text",
          "valueString": "Hispanic or Latino"
        } ]
      } ],
      "identifier": [ {
        "type": {
          "coding": [ {
            "system": "http://terminology.hl7.org/CodeSystem/v2-0203",
            "code": "MR"
          } ]
        },
        "system": "https://bonnie-fhir.healthit.gov/",
        "value": "61095b0998086b53805591a5"
      } ],
      "active": true,
      "name": [ {
        "use": "usual",
        "family": "DENEXPASS",
        "given": [ "RetinalDetachmentWithCatSurg" ]
      } ],
      "gender": "female",
      "birthDate": "1996-01-01"
    }
  }, {
    "fullUrl": "https://madie.cms.gov/Observation/3e9fccdb-a848-4e06-8678-f33f3deed9e6",
    "resource": {
      "resourceType": "Observation",
      "id": "3e9fccdb-a848-4e06-8678-f33f3deed9e6",
      "meta": {
        "profile": [ "http://hl7.org/fhir/us/qicore/StructureDefinition/qicore-observation-clinical-result" ]
      },
      "status": "final",
      "category": [ {
        "coding": [ {
          "system": "http://terminology.hl7.org/CodeSystem/observation-category",
          "code": "exam",
          "display": "exam"
        } ]
      }, {
        "coding": [ {
          "system": "http://terminology.hl7.org/CodeSystem/observation-category",
          "code": "survey"
        } ]
      } ],
      "code": {
        "coding": [ {
          "system": "http://snomed.info/sct",
          "version": "http://snomed.info/sct/731000124108/version/20250301",
          "code": "419775003"
        } ]
      },
      "subject": {
        "reference": "Patient/7895aa7a-497f-45aa-bd57-4189cb14f222"
      },
      "effectivePeriod": {
        "start": "2026-03-13T09:00:00.000Z",
        "end": "2026-03-13T09:30:00.000Z"
      },
      "dataAbsentReason": {
        "coding": [ {
          "system": "http://terminology.hl7.org/CodeSystem/data-absent-reason",
          "code": "unknown",
          "display": "Unknown"
        } ]
      }
    }
  }, {
    "fullUrl": "https://madie.cms.gov/Procedure/c07caf32-6e55-446a-b021-a62c58dd3180",
    "resource": {
      "resourceType": "Procedure",
      "id": "c07caf32-6e55-446a-b021-a62c58dd3180",
      "meta": {
        "profile": [ "http://hl7.org/fhir/us/qicore/StructureDefinition/qicore-procedure" ]
      },
      "extension": [ {
        "url": "http://hl7.org/fhir/us/qicore/StructureDefinition/qicore-recorded",
        "valueDateTime": "2026-03-05T13:35:00.000Z"
      } ],
      "status": "completed",
      "code": {
        "coding": [ {
          "system": "http://snomed.info/sct",
          "code": "84149000"
        } ]
      },
      "subject": {
        "reference": "Patient/7895aa7a-497f-45aa-bd57-4189cb14f222"
      },
      "performedPeriod": {
        "start": "2026-03-05T13:20:00.000Z",
        "end": "2026-04-05T14:30:00.000Z"
      }
    }
  }, {
    "fullUrl": "https://madie.cms.gov/Condition/779e1148-911e-447c-b670-8673a55d36c6",
    "resource": {
      "resourceType": "Condition",
      "id": "779e1148-911e-447c-b670-8673a55d36c6",
      "meta": {
        "profile": [ "http://hl7.org/fhir/us/qicore/StructureDefinition/qicore-condition-encounter-diagnosis" ]
      },
      "clinicalStatus": {
        "coding": [ {
          "system": "http://terminology.hl7.org/CodeSystem/condition-clinical",
          "code": "active",
          "display": "active",
          "userSelected": true
        } ]
      },
      "category": [ {
        "coding": [ {
          "system": "http://terminology.hl7.org/CodeSystem/condition-clinical",
          "code": "active",
          "display": "active",
          "userSelected": true
        } ]
      }, {
        "coding": [ {
          "system": "http://terminology.hl7.org/CodeSystem/condition-category",
          "code": "encounter-diagnosis",
          "display": "Encounter Diagnosis"
        } ]
      } ],
      "code": {
        "coding": [ {
          "system": "http://hl7.org/fhir/sid/icd-10-cm",
          "code": "H33.8",
          "userSelected": true
        }, {
          "system": "http://snomed.info/sct",
          "version": "http://snomed.info/sct/731000124108/version/20250301",
          "code": "193319001",
          "userSelected": true
        } ]
      },
      "subject": {
        "reference": "Patient/7895aa7a-497f-45aa-bd57-4189cb14f222"
      },
      "onsetDateTime": "2024-11-01T08:00:00.000Z"
    }
  }, {
    "fullUrl": "https://madie.cms.gov/Coverage/afb1a2bc-e089-4fae-ae48-b226d7bcab95",
    "resource": {
      "resourceType": "Coverage",
      "id": "afb1a2bc-e089-4fae-ae48-b226d7bcab95",
      "meta": {
        "profile": [ "http://hl7.org/fhir/us/qicore/StructureDefinition/qicore-coverage" ]
      },
      "status": "active",
      "subscriberId": "123456",
      "beneficiary": {
        "reference": "Patient/7895aa7a-497f-45aa-bd57-4189cb14f222"
      },
      "relationship": {
        "coding": [ {
          "system": "http://terminology.hl7.org/CodeSystem/subscriber-relationship",
          "code": "self",
          "display": "Self"
        } ]
      },
      "payor": [ {
        "reference": "Organization/bd54a062-61b5-441c-a90b-94cd125bf0c4"
      } ]
    }
  }, {
    "fullUrl": "https://madie.cms.gov/Organization/bd54a062-61b5-441c-a90b-94cd125bf0c4",
    "resource": {
      "resourceType": "Organization",
      "id": "bd54a062-61b5-441c-a90b-94cd125bf0c4",
      "meta": {
        "profile": [ "http://hl7.org/fhir/us/qicore/StructureDefinition/qicore-organization" ]
      },
      "identifier": [ {
        "use": "temp",
        "system": "urn:oid:2.16.840.1.113883.4.4",
        "value": "21-3259825"
      } ],
      "active": true,
      "type": [ {
        "coding": [ {
          "system": "http://terminology.hl7.org/CodeSystem/organization-type",
          "code": "pay",
          "display": "Payer"
        } ]
      } ],
      "name": "Blue Cross Blue Shield of Texas",
      "telecom": [ {
        "system": "phone",
        "value": "(+1) 972-766-6900"
      } ],
      "address": [ {
        "use": "billing",
        "type": "postal",
        "line": [ "P.O. Box 660044" ],
        "city": "Dallas",
        "state": "TX",
        "postalCode": "75266-0044",
        "country": "USA"
      } ]
    }
  }, {
    "fullUrl": "https://madie.cms.gov/Practitioner/854c095e-201e-4354-8b2b-4c3e4fb0652d",
    "resource": {
      "resourceType": "Practitioner",
      "id": "854c095e-201e-4354-8b2b-4c3e4fb0652d",
      "meta": {
        "profile": [ "http://hl7.org/fhir/us/qicore/StructureDefinition/qicore-practitioner" ]
      },
      "identifier": [ {
        "system": "http://hl7.org/fhir/sid/us-npi",
        "value": "1689411712"
      } ],
      "name": [ {
        "family": "Evil",
        "prefix": [ "Dr" ]
      } ]
    }
  }, {
    "fullUrl": "https://madie.cms.gov/MeasureReport/f4757f8a-91c6-4c9e-a04b-802449f9fb23",
    "resource": {
      "resourceType": "MeasureReport",
      "id": "f4757f8a-91c6-4c9e-a04b-802449f9fb23",
      "meta": {
        "profile": [ "http://hl7.org/fhir/us/cqfmeasures/StructureDefinition/test-case-cqfm" ]
      },
      "contained": [ {
        "resourceType": "Parameters",
        "id": "2985d9f9-911f-4cb7-a78f-a59c35b04faf-parameters",
        "parameter": [ {
          "name": "subject",
          "valueString": "7895aa7a-497f-45aa-bd57-4189cb14f222"
        } ]
      } ],
      "extension": [ {
        "url": "http://hl7.org/fhir/StructureDefinition/cqf-inputParameters",
        "valueReference": {
          "reference": "#2985d9f9-911f-4cb7-a78f-a59c35b04faf-parameters"
        }
      }, {
        "url": "http://hl7.org/fhir/us/cqfmeasures/StructureDefinition/cqfm-testCaseDescription",
        "valueMarkdown": "Patient with Retinal Detachment with cataract surgery. "
      } ],
      "modifierExtension": [ {
        "url": "http://hl7.org/fhir/us/cqfmeasures/StructureDefinition/cqfm-isTestCase",
        "valueBoolean": true
      } ],
      "status": "complete",
      "type": "individual",
      "measure": "https://madie.cms.gov/Measure/CMS133FHIRCataracts2040BCVA90Days",
      "period": {
        "start": "2026-01-01",
        "end": "2026-12-31"
      },
      "group": [ {
        "id": "Group_1",
        "population": [ {
          "id": "InitialPopulation_1",
          "code": {
            "coding": [ {
              "system": "http://terminology.hl7.org/CodeSystem/measure-population",
              "code": "initial-population",
              "display": "Initial Population"
            } ]
          },
          "count": 1
        }, {
          "id": "Denominator_1",
          "code": {
            "coding": [ {
              "system": "http://terminology.hl7.org/CodeSystem/measure-population",
              "code": "denominator",
              "display": "Denominator"
            } ]
          },
          "count": 1
        }, {
          "id": "DenominatorExclusion_1",
          "code": {
            "coding": [ {
              "system": "http://terminology.hl7.org/CodeSystem/measure-population",
              "code": "denominator-exclusion",
              "display": "Denominator Exclusion"
            } ]
          },
          "count": 1
        }, {
          "id": "Numerator_1",
          "code": {
            "coding": [ {
              "system": "http://terminology.hl7.org/CodeSystem/measure-population",
              "code": "numerator",
              "display": "Numerator"
            } ]
          },
          "count": 0
        } ],
        "measureScore": {
          "value": 0.0
        }
      } ],
      "evaluatedResource": [ {
        "reference": "Patient/7895aa7a-497f-45aa-bd57-4189cb14f222"
      }, {
        "reference": "Observation/3e9fccdb-a848-4e06-8678-f33f3deed9e6"
      }, {
        "reference": "Procedure/c07caf32-6e55-446a-b021-a62c58dd3180"
      }, {
        "reference": "Condition/779e1148-911e-447c-b670-8673a55d36c6"
      }, {
        "reference": "Coverage/afb1a2bc-e089-4fae-ae48-b226d7bcab95"
      }, {
        "reference": "Organization/bd54a062-61b5-441c-a90b-94cd125bf0c4"
      }, {
        "reference": "Practitioner/854c095e-201e-4354-8b2b-4c3e4fb0652d"
      } ]
    }
  } ]
}