{
  "resourceType": "Bundle",
  "id": "612e6b2e02c62a011f2ecc81",
  "type": "transaction",
  "entry": [ {
    "fullUrl": "https://madie.cms.gov/Patient/f8f09525-80ac-4f58-80ff-74033387f5df",
    "resource": {
      "resourceType": "Patient",
      "id": "f8f09525-80ac-4f58-80ff-74033387f5df",
      "meta": {
        "profile": [ "http://hl7.org/fhir/us/qicore/StructureDefinition/qicore-patient" ]
      },
      "text": {
        "status": "generated",
        "div": "<div xmlns=\"http://www.w3.org/1999/xhtml\"><div class=\"hapiHeaderText\">PtRefMORivDayOfAnesProcRvltDT <b>NUMERPASS </b></div><table class=\"hapiPropertyTable\"><tbody><tr><td>Identifier</td><td>bec2580a47ed4bf7691b191e0654b2de</td></tr><tr><td>Date of birth</td><td><span>02 January 1974</span></td></tr></tbody></table></div>"
      },
      "extension": [ {
        "url": "http://hl7.org/fhir/us/core/StructureDefinition/us-core-race",
        "extension": [ {
          "url": "ombCategory",
          "valueCoding": {
            "system": "urn:oid:2.16.840.1.113883.6.238",
            "code": "1002-5",
            "display": "American Indian or Alaska Native",
            "userSelected": true
          }
        }, {
          "url": "text",
          "valueString": "American Indian or Alaska Native"
        } ]
      }, {
        "url": "http://hl7.org/fhir/us/core/StructureDefinition/us-core-ethnicity",
        "extension": [ {
          "url": "ombCategory",
          "valueCoding": {
            "system": "urn:oid:2.16.840.1.113883.6.238",
            "code": "2135-2",
            "display": "Hispanic or Latino",
            "userSelected": true
          }
        }, {
          "url": "text",
          "valueString": "Hispanic or Latino"
        } ]
      } ],
      "identifier": [ {
        "type": {
          "coding": [ {
            "system": "http://terminology.hl7.org/CodeSystem/v2-0203",
            "code": "MR"
          } ]
        },
        "system": "https://bonnie-fhir.healthit.gov/",
        "value": "612e6b2e02c62a011f2ecc81"
      } ],
      "active": true,
      "name": [ {
        "use": "usual",
        "family": "NUMERPass",
        "given": [ "PtRefMORivDayOfAnesProcRvltDT" ]
      } ],
      "gender": "male",
      "birthDate": "1975-01-02"
    },
    "request": {
      "method": "PUT",
      "url": "Patient/f8f09525-80ac-4f58-80ff-74033387f5df"
    }
  }, {
    "fullUrl": "https://madie.cms.gov/Encounter/78d9c801-7a1f-4572-919a-bac618aeb828",
    "resource": {
      "resourceType": "Encounter",
      "id": "78d9c801-7a1f-4572-919a-bac618aeb828",
      "meta": {
        "profile": [ "http://hl7.org/fhir/us/qicore/StructureDefinition/qicore-encounter" ]
      },
      "status": "finished",
      "class": {
        "system": "http://terminology.hl7.org/CodeSystem/v3-ActCode",
        "code": "IMP",
        "display": "inpatient encounter"
      },
      "type": [ {
        "coding": [ {
          "system": "http://snomed.info/sct",
          "code": "8715000"
        } ]
      } ],
      "subject": {
        "reference": "Patient/f8f09525-80ac-4f58-80ff-74033387f5df"
      },
      "period": {
        "start": "2026-11-01T08:00:00.000+00:00",
        "end": "2026-11-26T08:15:00.000+00:00"
      },
      "length": {
        "value": 25,
        "unit": "days"
      },
      "location": [ {
        "location": {
          "reference": "Location/0e987f19-9175-4316-b8b9-50976c16c5cd"
        },
        "period": {
          "start": "2026-11-04T09:00:00.000+00:00",
          "end": "2026-11-06T08:15:00.000+00:00"
        }
      } ]
    },
    "request": {
      "method": "PUT",
      "url": "Encounter/78d9c801-7a1f-4572-919a-bac618aeb828"
    }
  }, {
    "fullUrl": "https://madie.cms.gov/Coverage/083c8be3-3873-4835-94f9-5f24c24a0cb5",
    "resource": {
      "resourceType": "Coverage",
      "id": "083c8be3-3873-4835-94f9-5f24c24a0cb5",
      "status": "active",
      "beneficiary": {
        "reference": "Patient/f8f09525-80ac-4f58-80ff-74033387f5df"
      },
      "period": {
        "start": "1975-01-02T08:00:00.000+00:00"
      },
      "payor": [ {
        "reference": "Organization/1be5e202-a522-47d8-8e2a-073237bf9a20"
      } ]
    },
    "request": {
      "method": "PUT",
      "url": "Coverage/083c8be3-3873-4835-94f9-5f24c24a0cb5"
    }
  }, {
    "fullUrl": "https://madie.cms.gov/MedicationRequest/2558f2d1-6ecc-42fd-8d9c-51c3be96eaf6",
    "resource": {
      "resourceType": "MedicationRequest",
      "id": "2558f2d1-6ecc-42fd-8d9c-51c3be96eaf6",
      "meta": {
        "profile": [ "http://hl7.org/fhir/us/qicore/StructureDefinition/qicore-medicationnotrequested" ]
      },
      "status": "completed",
      "intent": "order",
      "category": [ {
        "coding": [ {
          "system": "http://terminology.hl7.org/CodeSystem/medicationrequest-category",
          "code": "community"
        } ]
      } ],
      "doNotPerform": true,
      "medicationCodeableConcept": {
        "coding": [ {
          "system": "http://www.nlm.nih.gov/research/umls/rxnorm",
          "code": "1114198"
        } ]
      },
      "subject": {
        "reference": "Patient/f8f09525-80ac-4f58-80ff-74033387f5df"
      },
      "authoredOn": "2026-11-05T07:00:00.000+00:00",
      "requester": {
        "reference": "Practitioner/123456"
      },
      "reasonCode": [ {
        "coding": [ {
          "system": "http://snomed.info/sct",
          "code": "443390004",
          "display": "Refusal of treatment by patient (situation)",
          "userSelected": true
        } ]
      } ]
    },
    "request": {
      "method": "PUT",
      "url": "MedicationRequest/2558f2d1-6ecc-42fd-8d9c-51c3be96eaf6"
    }
  }, {
    "fullUrl": "https://madie.cms.gov/Procedure/fdcc8bfb-afbb-45f4-b9fa-0392484d386e",
    "resource": {
      "resourceType": "Procedure",
      "id": "fdcc8bfb-afbb-45f4-b9fa-0392484d386e",
      "meta": {
        "profile": [ "http://hl7.org/fhir/us/qicore/StructureDefinition/qicore-procedure" ]
      },
      "extension": [ {
        "url": "http://hl7.org/fhir/us/qicore/StructureDefinition/qicore-recorded",
        "valueDateTime": "2026-11-05T09:35:00.000+00:00"
      } ],
      "status": "completed",
      "code": {
        "coding": [ {
          "system": "http://snomed.info/sct",
          "code": "18946005"
        } ]
      },
      "subject": {
        "reference": "Patient/f8f09525-80ac-4f58-80ff-74033387f5df"
      },
      "performedDateTime": "2026-11-05T09:15:00.000+00:00"
    },
    "request": {
      "method": "PUT",
      "url": "Procedure/fdcc8bfb-afbb-45f4-b9fa-0392484d386e"
    }
  }, {
    "fullUrl": "https://madie.cms.gov/Location/0e987f19-9175-4316-b8b9-50976c16c5cd",
    "resource": {
      "resourceType": "Location",
      "id": "0e987f19-9175-4316-b8b9-50976c16c5cd",
      "meta": {
        "profile": [ "http://hl7.org/fhir/us/qicore/StructureDefinition/qicore-location" ]
      },
      "identifier": [ {
        "use": "usual",
        "system": "http://exampleoflocation.com",
        "value": "B1-S.F2"
      } ],
      "name": "Medical Surgical East, first floor",
      "type": [ {
        "coding": [ {
          "system": "https://www.cdc.gov/nhsn/cdaportal/terminology/codesystem/hsloc.html",
          "code": "1025-6",
          "display": "Trauma Critical Care",
          "userSelected": true
        } ]
      } ]
    },
    "request": {
      "method": "PUT",
      "url": "Location/0e987f19-9175-4316-b8b9-50976c16c5cd"
    }
  }, {
    "fullUrl": "https://madie.cms.gov/Organization/1be5e202-a522-47d8-8e2a-073237bf9a20",
    "resource": {
      "resourceType": "Organization",
      "id": "1be5e202-a522-47d8-8e2a-073237bf9a20",
      "meta": {
        "profile": [ "http://hl7.org/fhir/us/qicore/StructureDefinition/qicore-organization" ]
      },
      "identifier": [ {
        "use": "temp",
        "system": "urn:oid:2.16.840.1.113883.4.4",
        "value": "21-3259825"
      } ],
      "active": true,
      "type": [ {
        "coding": [ {
          "system": "http://terminology.hl7.org/CodeSystem/organization-type",
          "code": "pay",
          "display": "Payer"
        } ]
      } ],
      "name": "Blue Cross Blue Shield of Texas",
      "telecom": [ {
        "system": "phone",
        "value": "(+1) 972-766-6900"
      } ],
      "address": [ {
        "use": "billing",
        "type": "postal",
        "line": [ "P.O. Box 660044" ],
        "city": "Dallas",
        "state": "TX",
        "postalCode": "75266-0044",
        "country": "USA"
      } ]
    },
    "request": {
      "method": "PUT",
      "url": "Organization/1be5e202-a522-47d8-8e2a-073237bf9a20"
    }
  }, {
    "fullUrl": "https://madie.cms.gov/Practitioner/55fa029a-4f7d-4651-b44f-596ddd4af099",
    "resource": {
      "resourceType": "Practitioner",
      "id": "55fa029a-4f7d-4651-b44f-596ddd4af099",
      "identifier": [ {
        "system": "http://hl7.org/fhir/sid/us-npi",
        "value": "123456"
      } ],
      "name": [ {
        "family": "Evil",
        "prefix": [ "Dr" ]
      } ]
    },
    "request": {
      "method": "PUT",
      "url": "Practitioner/55fa029a-4f7d-4651-b44f-596ddd4af099"
    }
  }, {
    "fullUrl": "https://madie.cms.gov/MeasureReport/439e2cf8-47e4-447c-9d17-8548fa7d5372",
    "resource": {
      "resourceType": "MeasureReport",
      "id": "439e2cf8-47e4-447c-9d17-8548fa7d5372",
      "meta": {
        "profile": [ "http://hl7.org/fhir/us/cqfmeasures/StructureDefinition/test-case-cqfm" ]
      },
      "contained": [ {
        "resourceType": "Parameters",
        "id": "9906de70-c094-463a-8f2b-3d9cd426146b-parameters",
        "parameter": [ {
          "name": "subject",
          "valueString": "f8f09525-80ac-4f58-80ff-74033387f5df"
        } ]
      } ],
      "extension": [ {
        "url": "http://hl7.org/fhir/StructureDefinition/cqf-inputParameters",
        "valueReference": {
          "reference": "#9906de70-c094-463a-8f2b-3d9cd426146b-parameters"
        }
      }, {
        "url": "http://hl7.org/fhir/us/cqfmeasures/StructureDefinition/cqfm-testCaseDescription",
        "valueMarkdown": "Injectable factor Xa inhibitor  not ordered due to patient refusal after neuraxial anesthesia, which is 1 day after ICU adm\n"
      } ],
      "modifierExtension": [ {
        "url": "http://hl7.org/fhir/us/cqfmeasures/StructureDefinition/cqfm-isTestCase",
        "valueBoolean": true
      } ],
      "status": "complete",
      "type": "individual",
      "measure": "https://madie.cms.gov/Measure/CMS190FHIRVTEProphylaxisICU",
      "period": {
        "start": "2026-01-01",
        "end": "2026-12-31"
      },
      "group": [ {
        "id": "Group_1",
        "population": [ {
          "id": "InitialPopulation_1",
          "code": {
            "coding": [ {
              "system": "http://terminology.hl7.org/CodeSystem/measure-population",
              "code": "initial-population",
              "display": "Initial Population"
            } ]
          },
          "count": 1
        }, {
          "id": "Denominator_1",
          "code": {
            "coding": [ {
              "system": "http://terminology.hl7.org/CodeSystem/measure-population",
              "code": "denominator",
              "display": "Denominator"
            } ]
          },
          "count": 1
        }, {
          "id": "DenominatorExclusion_1",
          "code": {
            "coding": [ {
              "system": "http://terminology.hl7.org/CodeSystem/measure-population",
              "code": "denominator-exclusion",
              "display": "Denominator Exclusion"
            } ]
          },
          "count": 0
        }, {
          "id": "Numerator_1",
          "code": {
            "coding": [ {
              "system": "http://terminology.hl7.org/CodeSystem/measure-population",
              "code": "numerator",
              "display": "Numerator"
            } ]
          },
          "count": 1
        }, {
          "id": "DenominatorException_1",
          "code": {
            "coding": [ {
              "system": "http://terminology.hl7.org/CodeSystem/measure-population",
              "code": "denominator-exception",
              "display": "Denominator Exception"
            } ]
          },
          "count": 0
        } ],
        "measureScore": {
          "value": 0.0
        }
      } ],
      "evaluatedResource": [ {
        "reference": "Patient/f8f09525-80ac-4f58-80ff-74033387f5df"
      }, {
        "reference": "Encounter/78d9c801-7a1f-4572-919a-bac618aeb828"
      }, {
        "reference": "Coverage/083c8be3-3873-4835-94f9-5f24c24a0cb5"
      }, {
        "reference": "MedicationRequest/2558f2d1-6ecc-42fd-8d9c-51c3be96eaf6"
      }, {
        "reference": "Procedure/fdcc8bfb-afbb-45f4-b9fa-0392484d386e"
      }, {
        "reference": "Location/0e987f19-9175-4316-b8b9-50976c16c5cd"
      }, {
        "reference": "Organization/1be5e202-a522-47d8-8e2a-073237bf9a20"
      }, {
        "reference": "Practitioner/55fa029a-4f7d-4651-b44f-596ddd4af099"
      } ]
    },
    "request": {
      "method": "PUT",
      "url": "MeasureReport/439e2cf8-47e4-447c-9d17-8548fa7d5372"
    }
  } ]
}