{
  "resourceType": "Bundle",
  "id": "6617e30316793f5a4fae16fe",
  "type": "transaction",
  "entry": [ {
    "fullUrl": "https://madie.cms.gov/Patient/aeb81393-d181-487a-9bc5-923c7082104e",
    "resource": {
      "resourceType": "Patient",
      "id": "aeb81393-d181-487a-9bc5-923c7082104e",
      "meta": {
        "profile": [ "http://hl7.org/fhir/us/qicore/StructureDefinition/qicore-patient" ]
      },
      "extension": [ {
        "url": "http://hl7.org/fhir/us/core/StructureDefinition/us-core-race",
        "extension": [ {
          "url": "ombCategory",
          "valueCoding": {
            "system": "urn:oid:2.16.840.1.113883.6.238",
            "code": "1002-5",
            "display": "American Indian or Alaska Native",
            "userSelected": true
          }
        }, {
          "url": "text",
          "valueString": "American Indian or Alaska Native"
        } ]
      }, {
        "url": "http://hl7.org/fhir/us/core/StructureDefinition/us-core-ethnicity",
        "extension": [ {
          "url": "ombCategory",
          "valueCoding": {
            "system": "urn:oid:2.16.840.1.113883.6.238",
            "code": "2135-2",
            "display": "Hispanic or Latino",
            "userSelected": true
          }
        }, {
          "url": "text",
          "valueString": "Hispanic or Latino"
        } ]
      }, {
        "url": "http://hl7.org/fhir/us/core/StructureDefinition/us-core-sex",
        "valueCode": "248153007"
      } ],
      "identifier": [ {
        "type": {
          "coding": [ {
            "system": "http://terminology.hl7.org/CodeSystem/v2-0203",
            "code": "MR"
          } ]
        },
        "system": "https://bonnie-fhir.healthit.gov/",
        "value": "6617e30316793f5a4fae16fe"
      } ],
      "name": [ {
        "family": "NUMERStrat1Pass",
        "given": [ "BedAssigment" ]
      } ],
      "gender": "male",
      "birthDate": "2011-01-01"
    },
    "request": {
      "method": "PUT",
      "url": "Patient/aeb81393-d181-487a-9bc5-923c7082104e"
    }
  }, {
    "fullUrl": "https://madie.cms.gov/Encounter/fcc259ac-83a7-4be5-a21d-efc60380ec5b",
    "resource": {
      "resourceType": "Encounter",
      "id": "fcc259ac-83a7-4be5-a21d-efc60380ec5b",
      "meta": {
        "profile": [ "http://hl7.org/fhir/us/qicore/StructureDefinition/qicore-encounter" ]
      },
      "status": "finished",
      "class": {
        "system": "http://terminology.hl7.org/CodeSystem/v3-ActCode",
        "code": "AMB",
        "display": "ambulatory"
      },
      "type": [ {
        "coding": [ {
          "system": "http://snomed.info/sct",
          "version": "2023-09",
          "code": "4525004",
          "display": "Emergency department patient visit (procedure)",
          "userSelected": true
        } ]
      } ],
      "subject": {
        "reference": "Patient/aeb81393-d181-487a-9bc5-923c7082104e"
      },
      "period": {
        "start": "2027-05-01T00:00:00.000+00:00",
        "end": "2027-05-01T05:00:00.000+00:00"
      },
      "diagnosis": [ {
        "condition": {
          "reference": "Condition/b266540b-fe8a-461f-b871-d58783c34b78"
        },
        "use": {
          "coding": [ {
            "system": "http://terminology.hl7.org/CodeSystem/diagnosis-role",
            "code": "billing"
          } ]
        },
        "rank": 1
      } ],
      "location": [ {
        "location": {
          "reference": "Location/e4d61c8d-15d3-4929-974b-d90eff75e2a4"
        },
        "period": {
          "start": "2027-05-01T00:00:00.000+00:00",
          "end": "2027-05-01T05:01:00.000+00:00"
        }
      } ]
    },
    "request": {
      "method": "PUT",
      "url": "Encounter/fcc259ac-83a7-4be5-a21d-efc60380ec5b"
    }
  }, {
    "fullUrl": "https://madie.cms.gov/Location/e4d61c8d-15d3-4929-974b-d90eff75e2a4",
    "resource": {
      "resourceType": "Location",
      "id": "e4d61c8d-15d3-4929-974b-d90eff75e2a4",
      "meta": {
        "profile": [ "http://hl7.org/fhir/us/qicore/StructureDefinition/qicore-location" ]
      },
      "identifier": [ {
        "use": "usual",
        "system": "http://exampleoflocation.com",
        "value": "B1-S.F2"
      } ],
      "name": "Medical Surgical East, first floor",
      "type": [ {
        "coding": [ {
          "system": "https://www.cdc.gov/nhsn/cdaportal/terminology/codesystem/hsloc.html",
          "version": "2022",
          "code": "1108-0",
          "display": "Emergency Department",
          "userSelected": true
        } ]
      } ]
    },
    "request": {
      "method": "PUT",
      "url": "Location/e4d61c8d-15d3-4929-974b-d90eff75e2a4"
    }
  }, {
    "fullUrl": "https://madie.cms.gov/ServiceRequest/6ecba1ca-6aec-4ff4-811f-6580269bf282",
    "resource": {
      "resourceType": "ServiceRequest",
      "id": "6ecba1ca-6aec-4ff4-811f-6580269bf282",
      "meta": {
        "profile": [ "http://hl7.org/fhir/us/qicore/StructureDefinition/qicore-servicerequest" ]
      },
      "status": "active",
      "intent": "order",
      "code": {
        "coding": [ {
          "system": "http://snomed.info/sct",
          "code": "5751000175101",
          "display": "Patient bed assigned (finding)",
          "userSelected": true
        } ]
      },
      "subject": {
        "reference": "Patient/aeb81393-d181-487a-9bc5-923c7082104e"
      },
      "authoredOn": "2027-05-01T01:00:00.000+00:00"
    },
    "request": {
      "method": "PUT",
      "url": "ServiceRequest/6ecba1ca-6aec-4ff4-811f-6580269bf282"
    }
  }, {
    "fullUrl": "https://madie.cms.gov/Condition/b266540b-fe8a-461f-b871-d58783c34b78",
    "resource": {
      "resourceType": "Condition",
      "id": "b266540b-fe8a-461f-b871-d58783c34b78",
      "meta": {
        "profile": [ "http://hl7.org/fhir/us/qicore/StructureDefinition/qicore-condition-encounter-diagnosis" ]
      },
      "category": [ {
        "coding": [ {
          "system": "http://terminology.hl7.org/CodeSystem/condition-category",
          "code": "encounter-diagnosis",
          "display": "Encounter Diagnosis"
        } ]
      } ],
      "code": {
        "coding": [ {
          "system": "http://snomed.info/sct",
          "version": "2023-09",
          "code": "10660471000119109",
          "display": "Ulcer of left foot due to type 2 diabetes mellitus (disorder)",
          "userSelected": true
        } ]
      },
      "subject": {
        "reference": "Patient/aeb81393-d181-487a-9bc5-923c7082104e"
      },
      "recordedDate": "2027-05-01T08:00:00.000+00:00"
    },
    "request": {
      "method": "PUT",
      "url": "Condition/b266540b-fe8a-461f-b871-d58783c34b78"
    }
  }, {
    "fullUrl": "https://madie.cms.gov/ServiceRequest/82b50093-8016-49fe-b08c-a76f005ddd3a",
    "resource": {
      "resourceType": "ServiceRequest",
      "id": "82b50093-8016-49fe-b08c-a76f005ddd3a",
      "meta": {
        "profile": [ "http://hl7.org/fhir/us/qicore/StructureDefinition/qicore-servicerequest" ]
      },
      "status": "active",
      "intent": "order",
      "code": {
        "coding": [ {
          "system": "http://snomed.info/sct",
          "version": "2023-09",
          "code": "183452005",
          "display": "Emergency hospital admission (procedure)",
          "userSelected": true
        } ]
      },
      "subject": {
        "reference": "Patient/aeb81393-d181-487a-9bc5-923c7082104e"
      },
      "authoredOn": "2027-05-01T01:00:00.000+00:00"
    },
    "request": {
      "method": "PUT",
      "url": "ServiceRequest/82b50093-8016-49fe-b08c-a76f005ddd3a"
    }
  }, {
    "fullUrl": "https://madie.cms.gov/Coverage/7a988472-d6ad-46f3-8a72-4e74a1df83bc",
    "resource": {
      "resourceType": "Coverage",
      "id": "7a988472-d6ad-46f3-8a72-4e74a1df83bc",
      "meta": {
        "profile": [ "http://hl7.org/fhir/us/qicore/StructureDefinition/qicore-coverage" ]
      },
      "identifier": [ {
        "type": {
          "coding": [ {
            "system": "http://terminology.hl7.org/CodeSystem/v2-0203",
            "code": "MB"
          } ]
        }
      } ],
      "status": "active",
      "beneficiary": {
        "reference": "Patient/aeb81393-d181-487a-9bc5-923c7082104e"
      },
      "relationship": {
        "coding": [ {
          "system": "http://terminology.hl7.org/CodeSystem/subscriber-relationship",
          "code": "self"
        } ]
      },
      "payor": [ {
        "reference": "Organization/4af0c553-a0d0-48d5-b0ba-6e1be5d5be17"
      } ]
    },
    "request": {
      "method": "PUT",
      "url": "Coverage/7a988472-d6ad-46f3-8a72-4e74a1df83bc"
    }
  }, {
    "fullUrl": "https://madie.cms.gov/Encounter/1e8b01cb-7e02-4ee3-bf1e-1e0eef87b5ee",
    "resource": {
      "resourceType": "Encounter",
      "id": "1e8b01cb-7e02-4ee3-bf1e-1e0eef87b5ee",
      "meta": {
        "profile": [ "http://hl7.org/fhir/us/qicore/StructureDefinition/qicore-encounter" ]
      },
      "status": "finished",
      "class": {
        "system": "http://terminology.hl7.org/CodeSystem/v3-ActCode",
        "code": "IMP",
        "display": "inpatient encounter"
      },
      "type": [ {
        "coding": [ {
          "system": "http://snomed.info/sct",
          "version": "2023-09",
          "code": "183452005",
          "display": "Emergency hospital admission (procedure)",
          "userSelected": true
        } ]
      } ],
      "subject": {
        "reference": "Patient/aeb81393-d181-487a-9bc5-923c7082104e"
      },
      "period": {
        "start": "2027-05-01T05:00:00.000+00:00",
        "end": "2027-05-03T06:15:00.000+00:00"
      }
    },
    "request": {
      "method": "PUT",
      "url": "Encounter/1e8b01cb-7e02-4ee3-bf1e-1e0eef87b5ee"
    }
  }, {
    "fullUrl": "https://madie.cms.gov/Claim/bb73df02-22d4-4f93-b7b3-194ed28f1009",
    "resource": {
      "resourceType": "Claim",
      "id": "bb73df02-22d4-4f93-b7b3-194ed28f1009",
      "meta": {
        "profile": [ "http://hl7.org/fhir/us/qicore/StructureDefinition/qicore-claim" ]
      },
      "status": "active",
      "type": {
        "coding": [ {
          "system": "http://terminology.hl7.org/CodeSystem/claim-type",
          "code": "institutional"
        } ]
      },
      "use": "claim",
      "patient": {
        "reference": "Patient/aeb81393-d181-487a-9bc5-923c7082104e"
      },
      "created": "2027-05-01",
      "provider": {
        "reference": "Practitioner/efb3cfe9-e1df-4957-8784-4b4742331f8a"
      },
      "priority": {
        "coding": [ {
          "system": "http://terminology.hl7.org/CodeSystem/processpriority",
          "code": "normal"
        } ]
      },
      "diagnosis": [ {
        "sequence": 1,
        "diagnosisReference": {
          "reference": "Condition/b266540b-fe8a-461f-b871-d58783c34b78"
        },
        "type": [ {
          "coding": [ {
            "system": "http://terminology.hl7.org/CodeSystem/ex-diagnosistype",
            "code": "principal"
          } ]
        } ]
      } ],
      "insurance": [ {
        "sequence": 1,
        "focal": true,
        "coverage": {
          "reference": "Coverage/7a988472-d6ad-46f3-8a72-4e74a1df83bc"
        }
      } ],
      "item": [ {
        "sequence": 1,
        "diagnosisSequence": [ 1 ],
        "productOrService": {
          "coding": [ {
            "system": "http://terminology.hl7.org/CodeSystem/ex-USCLS",
            "code": "99555"
          } ]
        },
        "encounter": [ {
          "reference": "Encounter/fcc259ac-83a7-4be5-a21d-efc60380ec5b"
        } ]
      } ]
    },
    "request": {
      "method": "PUT",
      "url": "Claim/bb73df02-22d4-4f93-b7b3-194ed28f1009"
    }
  }, {
    "fullUrl": "https://madie.cms.gov/Organization/4af0c553-a0d0-48d5-b0ba-6e1be5d5be17",
    "resource": {
      "resourceType": "Organization",
      "id": "4af0c553-a0d0-48d5-b0ba-6e1be5d5be17",
      "meta": {
        "profile": [ "http://hl7.org/fhir/us/qicore/StructureDefinition/qicore-organization" ]
      },
      "identifier": [ {
        "use": "temp",
        "system": "urn:oid:2.16.840.1.113883.4.4",
        "value": "21-3259825"
      } ],
      "active": true,
      "type": [ {
        "coding": [ {
          "system": "http://terminology.hl7.org/CodeSystem/organization-type",
          "code": "pay",
          "display": "Payer"
        } ]
      } ],
      "name": "Blue Cross Blue Shield of Texas",
      "telecom": [ {
        "system": "phone",
        "value": "(+1) 972-766-6900"
      } ],
      "address": [ {
        "use": "billing",
        "type": "postal",
        "line": [ "P.O. Box 660044" ],
        "city": "Dallas",
        "state": "TX",
        "postalCode": "75266-0044",
        "country": "USA"
      } ]
    },
    "request": {
      "method": "PUT",
      "url": "Organization/4af0c553-a0d0-48d5-b0ba-6e1be5d5be17"
    }
  }, {
    "fullUrl": "https://madie.cms.gov/Practitioner/efb3cfe9-e1df-4957-8784-4b4742331f8a",
    "resource": {
      "resourceType": "Practitioner",
      "id": "efb3cfe9-e1df-4957-8784-4b4742331f8a",
      "meta": {
        "profile": [ "http://hl7.org/fhir/us/qicore/StructureDefinition/qicore-practitioner" ]
      },
      "identifier": [ {
        "system": "http://hl7.org/fhir/sid/us-npi",
        "value": "9999999896"
      } ],
      "name": [ {
        "family": "Evil",
        "prefix": [ "Dr" ]
      } ]
    },
    "request": {
      "method": "PUT",
      "url": "Practitioner/efb3cfe9-e1df-4957-8784-4b4742331f8a"
    }
  }, {
    "fullUrl": "https://madie.cms.gov/MeasureReport/1379a3aa-e1ed-4f5c-af21-b58b396a0d2e",
    "resource": {
      "resourceType": "MeasureReport",
      "id": "1379a3aa-e1ed-4f5c-af21-b58b396a0d2e",
      "meta": {
        "profile": [ "http://hl7.org/fhir/us/cqfmeasures/StructureDefinition/test-case-cqfm" ]
      },
      "contained": [ {
        "resourceType": "Parameters",
        "id": "873d0848-0316-472c-a722-09322e98a21e-parameters",
        "parameter": [ {
          "name": "subject",
          "valueString": "aeb81393-d181-487a-9bc5-923c7082104e"
        } ]
      } ],
      "extension": [ {
        "url": "http://hl7.org/fhir/StructureDefinition/cqf-inputParameters",
        "valueReference": {
          "reference": "#873d0848-0316-472c-a722-09322e98a21e-parameters"
        }
      }, {
        "url": "http://hl7.org/fhir/us/cqfmeasures/StructureDefinition/cqfm-testCaseDescription",
        "valueMarkdown": "Child ED, order to admit inpt and inpatient  encounter,  bed assignment 241 mins before ED departure with psych "
      } ],
      "modifierExtension": [ {
        "url": "http://hl7.org/fhir/us/cqfmeasures/StructureDefinition/cqfm-isTestCase",
        "valueBoolean": true
      } ],
      "status": "complete",
      "type": "individual",
      "measure": "https://madie.cms.gov/Measure/CMS1244FHIRECATHOQR",
      "period": {
        "start": "2027-01-01",
        "end": "2027-12-31"
      },
      "group": [ {
        "id": "Group_1",
        "population": [ {
          "id": "InitialPopulation_1",
          "code": {
            "coding": [ {
              "system": "http://terminology.hl7.org/CodeSystem/measure-population",
              "code": "initial-population",
              "display": "Initial Population"
            } ]
          },
          "count": 1
        }, {
          "id": "Denominator_1",
          "code": {
            "coding": [ {
              "system": "http://terminology.hl7.org/CodeSystem/measure-population",
              "code": "denominator",
              "display": "Denominator"
            } ]
          },
          "count": 1
        }, {
          "id": "Numerator_1",
          "code": {
            "coding": [ {
              "system": "http://terminology.hl7.org/CodeSystem/measure-population",
              "code": "numerator",
              "display": "Numerator"
            } ]
          },
          "count": 1
        } ],
        "measureScore": {
          "value": 0.0
        },
        "stratifier": [ {
          "id": "Stratification_1_1",
          "code": [ {
            "text": "Strata-1"
          } ],
          "stratum": [ {
            "value": {
              "text": "Strata-1"
            },
            "population": [ {
              "id": "InitialPopulation_1",
              "code": {
                "coding": [ {
                  "system": "http://terminology.hl7.org/CodeSystem/measure-population",
                  "code": "initial-population",
                  "display": "Initial Population"
                } ]
              },
              "count": 1
            }, {
              "id": "Denominator_1",
              "code": {
                "coding": [ {
                  "system": "http://terminology.hl7.org/CodeSystem/measure-population",
                  "code": "denominator",
                  "display": "Denominator"
                } ]
              },
              "count": 1
            }, {
              "id": "Numerator_1",
              "code": {
                "coding": [ {
                  "system": "http://terminology.hl7.org/CodeSystem/measure-population",
                  "code": "numerator",
                  "display": "Numerator"
                } ]
              },
              "count": 1
            } ]
          } ]
        }, {
          "id": "Stratification_1_2",
          "code": [ {
            "text": "Strata-2"
          } ],
          "stratum": [ {
            "value": {
              "text": "Strata-2"
            },
            "population": [ {
              "id": "InitialPopulation_1",
              "code": {
                "coding": [ {
                  "system": "http://terminology.hl7.org/CodeSystem/measure-population",
                  "code": "initial-population",
                  "display": "Initial Population"
                } ]
              },
              "count": 0
            }, {
              "id": "Denominator_1",
              "code": {
                "coding": [ {
                  "system": "http://terminology.hl7.org/CodeSystem/measure-population",
                  "code": "denominator",
                  "display": "Denominator"
                } ]
              },
              "count": 0
            }, {
              "id": "Numerator_1",
              "code": {
                "coding": [ {
                  "system": "http://terminology.hl7.org/CodeSystem/measure-population",
                  "code": "numerator",
                  "display": "Numerator"
                } ]
              },
              "count": 0
            } ]
          } ]
        }, {
          "id": "Stratification_1_3",
          "code": [ {
            "text": "Strata-3"
          } ],
          "stratum": [ {
            "value": {
              "text": "Strata-3"
            },
            "population": [ {
              "id": "InitialPopulation_1",
              "code": {
                "coding": [ {
                  "system": "http://terminology.hl7.org/CodeSystem/measure-population",
                  "code": "initial-population",
                  "display": "Initial Population"
                } ]
              },
              "count": 0
            }, {
              "id": "Denominator_1",
              "code": {
                "coding": [ {
                  "system": "http://terminology.hl7.org/CodeSystem/measure-population",
                  "code": "denominator",
                  "display": "Denominator"
                } ]
              },
              "count": 0
            }, {
              "id": "Numerator_1",
              "code": {
                "coding": [ {
                  "system": "http://terminology.hl7.org/CodeSystem/measure-population",
                  "code": "numerator",
                  "display": "Numerator"
                } ]
              },
              "count": 0
            } ]
          } ]
        }, {
          "id": "Stratification_1_4",
          "code": [ {
            "text": "Strata-4"
          } ],
          "stratum": [ {
            "value": {
              "text": "Strata-4"
            },
            "population": [ {
              "id": "InitialPopulation_1",
              "code": {
                "coding": [ {
                  "system": "http://terminology.hl7.org/CodeSystem/measure-population",
                  "code": "initial-population",
                  "display": "Initial Population"
                } ]
              },
              "count": 0
            }, {
              "id": "Denominator_1",
              "code": {
                "coding": [ {
                  "system": "http://terminology.hl7.org/CodeSystem/measure-population",
                  "code": "denominator",
                  "display": "Denominator"
                } ]
              },
              "count": 0
            }, {
              "id": "Numerator_1",
              "code": {
                "coding": [ {
                  "system": "http://terminology.hl7.org/CodeSystem/measure-population",
                  "code": "numerator",
                  "display": "Numerator"
                } ]
              },
              "count": 0
            } ]
          } ]
        } ]
      } ],
      "evaluatedResource": [ {
        "reference": "Patient/aeb81393-d181-487a-9bc5-923c7082104e"
      }, {
        "reference": "Encounter/fcc259ac-83a7-4be5-a21d-efc60380ec5b"
      }, {
        "reference": "Location/e4d61c8d-15d3-4929-974b-d90eff75e2a4"
      }, {
        "reference": "ServiceRequest/6ecba1ca-6aec-4ff4-811f-6580269bf282"
      }, {
        "reference": "Condition/b266540b-fe8a-461f-b871-d58783c34b78"
      }, {
        "reference": "ServiceRequest/82b50093-8016-49fe-b08c-a76f005ddd3a"
      }, {
        "reference": "Coverage/7a988472-d6ad-46f3-8a72-4e74a1df83bc"
      }, {
        "reference": "Encounter/1e8b01cb-7e02-4ee3-bf1e-1e0eef87b5ee"
      }, {
        "reference": "Claim/bb73df02-22d4-4f93-b7b3-194ed28f1009"
      }, {
        "reference": "Organization/4af0c553-a0d0-48d5-b0ba-6e1be5d5be17"
      }, {
        "reference": "Practitioner/efb3cfe9-e1df-4957-8784-4b4742331f8a"
      } ]
    },
    "request": {
      "method": "PUT",
      "url": "MeasureReport/1379a3aa-e1ed-4f5c-af21-b58b396a0d2e"
    }
  } ]
}