{
  "resourceType": "Bundle",
  "id": "6298e96c5c5f0f80c3806878",
  "type": "collection",
  "entry": [ {
    "fullUrl": "https://madie.cms.gov/Patient/f4f5d8a4-99b7-4ace-af89-75e6af754713",
    "resource": {
      "resourceType": "Patient",
      "id": "f4f5d8a4-99b7-4ace-af89-75e6af754713",
      "meta": {
        "profile": [ "http://hl7.org/fhir/us/qicore/StructureDefinition/qicore-patient" ]
      },
      "extension": [ {
        "url": "http://hl7.org/fhir/us/core/StructureDefinition/us-core-race",
        "extension": [ {
          "url": "ombCategory",
          "valueCoding": {
            "system": "urn:oid:2.16.840.1.113883.6.238",
            "code": "1002-5",
            "display": "American Indian or Alaska Native",
            "userSelected": true
          }
        }, {
          "url": "text",
          "valueString": "American Indian or Alaska Native"
        } ]
      }, {
        "url": "http://hl7.org/fhir/us/core/StructureDefinition/us-core-ethnicity",
        "extension": [ {
          "url": "ombCategory",
          "valueCoding": {
            "system": "urn:oid:2.16.840.1.113883.6.238",
            "code": "2135-2",
            "display": "Hispanic or Latino",
            "userSelected": true
          }
        }, {
          "url": "text",
          "valueString": "Hispanic or Latino"
        } ]
      } ],
      "identifier": [ {
        "type": {
          "coding": [ {
            "system": "http://terminology.hl7.org/CodeSystem/v2-0203",
            "code": "MR"
          } ]
        },
        "system": "https://bonnie-fhir.healthit.gov/",
        "value": "6298e96c5c5f0f80c3806878"
      } ],
      "name": [ {
        "family": "DENOMPass",
        "given": [ "LastStagingBefore1stTreamentValid" ]
      } ],
      "gender": "male",
      "birthDate": "1980-12-31"
    }
  }, {
    "fullUrl": "https://madie.cms.gov/Condition/429a8808-1797-4176-bff7-5e5500a505f6",
    "resource": {
      "resourceType": "Condition",
      "id": "429a8808-1797-4176-bff7-5e5500a505f6",
      "meta": {
        "profile": [ "http://hl7.org/fhir/us/qicore/StructureDefinition/qicore-condition-problems-health-concerns" ]
      },
      "clinicalStatus": {
        "coding": [ {
          "system": "http://terminology.hl7.org/CodeSystem/condition-clinical",
          "code": "active",
          "display": "active",
          "userSelected": true
        } ]
      },
      "category": [ {
        "coding": [ {
          "system": "http://terminology.hl7.org/CodeSystem/condition-category",
          "code": "problem-list-item",
          "display": "Problem List Item"
        }, {
          "system": "http://snomed.info/sct",
          "code": "439401001",
          "display": "Diagnosis"
        } ]
      } ],
      "code": {
        "coding": [ {
          "system": "http://snomed.info/sct",
          "code": "254900004",
          "display": "Carcinoma of prostate (disorder)",
          "userSelected": true
        } ]
      },
      "subject": {
        "reference": "Patient/f4f5d8a4-99b7-4ace-af89-75e6af754713"
      },
      "onsetPeriod": {
        "start": "2008-06-14T08:00:00.000+00:00"
      }
    }
  }, {
    "fullUrl": "https://madie.cms.gov/Procedure/dee0cfa8-bd5f-4304-91b5-beae21e38392",
    "resource": {
      "resourceType": "Procedure",
      "id": "dee0cfa8-bd5f-4304-91b5-beae21e38392",
      "meta": {
        "profile": [ "http://hl7.org/fhir/us/qicore/StructureDefinition/qicore-procedure" ]
      },
      "extension": [ {
        "url": "http://hl7.org/fhir/us/qicore/StructureDefinition/qicore-recorded",
        "valueDateTime": "2026-02-01T09:00:00.000+00:00"
      } ],
      "status": "completed",
      "code": {
        "coding": [ {
          "system": "http://snomed.info/sct",
          "code": "38915000",
          "display": "Radionuclide therapy for gland ablation (procedure)",
          "userSelected": true
        } ]
      },
      "subject": {
        "reference": "Patient/f4f5d8a4-99b7-4ace-af89-75e6af754713"
      },
      "performedDateTime": "2026-08-25T08:00:00.000+00:00"
    }
  }, {
    "fullUrl": "https://madie.cms.gov/Observation/7411f36b-d3cc-4f52-b3ef-96b8bc1e3fa8",
    "resource": {
      "resourceType": "Observation",
      "id": "7411f36b-d3cc-4f52-b3ef-96b8bc1e3fa8",
      "meta": {
        "profile": [ "http://hl7.org/fhir/us/qicore/StructureDefinition/qicore-observation-lab" ]
      },
      "status": "final",
      "category": [ {
        "coding": [ {
          "system": "http://terminology.hl7.org/CodeSystem/observation-category",
          "code": "laboratory",
          "display": "Laboratory"
        } ]
      } ],
      "code": {
        "coding": [ {
          "system": "http://loinc.org",
          "version": "2.72",
          "code": "2857-1",
          "display": "Prostate specific Ag [Mass/volume] in Serum or Plasma",
          "userSelected": true
        } ]
      },
      "subject": {
        "reference": "Patient/f4f5d8a4-99b7-4ace-af89-75e6af754713"
      },
      "effectiveDateTime": "2026-04-24T08:00:00.000+00:00",
      "valueQuantity": {
        "value": 8,
        "system": "http://unitsofmeasure.org",
        "code": "ng/mL"
      }
    }
  }, {
    "fullUrl": "https://madie.cms.gov/Observation/1d1352c2-bda6-4600-a0ae-568e24db76e4",
    "resource": {
      "resourceType": "Observation",
      "id": "1d1352c2-bda6-4600-a0ae-568e24db76e4",
      "meta": {
        "profile": [ "http://hl7.org/fhir/us/qicore/StructureDefinition/qicore-observation-clinical-result" ]
      },
      "status": "final",
      "category": [ {
        "coding": [ {
          "system": "http://terminology.hl7.org/CodeSystem/observation-category",
          "code": "procedure",
          "display": "Procedure"
        } ]
      } ],
      "code": {
        "coding": [ {
          "system": "http://loinc.org",
          "code": "35266-6",
          "display": "Gleason score in Specimen Qualitative",
          "userSelected": true
        } ]
      },
      "subject": {
        "reference": "Patient/f4f5d8a4-99b7-4ace-af89-75e6af754713"
      },
      "effectiveDateTime": "2026-01-02T08:00:00.000+00:00",
      "valueInteger": 5
    }
  }, {
    "fullUrl": "https://madie.cms.gov/Observation/d81220a4-818f-446d-b73e-eeffcfd3366f",
    "resource": {
      "resourceType": "Observation",
      "id": "d81220a4-818f-446d-b73e-eeffcfd3366f",
      "meta": {
        "profile": [ "http://hl7.org/fhir/us/qicore/StructureDefinition/qicore-observation-clinical-result" ]
      },
      "status": "final",
      "category": [ {
        "coding": [ {
          "system": "http://terminology.hl7.org/CodeSystem/observation-category",
          "code": "procedure",
          "display": "Procedure"
        } ]
      } ],
      "code": {
        "coding": [ {
          "system": "http://snomed.info/sct",
          "code": "254292007",
          "display": "Tumor staging (tumor staging)",
          "userSelected": true
        } ]
      },
      "subject": {
        "reference": "Patient/f4f5d8a4-99b7-4ace-af89-75e6af754713"
      },
      "focus": [ {
        "reference": "Condition/429a8808-1797-4176-bff7-5e5500a505f6"
      } ],
      "effectiveDateTime": "2026-04-26T08:00:00.000+00:00",
      "valueCodeableConcept": {
        "coding": [ {
          "system": "http://snomed.info/sct",
          "code": "1228931008",
          "display": "American Joint Committee on Cancer cT2a (qualifier value)",
          "userSelected": true
        } ]
      }
    }
  }, {
    "fullUrl": "https://madie.cms.gov/Observation/56cb8b94-94e7-4dda-8d2a-032518939849",
    "resource": {
      "resourceType": "Observation",
      "id": "56cb8b94-94e7-4dda-8d2a-032518939849",
      "meta": {
        "profile": [ "http://hl7.org/fhir/us/qicore/StructureDefinition/qicore-observation-clinical-result" ]
      },
      "status": "final",
      "category": [ {
        "coding": [ {
          "system": "http://terminology.hl7.org/CodeSystem/observation-category",
          "code": "procedure",
          "display": "Procedure"
        } ]
      } ],
      "code": {
        "coding": [ {
          "system": "http://snomed.info/sct",
          "code": "254292007",
          "display": "Tumor staging (tumor staging)",
          "userSelected": true
        } ]
      },
      "subject": {
        "reference": "Patient/f4f5d8a4-99b7-4ace-af89-75e6af754713"
      },
      "focus": [ {
        "reference": "Condition/429a8808-1797-4176-bff7-5e5500a505f6"
      } ],
      "effectiveDateTime": "2026-06-26T08:00:00.000+00:00",
      "valueCodeableConcept": {
        "coding": [ {
          "system": "http://snomed.info/sct",
          "code": "1228892002",
          "display": "American Joint Committee on Cancer cT1a (qualifier value)",
          "userSelected": true
        } ]
      }
    }
  }, {
    "fullUrl": "https://madie.cms.gov/Observation/b8156f74-be22-4b74-aad5-6aa67ca9adf9",
    "resource": {
      "resourceType": "Observation",
      "id": "b8156f74-be22-4b74-aad5-6aa67ca9adf9",
      "meta": {
        "profile": [ "http://hl7.org/fhir/us/qicore/StructureDefinition/qicore-observation-clinical-result" ]
      },
      "status": "final",
      "category": [ {
        "coding": [ {
          "system": "http://terminology.hl7.org/CodeSystem/observation-category",
          "code": "procedure",
          "display": "Procedure"
        } ]
      } ],
      "code": {
        "coding": [ {
          "system": "http://snomed.info/sct",
          "code": "254292007",
          "display": "Tumor staging (tumor staging)",
          "userSelected": true
        } ]
      },
      "subject": {
        "reference": "Patient/f4f5d8a4-99b7-4ace-af89-75e6af754713"
      },
      "focus": [ {
        "reference": "Condition/429a8808-1797-4176-bff7-5e5500a505f6"
      } ],
      "effectiveDateTime": "2026-08-26T08:00:00.000+00:00",
      "valueCodeableConcept": {
        "coding": [ {
          "system": "http://snomed.info/sct",
          "code": "254292007",
          "display": "Tumor staging (tumor staging)",
          "userSelected": true
        } ]
      }
    }
  }, {
    "fullUrl": "https://madie.cms.gov/Observation/2f8ab590-7527-490d-b534-d4164e751af9",
    "resource": {
      "resourceType": "Observation",
      "id": "2f8ab590-7527-490d-b534-d4164e751af9",
      "meta": {
        "profile": [ "http://hl7.org/fhir/us/qicore/StructureDefinition/qicore-observation-clinical-result" ]
      },
      "status": "final",
      "category": [ {
        "coding": [ {
          "system": "http://terminology.hl7.org/CodeSystem/observation-category",
          "code": "procedure",
          "display": "Procedure"
        } ]
      } ],
      "code": {
        "coding": [ {
          "system": "http://loinc.org",
          "version": "2.72",
          "code": "25031-6",
          "display": "NM Bone Views",
          "userSelected": true
        } ]
      },
      "subject": {
        "reference": "Patient/f4f5d8a4-99b7-4ace-af89-75e6af754713"
      },
      "effectiveDateTime": "2026-08-17T08:00:00.000+00:00",
      "issued": "2026-08-17T08:00:00.000+00:00",
      "valueString": "Normal results found"
    }
  }, {
    "fullUrl": "https://madie.cms.gov/Coverage/589a45fd-56be-40a2-814b-f4baff2da3c6",
    "resource": {
      "resourceType": "Coverage",
      "id": "589a45fd-56be-40a2-814b-f4baff2da3c6",
      "meta": {
        "profile": [ "http://hl7.org/fhir/us/qicore/StructureDefinition/qicore-coverage" ]
      },
      "status": "active",
      "subscriberId": "123456789",
      "beneficiary": {
        "reference": "Patient/f4f5d8a4-99b7-4ace-af89-75e6af754713"
      },
      "relationship": {
        "coding": [ {
          "system": "http://terminology.hl7.org/CodeSystem/subscriber-relationship",
          "code": "self",
          "display": "Self",
          "userSelected": true
        } ]
      },
      "payor": [ {
        "reference": "Organization/5c26d801-c8f9-4d55-b9a6-6d01afed3f9d"
      } ]
    }
  }, {
    "fullUrl": "https://madie.cms.gov/Organization/5c26d801-c8f9-4d55-b9a6-6d01afed3f9d",
    "resource": {
      "resourceType": "Organization",
      "id": "5c26d801-c8f9-4d55-b9a6-6d01afed3f9d",
      "meta": {
        "profile": [ "http://hl7.org/fhir/us/qicore/StructureDefinition/qicore-organization" ]
      },
      "identifier": [ {
        "use": "temp",
        "system": "urn:oid:2.16.840.1.113883.4.4",
        "value": "21-3259825"
      } ],
      "active": true,
      "type": [ {
        "coding": [ {
          "system": "http://terminology.hl7.org/CodeSystem/organization-type",
          "code": "pay",
          "display": "Payer"
        } ]
      } ],
      "name": "Blue Cross Blue Shield of Texas",
      "telecom": [ {
        "system": "phone",
        "value": "(+1) 972-766-6900"
      } ],
      "address": [ {
        "use": "billing",
        "type": "postal",
        "line": [ "P.O. Box 660044" ],
        "city": "Dallas",
        "state": "TX",
        "postalCode": "75266-0044",
        "country": "USA"
      } ]
    }
  }, {
    "fullUrl": "https://madie.cms.gov/Practitioner/79a34f9f-0d96-4aaa-b0ea-a501d13690d3",
    "resource": {
      "resourceType": "Practitioner",
      "id": "79a34f9f-0d96-4aaa-b0ea-a501d13690d3",
      "meta": {
        "profile": [ "http://hl7.org/fhir/us/qicore/StructureDefinition/qicore-practitioner" ]
      },
      "identifier": [ {
        "system": "http://hl7.org/fhir/sid/us-npi",
        "value": "1234567893"
      } ],
      "name": [ {
        "family": "Evil",
        "prefix": [ "Dr" ]
      } ]
    }
  }, {
    "fullUrl": "https://madie.cms.gov/MeasureReport/13af5c6c-36ce-45d4-a2e1-ade6f5a56a3c",
    "resource": {
      "resourceType": "MeasureReport",
      "id": "13af5c6c-36ce-45d4-a2e1-ade6f5a56a3c",
      "meta": {
        "profile": [ "http://hl7.org/fhir/us/cqfmeasures/StructureDefinition/test-case-cqfm" ]
      },
      "contained": [ {
        "resourceType": "Parameters",
        "id": "229933d4-b449-4914-90a8-d1364540eb8f-parameters",
        "parameter": [ {
          "name": "subject",
          "valueString": "f4f5d8a4-99b7-4ace-af89-75e6af754713"
        } ]
      } ],
      "extension": [ {
        "url": "http://hl7.org/fhir/StructureDefinition/cqf-inputParameters",
        "valueReference": {
          "reference": "#229933d4-b449-4914-90a8-d1364540eb8f-parameters"
        }
      }, {
        "url": "http://hl7.org/fhir/us/cqfmeasures/StructureDefinition/cqfm-testCaseDescription",
        "valueMarkdown": "3 of 3 staging: 4/26- T2A,  6/26-T1A (passes logic), 8/26- None); Tx 8/25; PSA = 8; Gleason = 5; last that occurs before 1st treatment has valid staging. Staging after 1st treatment not valid.  does not impact test. "
      } ],
      "modifierExtension": [ {
        "url": "http://hl7.org/fhir/us/cqfmeasures/StructureDefinition/cqfm-isTestCase",
        "valueBoolean": true
      } ],
      "status": "complete",
      "type": "individual",
      "measure": "https://madie.cms.gov/Measure/CMS129FHIRProstCaBoneScanUse",
      "period": {
        "start": "2026-01-01",
        "end": "2026-12-31"
      },
      "group": [ {
        "id": "Group_1",
        "population": [ {
          "id": "InitialPopulation_1",
          "code": {
            "coding": [ {
              "system": "http://terminology.hl7.org/CodeSystem/measure-population",
              "code": "initial-population",
              "display": "Initial Population"
            } ]
          },
          "count": 1
        }, {
          "id": "Denominator_1",
          "code": {
            "coding": [ {
              "system": "http://terminology.hl7.org/CodeSystem/measure-population",
              "code": "denominator",
              "display": "Denominator"
            } ]
          },
          "count": 1
        }, {
          "id": "Numerator_1",
          "code": {
            "coding": [ {
              "system": "http://terminology.hl7.org/CodeSystem/measure-population",
              "code": "numerator",
              "display": "Numerator"
            } ]
          },
          "count": 0
        }, {
          "id": "DenominatorException_1",
          "code": {
            "coding": [ {
              "system": "http://terminology.hl7.org/CodeSystem/measure-population",
              "code": "denominator-exception",
              "display": "Denominator Exception"
            } ]
          },
          "count": 0
        } ],
        "measureScore": {
          "value": 1.0
        }
      } ],
      "evaluatedResource": [ {
        "reference": "Patient/f4f5d8a4-99b7-4ace-af89-75e6af754713"
      }, {
        "reference": "Condition/429a8808-1797-4176-bff7-5e5500a505f6"
      }, {
        "reference": "Procedure/dee0cfa8-bd5f-4304-91b5-beae21e38392"
      }, {
        "reference": "Observation/7411f36b-d3cc-4f52-b3ef-96b8bc1e3fa8"
      }, {
        "reference": "Observation/1d1352c2-bda6-4600-a0ae-568e24db76e4"
      }, {
        "reference": "Observation/d81220a4-818f-446d-b73e-eeffcfd3366f"
      }, {
        "reference": "Observation/56cb8b94-94e7-4dda-8d2a-032518939849"
      }, {
        "reference": "Observation/b8156f74-be22-4b74-aad5-6aa67ca9adf9"
      }, {
        "reference": "Observation/2f8ab590-7527-490d-b534-d4164e751af9"
      }, {
        "reference": "Coverage/589a45fd-56be-40a2-814b-f4baff2da3c6"
      }, {
        "reference": "Organization/5c26d801-c8f9-4d55-b9a6-6d01afed3f9d"
      }, {
        "reference": "Practitioner/79a34f9f-0d96-4aaa-b0ea-a501d13690d3"
      } ]
    }
  } ]
}