{
  "resourceType": "Bundle",
  "id": "612e6b6102c62a011f2ed8da",
  "type": "transaction",
  "entry": [ {
    "fullUrl": "https://madie.cms.gov/Patient/a6abc191-21b3-4a69-9555-9c2cdff6feef",
    "resource": {
      "resourceType": "Patient",
      "id": "a6abc191-21b3-4a69-9555-9c2cdff6feef",
      "meta": {
        "profile": [ "http://hl7.org/fhir/us/qicore/StructureDefinition/qicore-patient" ]
      },
      "text": {
        "status": "generated",
        "div": "<div xmlns=\"http://www.w3.org/1999/xhtml\"><div class=\"hapiHeaderText\">MAGlycEDGT1HrB4SameDayOfAdm <b>NUMERPASS </b></div><table class=\"hapiPropertyTable\"><tbody><tr><td>Identifier</td><td>8fb4cd40974dea5010f77239e5dacead</td></tr><tr><td>Date of birth</td><td><span>02 January 1974</span></td></tr></tbody></table></div>"
      },
      "extension": [ {
        "url": "http://hl7.org/fhir/us/core/StructureDefinition/us-core-race",
        "extension": [ {
          "url": "ombCategory",
          "valueCoding": {
            "system": "urn:oid:2.16.840.1.113883.6.238",
            "code": "1002-5",
            "display": "American Indian or Alaska Native",
            "userSelected": true
          }
        }, {
          "url": "text",
          "valueString": "American Indian or Alaska Native"
        } ]
      }, {
        "url": "http://hl7.org/fhir/us/core/StructureDefinition/us-core-ethnicity",
        "extension": [ {
          "url": "ombCategory",
          "valueCoding": {
            "system": "urn:oid:2.16.840.1.113883.6.238",
            "code": "2135-2",
            "display": "Hispanic or Latino",
            "userSelected": true
          }
        }, {
          "url": "text",
          "valueString": "Hispanic or Latino"
        } ]
      } ],
      "identifier": [ {
        "type": {
          "coding": [ {
            "system": "http://terminology.hl7.org/CodeSystem/v2-0203",
            "code": "MR"
          } ]
        },
        "system": "https://bonnie-fhir.healthit.gov/",
        "value": "612e6b6102c62a011f2ed8da"
      } ],
      "active": true,
      "name": [ {
        "use": "usual",
        "family": "NUMERPass",
        "given": [ "MAGlycEDGT1HrB4SameDayOfAdm" ]
      } ],
      "gender": "male",
      "birthDate": "1975-01-02"
    },
    "request": {
      "method": "PUT",
      "url": "Patient/a6abc191-21b3-4a69-9555-9c2cdff6feef"
    }
  }, {
    "fullUrl": "https://madie.cms.gov/Encounter/a9ec5e46-3c73-4377-8af2-62c38b1cdb33",
    "resource": {
      "resourceType": "Encounter",
      "id": "a9ec5e46-3c73-4377-8af2-62c38b1cdb33",
      "meta": {
        "profile": [ "http://hl7.org/fhir/us/qicore/StructureDefinition/qicore-encounter" ]
      },
      "status": "finished",
      "class": {
        "system": "http://terminology.hl7.org/CodeSystem/v3-ActCode",
        "code": "EMER",
        "display": "emergency"
      },
      "type": [ {
        "coding": [ {
          "system": "http://snomed.info/sct",
          "code": "4525004"
        } ]
      } ],
      "subject": {
        "reference": "Patient/a6abc191-21b3-4a69-9555-9c2cdff6feef"
      },
      "period": {
        "start": "2026-11-01T02:00:00.000+00:00",
        "end": "2026-11-01T06:00:00.000+00:00"
      },
      "length": {
        "value": 0.0,
        "unit": "days"
      }
    },
    "request": {
      "method": "PUT",
      "url": "Encounter/a9ec5e46-3c73-4377-8af2-62c38b1cdb33"
    }
  }, {
    "fullUrl": "https://madie.cms.gov/Encounter/498dc352-ad6c-45a1-a81c-378ac66f41af",
    "resource": {
      "resourceType": "Encounter",
      "id": "498dc352-ad6c-45a1-a81c-378ac66f41af",
      "meta": {
        "profile": [ "http://hl7.org/fhir/us/qicore/StructureDefinition/qicore-encounter" ]
      },
      "status": "finished",
      "class": {
        "system": "http://terminology.hl7.org/CodeSystem/v3-ActCode",
        "code": "IMP",
        "display": "inpatient encounter"
      },
      "type": [ {
        "coding": [ {
          "system": "http://snomed.info/sct",
          "code": "8715000"
        } ]
      } ],
      "subject": {
        "reference": "Patient/a6abc191-21b3-4a69-9555-9c2cdff6feef"
      },
      "period": {
        "start": "2026-11-01T08:00:00.000+00:00",
        "end": "2026-11-26T08:15:00.000+00:00"
      },
      "length": {
        "value": 25.0,
        "unit": "days"
      }
    },
    "request": {
      "method": "PUT",
      "url": "Encounter/498dc352-ad6c-45a1-a81c-378ac66f41af"
    }
  }, {
    "fullUrl": "https://madie.cms.gov/Coverage/87c906d1-54e1-45a8-84c8-6d04ae0540c9",
    "resource": {
      "resourceType": "Coverage",
      "id": "87c906d1-54e1-45a8-84c8-6d04ae0540c9",
      "status": "active",
      "beneficiary": {
        "reference": "Patient/a6abc191-21b3-4a69-9555-9c2cdff6feef"
      },
      "period": {
        "start": "1975-01-02T08:00:00.000+00:00"
      },
      "payor": [ {
        "reference": "Organization/13466e20-9802-4e63-ba5b-713d151d7bd4"
      } ]
    },
    "request": {
      "method": "PUT",
      "url": "Coverage/87c906d1-54e1-45a8-84c8-6d04ae0540c9"
    }
  }, {
    "fullUrl": "https://madie.cms.gov/MedicationAdministration/86351a04-d39b-4840-a229-9da3e11400c9",
    "resource": {
      "resourceType": "MedicationAdministration",
      "id": "86351a04-d39b-4840-a229-9da3e11400c9",
      "meta": {
        "profile": [ "http://hl7.org/fhir/us/qicore/StructureDefinition/qicore-medicationadministration" ]
      },
      "status": "completed",
      "medicationCodeableConcept": {
        "coding": [ {
          "system": "http://www.nlm.nih.gov/research/umls/rxnorm",
          "code": "200349"
        } ]
      },
      "subject": {
        "reference": "Patient/a6abc191-21b3-4a69-9555-9c2cdff6feef"
      },
      "effectivePeriod": {
        "start": "2026-11-01T06:00:00.000+00:00",
        "end": "2026-11-01T06:10:00.000+00:00"
      }
    },
    "request": {
      "method": "PUT",
      "url": "MedicationAdministration/86351a04-d39b-4840-a229-9da3e11400c9"
    }
  }, {
    "fullUrl": "https://madie.cms.gov/Organization/13466e20-9802-4e63-ba5b-713d151d7bd4",
    "resource": {
      "resourceType": "Organization",
      "id": "13466e20-9802-4e63-ba5b-713d151d7bd4",
      "meta": {
        "profile": [ "http://hl7.org/fhir/us/qicore/StructureDefinition/qicore-organization" ]
      },
      "identifier": [ {
        "use": "temp",
        "system": "urn:oid:2.16.840.1.113883.4.4",
        "value": "21-3259825"
      } ],
      "active": true,
      "type": [ {
        "coding": [ {
          "system": "http://terminology.hl7.org/CodeSystem/organization-type",
          "code": "pay",
          "display": "Payer"
        } ]
      } ],
      "name": "Blue Cross Blue Shield of Texas",
      "telecom": [ {
        "system": "phone",
        "value": "(+1) 972-766-6900"
      } ],
      "address": [ {
        "use": "billing",
        "type": "postal",
        "line": [ "P.O. Box 660044" ],
        "city": "Dallas",
        "state": "TX",
        "postalCode": "75266-0044",
        "country": "USA"
      } ]
    },
    "request": {
      "method": "PUT",
      "url": "Organization/13466e20-9802-4e63-ba5b-713d151d7bd4"
    }
  }, {
    "fullUrl": "https://madie.cms.gov/Practitioner/3122b404-000c-4c7e-8238-b5c23a933f9e",
    "resource": {
      "resourceType": "Practitioner",
      "id": "3122b404-000c-4c7e-8238-b5c23a933f9e",
      "identifier": [ {
        "system": "http://hl7.org/fhir/sid/us-npi",
        "value": "123456"
      } ],
      "name": [ {
        "family": "Evil",
        "prefix": [ "Dr" ]
      } ]
    },
    "request": {
      "method": "PUT",
      "url": "Practitioner/3122b404-000c-4c7e-8238-b5c23a933f9e"
    }
  }, {
    "fullUrl": "https://madie.cms.gov/MeasureReport/2d4d77a3-6d93-43e6-b08f-ec08f34a4e7a",
    "resource": {
      "resourceType": "MeasureReport",
      "id": "2d4d77a3-6d93-43e6-b08f-ec08f34a4e7a",
      "meta": {
        "profile": [ "http://hl7.org/fhir/us/cqfmeasures/StructureDefinition/test-case-cqfm" ]
      },
      "contained": [ {
        "resourceType": "Parameters",
        "id": "97cc1f4c-ba1a-48f1-937c-14cc5ccd3691-parameters",
        "parameter": [ {
          "name": "subject",
          "valueString": "a6abc191-21b3-4a69-9555-9c2cdff6feef"
        } ]
      } ],
      "extension": [ {
        "url": "http://hl7.org/fhir/StructureDefinition/cqf-inputParameters",
        "valueReference": {
          "reference": "#97cc1f4c-ba1a-48f1-937c-14cc5ccd3691-parameters"
        }
      }, {
        "url": "http://hl7.org/fhir/us/cqfmeasures/StructureDefinition/cqfm-testCaseDescription",
        "valueMarkdown": ">18, LOS<120 day, Glycoprotein during ED, EDend >1hr EncInp start. But this case passes because Med was adm on the same day of adm\n"
      } ],
      "modifierExtension": [ {
        "url": "http://hl7.org/fhir/us/cqfmeasures/StructureDefinition/cqfm-isTestCase",
        "valueBoolean": true
      } ],
      "status": "complete",
      "type": "individual",
      "measure": "https://madie.cms.gov/Measure/CMS108FHIRVTEProphylaxis",
      "period": {
        "start": "2026-01-01",
        "end": "2026-12-31"
      },
      "group": [ {
        "id": "Group_1",
        "population": [ {
          "id": "InitialPopulation_1",
          "code": {
            "coding": [ {
              "system": "http://terminology.hl7.org/CodeSystem/measure-population",
              "code": "initial-population",
              "display": "Initial Population"
            } ]
          },
          "count": 1
        }, {
          "id": "Denominator_1",
          "code": {
            "coding": [ {
              "system": "http://terminology.hl7.org/CodeSystem/measure-population",
              "code": "denominator",
              "display": "Denominator"
            } ]
          },
          "count": 1
        }, {
          "id": "DenominatorExclusion_1",
          "code": {
            "coding": [ {
              "system": "http://terminology.hl7.org/CodeSystem/measure-population",
              "code": "denominator-exclusion",
              "display": "Denominator Exclusion"
            } ]
          },
          "count": 0
        }, {
          "id": "Numerator_1",
          "code": {
            "coding": [ {
              "system": "http://terminology.hl7.org/CodeSystem/measure-population",
              "code": "numerator",
              "display": "Numerator"
            } ]
          },
          "count": 1
        } ],
        "measureScore": {
          "value": 0.0
        }
      } ],
      "evaluatedResource": [ {
        "reference": "Patient/a6abc191-21b3-4a69-9555-9c2cdff6feef"
      }, {
        "reference": "Encounter/a9ec5e46-3c73-4377-8af2-62c38b1cdb33"
      }, {
        "reference": "Encounter/498dc352-ad6c-45a1-a81c-378ac66f41af"
      }, {
        "reference": "Coverage/87c906d1-54e1-45a8-84c8-6d04ae0540c9"
      }, {
        "reference": "MedicationAdministration/86351a04-d39b-4840-a229-9da3e11400c9"
      }, {
        "reference": "Organization/13466e20-9802-4e63-ba5b-713d151d7bd4"
      }, {
        "reference": "Practitioner/3122b404-000c-4c7e-8238-b5c23a933f9e"
      } ]
    },
    "request": {
      "method": "PUT",
      "url": "MeasureReport/2d4d77a3-6d93-43e6-b08f-ec08f34a4e7a"
    }
  } ]
}