{
  "resourceType": "Bundle",
  "id": "DENEXFail-HospiceObsValueIsNo",
  "type": "transaction",
  "entry": [ {
    "fullUrl": "https://madie.cms.gov/Patient/c57b8e40-b3be-484f-8874-8ccafa3d5a38",
    "resource": {
      "resourceType": "Patient",
      "id": "c57b8e40-b3be-484f-8874-8ccafa3d5a38",
      "meta": {
        "profile": [ "http://hl7.org/fhir/us/qicore/StructureDefinition/qicore-patient" ]
      },
      "extension": [ {
        "url": "http://hl7.org/fhir/us/core/StructureDefinition/us-core-race",
        "extension": [ {
          "url": "ombCategory",
          "valueCoding": {
            "system": "urn:oid:2.16.840.1.113883.6.238",
            "code": "2028-9",
            "display": "Asian"
          }
        }, {
          "url": "text",
          "valueString": "Asian"
        } ]
      }, {
        "url": "http://hl7.org/fhir/us/core/StructureDefinition/us-core-ethnicity",
        "extension": [ {
          "url": "ombCategory",
          "valueCoding": {
            "system": "urn:oid:2.16.840.1.113883.6.238",
            "code": "2135-2",
            "display": "Hispanic or Latino"
          }
        }, {
          "url": "text",
          "valueString": "Hispanic or Latino"
        } ]
      } ],
      "identifier": [ {
        "system": "http://hospital.smarthealthit.org",
        "value": "999999995"
      } ],
      "name": [ {
        "family": "IPFail",
        "given": [ "HospiceObsValueIsNo" ]
      } ],
      "gender": "female",
      "birthDate": "2007-12-31"
    },
    "request": {
      "method": "PUT",
      "url": "Patient/c57b8e40-b3be-484f-8874-8ccafa3d5a38"
    }
  }, {
    "fullUrl": "https://madie.cms.gov/Encounter/2fe375e5-8ace-4215-be62-a2e1878e658a",
    "resource": {
      "resourceType": "Encounter",
      "id": "2fe375e5-8ace-4215-be62-a2e1878e658a",
      "meta": {
        "profile": [ "http://hl7.org/fhir/us/qicore/StructureDefinition/qicore-encounter" ]
      },
      "status": "finished",
      "class": {
        "system": "http://terminology.hl7.org/CodeSystem/v3-ActCode",
        "code": "AMB",
        "display": "ambulatory"
      },
      "type": [ {
        "coding": [ {
          "system": "http://snomed.info/sct",
          "code": "3391000175108",
          "display": "Office visit for pediatric care and assessment (procedure)"
        } ]
      } ],
      "subject": {
        "reference": "Patient/c57b8e40-b3be-484f-8874-8ccafa3d5a38"
      },
      "period": {
        "start": "2026-01-01T00:00:00.000+00:00",
        "end": "2026-01-01T01:00:00.000+00:00"
      }
    },
    "request": {
      "method": "PUT",
      "url": "Encounter/2fe375e5-8ace-4215-be62-a2e1878e658a"
    }
  }, {
    "fullUrl": "https://madie.cms.gov/Condition/e08e6ad8-c0cd-4398-b2fe-c1e4f5835590",
    "resource": {
      "resourceType": "Condition",
      "id": "e08e6ad8-c0cd-4398-b2fe-c1e4f5835590",
      "meta": {
        "profile": [ "http://hl7.org/fhir/us/qicore/StructureDefinition/qicore-condition-encounter-diagnosis" ]
      },
      "clinicalStatus": {
        "coding": [ {
          "system": "http://terminology.hl7.org/CodeSystem/condition-clinical",
          "code": "active"
        } ]
      },
      "category": [ {
        "coding": [ {
          "system": "http://terminology.hl7.org/CodeSystem/condition-category",
          "code": "encounter-diagnosis",
          "display": "Encounter Diagnosis"
        } ]
      } ],
      "code": {
        "coding": [ {
          "system": "http://snomed.info/sct",
          "code": "371125006",
          "display": "Labile essential hypertension (disorder)"
        } ]
      },
      "subject": {
        "reference": "Patient/c57b8e40-b3be-484f-8874-8ccafa3d5a38"
      },
      "onsetDateTime": "2026-06-30T23:59:59.000+00:00"
    },
    "request": {
      "method": "PUT",
      "url": "Condition/e08e6ad8-c0cd-4398-b2fe-c1e4f5835590"
    }
  }, {
    "fullUrl": "https://madie.cms.gov/Observation/cd8e2a53-98fc-438f-a197-104124e8397b",
    "resource": {
      "resourceType": "Observation",
      "id": "cd8e2a53-98fc-438f-a197-104124e8397b",
      "meta": {
        "profile": [ "http://hl7.org/fhir/us/qicore/StructureDefinition/qicore-observation" ]
      },
      "status": "final",
      "category": [ {
        "coding": [ {
          "system": "http://terminology.hl7.org/CodeSystem/observation-category",
          "code": "survey"
        } ]
      } ],
      "code": {
        "coding": [ {
          "system": "http://loinc.org",
          "code": "45755-6",
          "display": "Hospice care [Minimum Data Set]"
        } ]
      },
      "subject": {
        "reference": "Patient/c57b8e40-b3be-484f-8874-8ccafa3d5a38"
      },
      "effectivePeriod": {
        "start": "2025-12-31T00:00:00.000+00:00",
        "end": "2026-01-01T00:00:00.000+00:00"
      },
      "valueCodeableConcept": {
        "coding": [ {
          "system": "http://snomed.info/sct",
          "code": "373067005",
          "display": "No (qualifier value)"
        } ]
      }
    },
    "request": {
      "method": "PUT",
      "url": "Observation/cd8e2a53-98fc-438f-a197-104124e8397b"
    }
  }, {
    "fullUrl": "https://madie.cms.gov/MeasureReport/b973a4a8-e57b-4cdd-8be0-ba9af8505c76",
    "resource": {
      "resourceType": "MeasureReport",
      "id": "b973a4a8-e57b-4cdd-8be0-ba9af8505c76",
      "meta": {
        "profile": [ "http://hl7.org/fhir/us/cqfmeasures/StructureDefinition/test-case-cqfm" ]
      },
      "contained": [ {
        "resourceType": "Parameters",
        "id": "c6f2ffe0-6d6f-4710-b5be-b0e36649d357-parameters",
        "parameter": [ {
          "name": "subject",
          "valueString": "c57b8e40-b3be-484f-8874-8ccafa3d5a38"
        } ]
      } ],
      "extension": [ {
        "url": "http://hl7.org/fhir/StructureDefinition/cqf-inputParameters",
        "valueReference": {
          "reference": "#c6f2ffe0-6d6f-4710-b5be-b0e36649d357-parameters"
        }
      }, {
        "url": "http://hl7.org/fhir/us/cqfmeasures/StructureDefinition/cqfm-testCaseDescription",
        "valueMarkdown": "Hospice observation value is No"
      } ],
      "modifierExtension": [ {
        "url": "http://hl7.org/fhir/us/cqfmeasures/StructureDefinition/cqfm-isTestCase",
        "valueBoolean": true
      } ],
      "status": "complete",
      "type": "individual",
      "measure": "https://madie.cms.gov/Measure/CMS165FHIRControllingHighBP",
      "period": {
        "start": "2026-01-01",
        "end": "2026-12-31"
      },
      "group": [ {
        "id": "Group_1",
        "population": [ {
          "id": "InitialPopulation_1",
          "code": {
            "coding": [ {
              "system": "http://terminology.hl7.org/CodeSystem/measure-population",
              "code": "initial-population",
              "display": "Initial Population"
            } ]
          },
          "count": 1
        }, {
          "id": "Denominator_1",
          "code": {
            "coding": [ {
              "system": "http://terminology.hl7.org/CodeSystem/measure-population",
              "code": "denominator",
              "display": "Denominator"
            } ]
          },
          "count": 1
        }, {
          "id": "DenominatorExclusion_1",
          "code": {
            "coding": [ {
              "system": "http://terminology.hl7.org/CodeSystem/measure-population",
              "code": "denominator-exclusion",
              "display": "Denominator Exclusion"
            } ]
          },
          "count": 0
        }, {
          "id": "Numerator_1",
          "code": {
            "coding": [ {
              "system": "http://terminology.hl7.org/CodeSystem/measure-population",
              "code": "numerator",
              "display": "Numerator"
            } ]
          },
          "count": 0
        } ],
        "measureScore": {
          "value": 1.0
        }
      } ],
      "evaluatedResource": [ {
        "reference": "Patient/c57b8e40-b3be-484f-8874-8ccafa3d5a38"
      }, {
        "reference": "Encounter/2fe375e5-8ace-4215-be62-a2e1878e658a"
      }, {
        "reference": "Condition/e08e6ad8-c0cd-4398-b2fe-c1e4f5835590"
      }, {
        "reference": "Observation/cd8e2a53-98fc-438f-a197-104124e8397b"
      } ]
    },
    "request": {
      "method": "PUT",
      "url": "MeasureReport/b973a4a8-e57b-4cdd-8be0-ba9af8505c76"
    }
  } ]
}