{
  "resourceType": "Bundle",
  "id": "612e6b1a02c62a011f2ec76c",
  "type": "transaction",
  "entry": [ {
    "fullUrl": "https://madie.cms.gov/Patient/c2dfc5ca-96db-4ae2-bbe1-7bfed219cb72",
    "resource": {
      "resourceType": "Patient",
      "id": "c2dfc5ca-96db-4ae2-bbe1-7bfed219cb72",
      "meta": {
        "profile": [ "http://hl7.org/fhir/us/qicore/StructureDefinition/qicore-patient" ]
      },
      "text": {
        "status": "generated",
        "div": "<div xmlns=\"http://www.w3.org/1999/xhtml\"><div class=\"hapiHeaderText\">ProphylaxisDuringFirstED1DayBFAdm <b>NUMERFAIL </b></div><table class=\"hapiPropertyTable\"><tbody><tr><td>Identifier</td><td>4a3cf6afd879a8f9468f9b4b43b7b032</td></tr><tr><td>Date of birth</td><td><span>02 September 2003</span></td></tr></tbody></table></div>"
      },
      "extension": [ {
        "url": "http://hl7.org/fhir/us/core/StructureDefinition/us-core-race",
        "extension": [ {
          "url": "ombCategory",
          "valueCoding": {
            "system": "urn:oid:2.16.840.1.113883.6.238",
            "code": "1002-5",
            "display": "American Indian or Alaska Native",
            "userSelected": true
          }
        }, {
          "url": "text",
          "valueString": "American Indian or Alaska Native"
        } ]
      }, {
        "url": "http://hl7.org/fhir/us/core/StructureDefinition/us-core-ethnicity",
        "extension": [ {
          "url": "ombCategory",
          "valueCoding": {
            "system": "urn:oid:2.16.840.1.113883.6.238",
            "code": "2135-2",
            "display": "Hispanic or Latino",
            "userSelected": true
          }
        }, {
          "url": "text",
          "valueString": "Hispanic or Latino"
        } ]
      } ],
      "identifier": [ {
        "type": {
          "coding": [ {
            "system": "http://terminology.hl7.org/CodeSystem/v2-0203",
            "code": "MR"
          } ]
        },
        "system": "https://bonnie-fhir.healthit.gov/",
        "value": "612e6b1a02c62a011f2ec76c"
      } ],
      "active": true,
      "name": [ {
        "use": "usual",
        "family": "NUMERFail",
        "given": [ "ProphylaxisDuringFirstED1DayBFAdm" ]
      } ],
      "gender": "male",
      "birthDate": "2004-09-02"
    },
    "request": {
      "method": "PUT",
      "url": "Patient/c2dfc5ca-96db-4ae2-bbe1-7bfed219cb72"
    }
  }, {
    "fullUrl": "https://madie.cms.gov/Encounter/8b1e3676-7fc0-4cb0-bafb-33b93d765b48",
    "resource": {
      "resourceType": "Encounter",
      "id": "8b1e3676-7fc0-4cb0-bafb-33b93d765b48",
      "meta": {
        "profile": [ "http://hl7.org/fhir/us/qicore/StructureDefinition/qicore-encounter" ]
      },
      "status": "finished",
      "class": {
        "system": "http://terminology.hl7.org/CodeSystem/v3-ActCode",
        "code": "IMP",
        "display": "inpatient encounter"
      },
      "type": [ {
        "coding": [ {
          "system": "http://snomed.info/sct",
          "code": "183452005"
        } ]
      } ],
      "subject": {
        "reference": "Patient/c2dfc5ca-96db-4ae2-bbe1-7bfed219cb72"
      },
      "period": {
        "start": "2026-09-03T09:40:00.000+00:00",
        "end": "2026-10-01T12:59:00.000+00:00"
      }
    },
    "request": {
      "method": "PUT",
      "url": "Encounter/8b1e3676-7fc0-4cb0-bafb-33b93d765b48"
    }
  }, {
    "fullUrl": "https://madie.cms.gov/Encounter/c5e85377-aaac-416a-a797-4c909265293c",
    "resource": {
      "resourceType": "Encounter",
      "id": "c5e85377-aaac-416a-a797-4c909265293c",
      "meta": {
        "profile": [ "http://hl7.org/fhir/us/qicore/StructureDefinition/qicore-encounter" ]
      },
      "status": "finished",
      "class": {
        "system": "http://terminology.hl7.org/CodeSystem/v3-ActCode",
        "code": "EMER",
        "display": "emergency"
      },
      "type": [ {
        "coding": [ {
          "system": "http://snomed.info/sct",
          "code": "4525004"
        } ]
      } ],
      "subject": {
        "reference": "Patient/c2dfc5ca-96db-4ae2-bbe1-7bfed219cb72"
      },
      "period": {
        "start": "2026-09-01T08:00:00.000+00:00",
        "end": "2026-09-01T09:00:00.000+00:00"
      }
    },
    "request": {
      "method": "PUT",
      "url": "Encounter/c5e85377-aaac-416a-a797-4c909265293c"
    }
  }, {
    "fullUrl": "https://madie.cms.gov/Encounter/a56b1a6d-67aa-4466-83c3-ef19d3115e73",
    "resource": {
      "resourceType": "Encounter",
      "id": "a56b1a6d-67aa-4466-83c3-ef19d3115e73",
      "meta": {
        "profile": [ "http://hl7.org/fhir/us/qicore/StructureDefinition/qicore-encounter" ]
      },
      "status": "finished",
      "class": {
        "system": "http://terminology.hl7.org/CodeSystem/v3-ActCode",
        "code": "OBSENC",
        "display": "observation encounter"
      },
      "type": [ {
        "coding": [ {
          "system": "http://snomed.info/sct",
          "code": "448851000124103"
        } ]
      } ],
      "subject": {
        "reference": "Patient/c2dfc5ca-96db-4ae2-bbe1-7bfed219cb72"
      },
      "period": {
        "start": "2026-09-01T09:45:00.000+00:00",
        "end": "2026-09-02T09:00:00.000+00:00"
      }
    },
    "request": {
      "method": "PUT",
      "url": "Encounter/a56b1a6d-67aa-4466-83c3-ef19d3115e73"
    }
  }, {
    "fullUrl": "https://madie.cms.gov/Encounter/dd21718b-eaf7-49a5-a8a2-4a3813230315",
    "resource": {
      "resourceType": "Encounter",
      "id": "dd21718b-eaf7-49a5-a8a2-4a3813230315",
      "meta": {
        "profile": [ "http://hl7.org/fhir/us/qicore/StructureDefinition/qicore-encounter" ]
      },
      "status": "finished",
      "class": {
        "system": "http://terminology.hl7.org/CodeSystem/v3-ActCode",
        "code": "EMER",
        "display": "emergency"
      },
      "type": [ {
        "coding": [ {
          "system": "http://snomed.info/sct",
          "code": "4525004"
        } ]
      } ],
      "subject": {
        "reference": "Patient/c2dfc5ca-96db-4ae2-bbe1-7bfed219cb72"
      },
      "period": {
        "start": "2026-09-02T09:15:00.000+00:00",
        "end": "2026-09-02T09:45:00.000+00:00"
      }
    },
    "request": {
      "method": "PUT",
      "url": "Encounter/dd21718b-eaf7-49a5-a8a2-4a3813230315"
    }
  }, {
    "fullUrl": "https://madie.cms.gov/Coverage/540668ac-cb3a-4865-8a30-7fb0b0bb9023",
    "resource": {
      "resourceType": "Coverage",
      "id": "540668ac-cb3a-4865-8a30-7fb0b0bb9023",
      "status": "active",
      "beneficiary": {
        "reference": "Patient/c2dfc5ca-96db-4ae2-bbe1-7bfed219cb72"
      },
      "period": {
        "start": "2004-09-02T09:00:00.000+00:00"
      },
      "payor": [ {
        "reference": "Organization/99f75e01-3a64-441d-a6a9-6f59f5be24d9"
      } ]
    },
    "request": {
      "method": "PUT",
      "url": "Coverage/540668ac-cb3a-4865-8a30-7fb0b0bb9023"
    }
  }, {
    "fullUrl": "https://madie.cms.gov/MedicationAdministration/f74cdaf5-6eb8-4aa7-b811-60079c2be348",
    "resource": {
      "resourceType": "MedicationAdministration",
      "id": "f74cdaf5-6eb8-4aa7-b811-60079c2be348",
      "meta": {
        "profile": [ "http://hl7.org/fhir/us/qicore/StructureDefinition/qicore-medicationadministration" ]
      },
      "status": "completed",
      "medicationCodeableConcept": {
        "coding": [ {
          "system": "http://www.nlm.nih.gov/research/umls/rxnorm",
          "code": "861356"
        } ]
      },
      "subject": {
        "reference": "Patient/c2dfc5ca-96db-4ae2-bbe1-7bfed219cb72"
      },
      "effectivePeriod": {
        "start": "2026-09-02T08:15:00.000+00:00",
        "end": "2026-09-02T08:30:00.000+00:00"
      }
    },
    "request": {
      "method": "PUT",
      "url": "MedicationAdministration/f74cdaf5-6eb8-4aa7-b811-60079c2be348"
    }
  }, {
    "fullUrl": "https://madie.cms.gov/Organization/99f75e01-3a64-441d-a6a9-6f59f5be24d9",
    "resource": {
      "resourceType": "Organization",
      "id": "99f75e01-3a64-441d-a6a9-6f59f5be24d9",
      "meta": {
        "profile": [ "http://hl7.org/fhir/us/qicore/StructureDefinition/qicore-organization" ]
      },
      "identifier": [ {
        "use": "temp",
        "system": "urn:oid:2.16.840.1.113883.4.4",
        "value": "21-3259825"
      } ],
      "active": true,
      "type": [ {
        "coding": [ {
          "system": "http://terminology.hl7.org/CodeSystem/organization-type",
          "code": "pay",
          "display": "Payer"
        } ]
      } ],
      "name": "Blue Cross Blue Shield of Texas",
      "telecom": [ {
        "system": "phone",
        "value": "(+1) 972-766-6900"
      } ],
      "address": [ {
        "use": "billing",
        "type": "postal",
        "line": [ "P.O. Box 660044" ],
        "city": "Dallas",
        "state": "TX",
        "postalCode": "75266-0044",
        "country": "USA"
      } ]
    },
    "request": {
      "method": "PUT",
      "url": "Organization/99f75e01-3a64-441d-a6a9-6f59f5be24d9"
    }
  }, {
    "fullUrl": "https://madie.cms.gov/Practitioner/03fc36f5-3287-4a45-bf83-0e6212319e00",
    "resource": {
      "resourceType": "Practitioner",
      "id": "03fc36f5-3287-4a45-bf83-0e6212319e00",
      "identifier": [ {
        "system": "http://hl7.org/fhir/sid/us-npi",
        "value": "123456"
      } ],
      "name": [ {
        "family": "Evil",
        "prefix": [ "Dr" ]
      } ]
    },
    "request": {
      "method": "PUT",
      "url": "Practitioner/03fc36f5-3287-4a45-bf83-0e6212319e00"
    }
  }, {
    "fullUrl": "https://madie.cms.gov/MeasureReport/ef5c8c41-708e-41c7-981c-8637ac9f6a3f",
    "resource": {
      "resourceType": "MeasureReport",
      "id": "ef5c8c41-708e-41c7-981c-8637ac9f6a3f",
      "meta": {
        "profile": [ "http://hl7.org/fhir/us/cqfmeasures/StructureDefinition/test-case-cqfm" ]
      },
      "contained": [ {
        "resourceType": "Parameters",
        "id": "e3b7b0f4-0456-41b7-a9d3-408b7ce03db1-parameters",
        "parameter": [ {
          "name": "subject",
          "valueString": "c2dfc5ca-96db-4ae2-bbe1-7bfed219cb72"
        } ]
      } ],
      "extension": [ {
        "url": "http://hl7.org/fhir/StructureDefinition/cqf-inputParameters",
        "valueReference": {
          "reference": "#e3b7b0f4-0456-41b7-a9d3-408b7ce03db1-parameters"
        }
      }, {
        "url": "http://hl7.org/fhir/us/cqfmeasures/StructureDefinition/cqfm-testCaseDescription",
        "valueMarkdown": "ED/outpatient @ 9/1 @8:00 - 9:00 am; feeling sick returned to ED @ 9:15 -9:45 am; admit for observ 9/3  @9:45 -  9/3 @ 9:00 am; then admitted to inpatient on 9/3 @ 9:40. prophylaxis given during the FIRST ED on 1 day bF  2nd ED. SO Fail\n"
      } ],
      "modifierExtension": [ {
        "url": "http://hl7.org/fhir/us/cqfmeasures/StructureDefinition/cqfm-isTestCase",
        "valueBoolean": true
      } ],
      "status": "complete",
      "type": "individual",
      "measure": "https://madie.cms.gov/Measure/CMS108FHIRVTEProphylaxis",
      "period": {
        "start": "2026-01-01",
        "end": "2026-12-31"
      },
      "group": [ {
        "id": "Group_1",
        "population": [ {
          "id": "InitialPopulation_1",
          "code": {
            "coding": [ {
              "system": "http://terminology.hl7.org/CodeSystem/measure-population",
              "code": "initial-population",
              "display": "Initial Population"
            } ]
          },
          "count": 1
        }, {
          "id": "Denominator_1",
          "code": {
            "coding": [ {
              "system": "http://terminology.hl7.org/CodeSystem/measure-population",
              "code": "denominator",
              "display": "Denominator"
            } ]
          },
          "count": 1
        }, {
          "id": "DenominatorExclusion_1",
          "code": {
            "coding": [ {
              "system": "http://terminology.hl7.org/CodeSystem/measure-population",
              "code": "denominator-exclusion",
              "display": "Denominator Exclusion"
            } ]
          },
          "count": 0
        }, {
          "id": "Numerator_1",
          "code": {
            "coding": [ {
              "system": "http://terminology.hl7.org/CodeSystem/measure-population",
              "code": "numerator",
              "display": "Numerator"
            } ]
          },
          "count": 0
        } ],
        "measureScore": {
          "value": 0.0
        }
      } ],
      "evaluatedResource": [ {
        "reference": "Patient/c2dfc5ca-96db-4ae2-bbe1-7bfed219cb72"
      }, {
        "reference": "Encounter/8b1e3676-7fc0-4cb0-bafb-33b93d765b48"
      }, {
        "reference": "Encounter/c5e85377-aaac-416a-a797-4c909265293c"
      }, {
        "reference": "Encounter/a56b1a6d-67aa-4466-83c3-ef19d3115e73"
      }, {
        "reference": "Encounter/dd21718b-eaf7-49a5-a8a2-4a3813230315"
      }, {
        "reference": "Coverage/540668ac-cb3a-4865-8a30-7fb0b0bb9023"
      }, {
        "reference": "MedicationAdministration/f74cdaf5-6eb8-4aa7-b811-60079c2be348"
      }, {
        "reference": "Organization/99f75e01-3a64-441d-a6a9-6f59f5be24d9"
      }, {
        "reference": "Practitioner/03fc36f5-3287-4a45-bf83-0e6212319e00"
      } ]
    },
    "request": {
      "method": "PUT",
      "url": "MeasureReport/ef5c8c41-708e-41c7-981c-8637ac9f6a3f"
    }
  } ]
}