{
  "resourceType": "Bundle",
  "id": "63487c2f0968f801225401ab",
  "type": "transaction",
  "entry": [ {
    "fullUrl": "https://madie.cms.gov/Patient/4e523355-688a-4f95-b5ea-6fd93b1f2830",
    "resource": {
      "resourceType": "Patient",
      "id": "4e523355-688a-4f95-b5ea-6fd93b1f2830",
      "meta": {
        "profile": [ "http://hl7.org/fhir/us/qicore/StructureDefinition/qicore-patient" ]
      },
      "text": {
        "status": "generated",
        "div": "<div xmlns=\"http://www.w3.org/1999/xhtml\"><div class=\"hapiHeaderText\">AssessEDDRelDtTimeEQTimeOfDeliv<b>DENPASS</b></div><table class=\"hapiPropertyTable\"><tbody><tr><td>Identifier</td><td>b00b06f67015bda652373741cca10f65466d828e3a674df9528f73ec417ce0bb</td></tr><tr><td>Date of birth</td><td><span>14 February 1985</span></td></tr></tbody></table></div>"
      },
      "extension": [ {
        "url": "http://hl7.org/fhir/us/core/StructureDefinition/us-core-race",
        "extension": [ {
          "url": "ombCategory",
          "valueCoding": {
            "system": "urn:oid:2.16.840.1.113883.6.238",
            "code": "1002-5",
            "display": "American Indian or Alaska Native",
            "userSelected": true
          }
        }, {
          "url": "text",
          "valueString": "American Indian or Alaska Native"
        } ]
      }, {
        "url": "http://hl7.org/fhir/us/core/StructureDefinition/us-core-ethnicity",
        "extension": [ {
          "url": "ombCategory",
          "valueCoding": {
            "system": "urn:oid:2.16.840.1.113883.6.238",
            "code": "2135-2",
            "display": "Hispanic or Latino",
            "userSelected": true
          }
        }, {
          "url": "text",
          "valueString": "Hispanic or Latino"
        } ]
      } ],
      "identifier": [ {
        "type": {
          "coding": [ {
            "system": "http://terminology.hl7.org/CodeSystem/v2-0203",
            "code": "MR"
          } ]
        },
        "system": "https://bonnie-fhir.healthit.gov/",
        "value": "63487c2f0968f801225401ab"
      } ],
      "active": true,
      "name": [ {
        "use": "usual",
        "family": "DENPass",
        "given": [ "AssessEDDRelDtTimeEQTimeOfDeliv" ]
      } ],
      "gender": "female",
      "birthDate": "1998-02-14"
    },
    "request": {
      "method": "PUT",
      "url": "Patient/4e523355-688a-4f95-b5ea-6fd93b1f2830"
    }
  }, {
    "fullUrl": "https://madie.cms.gov/Observation/46657261-4c1b-4748-a91a-62179b332831",
    "resource": {
      "resourceType": "Observation",
      "id": "46657261-4c1b-4748-a91a-62179b332831",
      "meta": {
        "profile": [ "http://hl7.org/fhir/us/qicore/StructureDefinition/qicore-simple-observation" ]
      },
      "status": "final",
      "category": [ {
        "coding": [ {
          "system": "http://terminology.hl7.org/CodeSystem/observation-category",
          "code": "exam",
          "display": "exam",
          "userSelected": true
        } ]
      } ],
      "code": {
        "coding": [ {
          "system": "http://loinc.org",
          "code": "93857-1"
        } ]
      },
      "subject": {
        "reference": "Patient/4e523355-688a-4f95-b5ea-6fd93b1f2830"
      },
      "effectiveDateTime": "2026-01-15T08:00:00.000+00:00",
      "performer": [ {
        "reference": "Organization/example1",
        "display": "Hendricks Country Hospital"
      } ],
      "valueDateTime": "2026-01-15T08:00:00.000+00:00"
    },
    "request": {
      "method": "PUT",
      "url": "Observation/46657261-4c1b-4748-a91a-62179b332831"
    }
  }, {
    "fullUrl": "https://madie.cms.gov/Observation/3c04fd4f-fcf6-4202-a381-b5f173ffeabd",
    "resource": {
      "resourceType": "Observation",
      "id": "3c04fd4f-fcf6-4202-a381-b5f173ffeabd",
      "meta": {
        "profile": [ "http://hl7.org/fhir/us/qicore/StructureDefinition/qicore-simple-observation" ]
      },
      "status": "final",
      "category": [ {
        "coding": [ {
          "system": "http://terminology.hl7.org/CodeSystem/observation-category",
          "code": "exam",
          "display": "exam",
          "userSelected": true
        } ]
      } ],
      "code": {
        "coding": [ {
          "system": "http://loinc.org",
          "code": "11778-8"
        } ]
      },
      "subject": {
        "reference": "Patient/4e523355-688a-4f95-b5ea-6fd93b1f2830"
      },
      "effectiveDateTime": "2026-01-15T08:00:00.000+00:00",
      "performer": [ {
        "reference": "Organization/example1",
        "display": "Hendricks Country Hospital"
      } ],
      "valueDateTime": "2026-02-04T08:00:00.000+00:00"
    },
    "request": {
      "method": "PUT",
      "url": "Observation/3c04fd4f-fcf6-4202-a381-b5f173ffeabd"
    }
  }, {
    "fullUrl": "https://madie.cms.gov/Observation/50d65a32-b917-4912-9232-e38fc975fa8b",
    "resource": {
      "resourceType": "Observation",
      "id": "50d65a32-b917-4912-9232-e38fc975fa8b",
      "meta": {
        "profile": [ "http://hl7.org/fhir/us/qicore/StructureDefinition/qicore-simple-observation" ]
      },
      "status": "final",
      "category": [ {
        "coding": [ {
          "system": "http://terminology.hl7.org/CodeSystem/observation-category",
          "code": "exam",
          "display": "exam",
          "userSelected": true
        } ]
      } ],
      "code": {
        "coding": [ {
          "system": "http://loinc.org",
          "code": "11996-6"
        } ]
      },
      "subject": {
        "reference": "Patient/4e523355-688a-4f95-b5ea-6fd93b1f2830"
      },
      "effectiveDateTime": "2026-01-15T07:59:00.000+00:00",
      "performer": [ {
        "reference": "Organization/example1",
        "display": "Hendricks Country Hospital"
      } ],
      "valueInteger": 1
    },
    "request": {
      "method": "PUT",
      "url": "Observation/50d65a32-b917-4912-9232-e38fc975fa8b"
    }
  }, {
    "fullUrl": "https://madie.cms.gov/Encounter/8e494617-cee0-4927-8720-11a870b813f7",
    "resource": {
      "resourceType": "Encounter",
      "id": "8e494617-cee0-4927-8720-11a870b813f7",
      "meta": {
        "profile": [ "http://hl7.org/fhir/us/qicore/StructureDefinition/qicore-encounter" ]
      },
      "status": "finished",
      "class": {
        "system": "http://terminology.hl7.org/CodeSystem/v3-ActCode",
        "code": "IMP",
        "display": "inpatient encounter"
      },
      "type": [ {
        "coding": [ {
          "system": "http://snomed.info/sct",
          "code": "183452005"
        } ]
      } ],
      "subject": {
        "reference": "Patient/4e523355-688a-4f95-b5ea-6fd93b1f2830"
      },
      "period": {
        "start": "2026-01-15T08:00:00.000+00:00",
        "end": "2026-01-20T08:15:00.000+00:00"
      },
      "reasonCode": [ {
        "coding": [ {
          "system": "http://snomed.info/sct",
          "code": "169826009",
          "display": "Single live birth from singleton pregnancy (finding)"
        } ]
      } ]
    },
    "request": {
      "method": "PUT",
      "url": "Encounter/8e494617-cee0-4927-8720-11a870b813f7"
    }
  }, {
    "fullUrl": "https://madie.cms.gov/Procedure/4f977cca-20bf-4271-adf2-ec495246e4e2",
    "resource": {
      "resourceType": "Procedure",
      "id": "4f977cca-20bf-4271-adf2-ec495246e4e2",
      "meta": {
        "profile": [ "http://hl7.org/fhir/us/qicore/StructureDefinition/qicore-procedure" ]
      },
      "extension": [ {
        "url": "http://hl7.org/fhir/us/qicore/StructureDefinition/qicore-recorded",
        "valueDateTime": "2014-04-05T13:35:00.000+00:00"
      } ],
      "status": "completed",
      "code": {
        "coding": [ {
          "system": "http://www.cms.gov/Medicare/Coding/ICD10",
          "code": "10D07Z3"
        } ]
      },
      "subject": {
        "reference": "Patient/4e523355-688a-4f95-b5ea-6fd93b1f2830"
      },
      "performedPeriod": {
        "start": "2026-01-15T08:10:00.000+00:00",
        "end": "2026-01-15T09:14:00.000+00:00"
      }
    },
    "request": {
      "method": "PUT",
      "url": "Procedure/4f977cca-20bf-4271-adf2-ec495246e4e2"
    }
  }, {
    "fullUrl": "https://madie.cms.gov/Condition/0a197cd5-e04e-4e37-a0fa-13648a958234",
    "resource": {
      "resourceType": "Condition",
      "id": "0a197cd5-e04e-4e37-a0fa-13648a958234",
      "meta": {
        "profile": [ "http://hl7.org/fhir/us/qicore/StructureDefinition/qicore-condition-problems-health-concerns" ]
      },
      "category": [ {
        "coding": [ {
          "system": "http://terminology.hl7.org/CodeSystem/condition-category",
          "code": "encounter-diagnosis",
          "display": "Encounter Diagnosis"
        } ]
      } ],
      "code": {
        "coding": [ {
          "system": "http://snomed.info/sct",
          "version": "2022-09",
          "code": "169826009",
          "display": "Single live birth (finding)",
          "userSelected": true
        } ]
      },
      "subject": {
        "reference": "Patient/4e523355-688a-4f95-b5ea-6fd93b1f2830"
      },
      "encounter": {
        "reference": "Encounter/8e494617-cee0-4927-8720-11a870b813f7"
      },
      "recordedDate": "2026-10-18T08:00:00.000+00:00"
    },
    "request": {
      "method": "PUT",
      "url": "Condition/0a197cd5-e04e-4e37-a0fa-13648a958234"
    }
  }, {
    "fullUrl": "https://madie.cms.gov/Coverage/aca28617-2f28-474b-b24d-df0930814fad",
    "resource": {
      "resourceType": "Coverage",
      "id": "aca28617-2f28-474b-b24d-df0930814fad",
      "meta": {
        "profile": [ "http://hl7.org/fhir/us/qicore/StructureDefinition/qicore-coverage" ]
      },
      "status": "active",
      "subscriberId": "523435",
      "beneficiary": {
        "reference": "Patient/4e523355-688a-4f95-b5ea-6fd93b1f2830"
      },
      "relationship": {
        "coding": [ {
          "system": "http://terminology.hl7.org/CodeSystem/subscriber-relationship",
          "code": "self"
        } ]
      },
      "payor": [ {
        "reference": "Organization/a1387720-d79d-473b-a382-aa1a61ca3da0"
      } ]
    },
    "request": {
      "method": "PUT",
      "url": "Coverage/aca28617-2f28-474b-b24d-df0930814fad"
    }
  }, {
    "fullUrl": "https://madie.cms.gov/Organization/a1387720-d79d-473b-a382-aa1a61ca3da0",
    "resource": {
      "resourceType": "Organization",
      "id": "a1387720-d79d-473b-a382-aa1a61ca3da0",
      "meta": {
        "profile": [ "http://hl7.org/fhir/us/qicore/StructureDefinition/qicore-organization" ]
      },
      "identifier": [ {
        "use": "temp",
        "system": "urn:oid:2.16.840.1.113883.4.4",
        "value": "21-3259825"
      } ],
      "active": true,
      "type": [ {
        "coding": [ {
          "system": "http://terminology.hl7.org/CodeSystem/organization-type",
          "code": "pay",
          "display": "Payer"
        } ]
      } ],
      "name": "Blue Cross Blue Shield of Texas",
      "telecom": [ {
        "system": "phone",
        "value": "(+1) 972-766-6900"
      } ],
      "address": [ {
        "use": "billing",
        "type": "postal",
        "line": [ "P.O. Box 660044" ],
        "city": "Dallas",
        "state": "TX",
        "postalCode": "75266-0044",
        "country": "USA"
      } ]
    },
    "request": {
      "method": "PUT",
      "url": "Organization/a1387720-d79d-473b-a382-aa1a61ca3da0"
    }
  }, {
    "fullUrl": "https://madie.cms.gov/Practitioner/64a4789d-0af2-4d0b-bde9-ad943e37943c",
    "resource": {
      "resourceType": "Practitioner",
      "id": "64a4789d-0af2-4d0b-bde9-ad943e37943c",
      "meta": {
        "profile": [ "http://hl7.org/fhir/us/qicore/StructureDefinition/qicore-practitioner" ]
      },
      "identifier": [ {
        "system": "http://hl7.org/fhir/sid/us-npi",
        "value": "1234567890"
      } ],
      "name": [ {
        "family": "Evil",
        "prefix": [ "Dr" ]
      } ]
    },
    "request": {
      "method": "PUT",
      "url": "Practitioner/64a4789d-0af2-4d0b-bde9-ad943e37943c"
    }
  }, {
    "fullUrl": "https://madie.cms.gov/MeasureReport/3b8d046e-897c-4759-b4ca-84bcc1b1e1ce",
    "resource": {
      "resourceType": "MeasureReport",
      "id": "3b8d046e-897c-4759-b4ca-84bcc1b1e1ce",
      "meta": {
        "profile": [ "http://hl7.org/fhir/us/cqfmeasures/StructureDefinition/test-case-cqfm" ]
      },
      "contained": [ {
        "resourceType": "Parameters",
        "id": "c06ab203-011d-4bb3-926e-7f3306599ba3-parameters",
        "parameter": [ {
          "name": "subject",
          "valueString": "4e523355-688a-4f95-b5ea-6fd93b1f2830"
        } ]
      } ],
      "extension": [ {
        "url": "http://hl7.org/fhir/StructureDefinition/cqf-inputParameters",
        "valueReference": {
          "reference": "#c06ab203-011d-4bb3-926e-7f3306599ba3-parameters"
        }
      }, {
        "url": "http://hl7.org/fhir/us/cqfmeasures/StructureDefinition/cqfm-testCaseDescription",
        "valueMarkdown": "Passes: IP, DENOM Pass, Pt is 27 years of age,  encounter dx delivery of singleton, gravida=1authored less than 42 weeks prior to delivery, Delivery date Estimated Relevant DateTime is equal to the Time of Delivery\n"
      } ],
      "modifierExtension": [ {
        "url": "http://hl7.org/fhir/us/cqfmeasures/StructureDefinition/cqfm-isTestCase",
        "valueBoolean": true
      } ],
      "status": "complete",
      "type": "individual",
      "measure": "https://madie.cms.gov/Measure/CMS0334FHIRPCCesareanBirth",
      "period": {
        "start": "2026-01-01",
        "end": "2026-12-31"
      },
      "group": [ {
        "id": "Group_1",
        "population": [ {
          "id": "InitialPopulation_1",
          "code": {
            "coding": [ {
              "system": "http://terminology.hl7.org/CodeSystem/measure-population",
              "code": "initial-population",
              "display": "Initial Population"
            } ]
          },
          "count": 1
        }, {
          "id": "Denominator_1",
          "code": {
            "coding": [ {
              "system": "http://terminology.hl7.org/CodeSystem/measure-population",
              "code": "denominator",
              "display": "Denominator"
            } ]
          },
          "count": 1
        }, {
          "id": "DenominatorExclusion_1",
          "code": {
            "coding": [ {
              "system": "http://terminology.hl7.org/CodeSystem/measure-population",
              "code": "denominator-exclusion",
              "display": "Denominator Exclusion"
            } ]
          },
          "count": 0
        }, {
          "id": "Numerator_1",
          "code": {
            "coding": [ {
              "system": "http://terminology.hl7.org/CodeSystem/measure-population",
              "code": "numerator",
              "display": "Numerator"
            } ]
          },
          "count": 0
        } ],
        "measureScore": {
          "value": 0.0
        }
      } ],
      "evaluatedResource": [ {
        "reference": "Patient/4e523355-688a-4f95-b5ea-6fd93b1f2830"
      }, {
        "reference": "Observation/46657261-4c1b-4748-a91a-62179b332831"
      }, {
        "reference": "Observation/3c04fd4f-fcf6-4202-a381-b5f173ffeabd"
      }, {
        "reference": "Observation/50d65a32-b917-4912-9232-e38fc975fa8b"
      }, {
        "reference": "Encounter/8e494617-cee0-4927-8720-11a870b813f7"
      }, {
        "reference": "Procedure/4f977cca-20bf-4271-adf2-ec495246e4e2"
      }, {
        "reference": "Condition/0a197cd5-e04e-4e37-a0fa-13648a958234"
      }, {
        "reference": "Coverage/aca28617-2f28-474b-b24d-df0930814fad"
      }, {
        "reference": "Organization/a1387720-d79d-473b-a382-aa1a61ca3da0"
      }, {
        "reference": "Practitioner/64a4789d-0af2-4d0b-bde9-ad943e37943c"
      } ]
    },
    "request": {
      "method": "PUT",
      "url": "MeasureReport/3b8d046e-897c-4759-b4ca-84bcc1b1e1ce"
    }
  } ]
}