{
  "resourceType": "Bundle",
  "id": "DENOMPass-RVOpioidActive",
  "type": "transaction",
  "entry": [ {
    "fullUrl": "https://madie.cms.gov/Encounter/320fb454-727c-404e-b6ee-e4b5b240e4dc",
    "resource": {
      "resourceType": "Encounter",
      "id": "320fb454-727c-404e-b6ee-e4b5b240e4dc",
      "meta": {
        "profile": [ "http://hl7.org/fhir/us/qicore/StructureDefinition/qicore-encounter" ]
      },
      "status": "finished",
      "class": {
        "system": "http://terminology.hl7.org/CodeSystem/v3-ActCode",
        "code": "IMP",
        "display": "inpatient encounter"
      },
      "type": [ {
        "coding": [ {
          "system": "http://snomed.info/sct",
          "code": "183452005"
        } ]
      } ],
      "subject": {
        "reference": "Patient/0653f9dc-8461-484e-a901-f17709f04776"
      },
      "period": {
        "start": "2026-11-12T08:00:00.000+00:00",
        "end": "2026-11-18T08:01:00.000+00:00"
      },
      "diagnosis": [ {
        "extension": [ {
          "url": "http://hl7.org/fhir/us/qicore/StructureDefinition/qicore-encounter-diagnosisPresentOnAdmission",
          "valueCodeableConcept": {
            "coding": [ {
              "system": "https://www.cms.gov/Medicare/Medicare-Fee-for-Service-Payment/HospitalAcqCond/Coding",
              "code": "Y"
            } ]
          }
        } ],
        "condition": {
          "reference": "Condition/50c0141b-fdc3-48d4-870d-c49519c9bb62"
        }
      }, {
        "extension": [ {
          "url": "http://hl7.org/fhir/us/qicore/StructureDefinition/qicore-encounter-diagnosisPresentOnAdmission",
          "valueCodeableConcept": {
            "coding": [ {
              "system": "https://www.cms.gov/Medicare/Medicare-Fee-for-Service-Payment/HospitalAcqCond/Coding",
              "code": "Y"
            } ]
          }
        } ],
        "condition": {
          "reference": "Condition/d3a5f3ec-d67b-4fbb-b5fa-ad8d227aeed6"
        }
      } ]
    },
    "request": {
      "method": "PUT",
      "url": "Encounter/320fb454-727c-404e-b6ee-e4b5b240e4dc"
    }
  }, {
    "fullUrl": "https://madie.cms.gov/Condition/d3a5f3ec-d67b-4fbb-b5fa-ad8d227aeed6",
    "resource": {
      "resourceType": "Condition",
      "id": "d3a5f3ec-d67b-4fbb-b5fa-ad8d227aeed6",
      "meta": {
        "profile": [ "http://hl7.org/fhir/us/qicore/StructureDefinition/qicore-condition" ]
      },
      "clinicalStatus": {
        "coding": [ {
          "system": "http://terminology.hl7.org/CodeSystem/condition-clinical",
          "code": "active"
        } ]
      },
      "verificationStatus": {
        "coding": [ {
          "system": "http://terminology.hl7.org/CodeSystem/condition-ver-status",
          "code": "confirmed"
        } ]
      },
      "category": [ {
        "coding": [ {
          "system": "http://terminology.hl7.org/CodeSystem/condition-category",
          "code": "encounter-diagnosis",
          "display": "Encounter Diagnosis"
        } ]
      } ],
      "code": {
        "coding": [ {
          "system": "http://hl7.org/fhir/sid/icd-10-cm",
          "code": "F06.34"
        } ]
      },
      "subject": {
        "reference": "Patient/0653f9dc-8461-484e-a901-f17709f04776"
      },
      "encounter": {
        "reference": "Encounter/320fb454-727c-404e-b6ee-e4b5b240e4dc"
      }
    },
    "request": {
      "method": "PUT",
      "url": "Condition/d3a5f3ec-d67b-4fbb-b5fa-ad8d227aeed6"
    }
  }, {
    "fullUrl": "https://madie.cms.gov/Condition/50c0141b-fdc3-48d4-870d-c49519c9bb62",
    "resource": {
      "resourceType": "Condition",
      "id": "50c0141b-fdc3-48d4-870d-c49519c9bb62",
      "meta": {
        "profile": [ "http://hl7.org/fhir/us/qicore/StructureDefinition/qicore-condition" ]
      },
      "clinicalStatus": {
        "coding": [ {
          "system": "http://terminology.hl7.org/CodeSystem/condition-clinical",
          "code": "active"
        } ]
      },
      "verificationStatus": {
        "coding": [ {
          "system": "http://terminology.hl7.org/CodeSystem/condition-ver-status",
          "code": "confirmed"
        } ]
      },
      "category": [ {
        "coding": [ {
          "system": "http://terminology.hl7.org/CodeSystem/condition-category",
          "code": "encounter-diagnosis",
          "display": "Encounter Diagnosis"
        } ]
      } ],
      "code": {
        "coding": [ {
          "system": "http://hl7.org/fhir/sid/icd-10-cm",
          "code": "D61.09"
        } ]
      },
      "subject": {
        "reference": "Patient/0653f9dc-8461-484e-a901-f17709f04776"
      },
      "encounter": {
        "reference": "Encounter/320fb454-727c-404e-b6ee-e4b5b240e4dc"
      }
    },
    "request": {
      "method": "PUT",
      "url": "Condition/50c0141b-fdc3-48d4-870d-c49519c9bb62"
    }
  }, {
    "fullUrl": "https://madie.cms.gov/Patient/0653f9dc-8461-484e-a901-f17709f04776",
    "resource": {
      "resourceType": "Patient",
      "id": "0653f9dc-8461-484e-a901-f17709f04776",
      "meta": {
        "profile": [ "http://hl7.org/fhir/us/qicore/StructureDefinition/qicore-patient" ]
      },
      "extension": [ {
        "url": "http://hl7.org/fhir/us/core/StructureDefinition/us-core-race",
        "extension": [ {
          "url": "ombCategory",
          "valueCoding": {
            "system": "urn:oid:2.16.840.1.113883.6.238",
            "code": "2054-5",
            "display": "Black or African American",
            "userSelected": true
          }
        }, {
          "url": "text",
          "valueString": "Black or African American"
        } ]
      }, {
        "url": "http://hl7.org/fhir/us/core/StructureDefinition/us-core-ethnicity",
        "extension": [ {
          "url": "ombCategory",
          "valueCoding": {
            "system": "urn:oid:2.16.840.1.113883.6.238",
            "code": "2186-5",
            "display": "Not Hispanic or Latino",
            "userSelected": true
          }
        }, {
          "url": "text",
          "valueString": "Not Hispanic or Latino"
        } ]
      } ],
      "identifier": [ {
        "type": {
          "coding": [ {
            "system": "http://terminology.hl7.org/CodeSystem/v2-0203",
            "code": "MR"
          } ]
        },
        "system": "https://bonnie-fhir.healthit.gov/",
        "value": "61152a3b98086b7a79cbd7c1"
      } ],
      "active": true,
      "name": [ {
        "use": "usual",
        "family": "DENEXPass",
        "given": [ "RVOpioidActive" ]
      } ],
      "gender": "male",
      "birthDate": "1964-12-11"
    },
    "request": {
      "method": "PUT",
      "url": "Patient/0653f9dc-8461-484e-a901-f17709f04776"
    }
  }, {
    "fullUrl": "https://madie.cms.gov/MedicationRequest/7a6ab9d2-48ac-4717-b40d-4fdc6196b353",
    "resource": {
      "resourceType": "MedicationRequest",
      "id": "7a6ab9d2-48ac-4717-b40d-4fdc6196b353",
      "meta": {
        "profile": [ "http://hl7.org/fhir/us/qicore/StructureDefinition/qicore-medicationrequest" ]
      },
      "status": "active",
      "intent": "order",
      "medicationCodeableConcept": {
        "coding": [ {
          "system": "http://www.nlm.nih.gov/research/umls/rxnorm",
          "code": "1010600"
        } ]
      },
      "subject": {
        "reference": "Patient/0653f9dc-8461-484e-a901-f17709f04776"
      },
      "authoredOn": "2026-11-12T08:00:00.000+00:00",
      "requester": {
        "reference": "Patient/0653f9dc-8461-484e-a901-f17709f04776"
      }
    },
    "request": {
      "method": "PUT",
      "url": "MedicationRequest/7a6ab9d2-48ac-4717-b40d-4fdc6196b353"
    }
  }, {
    "fullUrl": "https://madie.cms.gov/MeasureReport/2d7280f0-6a18-4665-861d-0bbb57384e39",
    "resource": {
      "resourceType": "MeasureReport",
      "id": "2d7280f0-6a18-4665-861d-0bbb57384e39",
      "meta": {
        "profile": [ "http://hl7.org/fhir/us/cqfmeasures/StructureDefinition/test-case-cqfm" ]
      },
      "contained": [ {
        "resourceType": "Parameters",
        "id": "2fd8f011-837d-41d8-bb7f-b4a1104f5e61-parameters",
        "parameter": [ {
          "name": "subject",
          "valueString": "0653f9dc-8461-484e-a901-f17709f04776"
        } ]
      } ],
      "extension": [ {
        "url": "http://hl7.org/fhir/StructureDefinition/cqf-inputParameters",
        "valueReference": {
          "reference": "#2fd8f011-837d-41d8-bb7f-b4a1104f5e61-parameters"
        }
      }, {
        "url": "http://hl7.org/fhir/us/cqfmeasures/StructureDefinition/cqfm-testCaseDescription",
        "valueMarkdown": "Encounter with Opioid active on admission (relevant datetime is same as start of encounter relevant period. Meets RV logic. "
      } ],
      "modifierExtension": [ {
        "url": "http://hl7.org/fhir/us/cqfmeasures/StructureDefinition/cqfm-isTestCase",
        "valueBoolean": true
      } ],
      "status": "complete",
      "type": "individual",
      "measure": "https://madie.cms.gov/Measure/CMS1017FHIRHHFI",
      "period": {
        "start": "2026-01-01",
        "end": "2026-12-31"
      },
      "group": [ {
        "id": "Group_1",
        "population": [ {
          "id": "InitialPopulation_1",
          "code": {
            "coding": [ {
              "system": "http://terminology.hl7.org/CodeSystem/measure-population",
              "code": "initial-population",
              "display": "Initial Population"
            } ]
          },
          "count": 1
        }, {
          "id": "Denominator_1",
          "code": {
            "coding": [ {
              "system": "http://terminology.hl7.org/CodeSystem/measure-population",
              "code": "denominator",
              "display": "Denominator"
            } ]
          },
          "count": 1
        }, {
          "id": "DenominatorExclusion_1",
          "code": {
            "coding": [ {
              "system": "http://terminology.hl7.org/CodeSystem/measure-population",
              "code": "denominator-exclusion",
              "display": "Denominator Exclusion"
            } ]
          },
          "count": 0
        }, {
          "id": "Numerator_1",
          "code": {
            "coding": [ {
              "system": "http://terminology.hl7.org/CodeSystem/measure-population",
              "code": "numerator",
              "display": "Numerator"
            } ]
          },
          "count": 0
        }, {
          "id": "NumeratorExclusion_1",
          "code": {
            "coding": [ {
              "system": "http://terminology.hl7.org/CodeSystem/measure-population",
              "code": "numerator-exclusion",
              "display": "Numerator Exclusion"
            } ]
          },
          "count": 0
        }, {
          "id": "MeasureObservation_1_1_1",
          "code": {
            "coding": [ {
              "system": "http://terminology.hl7.org/CodeSystem/measure-population",
              "code": "measure-observation",
              "display": "Measure Observation"
            } ]
          },
          "count": 6
        } ],
        "measureScore": {
          "value": 0.0
        }
      } ],
      "evaluatedResource": [ {
        "reference": "Encounter/320fb454-727c-404e-b6ee-e4b5b240e4dc"
      }, {
        "reference": "Condition/d3a5f3ec-d67b-4fbb-b5fa-ad8d227aeed6"
      }, {
        "reference": "Condition/50c0141b-fdc3-48d4-870d-c49519c9bb62"
      }, {
        "reference": "Patient/0653f9dc-8461-484e-a901-f17709f04776"
      }, {
        "reference": "MedicationRequest/7a6ab9d2-48ac-4717-b40d-4fdc6196b353"
      } ]
    },
    "request": {
      "method": "PUT",
      "url": "MeasureReport/2d7280f0-6a18-4665-861d-0bbb57384e39"
    }
  } ]
}