{
  "resourceType": "Bundle",
  "id": "NUMERFail-KCCQ12FollowUp181Days",
  "type": "collection",
  "entry": [ {
    "fullUrl": "https://madie.cms.gov/Patient/2597bbd1-d942-4a9f-a796-c7c6b310ea88",
    "resource": {
      "resourceType": "Patient",
      "id": "2597bbd1-d942-4a9f-a796-c7c6b310ea88",
      "meta": {
        "profile": [ "http://hl7.org/fhir/us/qicore/StructureDefinition/qicore-patient" ]
      },
      "extension": [ {
        "url": "http://hl7.org/fhir/us/core/StructureDefinition/us-core-race",
        "extension": [ {
          "url": "ombCategory",
          "valueCoding": {
            "system": "urn:oid:2.16.840.1.113883.6.238",
            "code": "2028-9",
            "display": "Asian"
          }
        }, {
          "url": "text",
          "valueString": "Asian"
        } ]
      }, {
        "url": "http://hl7.org/fhir/us/core/StructureDefinition/us-core-ethnicity",
        "extension": [ {
          "url": "ombCategory",
          "valueCoding": {
            "system": "urn:oid:2.16.840.1.113883.6.238",
            "code": "2135-2",
            "display": "Hispanic or Latino"
          }
        }, {
          "url": "text",
          "valueString": "Hispanic or Latino"
        } ]
      } ],
      "identifier": [ {
        "system": "http://hospital.smarthealthit.org",
        "value": "999999995"
      } ],
      "name": [ {
        "family": "Bertha",
        "given": [ "Betty" ]
      } ],
      "gender": "female",
      "birthDate": "2008-01-01"
    }
  }, {
    "fullUrl": "https://madie.cms.gov/Encounter/ffbcc106-cd11-4038-a13f-3fc34c081ac8",
    "resource": {
      "resourceType": "Encounter",
      "id": "ffbcc106-cd11-4038-a13f-3fc34c081ac8",
      "meta": {
        "profile": [ "http://hl7.org/fhir/us/qicore/StructureDefinition/qicore-encounter" ]
      },
      "status": "finished",
      "class": {
        "system": "http://terminology.hl7.org/CodeSystem/v3-ActCode",
        "code": "AMB",
        "display": "ambulatory"
      },
      "type": [ {
        "coding": [ {
          "system": "http://snomed.info/sct",
          "code": "185317003",
          "display": "Telephone encounter (procedure)"
        } ]
      } ],
      "subject": {
        "reference": "Patient/2597bbd1-d942-4a9f-a796-c7c6b310ea88"
      },
      "period": {
        "start": "2026-01-01T01:00:00.000+00:00",
        "end": "2026-01-01T01:15:00.000+00:00"
      }
    }
  }, {
    "fullUrl": "https://madie.cms.gov/Encounter/31560191-75c7-4fec-86e2-4c5ea7b5c5dd",
    "resource": {
      "resourceType": "Encounter",
      "id": "31560191-75c7-4fec-86e2-4c5ea7b5c5dd",
      "meta": {
        "profile": [ "http://hl7.org/fhir/us/qicore/StructureDefinition/qicore-encounter" ]
      },
      "status": "finished",
      "class": {
        "system": "http://terminology.hl7.org/CodeSystem/v3-ActCode",
        "code": "AMB",
        "display": "ambulatory"
      },
      "type": [ {
        "coding": [ {
          "system": "http://snomed.info/sct",
          "code": "185317003",
          "display": "Telephone encounter (procedure)"
        } ]
      } ],
      "subject": {
        "reference": "Patient/2597bbd1-d942-4a9f-a796-c7c6b310ea88"
      },
      "period": {
        "start": "2026-01-02T01:00:00.000+00:00",
        "end": "2026-01-02T01:15:00.000+00:00"
      }
    }
  }, {
    "fullUrl": "https://madie.cms.gov/Condition/11e50ca7-2898-4fda-88ea-5926c7900868",
    "resource": {
      "resourceType": "Condition",
      "id": "11e50ca7-2898-4fda-88ea-5926c7900868",
      "meta": {
        "profile": [ "http://hl7.org/fhir/us/qicore/StructureDefinition/qicore-condition-problems-health-concerns" ]
      },
      "clinicalStatus": {
        "coding": [ {
          "system": "http://terminology.hl7.org/CodeSystem/condition-clinical",
          "code": "active"
        } ]
      },
      "category": [ {
        "coding": [ {
          "system": "http://terminology.hl7.org/CodeSystem/condition-category",
          "code": "problem-list-item",
          "display": "Problem List Item"
        } ]
      } ],
      "code": {
        "coding": [ {
          "system": "http://snomed.info/sct",
          "version": "http://snomed.info/sct/731000124108/version/20250301",
          "code": "10091002",
          "display": "High output heart failure (disorder)"
        } ]
      },
      "subject": {
        "reference": "Patient/2597bbd1-d942-4a9f-a796-c7c6b310ea88"
      },
      "onsetDateTime": "2025-12-31T23:59:00.000+00:00"
    }
  }, {
    "fullUrl": "https://madie.cms.gov/Observation/08da65a7-4c5c-4c37-ac96-0176f436e14b",
    "resource": {
      "resourceType": "Observation",
      "id": "08da65a7-4c5c-4c37-ac96-0176f436e14b",
      "meta": {
        "profile": [ "http://hl7.org/fhir/us/qicore/StructureDefinition/qicore-observation-screening-assessment" ]
      },
      "status": "final",
      "category": [ {
        "coding": [ {
          "system": "http://terminology.hl7.org/CodeSystem/observation-category",
          "code": "survey",
          "display": "survey"
        } ],
        "text": "survey"
      } ],
      "code": {
        "coding": [ {
          "system": "http://loinc.org",
          "code": "85609-6",
          "display": "Emotional score [MLHFQ]"
        } ]
      },
      "subject": {
        "reference": "Patient/2597bbd1-d942-4a9f-a796-c7c6b310ea88"
      },
      "effectivePeriod": {
        "start": "2026-01-01T23:00:00.000+00:00",
        "end": "2026-01-01T23:59:00.000+00:00"
      },
      "valueInteger": 4
    }
  }, {
    "fullUrl": "https://madie.cms.gov/Observation/e8f29c5e-70d5-4388-8709-58819d95c1e6",
    "resource": {
      "resourceType": "Observation",
      "id": "e8f29c5e-70d5-4388-8709-58819d95c1e6",
      "meta": {
        "profile": [ "http://hl7.org/fhir/us/qicore/StructureDefinition/qicore-observation-screening-assessment" ]
      },
      "status": "final",
      "category": [ {
        "coding": [ {
          "system": "http://terminology.hl7.org/CodeSystem/observation-category",
          "code": "survey",
          "display": "survey"
        } ],
        "text": "survey"
      } ],
      "code": {
        "coding": [ {
          "system": "http://loinc.org",
          "code": "85609-6",
          "display": "Emotional score [MLHFQ]"
        } ]
      },
      "subject": {
        "reference": "Patient/2597bbd1-d942-4a9f-a796-c7c6b310ea88"
      },
      "effectivePeriod": {
        "start": "2026-06-30T23:00:00.000+00:00",
        "end": "2026-06-30T23:59:00.000+00:00"
      },
      "valueInteger": 4
    }
  }, {
    "fullUrl": "https://madie.cms.gov/Observation/b3861cba-de18-44d6-9ce4-badd1a43cafa",
    "resource": {
      "resourceType": "Observation",
      "id": "b3861cba-de18-44d6-9ce4-badd1a43cafa",
      "meta": {
        "profile": [ "http://hl7.org/fhir/us/qicore/StructureDefinition/qicore-observation-screening-assessment" ]
      },
      "status": "final",
      "category": [ {
        "coding": [ {
          "system": "http://terminology.hl7.org/CodeSystem/observation-category",
          "code": "survey",
          "display": "survey"
        } ],
        "text": "survey"
      } ],
      "code": {
        "coding": [ {
          "system": "http://loinc.org",
          "code": "85618-7",
          "display": "Physical score [MLHFQ]"
        } ]
      },
      "subject": {
        "reference": "Patient/2597bbd1-d942-4a9f-a796-c7c6b310ea88"
      },
      "effectivePeriod": {
        "start": "2026-01-01T23:00:00.000+00:00",
        "end": "2026-01-01T23:59:00.000+00:00"
      },
      "valueInteger": 4
    }
  }, {
    "fullUrl": "https://madie.cms.gov/Observation/9383bc62-96c9-4eef-987a-4f6ef10648ca",
    "resource": {
      "resourceType": "Observation",
      "id": "9383bc62-96c9-4eef-987a-4f6ef10648ca",
      "meta": {
        "profile": [ "http://hl7.org/fhir/us/qicore/StructureDefinition/qicore-observation-screening-assessment" ]
      },
      "status": "final",
      "category": [ {
        "coding": [ {
          "system": "http://terminology.hl7.org/CodeSystem/observation-category",
          "code": "survey",
          "display": "survey"
        } ],
        "text": "survey"
      } ],
      "code": {
        "coding": [ {
          "system": "http://loinc.org",
          "code": "85618-7",
          "display": "Physical score [MLHFQ]"
        } ]
      },
      "subject": {
        "reference": "Patient/2597bbd1-d942-4a9f-a796-c7c6b310ea88"
      },
      "effectivePeriod": {
        "start": "2026-05-30T23:00:00.000+00:00",
        "end": "2026-05-30T23:59:00.000+00:00"
      },
      "valueInteger": 4
    }
  }, {
    "fullUrl": "https://madie.cms.gov/MeasureReport/479dad43-939b-4699-99bc-3f759504e163",
    "resource": {
      "resourceType": "MeasureReport",
      "id": "479dad43-939b-4699-99bc-3f759504e163",
      "meta": {
        "profile": [ "http://hl7.org/fhir/us/cqfmeasures/StructureDefinition/test-case-cqfm" ]
      },
      "contained": [ {
        "resourceType": "Parameters",
        "id": "d500f3f5-799b-4918-9b5b-38fe942e6538-parameters",
        "parameter": [ {
          "name": "subject",
          "valueString": "2597bbd1-d942-4a9f-a796-c7c6b310ea88"
        } ]
      } ],
      "extension": [ {
        "url": "http://hl7.org/fhir/StructureDefinition/cqf-inputParameters",
        "valueReference": {
          "reference": "#d500f3f5-799b-4918-9b5b-38fe942e6538-parameters"
        }
      }, {
        "url": "http://hl7.org/fhir/us/cqfmeasures/StructureDefinition/cqfm-testCaseDescription",
        "valueMarkdown": "Patient has all KCCQ12 with results but one follow up occurs 181 days after initial follow up."
      } ],
      "modifierExtension": [ {
        "url": "http://hl7.org/fhir/us/cqfmeasures/StructureDefinition/cqfm-isTestCase",
        "valueBoolean": true
      } ],
      "status": "complete",
      "type": "individual",
      "measure": "https://madie.cms.gov/Measure/CMS90FHIRFSAforHeartFailure",
      "period": {
        "start": "2026-01-01",
        "end": "2026-12-31"
      },
      "group": [ {
        "id": "Group_1",
        "population": [ {
          "id": "InitialPopulation_1",
          "code": {
            "coding": [ {
              "system": "http://terminology.hl7.org/CodeSystem/measure-population",
              "code": "initial-population",
              "display": "Initial Population"
            } ]
          },
          "count": 1
        }, {
          "id": "Denominator_1",
          "code": {
            "coding": [ {
              "system": "http://terminology.hl7.org/CodeSystem/measure-population",
              "code": "denominator",
              "display": "Denominator"
            } ]
          },
          "count": 1
        }, {
          "id": "DenominatorExclusion_1",
          "code": {
            "coding": [ {
              "system": "http://terminology.hl7.org/CodeSystem/measure-population",
              "code": "denominator-exclusion",
              "display": "Denominator Exclusion"
            } ]
          },
          "count": 0
        }, {
          "id": "Numerator_1",
          "code": {
            "coding": [ {
              "system": "http://terminology.hl7.org/CodeSystem/measure-population",
              "code": "numerator",
              "display": "Numerator"
            } ]
          },
          "count": 0
        } ],
        "measureScore": {
          "value": 1.0
        }
      } ],
      "evaluatedResource": [ {
        "reference": "Patient/2597bbd1-d942-4a9f-a796-c7c6b310ea88"
      }, {
        "reference": "Encounter/ffbcc106-cd11-4038-a13f-3fc34c081ac8"
      }, {
        "reference": "Encounter/31560191-75c7-4fec-86e2-4c5ea7b5c5dd"
      }, {
        "reference": "Condition/11e50ca7-2898-4fda-88ea-5926c7900868"
      }, {
        "reference": "Observation/08da65a7-4c5c-4c37-ac96-0176f436e14b"
      }, {
        "reference": "Observation/e8f29c5e-70d5-4388-8709-58819d95c1e6"
      }, {
        "reference": "Observation/b3861cba-de18-44d6-9ce4-badd1a43cafa"
      }, {
        "reference": "Observation/9383bc62-96c9-4eef-987a-4f6ef10648ca"
      } ]
    }
  } ]
}