{
  "resourceType": "Bundle",
  "id": "6109650598086b538055a10b",
  "type": "transaction",
  "entry": [ {
    "fullUrl": "https://madie.cms.gov/Patient/f856f2c1-b73a-4507-a576-1327e4102bc0",
    "resource": {
      "resourceType": "Patient",
      "id": "f856f2c1-b73a-4507-a576-1327e4102bc0",
      "meta": {
        "profile": [ "http://hl7.org/fhir/us/qicore/StructureDefinition/qicore-patient" ]
      },
      "text": {
        "status": "generated",
        "div": "<div xmlns=\"http://www.w3.org/1999/xhtml\"><div class=\"hapiHeaderText\">RiskAssessTeleHealthEnc <b>NUMERPASS </b></div><table class=\"hapiPropertyTable\"><tbody><tr><td>Identifier</td><td>374153caaabf23f7380999987d7ce6b5a9a8f14b3694ec1b6bfa1c3f77535a55</td></tr><tr><td>Date of birth</td><td><span>20 November 2005</span></td></tr></tbody></table></div>"
      },
      "extension": [ {
        "url": "http://hl7.org/fhir/us/core/StructureDefinition/us-core-race",
        "extension": [ {
          "url": "ombCategory",
          "valueCoding": {
            "system": "urn:oid:2.16.840.1.113883.6.238",
            "code": "2106-3",
            "display": "White",
            "userSelected": true
          }
        }, {
          "url": "text",
          "valueString": "White"
        } ]
      }, {
        "url": "http://hl7.org/fhir/us/core/StructureDefinition/us-core-ethnicity",
        "extension": [ {
          "url": "ombCategory",
          "valueCoding": {
            "system": "urn:oid:2.16.840.1.113883.6.238",
            "code": "2135-2",
            "display": "Hispanic or Latino",
            "userSelected": true
          }
        }, {
          "url": "text",
          "valueString": "Hispanic or Latino"
        } ]
      } ],
      "identifier": [ {
        "type": {
          "coding": [ {
            "system": "http://terminology.hl7.org/CodeSystem/v2-0203",
            "code": "MR"
          } ]
        },
        "system": "https://bonnie-fhir.healthit.gov/",
        "value": "6109650598086b538055a10b"
      } ],
      "active": true,
      "name": [ {
        "use": "usual",
        "family": "NUMPass",
        "given": [ "RiskAssessTelephoneEnc" ]
      } ],
      "gender": "male",
      "birthDate": "2016-11-20"
    },
    "request": {
      "method": "PUT",
      "url": "Patient/f856f2c1-b73a-4507-a576-1327e4102bc0"
    }
  }, {
    "fullUrl": "https://madie.cms.gov/Encounter/92e202f6-ae9e-4664-9d79-2155eafcf154",
    "resource": {
      "resourceType": "Encounter",
      "id": "92e202f6-ae9e-4664-9d79-2155eafcf154",
      "meta": {
        "profile": [ "http://hl7.org/fhir/us/qicore/StructureDefinition/qicore-encounter" ]
      },
      "status": "finished",
      "class": {
        "system": "http://terminology.hl7.org/CodeSystem/v3-ActCode",
        "code": "AMB",
        "display": "ambulatory",
        "userSelected": true
      },
      "type": [ {
        "coding": [ {
          "system": "http://www.ama-assn.org/go/cpt",
          "code": "98966"
        } ]
      } ],
      "subject": {
        "reference": "Patient/f856f2c1-b73a-4507-a576-1327e4102bc0"
      },
      "period": {
        "start": "2026-01-02T08:30:00.000+00:00",
        "end": "2026-01-04T09:00:00.000+00:00"
      },
      "length": {
        "value": 2.0,
        "unit": "days"
      },
      "reasonCode": [ {
        "coding": [ {
          "system": "http://snomed.info/sct",
          "version": "2023-09",
          "code": "191610000",
          "display": "Recurrent major depressive episodes, mild (disorder)",
          "userSelected": true
        } ]
      } ],
      "diagnosis": [ {
        "condition": {
          "reference": "Condition/46a22113-bcc3-4516-a58b-8819568708f1"
        }
      } ]
    },
    "request": {
      "method": "PUT",
      "url": "Encounter/92e202f6-ae9e-4664-9d79-2155eafcf154"
    }
  }, {
    "fullUrl": "https://madie.cms.gov/Condition/46a22113-bcc3-4516-a58b-8819568708f1",
    "resource": {
      "resourceType": "Condition",
      "id": "46a22113-bcc3-4516-a58b-8819568708f1",
      "meta": {
        "profile": [ "http://hl7.org/fhir/us/qicore/StructureDefinition/qicore-condition" ]
      },
      "clinicalStatus": {
        "coding": [ {
          "system": "http://terminology.hl7.org/CodeSystem/condition-clinical",
          "code": "active"
        } ]
      },
      "verificationStatus": {
        "coding": [ {
          "system": "http://terminology.hl7.org/CodeSystem/condition-ver-status",
          "code": "confirmed"
        } ]
      },
      "category": [ {
        "coding": [ {
          "system": "http://terminology.hl7.org/CodeSystem/condition-category",
          "code": "encounter-diagnosis",
          "display": "encounter-diagnosis",
          "userSelected": true
        } ]
      } ],
      "code": {
        "coding": [ {
          "system": "http://snomed.info/sct",
          "code": "10811161000119107",
          "userSelected": true
        } ]
      },
      "subject": {
        "reference": "Patient/f856f2c1-b73a-4507-a576-1327e4102bc0"
      },
      "recordedDate": "2026-01-02T08:30:00.000+00:00"
    },
    "request": {
      "method": "PUT",
      "url": "Condition/46a22113-bcc3-4516-a58b-8819568708f1"
    }
  }, {
    "fullUrl": "https://madie.cms.gov/Procedure/4c62016f-db33-4577-9749-5072ded1c3b4",
    "resource": {
      "resourceType": "Procedure",
      "id": "4c62016f-db33-4577-9749-5072ded1c3b4",
      "meta": {
        "profile": [ "http://hl7.org/fhir/us/qicore/StructureDefinition/qicore-procedure" ]
      },
      "extension": [ {
        "url": "http://hl7.org/fhir/us/qicore/StructureDefinition/qicore-recorded",
        "valueDateTime": "2026-01-03T08:05:00.000+00:00"
      } ],
      "status": "completed",
      "code": {
        "coding": [ {
          "system": "http://snomed.info/sct",
          "code": "225337009",
          "display": "Suicide risk assessment (procedure)",
          "userSelected": true
        } ]
      },
      "subject": {
        "reference": "Patient/f856f2c1-b73a-4507-a576-1327e4102bc0"
      },
      "performedDateTime": "2026-01-03T08:05:00.000+00:00"
    },
    "request": {
      "method": "PUT",
      "url": "Procedure/4c62016f-db33-4577-9749-5072ded1c3b4"
    }
  }, {
    "fullUrl": "https://madie.cms.gov/Coverage/ddb0c57e-c867-42b1-bdc9-7091b903603f",
    "resource": {
      "resourceType": "Coverage",
      "id": "ddb0c57e-c867-42b1-bdc9-7091b903603f",
      "meta": {
        "profile": [ "http://hl7.org/fhir/us/qicore/StructureDefinition/qicore-coverage" ]
      },
      "status": "active",
      "type": {
        "coding": [ {
          "system": "https://nahdo.org/sopt",
          "version": "9.2",
          "code": "1",
          "display": "MEDICARE",
          "userSelected": true
        } ]
      },
      "beneficiary": {
        "reference": "Patient/f856f2c1-b73a-4507-a576-1327e4102bc0"
      },
      "period": {
        "start": "2026-01-02T08:30:00.000+00:00",
        "end": "2026-11-04T09:00:00.000+00:00"
      },
      "payor": [ {
        "reference": "Organization/924a4d04-abd2-4a84-a50b-e8f8c8cceb69"
      } ]
    },
    "request": {
      "method": "PUT",
      "url": "Coverage/ddb0c57e-c867-42b1-bdc9-7091b903603f"
    }
  }, {
    "fullUrl": "https://madie.cms.gov/Organization/924a4d04-abd2-4a84-a50b-e8f8c8cceb69",
    "resource": {
      "resourceType": "Organization",
      "id": "924a4d04-abd2-4a84-a50b-e8f8c8cceb69",
      "meta": {
        "profile": [ "http://hl7.org/fhir/us/qicore/StructureDefinition/qicore-organization" ]
      },
      "identifier": [ {
        "use": "temp",
        "system": "urn:oid:2.16.840.1.113883.4.4",
        "value": "21-3259825"
      } ],
      "active": true,
      "type": [ {
        "coding": [ {
          "system": "http://terminology.hl7.org/CodeSystem/organization-type",
          "code": "pay",
          "display": "Payer"
        } ]
      } ],
      "name": "Blue Cross Blue Shield of Texas",
      "telecom": [ {
        "system": "phone",
        "value": "(+1) 972-766-6900"
      } ],
      "address": [ {
        "use": "billing",
        "type": "postal",
        "line": [ "P.O. Box 660044" ],
        "city": "Dallas",
        "state": "TX",
        "postalCode": "75266-0044",
        "country": "USA"
      } ]
    },
    "request": {
      "method": "PUT",
      "url": "Organization/924a4d04-abd2-4a84-a50b-e8f8c8cceb69"
    }
  }, {
    "fullUrl": "https://madie.cms.gov/Practitioner/57fe7728-8175-4b09-94f4-44755f272af0",
    "resource": {
      "resourceType": "Practitioner",
      "id": "57fe7728-8175-4b09-94f4-44755f272af0",
      "meta": {
        "profile": [ "http://hl7.org/fhir/us/qicore/StructureDefinition/qicore-practitioner" ]
      },
      "identifier": [ {
        "system": "http://hl7.org/fhir/sid/us-npi",
        "value": "123456"
      } ],
      "name": [ {
        "family": "Evil",
        "prefix": [ "Dr" ]
      } ]
    },
    "request": {
      "method": "PUT",
      "url": "Practitioner/57fe7728-8175-4b09-94f4-44755f272af0"
    }
  }, {
    "fullUrl": "https://madie.cms.gov/MeasureReport/7bd96bc5-d34b-4103-add5-a7490602593e",
    "resource": {
      "resourceType": "MeasureReport",
      "id": "7bd96bc5-d34b-4103-add5-a7490602593e",
      "meta": {
        "profile": [ "http://hl7.org/fhir/us/cqfmeasures/StructureDefinition/test-case-cqfm" ]
      },
      "contained": [ {
        "resourceType": "Parameters",
        "id": "13eeb921-f17b-43fd-8299-5b7d453bd92b-parameters",
        "parameter": [ {
          "name": "subject",
          "valueString": "f856f2c1-b73a-4507-a576-1327e4102bc0"
        } ]
      } ],
      "extension": [ {
        "url": "http://hl7.org/fhir/StructureDefinition/cqf-inputParameters",
        "valueReference": {
          "reference": "#13eeb921-f17b-43fd-8299-5b7d453bd92b-parameters"
        }
      }, {
        "url": "http://hl7.org/fhir/us/cqfmeasures/StructureDefinition/cqfm-testCaseDescription",
        "valueMarkdown": "Patient with Depression diagnosis and Suicide Risk Assessment during Telephone Visit encounter"
      } ],
      "modifierExtension": [ {
        "url": "http://hl7.org/fhir/us/cqfmeasures/StructureDefinition/cqfm-isTestCase",
        "valueBoolean": true
      } ],
      "status": "complete",
      "type": "individual",
      "measure": "https://madie.cms.gov/Measure/CMS177FHIRChildMDDSuicideAssmt",
      "period": {
        "start": "2026-01-01",
        "end": "2026-12-31"
      },
      "group": [ {
        "id": "Group_1",
        "population": [ {
          "id": "InitialPopulation_1",
          "code": {
            "coding": [ {
              "system": "http://terminology.hl7.org/CodeSystem/measure-population",
              "code": "initial-population",
              "display": "Initial Population"
            } ]
          },
          "count": 1
        }, {
          "id": "Denominator_1",
          "code": {
            "coding": [ {
              "system": "http://terminology.hl7.org/CodeSystem/measure-population",
              "code": "denominator",
              "display": "Denominator"
            } ]
          },
          "count": 1
        }, {
          "id": "Numerator_1",
          "code": {
            "coding": [ {
              "system": "http://terminology.hl7.org/CodeSystem/measure-population",
              "code": "numerator",
              "display": "Numerator"
            } ]
          },
          "count": 1
        } ],
        "measureScore": {
          "value": 0.0
        }
      } ],
      "evaluatedResource": [ {
        "reference": "Patient/f856f2c1-b73a-4507-a576-1327e4102bc0"
      }, {
        "reference": "Encounter/92e202f6-ae9e-4664-9d79-2155eafcf154"
      }, {
        "reference": "Condition/46a22113-bcc3-4516-a58b-8819568708f1"
      }, {
        "reference": "Procedure/4c62016f-db33-4577-9749-5072ded1c3b4"
      }, {
        "reference": "Coverage/ddb0c57e-c867-42b1-bdc9-7091b903603f"
      }, {
        "reference": "Organization/924a4d04-abd2-4a84-a50b-e8f8c8cceb69"
      }, {
        "reference": "Practitioner/57fe7728-8175-4b09-94f4-44755f272af0"
      } ]
    },
    "request": {
      "method": "PUT",
      "url": "MeasureReport/7bd96bc5-d34b-4103-add5-a7490602593e"
    }
  } ]
}