{
  "resourceType": "Bundle",
  "id": "612e6b7502c62a011f2edce2",
  "type": "transaction",
  "entry": [ {
    "fullUrl": "https://madie.cms.gov/Patient/96c7b8e3-2c28-4b46-a579-f56d644cf762",
    "resource": {
      "resourceType": "Patient",
      "id": "96c7b8e3-2c28-4b46-a579-f56d644cf762",
      "meta": {
        "profile": [ "http://hl7.org/fhir/us/qicore/StructureDefinition/qicore-patient" ]
      },
      "text": {
        "status": "generated",
        "div": "<div xmlns=\"http://www.w3.org/1999/xhtml\"><div class=\"hapiHeaderText\">CMPerf_DayAfterAnesEnd2DayAFAdm <b>DENEXPASS </b></div><table class=\"hapiPropertyTable\"><tbody><tr><td>Identifier</td><td>33d5de982b1e73b15a4c778bb4a72964</td></tr><tr><td>Date of birth</td><td><span>02 January 1974</span></td></tr></tbody></table></div>"
      },
      "extension": [ {
        "url": "http://hl7.org/fhir/us/core/StructureDefinition/us-core-race",
        "extension": [ {
          "url": "ombCategory",
          "valueCoding": {
            "system": "urn:oid:2.16.840.1.113883.6.238",
            "code": "1002-5",
            "display": "American Indian or Alaska Native",
            "userSelected": true
          }
        }, {
          "url": "text",
          "valueString": "American Indian or Alaska Native"
        } ]
      }, {
        "url": "http://hl7.org/fhir/us/core/StructureDefinition/us-core-ethnicity",
        "extension": [ {
          "url": "ombCategory",
          "valueCoding": {
            "system": "urn:oid:2.16.840.1.113883.6.238",
            "code": "2135-2",
            "display": "Hispanic or Latino",
            "userSelected": true
          }
        }, {
          "url": "text",
          "valueString": "Hispanic or Latino"
        } ]
      } ],
      "identifier": [ {
        "type": {
          "coding": [ {
            "system": "http://terminology.hl7.org/CodeSystem/v2-0203",
            "code": "MR"
          } ]
        },
        "system": "https://bonnie-fhir.healthit.gov/",
        "value": "612e6b7502c62a011f2edce2"
      } ],
      "active": true,
      "name": [ {
        "use": "usual",
        "family": "DENEXPass",
        "given": [ "CMPerfDayAfterAnesEnd2DayAFAdm" ]
      } ],
      "gender": "male",
      "birthDate": "1975-01-02"
    },
    "request": {
      "method": "PUT",
      "url": "Patient/96c7b8e3-2c28-4b46-a579-f56d644cf762"
    }
  }, {
    "fullUrl": "https://madie.cms.gov/Encounter/6378717a-9c7e-4d4c-b867-eccc6f29c856",
    "resource": {
      "resourceType": "Encounter",
      "id": "6378717a-9c7e-4d4c-b867-eccc6f29c856",
      "meta": {
        "profile": [ "http://hl7.org/fhir/us/qicore/StructureDefinition/qicore-encounter" ]
      },
      "status": "finished",
      "class": {
        "system": "http://terminology.hl7.org/CodeSystem/v3-ActCode",
        "code": "IMP",
        "display": "inpatient encounter"
      },
      "type": [ {
        "coding": [ {
          "system": "http://snomed.info/sct",
          "code": "8715000"
        } ]
      } ],
      "subject": {
        "reference": "Patient/96c7b8e3-2c28-4b46-a579-f56d644cf762"
      },
      "period": {
        "start": "2026-11-01T08:00:00.000+00:00",
        "end": "2026-11-26T08:15:00.000+00:00"
      },
      "length": {
        "value": 25,
        "unit": "days"
      }
    },
    "request": {
      "method": "PUT",
      "url": "Encounter/6378717a-9c7e-4d4c-b867-eccc6f29c856"
    }
  }, {
    "fullUrl": "https://madie.cms.gov/Procedure/b00d0268-63ce-4862-811d-8cfbf3e73b70",
    "resource": {
      "resourceType": "Procedure",
      "id": "b00d0268-63ce-4862-811d-8cfbf3e73b70",
      "meta": {
        "profile": [ "http://hl7.org/fhir/us/qicore/StructureDefinition/qicore-procedure" ]
      },
      "extension": [ {
        "url": "http://hl7.org/fhir/us/qicore/StructureDefinition/qicore-recorded",
        "valueDateTime": "2013-11-03T13:35:00.000+00:00"
      } ],
      "status": "completed",
      "code": {
        "coding": [ {
          "system": "http://snomed.info/sct",
          "code": "133918004"
        } ]
      },
      "subject": {
        "reference": "Patient/96c7b8e3-2c28-4b46-a579-f56d644cf762"
      },
      "performedPeriod": {
        "start": "2026-11-03T09:15:00.000+00:00"
      }
    },
    "request": {
      "method": "PUT",
      "url": "Procedure/b00d0268-63ce-4862-811d-8cfbf3e73b70"
    }
  }, {
    "fullUrl": "https://madie.cms.gov/Coverage/91889e01-ad21-4d7e-b7cb-e6b9af21781d",
    "resource": {
      "resourceType": "Coverage",
      "id": "91889e01-ad21-4d7e-b7cb-e6b9af21781d",
      "status": "active",
      "beneficiary": {
        "reference": "Patient/96c7b8e3-2c28-4b46-a579-f56d644cf762"
      },
      "period": {
        "start": "1975-01-02T08:00:00.000+00:00"
      },
      "payor": [ {
        "reference": "Organization/9f5d89cc-f7d3-4971-b71f-80b7f7953294"
      } ]
    },
    "request": {
      "method": "PUT",
      "url": "Coverage/91889e01-ad21-4d7e-b7cb-e6b9af21781d"
    }
  }, {
    "fullUrl": "https://madie.cms.gov/Procedure/918d8598-2c11-4359-98bc-294b2ad378e5",
    "resource": {
      "resourceType": "Procedure",
      "id": "918d8598-2c11-4359-98bc-294b2ad378e5",
      "meta": {
        "profile": [ "http://hl7.org/fhir/us/qicore/StructureDefinition/qicore-procedure" ]
      },
      "extension": [ {
        "url": "http://hl7.org/fhir/us/qicore/StructureDefinition/qicore-recorded",
        "valueDateTime": "2013-11-03T13:35:00.000+00:00"
      } ],
      "status": "completed",
      "code": {
        "coding": [ {
          "system": "http://snomed.info/sct",
          "code": "18946005"
        } ]
      },
      "subject": {
        "reference": "Patient/96c7b8e3-2c28-4b46-a579-f56d644cf762"
      },
      "performedPeriod": {
        "start": "2026-11-02T09:00:00.000+00:00",
        "end": "2026-11-02T09:15:00.000+00:00"
      }
    },
    "request": {
      "method": "PUT",
      "url": "Procedure/918d8598-2c11-4359-98bc-294b2ad378e5"
    }
  }, {
    "fullUrl": "https://madie.cms.gov/Organization/9f5d89cc-f7d3-4971-b71f-80b7f7953294",
    "resource": {
      "resourceType": "Organization",
      "id": "9f5d89cc-f7d3-4971-b71f-80b7f7953294",
      "meta": {
        "profile": [ "http://hl7.org/fhir/us/qicore/StructureDefinition/qicore-organization" ]
      },
      "identifier": [ {
        "use": "temp",
        "system": "urn:oid:2.16.840.1.113883.4.4",
        "value": "21-3259825"
      } ],
      "active": true,
      "type": [ {
        "coding": [ {
          "system": "http://terminology.hl7.org/CodeSystem/organization-type",
          "code": "pay",
          "display": "Payer"
        } ]
      } ],
      "name": "Blue Cross Blue Shield of Texas",
      "telecom": [ {
        "system": "phone",
        "value": "(+1) 972-766-6900"
      } ],
      "address": [ {
        "use": "billing",
        "type": "postal",
        "line": [ "P.O. Box 660044" ],
        "city": "Dallas",
        "state": "TX",
        "postalCode": "75266-0044",
        "country": "USA"
      } ]
    },
    "request": {
      "method": "PUT",
      "url": "Organization/9f5d89cc-f7d3-4971-b71f-80b7f7953294"
    }
  }, {
    "fullUrl": "https://madie.cms.gov/Practitioner/fbcd432a-2071-4925-b3d9-8b7e2757204e",
    "resource": {
      "resourceType": "Practitioner",
      "id": "fbcd432a-2071-4925-b3d9-8b7e2757204e",
      "identifier": [ {
        "system": "http://hl7.org/fhir/sid/us-npi",
        "value": "123456"
      } ],
      "name": [ {
        "family": "Evil",
        "prefix": [ "Dr" ]
      } ]
    },
    "request": {
      "method": "PUT",
      "url": "Practitioner/fbcd432a-2071-4925-b3d9-8b7e2757204e"
    }
  }, {
    "fullUrl": "https://madie.cms.gov/MeasureReport/c9951b03-db8f-46c4-86cc-06e87b3b4075",
    "resource": {
      "resourceType": "MeasureReport",
      "id": "c9951b03-db8f-46c4-86cc-06e87b3b4075",
      "meta": {
        "profile": [ "http://hl7.org/fhir/us/cqfmeasures/StructureDefinition/test-case-cqfm" ]
      },
      "contained": [ {
        "resourceType": "Parameters",
        "id": "96659a7b-f894-4670-a376-98880d2138b1-parameters",
        "parameter": [ {
          "name": "subject",
          "valueString": "96c7b8e3-2c28-4b46-a579-f56d644cf762"
        } ]
      } ],
      "extension": [ {
        "url": "http://hl7.org/fhir/StructureDefinition/cqf-inputParameters",
        "valueReference": {
          "reference": "#96659a7b-f894-4670-a376-98880d2138b1-parameters"
        }
      }, {
        "url": "http://hl7.org/fhir/us/cqfmeasures/StructureDefinition/cqfm-testCaseDescription",
        "valueMarkdown": "comfort measures performed 1 day after end of  anesthesia 2 days after Adm\n"
      } ],
      "modifierExtension": [ {
        "url": "http://hl7.org/fhir/us/cqfmeasures/StructureDefinition/cqfm-isTestCase",
        "valueBoolean": true
      } ],
      "status": "complete",
      "type": "individual",
      "measure": "https://madie.cms.gov/Measure/CMS108FHIRVTEProphylaxis",
      "period": {
        "start": "2026-01-01",
        "end": "2026-12-31"
      },
      "group": [ {
        "id": "Group_1",
        "population": [ {
          "id": "InitialPopulation_1",
          "code": {
            "coding": [ {
              "system": "http://terminology.hl7.org/CodeSystem/measure-population",
              "code": "initial-population",
              "display": "Initial Population"
            } ]
          },
          "count": 1
        }, {
          "id": "Denominator_1",
          "code": {
            "coding": [ {
              "system": "http://terminology.hl7.org/CodeSystem/measure-population",
              "code": "denominator",
              "display": "Denominator"
            } ]
          },
          "count": 1
        }, {
          "id": "DenominatorExclusion_1",
          "code": {
            "coding": [ {
              "system": "http://terminology.hl7.org/CodeSystem/measure-population",
              "code": "denominator-exclusion",
              "display": "Denominator Exclusion"
            } ]
          },
          "count": 1
        }, {
          "id": "Numerator_1",
          "code": {
            "coding": [ {
              "system": "http://terminology.hl7.org/CodeSystem/measure-population",
              "code": "numerator",
              "display": "Numerator"
            } ]
          },
          "count": 0
        } ],
        "measureScore": {
          "value": 0.0
        }
      } ],
      "evaluatedResource": [ {
        "reference": "Patient/96c7b8e3-2c28-4b46-a579-f56d644cf762"
      }, {
        "reference": "Encounter/6378717a-9c7e-4d4c-b867-eccc6f29c856"
      }, {
        "reference": "Procedure/b00d0268-63ce-4862-811d-8cfbf3e73b70"
      }, {
        "reference": "Coverage/91889e01-ad21-4d7e-b7cb-e6b9af21781d"
      }, {
        "reference": "Procedure/918d8598-2c11-4359-98bc-294b2ad378e5"
      }, {
        "reference": "Organization/9f5d89cc-f7d3-4971-b71f-80b7f7953294"
      }, {
        "reference": "Practitioner/fbcd432a-2071-4925-b3d9-8b7e2757204e"
      } ]
    },
    "request": {
      "method": "PUT",
      "url": "MeasureReport/c9951b03-db8f-46c4-86cc-06e87b3b4075"
    }
  } ]
}