{
  "resourceType": "Bundle",
  "id": "633b3f9e0968f80122503ccb",
  "type": "transaction",
  "entry": [ {
    "fullUrl": "https://madie.cms.gov/Patient/71b3cf6e-5cb4-4355-9f3a-c88b6ed20b30",
    "resource": {
      "resourceType": "Patient",
      "id": "71b3cf6e-5cb4-4355-9f3a-c88b6ed20b30",
      "meta": {
        "profile": [ "http://hl7.org/fhir/us/qicore/StructureDefinition/qicore-patient" ]
      },
      "text": {
        "status": "generated",
        "div": "<div xmlns=\"http://www.w3.org/1999/xhtml\"><div class=\"hapiHeaderText\">AssPrfDelRelvDt1MinAftEncIPEnds<b>DENOMFAIL</b></div><table class=\"hapiPropertyTable\"><tbody><tr><td>Date of birth</td><td><span>01 February 2004</span></td></tr></tbody></table></div>"
      },
      "extension": [ {
        "url": "http://hl7.org/fhir/us/core/StructureDefinition/us-core-race",
        "extension": [ {
          "url": "ombCategory",
          "valueCoding": {
            "system": "urn:oid:2.16.840.1.113883.6.238",
            "code": "1002-5",
            "display": "American Indian or Alaska Native",
            "userSelected": true
          }
        }, {
          "url": "text",
          "valueString": "American Indian or Alaska Native"
        } ]
      }, {
        "url": "http://hl7.org/fhir/us/core/StructureDefinition/us-core-ethnicity",
        "extension": [ {
          "url": "ombCategory",
          "valueCoding": {
            "system": "urn:oid:2.16.840.1.113883.6.238",
            "code": "2135-2",
            "display": "Hispanic or Latino",
            "userSelected": true
          }
        }, {
          "url": "text",
          "valueString": "Hispanic or Latino"
        } ]
      } ],
      "identifier": [ {
        "type": {
          "coding": [ {
            "system": "http://terminology.hl7.org/CodeSystem/v2-0203",
            "code": "MR"
          } ]
        },
        "system": "https://bonnie-fhir.healthit.gov/",
        "value": "633b3f9e0968f80122503ccb"
      } ],
      "active": true,
      "name": [ {
        "use": "usual",
        "family": "DENOMFail",
        "given": [ "AssPrfDelRelvDt1MinAftEncIPEnds" ]
      } ],
      "gender": "female",
      "birthDate": "2005-02-01"
    },
    "request": {
      "method": "PUT",
      "url": "Patient/71b3cf6e-5cb4-4355-9f3a-c88b6ed20b30"
    }
  }, {
    "fullUrl": "https://madie.cms.gov/Observation/fb1a717d-4a3d-4a9e-8066-4b7d6a7c85be",
    "resource": {
      "resourceType": "Observation",
      "id": "fb1a717d-4a3d-4a9e-8066-4b7d6a7c85be",
      "meta": {
        "profile": [ "http://hl7.org/fhir/us/qicore/StructureDefinition/qicore-simple-observation" ]
      },
      "status": "final",
      "category": [ {
        "coding": [ {
          "system": "http://terminology.hl7.org/CodeSystem/observation-category",
          "code": "exam",
          "display": "exam",
          "userSelected": true
        } ]
      } ],
      "code": {
        "coding": [ {
          "system": "http://loinc.org",
          "code": "93857-1"
        } ]
      },
      "subject": {
        "reference": "Patient/71b3cf6e-5cb4-4355-9f3a-c88b6ed20b30"
      },
      "effectiveDateTime": "2026-02-05T08:16:00.000+00:00",
      "performer": [ {
        "reference": "Organization/example1",
        "display": "Hendricks Country Hospital"
      } ],
      "valueDateTime": "2026-02-01T08:00:00.000+00:00"
    },
    "request": {
      "method": "PUT",
      "url": "Observation/fb1a717d-4a3d-4a9e-8066-4b7d6a7c85be"
    }
  }, {
    "fullUrl": "https://madie.cms.gov/Observation/5148b41d-c623-4c5f-aabc-a8bcffa3ecb4",
    "resource": {
      "resourceType": "Observation",
      "id": "5148b41d-c623-4c5f-aabc-a8bcffa3ecb4",
      "meta": {
        "profile": [ "http://hl7.org/fhir/us/qicore/StructureDefinition/qicore-simple-observation" ]
      },
      "status": "final",
      "category": [ {
        "coding": [ {
          "system": "http://terminology.hl7.org/CodeSystem/observation-category",
          "code": "exam",
          "display": "exam",
          "userSelected": true
        } ]
      } ],
      "code": {
        "coding": [ {
          "system": "http://loinc.org",
          "code": "11778-8"
        } ]
      },
      "subject": {
        "reference": "Patient/71b3cf6e-5cb4-4355-9f3a-c88b6ed20b30"
      },
      "effectiveDateTime": "2026-02-01T08:00:00.000+00:00",
      "performer": [ {
        "reference": "Organization/example1",
        "display": "Hendricks Country Hospital"
      } ],
      "valueDateTime": "2026-02-01T08:00:00.000+00:00"
    },
    "request": {
      "method": "PUT",
      "url": "Observation/5148b41d-c623-4c5f-aabc-a8bcffa3ecb4"
    }
  }, {
    "fullUrl": "https://madie.cms.gov/Encounter/e7608543-f75e-40c9-9ee1-ab38727f80d7",
    "resource": {
      "resourceType": "Encounter",
      "id": "e7608543-f75e-40c9-9ee1-ab38727f80d7",
      "meta": {
        "profile": [ "http://hl7.org/fhir/us/qicore/StructureDefinition/qicore-encounter" ]
      },
      "status": "finished",
      "class": {
        "system": "http://terminology.hl7.org/CodeSystem/v3-ActCode",
        "code": "IMP",
        "display": "inpatient encounter"
      },
      "type": [ {
        "coding": [ {
          "system": "http://snomed.info/sct",
          "code": "183452005"
        } ]
      } ],
      "subject": {
        "reference": "Patient/71b3cf6e-5cb4-4355-9f3a-c88b6ed20b30"
      },
      "period": {
        "start": "2026-02-01T08:00:00.000+00:00",
        "end": "2026-02-05T08:15:00.000+00:00"
      },
      "reasonCode": [ {
        "coding": [ {
          "system": "http://snomed.info/sct",
          "code": "169826009",
          "display": "Single live birth from singleton pregnancy (finding)"
        } ]
      } ]
    },
    "request": {
      "method": "PUT",
      "url": "Encounter/e7608543-f75e-40c9-9ee1-ab38727f80d7"
    }
  }, {
    "fullUrl": "https://madie.cms.gov/Coverage/c007fe73-9ea9-4358-a666-ea37887b0387",
    "resource": {
      "resourceType": "Coverage",
      "id": "c007fe73-9ea9-4358-a666-ea37887b0387",
      "status": "active",
      "subscriberId": "523435",
      "beneficiary": {
        "reference": "Patient/71b3cf6e-5cb4-4355-9f3a-c88b6ed20b30"
      },
      "relationship": {
        "coding": [ {
          "system": "http://terminology.hl7.org/CodeSystem/subscriber-relationship",
          "code": "self"
        } ]
      },
      "period": {
        "start": "2005-02-01T08:00:00.000+00:00"
      },
      "payor": [ {
        "reference": "Organization/d2246e36-0a3b-4fe4-9d7d-e04af0b917bd"
      } ]
    },
    "request": {
      "method": "PUT",
      "url": "Coverage/c007fe73-9ea9-4358-a666-ea37887b0387"
    }
  }, {
    "fullUrl": "https://madie.cms.gov/Procedure/a1d6e3e7-004a-46de-bff6-2abe480a96b6",
    "resource": {
      "resourceType": "Procedure",
      "id": "a1d6e3e7-004a-46de-bff6-2abe480a96b6",
      "meta": {
        "profile": [ "http://hl7.org/fhir/us/qicore/StructureDefinition/qicore-procedure" ]
      },
      "extension": [ {
        "url": "http://hl7.org/fhir/us/qicore/StructureDefinition/qicore-recorded",
        "valueDateTime": "2014-04-05T13:35:00.000+00:00"
      } ],
      "status": "completed",
      "code": {
        "coding": [ {
          "system": "http://snomed.info/sct",
          "code": "10745001"
        } ]
      },
      "subject": {
        "reference": "Patient/71b3cf6e-5cb4-4355-9f3a-c88b6ed20b30"
      },
      "performedPeriod": {
        "start": "2026-02-01T08:00:00.000+00:00",
        "end": "2026-02-05T08:15:00.000+00:00"
      }
    },
    "request": {
      "method": "PUT",
      "url": "Procedure/a1d6e3e7-004a-46de-bff6-2abe480a96b6"
    }
  }, {
    "fullUrl": "https://madie.cms.gov/Organization/d2246e36-0a3b-4fe4-9d7d-e04af0b917bd",
    "resource": {
      "resourceType": "Organization",
      "id": "d2246e36-0a3b-4fe4-9d7d-e04af0b917bd",
      "meta": {
        "profile": [ "http://hl7.org/fhir/us/qicore/StructureDefinition/qicore-organization" ]
      },
      "identifier": [ {
        "use": "temp",
        "system": "urn:oid:2.16.840.1.113883.4.4",
        "value": "21-3259825"
      } ],
      "active": true,
      "type": [ {
        "coding": [ {
          "system": "http://terminology.hl7.org/CodeSystem/organization-type",
          "code": "pay",
          "display": "Payer"
        } ]
      } ],
      "name": "Blue Cross Blue Shield of Texas",
      "telecom": [ {
        "system": "phone",
        "value": "(+1) 972-766-6900"
      } ],
      "address": [ {
        "use": "billing",
        "type": "postal",
        "line": [ "P.O. Box 660044" ],
        "city": "Dallas",
        "state": "TX",
        "postalCode": "75266-0044",
        "country": "USA"
      } ]
    },
    "request": {
      "method": "PUT",
      "url": "Organization/d2246e36-0a3b-4fe4-9d7d-e04af0b917bd"
    }
  }, {
    "fullUrl": "https://madie.cms.gov/Practitioner/68802774-b30a-4d9b-9a45-756e97db2461",
    "resource": {
      "resourceType": "Practitioner",
      "id": "68802774-b30a-4d9b-9a45-756e97db2461",
      "meta": {
        "profile": [ "http://hl7.org/fhir/us/qicore/StructureDefinition/qicore-practitioner" ]
      },
      "identifier": [ {
        "system": "http://hl7.org/fhir/sid/us-npi",
        "value": "1234567890"
      } ],
      "name": [ {
        "family": "Evil",
        "prefix": [ "Dr" ]
      } ]
    },
    "request": {
      "method": "PUT",
      "url": "Practitioner/68802774-b30a-4d9b-9a45-756e97db2461"
    }
  }, {
    "fullUrl": "https://madie.cms.gov/MeasureReport/b446557d-fe31-453a-9139-590c86dd9407",
    "resource": {
      "resourceType": "MeasureReport",
      "id": "b446557d-fe31-453a-9139-590c86dd9407",
      "meta": {
        "profile": [ "http://hl7.org/fhir/us/cqfmeasures/StructureDefinition/test-case-cqfm" ]
      },
      "contained": [ {
        "resourceType": "Parameters",
        "id": "d8294721-c67a-4206-8e22-91c121365ea2-parameters",
        "parameter": [ {
          "name": "subject",
          "valueString": "71b3cf6e-5cb4-4355-9f3a-c88b6ed20b30"
        } ]
      } ],
      "extension": [ {
        "url": "http://hl7.org/fhir/StructureDefinition/cqf-inputParameters",
        "valueReference": {
          "reference": "#d8294721-c67a-4206-8e22-91c121365ea2-parameters"
        }
      }, {
        "url": "http://hl7.org/fhir/us/cqfmeasures/StructureDefinition/cqfm-testCaseDescription",
        "valueMarkdown": "Relevant date/Time of delivery (based on assessment performed) is equal to 1 minute after the encounter ends.\n"
      } ],
      "modifierExtension": [ {
        "url": "http://hl7.org/fhir/us/cqfmeasures/StructureDefinition/cqfm-isTestCase",
        "valueBoolean": true
      } ],
      "status": "complete",
      "type": "individual",
      "measure": "https://madie.cms.gov/Measure/CMS1028FHIRPCSevereOBComps",
      "period": {
        "start": "2026-01-01",
        "end": "2026-12-31"
      },
      "group": [ {
        "id": "Group_1",
        "population": [ {
          "id": "InitialPopulation_1",
          "code": {
            "coding": [ {
              "system": "http://terminology.hl7.org/CodeSystem/measure-population",
              "code": "initial-population",
              "display": "Initial Population"
            } ]
          },
          "count": 1
        }, {
          "id": "Denominator_1",
          "code": {
            "coding": [ {
              "system": "http://terminology.hl7.org/CodeSystem/measure-population",
              "code": "denominator",
              "display": "Denominator"
            } ]
          },
          "count": 0
        }, {
          "id": "Numerator_1",
          "code": {
            "coding": [ {
              "system": "http://terminology.hl7.org/CodeSystem/measure-population",
              "code": "numerator",
              "display": "Numerator"
            } ]
          },
          "count": 0
        }, {
          "id": "NumeratorExclusion_1",
          "code": {
            "coding": [ {
              "system": "http://terminology.hl7.org/CodeSystem/measure-population",
              "code": "numerator-exclusion",
              "display": "Numerator Exclusion"
            } ]
          },
          "count": 0
        } ],
        "measureScore": {
          "value": 0.0
        }
      }, {
        "id": "Group_2",
        "population": [ {
          "id": "InitialPopulation_2",
          "code": {
            "coding": [ {
              "system": "http://terminology.hl7.org/CodeSystem/measure-population",
              "code": "initial-population",
              "display": "Initial Population"
            } ]
          },
          "count": 1
        }, {
          "id": "Denominator_2",
          "code": {
            "coding": [ {
              "system": "http://terminology.hl7.org/CodeSystem/measure-population",
              "code": "denominator",
              "display": "Denominator"
            } ]
          },
          "count": 0
        }, {
          "id": "Numerator_2",
          "code": {
            "coding": [ {
              "system": "http://terminology.hl7.org/CodeSystem/measure-population",
              "code": "numerator",
              "display": "Numerator"
            } ]
          },
          "count": 0
        }, {
          "id": "NumeratorExclusion_2",
          "code": {
            "coding": [ {
              "system": "http://terminology.hl7.org/CodeSystem/measure-population",
              "code": "numerator-exclusion",
              "display": "Numerator Exclusion"
            } ]
          },
          "count": 0
        } ],
        "measureScore": {
          "value": 0.0
        }
      } ],
      "evaluatedResource": [ {
        "reference": "Patient/71b3cf6e-5cb4-4355-9f3a-c88b6ed20b30"
      }, {
        "reference": "Observation/fb1a717d-4a3d-4a9e-8066-4b7d6a7c85be"
      }, {
        "reference": "Observation/5148b41d-c623-4c5f-aabc-a8bcffa3ecb4"
      }, {
        "reference": "Encounter/e7608543-f75e-40c9-9ee1-ab38727f80d7"
      }, {
        "reference": "Coverage/c007fe73-9ea9-4358-a666-ea37887b0387"
      }, {
        "reference": "Procedure/a1d6e3e7-004a-46de-bff6-2abe480a96b6"
      }, {
        "reference": "Organization/d2246e36-0a3b-4fe4-9d7d-e04af0b917bd"
      }, {
        "reference": "Practitioner/68802774-b30a-4d9b-9a45-756e97db2461"
      } ]
    },
    "request": {
      "method": "PUT",
      "url": "MeasureReport/b446557d-fe31-453a-9139-590c86dd9407"
    }
  } ]
}