{
  "resourceType": "Bundle",
  "id": "63487c2e0968f80122540183",
  "type": "transaction",
  "entry": [ {
    "fullUrl": "https://madie.cms.gov/Patient/e45bf79e-2de3-47c1-b3f7-d5c06e9bc8ec",
    "resource": {
      "resourceType": "Patient",
      "id": "e45bf79e-2de3-47c1-b3f7-d5c06e9bc8ec",
      "meta": {
        "profile": [ "http://hl7.org/fhir/us/qicore/StructureDefinition/qicore-patient" ]
      },
      "text": {
        "status": "generated",
        "div": "<div xmlns=\"http://www.w3.org/1999/xhtml\"><div class=\"hapiHeaderText\">AssessGARelDtTime24Hours1minB4TimeOfDeliv <b>DENOMFail</b></div><table class=\"hapiPropertyTable\"><tbody><tr><td>Identifier</td><td>a645956ac82be668a9abacd6af25539c9cb78de06f5eccbbf48e18ab21ca3396</td></tr><tr><td>Date of birth</td><td><span>14 February 1985</span></td></tr></tbody></table></div>"
      },
      "extension": [ {
        "url": "http://hl7.org/fhir/us/core/StructureDefinition/us-core-race",
        "extension": [ {
          "url": "ombCategory",
          "valueCoding": {
            "system": "urn:oid:2.16.840.1.113883.6.238",
            "code": "1002-5",
            "display": "American Indian or Alaska Native",
            "userSelected": true
          }
        }, {
          "url": "text",
          "valueString": "American Indian or Alaska Native"
        } ]
      }, {
        "url": "http://hl7.org/fhir/us/core/StructureDefinition/us-core-ethnicity",
        "extension": [ {
          "url": "ombCategory",
          "valueCoding": {
            "system": "urn:oid:2.16.840.1.113883.6.238",
            "code": "2135-2",
            "display": "Hispanic or Latino",
            "userSelected": true
          }
        }, {
          "url": "text",
          "valueString": "Hispanic or Latino"
        } ]
      } ],
      "identifier": [ {
        "type": {
          "coding": [ {
            "system": "http://terminology.hl7.org/CodeSystem/v2-0203",
            "code": "MR"
          } ]
        },
        "system": "https://bonnie-fhir.healthit.gov/",
        "value": "63487c2e0968f80122540183"
      } ],
      "active": true,
      "name": [ {
        "use": "usual",
        "family": "DENOMFail",
        "given": [ "AssessGARelDtTime24Hours1minB4TimeOfDeliv" ]
      } ],
      "gender": "female",
      "birthDate": "1998-02-14"
    },
    "request": {
      "method": "PUT",
      "url": "Patient/e45bf79e-2de3-47c1-b3f7-d5c06e9bc8ec"
    }
  }, {
    "fullUrl": "https://madie.cms.gov/Observation/a371c2bf-0d14-4860-9400-206e00b91ae8",
    "resource": {
      "resourceType": "Observation",
      "id": "a371c2bf-0d14-4860-9400-206e00b91ae8",
      "meta": {
        "profile": [ "http://hl7.org/fhir/us/qicore/StructureDefinition/qicore-simple-observation" ]
      },
      "status": "final",
      "category": [ {
        "coding": [ {
          "system": "http://terminology.hl7.org/CodeSystem/observation-category",
          "code": "exam",
          "display": "exam",
          "userSelected": true
        } ]
      } ],
      "code": {
        "coding": [ {
          "system": "http://loinc.org",
          "code": "11884-4"
        } ]
      },
      "subject": {
        "reference": "Patient/e45bf79e-2de3-47c1-b3f7-d5c06e9bc8ec"
      },
      "effectiveDateTime": "2026-06-07T12:59:00.000+00:00",
      "valueQuantity": {
        "value": 37,
        "system": "http://unitsofmeasure.org",
        "code": "wk"
      }
    },
    "request": {
      "method": "PUT",
      "url": "Observation/a371c2bf-0d14-4860-9400-206e00b91ae8"
    }
  }, {
    "fullUrl": "https://madie.cms.gov/Observation/4089ebde-fc46-4857-8653-72ab9a30ebf9",
    "resource": {
      "resourceType": "Observation",
      "id": "4089ebde-fc46-4857-8653-72ab9a30ebf9",
      "meta": {
        "profile": [ "http://hl7.org/fhir/us/qicore/StructureDefinition/qicore-simple-observation" ]
      },
      "status": "final",
      "category": [ {
        "coding": [ {
          "system": "http://terminology.hl7.org/CodeSystem/observation-category",
          "code": "exam",
          "display": "exam",
          "userSelected": true
        } ]
      } ],
      "code": {
        "coding": [ {
          "system": "http://loinc.org",
          "code": "11996-6"
        } ]
      },
      "subject": {
        "reference": "Patient/e45bf79e-2de3-47c1-b3f7-d5c06e9bc8ec"
      },
      "effectiveDateTime": "2026-06-08T08:00:00.000+00:00",
      "valueInteger": 1
    },
    "request": {
      "method": "PUT",
      "url": "Observation/4089ebde-fc46-4857-8653-72ab9a30ebf9"
    }
  }, {
    "fullUrl": "https://madie.cms.gov/Observation/9353b063-ad30-4351-aaa5-3c6b9116cb3a",
    "resource": {
      "resourceType": "Observation",
      "id": "9353b063-ad30-4351-aaa5-3c6b9116cb3a",
      "meta": {
        "profile": [ "http://hl7.org/fhir/us/qicore/StructureDefinition/qicore-simple-observation" ]
      },
      "status": "final",
      "category": [ {
        "coding": [ {
          "system": "http://terminology.hl7.org/CodeSystem/observation-category",
          "code": "exam",
          "display": "exam",
          "userSelected": true
        } ]
      } ],
      "code": {
        "coding": [ {
          "system": "http://loinc.org",
          "code": "93857-1"
        } ]
      },
      "subject": {
        "reference": "Patient/e45bf79e-2de3-47c1-b3f7-d5c06e9bc8ec"
      },
      "effectiveDateTime": "2026-06-08T13:00:00.000+00:00",
      "valueDateTime": "2026-06-08T13:00:00.000+00:00"
    },
    "request": {
      "method": "PUT",
      "url": "Observation/9353b063-ad30-4351-aaa5-3c6b9116cb3a"
    }
  }, {
    "fullUrl": "https://madie.cms.gov/Encounter/c820ed58-104d-4c28-ac6f-f6b323e28293",
    "resource": {
      "resourceType": "Encounter",
      "id": "c820ed58-104d-4c28-ac6f-f6b323e28293",
      "meta": {
        "profile": [ "http://hl7.org/fhir/us/qicore/StructureDefinition/qicore-encounter" ]
      },
      "status": "finished",
      "class": {
        "system": "http://terminology.hl7.org/CodeSystem/v3-ActCode",
        "code": "IMP",
        "display": "inpatient encounter"
      },
      "type": [ {
        "coding": [ {
          "system": "http://snomed.info/sct",
          "code": "183452005"
        } ]
      } ],
      "subject": {
        "reference": "Patient/e45bf79e-2de3-47c1-b3f7-d5c06e9bc8ec"
      },
      "period": {
        "start": "2026-06-08T08:00:00.000+00:00",
        "end": "2026-06-10T08:15:00.000+00:00"
      },
      "length": {
        "value": 2,
        "unit": "days"
      },
      "reasonReference": [ {
        "reference": "Condition/3c45347e-727a-41e2-825c-7e8cd2f46680"
      } ]
    },
    "request": {
      "method": "PUT",
      "url": "Encounter/c820ed58-104d-4c28-ac6f-f6b323e28293"
    }
  }, {
    "fullUrl": "https://madie.cms.gov/Procedure/dd92c766-31e0-4ecd-ba83-83119fdae0e8",
    "resource": {
      "resourceType": "Procedure",
      "id": "dd92c766-31e0-4ecd-ba83-83119fdae0e8",
      "meta": {
        "profile": [ "http://hl7.org/fhir/us/qicore/StructureDefinition/qicore-procedure" ]
      },
      "extension": [ {
        "url": "http://hl7.org/fhir/us/qicore/StructureDefinition/qicore-recorded",
        "valueDateTime": "2014-04-05T13:35:00.000+00:00"
      } ],
      "status": "completed",
      "code": {
        "coding": [ {
          "system": "http://www.cms.gov/Medicare/Coding/ICD10",
          "code": "10D00Z0"
        } ]
      },
      "subject": {
        "reference": "Patient/e45bf79e-2de3-47c1-b3f7-d5c06e9bc8ec"
      },
      "performedPeriod": {
        "start": "2026-06-08T08:00:00.000+00:00",
        "end": "2026-06-08T09:15:00.000+00:00"
      }
    },
    "request": {
      "method": "PUT",
      "url": "Procedure/dd92c766-31e0-4ecd-ba83-83119fdae0e8"
    }
  }, {
    "fullUrl": "https://madie.cms.gov/Condition/3c45347e-727a-41e2-825c-7e8cd2f46680",
    "resource": {
      "resourceType": "Condition",
      "id": "3c45347e-727a-41e2-825c-7e8cd2f46680",
      "meta": {
        "profile": [ "http://hl7.org/fhir/us/qicore/StructureDefinition/qicore-condition-encounter-diagnosis" ]
      },
      "category": [ {
        "coding": [ {
          "system": "http://terminology.hl7.org/CodeSystem/condition-category",
          "code": "encounter-diagnosis",
          "display": "Encounter Diagnosis"
        } ]
      } ],
      "code": {
        "coding": [ {
          "system": "http://snomed.info/sct",
          "version": "2022-09",
          "code": "169826009",
          "display": "Single live birth from singleton pregnancy (finding)",
          "userSelected": true
        } ]
      },
      "subject": {
        "reference": "Patient/e45bf79e-2de3-47c1-b3f7-d5c06e9bc8ec"
      },
      "encounter": {
        "reference": "Encounter/c820ed58-104d-4c28-ac6f-f6b323e28293"
      },
      "recordedDate": "2026-10-21T08:00:00.000+00:00"
    },
    "request": {
      "method": "PUT",
      "url": "Condition/3c45347e-727a-41e2-825c-7e8cd2f46680"
    }
  }, {
    "fullUrl": "https://madie.cms.gov/Coverage/5a8873d8-575c-4ba5-929c-e239946c1fd6",
    "resource": {
      "resourceType": "Coverage",
      "id": "5a8873d8-575c-4ba5-929c-e239946c1fd6",
      "meta": {
        "profile": [ "http://hl7.org/fhir/us/qicore/StructureDefinition/qicore-coverage" ]
      },
      "status": "active",
      "subscriberId": "523435",
      "beneficiary": {
        "reference": "Patient/e45bf79e-2de3-47c1-b3f7-d5c06e9bc8ec"
      },
      "relationship": {
        "coding": [ {
          "system": "http://terminology.hl7.org/CodeSystem/subscriber-relationship",
          "code": "self"
        } ]
      },
      "payor": [ {
        "reference": "Organization/64596681-9a6a-49d1-ab43-f56cfce9a962"
      } ]
    },
    "request": {
      "method": "PUT",
      "url": "Coverage/5a8873d8-575c-4ba5-929c-e239946c1fd6"
    }
  }, {
    "fullUrl": "https://madie.cms.gov/Organization/64596681-9a6a-49d1-ab43-f56cfce9a962",
    "resource": {
      "resourceType": "Organization",
      "id": "64596681-9a6a-49d1-ab43-f56cfce9a962",
      "meta": {
        "profile": [ "http://hl7.org/fhir/us/qicore/StructureDefinition/qicore-organization" ]
      },
      "identifier": [ {
        "use": "temp",
        "system": "urn:oid:2.16.840.1.113883.4.4",
        "value": "21-3259825"
      } ],
      "active": true,
      "type": [ {
        "coding": [ {
          "system": "http://terminology.hl7.org/CodeSystem/organization-type",
          "code": "pay",
          "display": "Payer"
        } ]
      } ],
      "name": "Blue Cross Blue Shield of Texas",
      "telecom": [ {
        "system": "phone",
        "value": "(+1) 972-766-6900"
      } ],
      "address": [ {
        "use": "billing",
        "type": "postal",
        "line": [ "P.O. Box 660044" ],
        "city": "Dallas",
        "state": "TX",
        "postalCode": "75266-0044",
        "country": "USA"
      } ]
    },
    "request": {
      "method": "PUT",
      "url": "Organization/64596681-9a6a-49d1-ab43-f56cfce9a962"
    }
  }, {
    "fullUrl": "https://madie.cms.gov/Practitioner/2244f85d-b140-43eb-aa44-47cc852b6439",
    "resource": {
      "resourceType": "Practitioner",
      "id": "2244f85d-b140-43eb-aa44-47cc852b6439",
      "meta": {
        "profile": [ "http://hl7.org/fhir/us/qicore/StructureDefinition/qicore-practitioner" ]
      },
      "identifier": [ {
        "system": "http://hl7.org/fhir/sid/us-npi",
        "value": "1234567890"
      } ],
      "name": [ {
        "family": "Evil",
        "prefix": [ "Dr" ]
      } ]
    },
    "request": {
      "method": "PUT",
      "url": "Practitioner/2244f85d-b140-43eb-aa44-47cc852b6439"
    }
  }, {
    "fullUrl": "https://madie.cms.gov/MeasureReport/ed59495e-ea99-48d1-9bd5-c1907b9ad202",
    "resource": {
      "resourceType": "MeasureReport",
      "id": "ed59495e-ea99-48d1-9bd5-c1907b9ad202",
      "meta": {
        "profile": [ "http://hl7.org/fhir/us/cqfmeasures/StructureDefinition/test-case-cqfm" ]
      },
      "contained": [ {
        "resourceType": "Parameters",
        "id": "dce31135-8236-4839-a6e7-007755fd879f-parameters",
        "parameter": [ {
          "name": "subject",
          "valueString": "e45bf79e-2de3-47c1-b3f7-d5c06e9bc8ec"
        } ]
      } ],
      "extension": [ {
        "url": "http://hl7.org/fhir/StructureDefinition/cqf-inputParameters",
        "valueReference": {
          "reference": "#dce31135-8236-4839-a6e7-007755fd879f-parameters"
        }
      }, {
        "url": "http://hl7.org/fhir/us/cqfmeasures/StructureDefinition/cqfm-testCaseDescription",
        "valueMarkdown": "Passes: IP, Pt is 27 years of age,  encounter dx of delivery of singleton, gravida, AsseEGA37 (24 hours and 1 minute before  TmDelivery rel datetime.  Tests \"Gestation37PlusWeeks.RelevantDatetime 1 day or less on or before TimeOfDel\".\n"
      } ],
      "modifierExtension": [ {
        "url": "http://hl7.org/fhir/us/cqfmeasures/StructureDefinition/cqfm-isTestCase",
        "valueBoolean": true
      } ],
      "status": "complete",
      "type": "individual",
      "measure": "https://madie.cms.gov/Measure/CMS0334FHIRPCCesareanBirth",
      "period": {
        "start": "2026-01-01",
        "end": "2026-12-31"
      },
      "group": [ {
        "id": "Group_1",
        "population": [ {
          "id": "InitialPopulation_1",
          "code": {
            "coding": [ {
              "system": "http://terminology.hl7.org/CodeSystem/measure-population",
              "code": "initial-population",
              "display": "Initial Population"
            } ]
          },
          "count": 1
        }, {
          "id": "Denominator_1",
          "code": {
            "coding": [ {
              "system": "http://terminology.hl7.org/CodeSystem/measure-population",
              "code": "denominator",
              "display": "Denominator"
            } ]
          },
          "count": 0
        }, {
          "id": "DenominatorExclusion_1",
          "code": {
            "coding": [ {
              "system": "http://terminology.hl7.org/CodeSystem/measure-population",
              "code": "denominator-exclusion",
              "display": "Denominator Exclusion"
            } ]
          },
          "count": 0
        }, {
          "id": "Numerator_1",
          "code": {
            "coding": [ {
              "system": "http://terminology.hl7.org/CodeSystem/measure-population",
              "code": "numerator",
              "display": "Numerator"
            } ]
          },
          "count": 0
        } ],
        "measureScore": {
          "value": 0.0
        }
      } ],
      "evaluatedResource": [ {
        "reference": "Patient/e45bf79e-2de3-47c1-b3f7-d5c06e9bc8ec"
      }, {
        "reference": "Observation/a371c2bf-0d14-4860-9400-206e00b91ae8"
      }, {
        "reference": "Observation/4089ebde-fc46-4857-8653-72ab9a30ebf9"
      }, {
        "reference": "Observation/9353b063-ad30-4351-aaa5-3c6b9116cb3a"
      }, {
        "reference": "Encounter/c820ed58-104d-4c28-ac6f-f6b323e28293"
      }, {
        "reference": "Procedure/dd92c766-31e0-4ecd-ba83-83119fdae0e8"
      }, {
        "reference": "Condition/3c45347e-727a-41e2-825c-7e8cd2f46680"
      }, {
        "reference": "Coverage/5a8873d8-575c-4ba5-929c-e239946c1fd6"
      }, {
        "reference": "Organization/64596681-9a6a-49d1-ab43-f56cfce9a962"
      }, {
        "reference": "Practitioner/2244f85d-b140-43eb-aa44-47cc852b6439"
      } ]
    },
    "request": {
      "method": "PUT",
      "url": "MeasureReport/ed59495e-ea99-48d1-9bd5-c1907b9ad202"
    }
  } ]
}