{
  "resourceType": "Bundle",
  "id": "612e6a5102c62a011f2e99b8",
  "type": "transaction",
  "entry": [ {
    "fullUrl": "https://madie.cms.gov/Patient/8eb00db0-32af-43c6-9c00-79eb2a4462ad",
    "resource": {
      "resourceType": "Patient",
      "id": "8eb00db0-32af-43c6-9c00-79eb2a4462ad",
      "meta": {
        "profile": [ "http://hl7.org/fhir/us/qicore/StructureDefinition/qicore-patient" ]
      },
      "text": {
        "status": "generated",
        "div": "<div xmlns=\"http://www.w3.org/1999/xhtml\"><div class=\"hapiHeaderText\">MA_LDUHep_2DaysAfterAnesth <b>NUMERFAIL </b></div><table class=\"hapiPropertyTable\"><tbody><tr><td>Identifier</td><td>5f49439a0368777e213ee1936c981e56</td></tr><tr><td>Date of birth</td><td><span>02 January 1974</span></td></tr></tbody></table></div>"
      },
      "extension": [ {
        "url": "http://hl7.org/fhir/us/core/StructureDefinition/us-core-race",
        "extension": [ {
          "url": "ombCategory",
          "valueCoding": {
            "system": "urn:oid:2.16.840.1.113883.6.238",
            "code": "1002-5",
            "display": "American Indian or Alaska Native",
            "userSelected": true
          }
        }, {
          "url": "text",
          "valueString": "American Indian or Alaska Native"
        } ]
      }, {
        "url": "http://hl7.org/fhir/us/core/StructureDefinition/us-core-ethnicity",
        "extension": [ {
          "url": "ombCategory",
          "valueCoding": {
            "system": "urn:oid:2.16.840.1.113883.6.238",
            "code": "2135-2",
            "display": "Hispanic or Latino",
            "userSelected": true
          }
        }, {
          "url": "text",
          "valueString": "Hispanic or Latino"
        } ]
      } ],
      "identifier": [ {
        "type": {
          "coding": [ {
            "system": "http://terminology.hl7.org/CodeSystem/v2-0203",
            "code": "MR"
          } ]
        },
        "system": "https://bonnie-fhir.healthit.gov/",
        "value": "612e6a5102c62a011f2e99b8"
      } ],
      "active": true,
      "name": [ {
        "use": "usual",
        "family": "NUMERFail",
        "given": [ "MALDUHep2DaysAfterAnesth" ]
      } ],
      "gender": "male",
      "birthDate": "1975-01-02"
    },
    "request": {
      "method": "PUT",
      "url": "Patient/8eb00db0-32af-43c6-9c00-79eb2a4462ad"
    }
  }, {
    "fullUrl": "https://madie.cms.gov/Encounter/42dab42c-3a2a-45f0-a721-710e0aa46a2e",
    "resource": {
      "resourceType": "Encounter",
      "id": "42dab42c-3a2a-45f0-a721-710e0aa46a2e",
      "meta": {
        "profile": [ "http://hl7.org/fhir/us/qicore/StructureDefinition/qicore-encounter" ]
      },
      "status": "finished",
      "class": {
        "system": "http://terminology.hl7.org/CodeSystem/v3-ActCode",
        "code": "IMP",
        "display": "inpatient encounter"
      },
      "type": [ {
        "coding": [ {
          "system": "http://snomed.info/sct",
          "code": "8715000"
        } ]
      } ],
      "subject": {
        "reference": "Patient/8eb00db0-32af-43c6-9c00-79eb2a4462ad"
      },
      "period": {
        "start": "2026-11-01T08:00:00.000+00:00",
        "end": "2026-11-26T08:15:00.000+00:00"
      },
      "length": {
        "value": 25,
        "unit": "days"
      }
    },
    "request": {
      "method": "PUT",
      "url": "Encounter/42dab42c-3a2a-45f0-a721-710e0aa46a2e"
    }
  }, {
    "fullUrl": "https://madie.cms.gov/Coverage/5faf372c-a29f-49c7-a893-de666b52c876",
    "resource": {
      "resourceType": "Coverage",
      "id": "5faf372c-a29f-49c7-a893-de666b52c876",
      "status": "active",
      "beneficiary": {
        "reference": "Patient/8eb00db0-32af-43c6-9c00-79eb2a4462ad"
      },
      "period": {
        "start": "1975-01-02T08:00:00.000+00:00"
      },
      "payor": [ {
        "reference": "Organization/e98c656f-f51e-4bc2-94f2-7a1eef9fceaf"
      } ]
    },
    "request": {
      "method": "PUT",
      "url": "Coverage/5faf372c-a29f-49c7-a893-de666b52c876"
    }
  }, {
    "fullUrl": "https://madie.cms.gov/MedicationAdministration/3c3edbae-c564-48b8-83d8-2af9a8692626",
    "resource": {
      "resourceType": "MedicationAdministration",
      "id": "3c3edbae-c564-48b8-83d8-2af9a8692626",
      "meta": {
        "profile": [ "http://hl7.org/fhir/us/qicore/StructureDefinition/qicore-medicationadministration" ]
      },
      "status": "completed",
      "medicationCodeableConcept": {
        "coding": [ {
          "system": "http://www.nlm.nih.gov/research/umls/rxnorm",
          "code": "1361574"
        } ]
      },
      "subject": {
        "reference": "Patient/8eb00db0-32af-43c6-9c00-79eb2a4462ad"
      },
      "effectivePeriod": {
        "start": "2026-11-03T09:00:00.000+00:00",
        "end": "2026-11-03T09:15:00.000+00:00"
      },
      "dosage": {
        "route": {
          "coding": [ {
            "system": "http://snomed.info/sct",
            "code": "34206005",
            "display": "Subcutaneous route"
          } ]
        },
        "dose": {
          "value": 20000,
          "unit": "UNT/ML",
          "system": "http://unitsofmeasure.org",
          "code": "ML"
        }
      }
    },
    "request": {
      "method": "PUT",
      "url": "MedicationAdministration/3c3edbae-c564-48b8-83d8-2af9a8692626"
    }
  }, {
    "fullUrl": "https://madie.cms.gov/Procedure/ab5a4109-bd85-4e02-b632-7e04f2f24548",
    "resource": {
      "resourceType": "Procedure",
      "id": "ab5a4109-bd85-4e02-b632-7e04f2f24548",
      "meta": {
        "profile": [ "http://hl7.org/fhir/us/qicore/StructureDefinition/qicore-procedure" ]
      },
      "extension": [ {
        "url": "http://hl7.org/fhir/us/qicore/StructureDefinition/qicore-recorded",
        "valueDateTime": "2013-12-04T13:35:00.000+00:00"
      } ],
      "status": "completed",
      "code": {
        "coding": [ {
          "system": "http://www.icd10data.com/icd10pcs",
          "code": "3E030FZ"
        }, {
          "system": "http://snomed.info/sct",
          "code": "18946005"
        } ]
      },
      "subject": {
        "reference": "Patient/8eb00db0-32af-43c6-9c00-79eb2a4462ad"
      },
      "performedPeriod": {
        "start": "2026-11-01T09:00:00.000+00:00",
        "end": "2026-11-01T09:15:00.000+00:00"
      }
    },
    "request": {
      "method": "PUT",
      "url": "Procedure/ab5a4109-bd85-4e02-b632-7e04f2f24548"
    }
  }, {
    "fullUrl": "https://madie.cms.gov/Organization/e98c656f-f51e-4bc2-94f2-7a1eef9fceaf",
    "resource": {
      "resourceType": "Organization",
      "id": "e98c656f-f51e-4bc2-94f2-7a1eef9fceaf",
      "meta": {
        "profile": [ "http://hl7.org/fhir/us/qicore/StructureDefinition/qicore-organization" ]
      },
      "identifier": [ {
        "use": "temp",
        "system": "urn:oid:2.16.840.1.113883.4.4",
        "value": "21-3259825"
      } ],
      "active": true,
      "type": [ {
        "coding": [ {
          "system": "http://terminology.hl7.org/CodeSystem/organization-type",
          "code": "pay",
          "display": "Payer"
        } ]
      } ],
      "name": "Blue Cross Blue Shield of Texas",
      "telecom": [ {
        "system": "phone",
        "value": "(+1) 972-766-6900"
      } ],
      "address": [ {
        "use": "billing",
        "type": "postal",
        "line": [ "P.O. Box 660044" ],
        "city": "Dallas",
        "state": "TX",
        "postalCode": "75266-0044",
        "country": "USA"
      } ]
    },
    "request": {
      "method": "PUT",
      "url": "Organization/e98c656f-f51e-4bc2-94f2-7a1eef9fceaf"
    }
  }, {
    "fullUrl": "https://madie.cms.gov/Practitioner/eb9bc890-b387-49d0-aea3-def39a3e3f82",
    "resource": {
      "resourceType": "Practitioner",
      "id": "eb9bc890-b387-49d0-aea3-def39a3e3f82",
      "identifier": [ {
        "system": "http://hl7.org/fhir/sid/us-npi",
        "value": "123456"
      } ],
      "name": [ {
        "family": "Evil",
        "prefix": [ "Dr" ]
      } ]
    },
    "request": {
      "method": "PUT",
      "url": "Practitioner/eb9bc890-b387-49d0-aea3-def39a3e3f82"
    }
  }, {
    "fullUrl": "https://madie.cms.gov/MeasureReport/e9dfa1fc-026f-4ace-a571-8a9cde11ef38",
    "resource": {
      "resourceType": "MeasureReport",
      "id": "e9dfa1fc-026f-4ace-a571-8a9cde11ef38",
      "meta": {
        "profile": [ "http://hl7.org/fhir/us/cqfmeasures/StructureDefinition/test-case-cqfm" ]
      },
      "contained": [ {
        "resourceType": "Parameters",
        "id": "a3de8247-2060-454f-8099-bea33069a592-parameters",
        "parameter": [ {
          "name": "subject",
          "valueString": "8eb00db0-32af-43c6-9c00-79eb2a4462ad"
        } ]
      } ],
      "extension": [ {
        "url": "http://hl7.org/fhir/StructureDefinition/cqf-inputParameters",
        "valueReference": {
          "reference": "#a3de8247-2060-454f-8099-bea33069a592-parameters"
        }
      }, {
        "url": "http://hl7.org/fhir/us/cqfmeasures/StructureDefinition/cqfm-testCaseDescription",
        "valueMarkdown": "Low Dose Unfractionated Heparin for VTE Prophylaxis administered > 1 day after anesthesia\n"
      } ],
      "modifierExtension": [ {
        "url": "http://hl7.org/fhir/us/cqfmeasures/StructureDefinition/cqfm-isTestCase",
        "valueBoolean": true
      } ],
      "status": "complete",
      "type": "individual",
      "measure": "https://madie.cms.gov/Measure/CMS108FHIRVTEProphylaxis",
      "period": {
        "start": "2026-01-01",
        "end": "2026-12-31"
      },
      "group": [ {
        "id": "Group_1",
        "population": [ {
          "id": "InitialPopulation_1",
          "code": {
            "coding": [ {
              "system": "http://terminology.hl7.org/CodeSystem/measure-population",
              "code": "initial-population",
              "display": "Initial Population"
            } ]
          },
          "count": 1
        }, {
          "id": "Denominator_1",
          "code": {
            "coding": [ {
              "system": "http://terminology.hl7.org/CodeSystem/measure-population",
              "code": "denominator",
              "display": "Denominator"
            } ]
          },
          "count": 1
        }, {
          "id": "DenominatorExclusion_1",
          "code": {
            "coding": [ {
              "system": "http://terminology.hl7.org/CodeSystem/measure-population",
              "code": "denominator-exclusion",
              "display": "Denominator Exclusion"
            } ]
          },
          "count": 0
        }, {
          "id": "Numerator_1",
          "code": {
            "coding": [ {
              "system": "http://terminology.hl7.org/CodeSystem/measure-population",
              "code": "numerator",
              "display": "Numerator"
            } ]
          },
          "count": 0
        } ],
        "measureScore": {
          "value": 0.0
        }
      } ],
      "evaluatedResource": [ {
        "reference": "Patient/8eb00db0-32af-43c6-9c00-79eb2a4462ad"
      }, {
        "reference": "Encounter/42dab42c-3a2a-45f0-a721-710e0aa46a2e"
      }, {
        "reference": "Coverage/5faf372c-a29f-49c7-a893-de666b52c876"
      }, {
        "reference": "MedicationAdministration/3c3edbae-c564-48b8-83d8-2af9a8692626"
      }, {
        "reference": "Procedure/ab5a4109-bd85-4e02-b632-7e04f2f24548"
      }, {
        "reference": "Organization/e98c656f-f51e-4bc2-94f2-7a1eef9fceaf"
      }, {
        "reference": "Practitioner/eb9bc890-b387-49d0-aea3-def39a3e3f82"
      } ]
    },
    "request": {
      "method": "PUT",
      "url": "MeasureReport/e9dfa1fc-026f-4ace-a571-8a9cde11ef38"
    }
  } ]
}