{
  "resourceType": "Bundle",
  "id": "62bc69333e113102f8cedca6",
  "type": "collection",
  "entry": [ {
    "fullUrl": "https://madie.cms.gov/Patient/da823bdf-248b-4b9b-8fec-363d673036c8",
    "resource": {
      "resourceType": "Patient",
      "id": "da823bdf-248b-4b9b-8fec-363d673036c8",
      "meta": {
        "profile": [ "http://hl7.org/fhir/us/qicore/StructureDefinition/qicore-patient" ]
      },
      "extension": [ {
        "url": "http://hl7.org/fhir/us/core/StructureDefinition/us-core-race",
        "extension": [ {
          "url": "ombCategory",
          "valueCoding": {
            "system": "urn:oid:2.16.840.1.113883.6.238",
            "code": "1002-5",
            "display": "American Indian or Alaska Native"
          }
        }, {
          "url": "text",
          "valueString": "American Indian or Alaska Native"
        } ]
      }, {
        "url": "http://hl7.org/fhir/us/core/StructureDefinition/us-core-ethnicity",
        "extension": [ {
          "url": "ombCategory",
          "valueCoding": {
            "system": "urn:oid:2.16.840.1.113883.6.238",
            "code": "2135-2",
            "display": "Hispanic or Latino"
          }
        }, {
          "url": "text",
          "valueString": "Hispanic or Latino"
        } ]
      } ],
      "identifier": [ {
        "type": {
          "coding": [ {
            "system": "http://terminology.hl7.org/CodeSystem/v2-0203",
            "code": "MR"
          } ]
        },
        "system": "https://bonnie-fhir.healthit.gov/",
        "value": "62bc69333e113102f8cedca6"
      } ],
      "name": [ {
        "family": "DENEXPass",
        "given": [ "CystectomyBeforeStaging" ]
      } ],
      "gender": "female",
      "birthDate": "1947-02-01"
    }
  }, {
    "fullUrl": "https://madie.cms.gov/Encounter/fb89bf0d-f54e-4928-8255-444327976d28",
    "resource": {
      "resourceType": "Encounter",
      "id": "fb89bf0d-f54e-4928-8255-444327976d28",
      "meta": {
        "profile": [ "http://hl7.org/fhir/us/qicore/StructureDefinition/qicore-encounter" ]
      },
      "status": "finished",
      "class": {
        "system": "http://terminology.hl7.org/CodeSystem/v3-ActCode",
        "code": "AMB",
        "display": "ambulatory"
      },
      "type": [ {
        "coding": [ {
          "system": "http://snomed.info/sct",
          "version": "http://snomed.info/sct/731000124108/version/20240301",
          "code": "185463005",
          "display": "Visit out of hours (procedure)"
        } ]
      } ],
      "subject": {
        "reference": "Patient/da823bdf-248b-4b9b-8fec-363d673036c8"
      },
      "period": {
        "start": "2026-12-30T08:00:00.000+00:00",
        "end": "2026-12-30T09:15:00.000+00:00"
      }
    }
  }, {
    "fullUrl": "https://madie.cms.gov/Procedure/0be6a93d-463e-4f9b-acfd-2ec058ae19db",
    "resource": {
      "resourceType": "Procedure",
      "id": "0be6a93d-463e-4f9b-acfd-2ec058ae19db",
      "meta": {
        "profile": [ "http://hl7.org/fhir/us/qicore/StructureDefinition/qicore-procedure" ]
      },
      "extension": [ {
        "url": "http://hl7.org/fhir/us/qicore/StructureDefinition/qicore-recorded",
        "valueDateTime": "2026-05-29T08:00:00.000+00:00"
      } ],
      "status": "completed",
      "code": {
        "coding": [ {
          "system": "http://www.ama-assn.org/go/cpt",
          "version": "2024",
          "code": "51585",
          "display": "Complete cystectomy with ureterosigmoidostomy and bilateral pelvic lymphadenectomy of external iliac, hypogastric, and obturator nodes",
          "userSelected": true
        } ]
      },
      "subject": {
        "reference": "Patient/da823bdf-248b-4b9b-8fec-363d673036c8"
      },
      "performedPeriod": {
        "start": "2026-05-29T08:00:00.000+00:00",
        "end": "2026-05-29T08:15:00.000+00:00"
      }
    }
  }, {
    "fullUrl": "https://madie.cms.gov/Condition/006c5c4f-b41c-4de8-ab3a-56afd16ddb64",
    "resource": {
      "resourceType": "Condition",
      "id": "006c5c4f-b41c-4de8-ab3a-56afd16ddb64",
      "meta": {
        "profile": [ "http://hl7.org/fhir/us/qicore/StructureDefinition/qicore-condition-problems-health-concerns" ]
      },
      "clinicalStatus": {
        "coding": [ {
          "system": "http://terminology.hl7.org/CodeSystem/condition-clinical",
          "code": "active",
          "display": "Active"
        } ]
      },
      "verificationStatus": {
        "coding": [ {
          "system": "http://terminology.hl7.org/CodeSystem/condition-ver-status",
          "code": "confirmed",
          "display": "Confirmed"
        } ]
      },
      "category": [ {
        "coding": [ {
          "system": "http://terminology.hl7.org/CodeSystem/condition-category",
          "code": "problem-list-item",
          "display": "Problem List Item"
        } ]
      } ],
      "code": {
        "coding": [ {
          "system": "http://hl7.org/fhir/sid/icd-10-cm",
          "version": "2024",
          "code": "C67.3",
          "display": "Malignant neoplasm of anterior wall of bladder"
        } ]
      },
      "subject": {
        "reference": "Patient/da823bdf-248b-4b9b-8fec-363d673036c8"
      },
      "onsetDateTime": "2026-06-30T08:00:00.000+00:00"
    }
  }, {
    "fullUrl": "https://madie.cms.gov/Observation/f50f1b12-1083-4d91-8802-44843201a2e8",
    "resource": {
      "resourceType": "Observation",
      "id": "f50f1b12-1083-4d91-8802-44843201a2e8",
      "meta": {
        "profile": [ "http://hl7.org/fhir/us/qicore/StructureDefinition/qicore-observation-lab" ]
      },
      "partOf": [ {
        "reference": "Procedure/0be6a93d-463e-4f9b-acfd-2ec058ae19db"
      } ],
      "status": "final",
      "category": [ {
        "coding": [ {
          "system": "http://terminology.hl7.org/CodeSystem/observation-category",
          "code": "procedure",
          "display": "Procedure"
        } ]
      }, {
        "coding": [ {
          "system": "http://terminology.hl7.org/CodeSystem/observation-category",
          "code": "laboratory",
          "display": "Laboratory"
        } ]
      } ],
      "code": {
        "coding": [ {
          "system": "http://loinc.org",
          "version": "2.76",
          "code": "21902-2",
          "display": "Stage group.pathology Cancer"
        } ]
      },
      "subject": {
        "reference": "Patient/da823bdf-248b-4b9b-8fec-363d673036c8"
      },
      "effectivePeriod": {
        "start": "2026-06-30T08:00:00.000+00:00",
        "end": "2026-06-30T08:15:00.000+00:00"
      },
      "issued": "2026-06-30T08:15:00.000+00:00",
      "valueCodeableConcept": {
        "coding": [ {
          "system": "http://snomed.info/sct",
          "version": "http://snomed.info/sct/731000124108/version/20240301",
          "code": "1228883000",
          "display": "American Joint Committee on Cancer cTa (qualifier value)"
        } ]
      }
    }
  }, {
    "fullUrl": "https://madie.cms.gov/Practitioner/f8d90d27-569d-4cf0-9447-ba813cb87584",
    "resource": {
      "resourceType": "Practitioner",
      "id": "f8d90d27-569d-4cf0-9447-ba813cb87584",
      "meta": {
        "profile": [ "http://hl7.org/fhir/us/qicore/StructureDefinition/qicore-practitioner" ]
      },
      "identifier": [ {
        "use": "temp",
        "system": "urn:oid:2.16.840.1.113883.4.336",
        "value": "Practitioner-23"
      } ],
      "active": true,
      "name": [ {
        "family": "Careful",
        "given": [ "Adam" ],
        "prefix": [ "Dr" ]
      } ],
      "address": [ {
        "use": "home",
        "line": [ "534 Erewhon St" ],
        "city": "PleasantVille",
        "state": "UT",
        "postalCode": "84414"
      } ],
      "qualification": [ {
        "identifier": [ {
          "system": "http://example.org/UniversityIdentifier",
          "value": "12345"
        } ],
        "code": {
          "coding": [ {
            "system": "http://terminology.hl7.org/CodeSystem/v2-0360|2.7",
            "code": "BS",
            "display": "Bachelor of Science"
          } ],
          "text": "Bachelor of Science"
        },
        "period": {
          "start": "1996"
        },
        "issuer": {
          "display": "Example University"
        }
      } ]
    }
  }, {
    "fullUrl": "https://madie.cms.gov/Procedure/e92ae614-1e3f-40f3-82ec-b583854d73bb",
    "resource": {
      "resourceType": "Procedure",
      "id": "e92ae614-1e3f-40f3-82ec-b583854d73bb",
      "meta": {
        "profile": [ "http://hl7.org/fhir/us/qicore/StructureDefinition/qicore-procedure" ]
      },
      "extension": [ {
        "url": "http://hl7.org/fhir/us/qicore/StructureDefinition/qicore-recorded",
        "valueDateTime": "2026-06-30T08:00:00.000+00:00"
      } ],
      "status": "completed",
      "code": {
        "coding": [ {
          "system": "http://snomed.info/sct",
          "version": "http://snomed.info/sct/731000124108/version/20250301",
          "code": "254292007",
          "display": "Tumor staging",
          "userSelected": true
        } ]
      },
      "subject": {
        "reference": "Patient/da823bdf-248b-4b9b-8fec-363d673036c8"
      },
      "performedPeriod": {
        "start": "2026-06-30T08:00:00.000+00:00",
        "end": "2026-06-30T08:15:00.000+00:00"
      }
    }
  }, {
    "fullUrl": "https://madie.cms.gov/MeasureReport/15098137-26fc-41bd-b789-458cdf706bcc",
    "resource": {
      "resourceType": "MeasureReport",
      "id": "15098137-26fc-41bd-b789-458cdf706bcc",
      "meta": {
        "profile": [ "http://hl7.org/fhir/us/cqfmeasures/StructureDefinition/test-case-cqfm" ]
      },
      "contained": [ {
        "resourceType": "Parameters",
        "id": "0e1c56b0-3328-47c0-ab84-9352fa932e4f-parameters",
        "parameter": [ {
          "name": "subject",
          "valueString": "da823bdf-248b-4b9b-8fec-363d673036c8"
        } ]
      } ],
      "extension": [ {
        "url": "http://hl7.org/fhir/StructureDefinition/cqf-inputParameters",
        "valueReference": {
          "reference": "#0e1c56b0-3328-47c0-ab84-9352fa932e4f-parameters"
        }
      }, {
        "url": "http://hl7.org/fhir/us/cqfmeasures/StructureDefinition/cqfm-testCaseDescription",
        "valueMarkdown": "Patient with OV in MP. Bladder cancer diagnosis and cancer staging in MP.  Pt had a cystectomy before staging and should be excluded. "
      } ],
      "modifierExtension": [ {
        "url": "http://hl7.org/fhir/us/cqfmeasures/StructureDefinition/cqfm-isTestCase",
        "valueBoolean": true
      } ],
      "status": "complete",
      "type": "individual",
      "measure": "https://madie.cms.gov/Measure/CMS646FHIRIntravesicalBCGTherapy",
      "period": {
        "start": "2026-01-01",
        "end": "2026-12-31"
      },
      "group": [ {
        "id": "Group_1",
        "population": [ {
          "id": "InitialPopulation_1",
          "code": {
            "coding": [ {
              "system": "http://terminology.hl7.org/CodeSystem/measure-population",
              "code": "initial-population",
              "display": "Initial Population"
            } ]
          },
          "count": 1
        }, {
          "id": "Denominator_1",
          "code": {
            "coding": [ {
              "system": "http://terminology.hl7.org/CodeSystem/measure-population",
              "code": "denominator",
              "display": "Denominator"
            } ]
          },
          "count": 1
        }, {
          "id": "DenominatorExclusion_1",
          "code": {
            "coding": [ {
              "system": "http://terminology.hl7.org/CodeSystem/measure-population",
              "code": "denominator-exclusion",
              "display": "Denominator Exclusion"
            } ]
          },
          "count": 1
        }, {
          "id": "Numerator_1",
          "code": {
            "coding": [ {
              "system": "http://terminology.hl7.org/CodeSystem/measure-population",
              "code": "numerator",
              "display": "Numerator"
            } ]
          },
          "count": 0
        }, {
          "id": "DenominatorException_1",
          "code": {
            "coding": [ {
              "system": "http://terminology.hl7.org/CodeSystem/measure-population",
              "code": "denominator-exception",
              "display": "Denominator Exception"
            } ]
          },
          "count": 0
        } ],
        "measureScore": {
          "value": 1.0
        }
      } ],
      "evaluatedResource": [ {
        "reference": "Patient/da823bdf-248b-4b9b-8fec-363d673036c8"
      }, {
        "reference": "Encounter/fb89bf0d-f54e-4928-8255-444327976d28"
      }, {
        "reference": "Procedure/0be6a93d-463e-4f9b-acfd-2ec058ae19db"
      }, {
        "reference": "Condition/006c5c4f-b41c-4de8-ab3a-56afd16ddb64"
      }, {
        "reference": "Observation/f50f1b12-1083-4d91-8802-44843201a2e8"
      }, {
        "reference": "Practitioner/f8d90d27-569d-4cf0-9447-ba813cb87584"
      }, {
        "reference": "Procedure/e92ae614-1e3f-40f3-82ec-b583854d73bb"
      } ]
    }
  } ]
}