{
  "resourceType": "Bundle",
  "id": "61152a3c98086b7a79cbd7dc",
  "type": "transaction",
  "entry": [ {
    "fullUrl": "https://madie.cms.gov/Patient/5a07a01a-bf1b-409f-be3b-fd1a87bc0f5b",
    "resource": {
      "resourceType": "Patient",
      "id": "5a07a01a-bf1b-409f-be3b-fd1a87bc0f5b",
      "meta": {
        "profile": [ "http://hl7.org/fhir/us/qicore/StructureDefinition/qicore-patient" ]
      },
      "text": {
        "status": "generated",
        "div": "<div xmlns=\"http://www.w3.org/1999/xhtml\"><div class=\"hapiHeaderText\">LabGT80within5minutes <b>NUMERFAIL </b></div><table class=\"hapiPropertyTable\"><tbody><tr><td>Date of birth</td><td><span>12 March 1960</span></td></tr></tbody></table></div>"
      },
      "extension": [ {
        "url": "http://hl7.org/fhir/us/core/StructureDefinition/us-core-race",
        "extension": [ {
          "url": "ombCategory",
          "valueCoding": {
            "system": "urn:oid:2.16.840.1.113883.6.238",
            "code": "1002-5",
            "display": "American Indian or Alaska Native",
            "userSelected": true
          }
        }, {
          "url": "text",
          "valueString": "American Indian or Alaska Native"
        } ]
      }, {
        "url": "http://hl7.org/fhir/us/core/StructureDefinition/us-core-ethnicity",
        "extension": [ {
          "url": "ombCategory",
          "valueCoding": {
            "system": "urn:oid:2.16.840.1.113883.6.238",
            "code": "2135-2",
            "display": "Hispanic or Latino",
            "userSelected": true
          }
        }, {
          "url": "text",
          "valueString": "Hispanic or Latino"
        } ]
      } ],
      "identifier": [ {
        "type": {
          "coding": [ {
            "system": "http://terminology.hl7.org/CodeSystem/v2-0203",
            "code": "MR"
          } ]
        },
        "system": "https://bonnie-fhir.healthit.gov/",
        "value": "61152a3c98086b7a79cbd7dc"
      } ],
      "active": true,
      "name": [ {
        "use": "usual",
        "family": "CMSNUMERFail",
        "given": [ "LabGT80within5minutes" ]
      } ],
      "gender": "female",
      "birthDate": "1961-03-12"
    },
    "request": {
      "method": "PUT",
      "url": "Patient/5a07a01a-bf1b-409f-be3b-fd1a87bc0f5b"
    }
  }, {
    "fullUrl": "https://madie.cms.gov/Encounter/51047cd2-5b3b-46ec-a658-8789b9ed7922",
    "resource": {
      "resourceType": "Encounter",
      "id": "51047cd2-5b3b-46ec-a658-8789b9ed7922",
      "meta": {
        "profile": [ "http://hl7.org/fhir/us/qicore/StructureDefinition/qicore-encounter" ]
      },
      "status": "finished",
      "class": {
        "system": "http://terminology.hl7.org/CodeSystem/v3-ActCode",
        "code": "IMP",
        "display": "inpatient encounter"
      },
      "type": [ {
        "coding": [ {
          "system": "http://snomed.info/sct",
          "code": "183452005"
        } ]
      } ],
      "subject": {
        "reference": "Patient/5a07a01a-bf1b-409f-be3b-fd1a87bc0f5b"
      },
      "period": {
        "start": "2026-01-16T08:00:00.000+00:00",
        "end": "2026-01-19T09:00:00.000+00:00"
      }
    },
    "request": {
      "method": "PUT",
      "url": "Encounter/51047cd2-5b3b-46ec-a658-8789b9ed7922"
    }
  }, {
    "fullUrl": "https://madie.cms.gov/MedicationAdministration/d4680bbb-e63e-46e9-9970-f7737b502694",
    "resource": {
      "resourceType": "MedicationAdministration",
      "id": "d4680bbb-e63e-46e9-9970-f7737b502694",
      "meta": {
        "profile": [ "http://hl7.org/fhir/us/qicore/StructureDefinition/qicore-medicationadministration" ]
      },
      "status": "completed",
      "medicationCodeableConcept": {
        "coding": [ {
          "system": "http://www.nlm.nih.gov/research/umls/rxnorm",
          "code": "1361493",
          "display": "glimepiride 6 MG Oral Tablet",
          "userSelected": true
        } ]
      },
      "subject": {
        "reference": "Patient/5a07a01a-bf1b-409f-be3b-fd1a87bc0f5b"
      },
      "effectivePeriod": {
        "start": "2026-01-16T08:00:00.000+00:00",
        "end": "2026-01-16T09:00:00.000+00:00"
      }
    },
    "request": {
      "method": "PUT",
      "url": "MedicationAdministration/d4680bbb-e63e-46e9-9970-f7737b502694"
    }
  }, {
    "fullUrl": "https://madie.cms.gov/Observation/976bb314-2f2c-4265-a615-7f627f20be77",
    "resource": {
      "resourceType": "Observation",
      "id": "976bb314-2f2c-4265-a615-7f627f20be77",
      "meta": {
        "profile": [ "http://hl7.org/fhir/us/qicore/StructureDefinition/qicore-observation-lab" ]
      },
      "status": "final",
      "category": [ {
        "coding": [ {
          "system": "http://terminology.hl7.org/CodeSystem/observation-category",
          "code": "laboratory",
          "display": "Laboratory"
        } ]
      } ],
      "code": {
        "coding": [ {
          "system": "http://loinc.org",
          "version": "2.72",
          "code": "1556-0",
          "display": "Fasting glucose [Mass/volume] in Capillary blood",
          "userSelected": true
        } ]
      },
      "subject": {
        "reference": "Patient/5a07a01a-bf1b-409f-be3b-fd1a87bc0f5b"
      },
      "effectiveDateTime": "2026-01-16T09:30:00.000+00:00",
      "valueQuantity": {
        "value": 39.9,
        "unit": "mg/dL"
      }
    },
    "request": {
      "method": "PUT",
      "url": "Observation/976bb314-2f2c-4265-a615-7f627f20be77"
    }
  }, {
    "fullUrl": "https://madie.cms.gov/Observation/8d61517f-ad5f-436d-ab22-968556f3deca",
    "resource": {
      "resourceType": "Observation",
      "id": "8d61517f-ad5f-436d-ab22-968556f3deca",
      "meta": {
        "profile": [ "http://hl7.org/fhir/us/qicore/StructureDefinition/qicore-observation-lab" ]
      },
      "status": "final",
      "category": [ {
        "coding": [ {
          "system": "http://terminology.hl7.org/CodeSystem/observation-category",
          "code": "laboratory",
          "display": "Laboratory"
        } ]
      } ],
      "code": {
        "coding": [ {
          "system": "http://loinc.org",
          "version": "2.72",
          "code": "1556-0",
          "display": "Fasting glucose [Mass/volume] in Capillary blood",
          "userSelected": true
        } ]
      },
      "subject": {
        "reference": "Patient/5a07a01a-bf1b-409f-be3b-fd1a87bc0f5b"
      },
      "effectiveDateTime": "2026-01-16T09:31:00.000+00:00",
      "valueQuantity": {
        "value": 80.1,
        "unit": "mg/dL"
      }
    },
    "request": {
      "method": "PUT",
      "url": "Observation/8d61517f-ad5f-436d-ab22-968556f3deca"
    }
  }, {
    "fullUrl": "https://madie.cms.gov/MeasureReport/f53ee421-3689-4ad6-95f1-b30d54735b51",
    "resource": {
      "resourceType": "MeasureReport",
      "id": "f53ee421-3689-4ad6-95f1-b30d54735b51",
      "meta": {
        "profile": [ "http://hl7.org/fhir/us/cqfmeasures/StructureDefinition/test-case-cqfm" ]
      },
      "contained": [ {
        "resourceType": "Parameters",
        "id": "da7fbb99-f459-4344-8e89-6fd88d413c52-parameters",
        "parameter": [ {
          "name": "subject",
          "valueString": "5a07a01a-bf1b-409f-be3b-fd1a87bc0f5b"
        } ]
      } ],
      "extension": [ {
        "url": "http://hl7.org/fhir/StructureDefinition/cqf-inputParameters",
        "valueReference": {
          "reference": "#da7fbb99-f459-4344-8e89-6fd88d413c52-parameters"
        }
      }, {
        "url": "http://hl7.org/fhir/us/cqfmeasures/StructureDefinition/cqfm-testCaseDescription",
        "valueMarkdown": "IP Encounter with hypoglycemic med given. Lab LT 40 mg/dL, followed by lab GT 80 mg/dL within 5 minutes. Does not meet Numerator. \n\n(CMS #3)"
      } ],
      "modifierExtension": [ {
        "url": "http://hl7.org/fhir/us/cqfmeasures/StructureDefinition/cqfm-isTestCase",
        "valueBoolean": true
      } ],
      "status": "complete",
      "type": "individual",
      "measure": "https://madie.cms.gov/Measure/NHSNGlycemicControlHypoglycemiaInitialPopulation",
      "period": {
        "start": "2026-01-01",
        "end": "2026-12-31"
      },
      "group": [ {
        "id": "Group_1",
        "population": [ {
          "id": "InitialPopulation_1",
          "code": {
            "coding": [ {
              "system": "http://terminology.hl7.org/CodeSystem/measure-population",
              "code": "initial-population",
              "display": "Initial Population"
            } ]
          },
          "count": 1
        } ],
        "measureScore": {
          "value": 0.0
        }
      } ],
      "evaluatedResource": [ {
        "reference": "Patient/5a07a01a-bf1b-409f-be3b-fd1a87bc0f5b"
      }, {
        "reference": "Encounter/51047cd2-5b3b-46ec-a658-8789b9ed7922"
      }, {
        "reference": "MedicationAdministration/d4680bbb-e63e-46e9-9970-f7737b502694"
      }, {
        "reference": "Observation/976bb314-2f2c-4265-a615-7f627f20be77"
      }, {
        "reference": "Observation/8d61517f-ad5f-436d-ab22-968556f3deca"
      } ]
    },
    "request": {
      "method": "PUT",
      "url": "MeasureReport/f53ee421-3689-4ad6-95f1-b30d54735b51"
    }
  } ]
}