{
  "resourceType": "Bundle",
  "id": "6359776b6aee9629c8298235",
  "type": "transaction",
  "entry": [ {
    "fullUrl": "https://madie.cms.gov/Patient/17479eda-9d6a-47c4-95d3-55e3b1bacb68",
    "resource": {
      "resourceType": "Patient",
      "id": "17479eda-9d6a-47c4-95d3-55e3b1bacb68",
      "meta": {
        "profile": [ "http://hl7.org/fhir/us/qicore/StructureDefinition/qicore-patient" ]
      },
      "text": {
        "status": "generated",
        "div": "<div xmlns=\"http://www.w3.org/1999/xhtml\"><div class=\"hapiHeaderText\">WBCValueIsNull<b>RISKFail</b></div><table class=\"hapiPropertyTable\"><tbody><tr><td>Date of birth</td><td><span>01 February 2004</span></td></tr></tbody></table></div>"
      },
      "extension": [ {
        "url": "http://hl7.org/fhir/us/core/StructureDefinition/us-core-race",
        "extension": [ {
          "url": "ombCategory",
          "valueCoding": {
            "system": "urn:oid:2.16.840.1.113883.6.238",
            "code": "1002-5",
            "display": "American Indian or Alaska Native",
            "userSelected": true
          }
        }, {
          "url": "text",
          "valueString": "American Indian or Alaska Native"
        } ]
      }, {
        "url": "http://hl7.org/fhir/us/core/StructureDefinition/us-core-ethnicity",
        "extension": [ {
          "url": "ombCategory",
          "valueCoding": {
            "system": "urn:oid:2.16.840.1.113883.6.238",
            "code": "2135-2",
            "display": "Hispanic or Latino",
            "userSelected": true
          }
        }, {
          "url": "text",
          "valueString": "Hispanic or Latino"
        } ]
      } ],
      "identifier": [ {
        "type": {
          "coding": [ {
            "system": "http://terminology.hl7.org/CodeSystem/v2-0203",
            "code": "MR"
          } ]
        },
        "system": "https://bonnie-fhir.healthit.gov/",
        "value": "6359776b6aee9629c8298235"
      } ],
      "active": true,
      "name": [ {
        "use": "usual",
        "family": "RISKFail",
        "given": [ "WBCValueIsNull" ]
      } ],
      "gender": "female",
      "birthDate": "2005-02-01"
    },
    "request": {
      "method": "PUT",
      "url": "Patient/17479eda-9d6a-47c4-95d3-55e3b1bacb68"
    }
  }, {
    "fullUrl": "https://madie.cms.gov/Observation/5d658a68-6c69-441a-a5a7-a13fc57d5307",
    "resource": {
      "resourceType": "Observation",
      "id": "5d658a68-6c69-441a-a5a7-a13fc57d5307",
      "meta": {
        "profile": [ "http://hl7.org/fhir/us/qicore/StructureDefinition/qicore-simple-observation" ]
      },
      "status": "final",
      "category": [ {
        "coding": [ {
          "system": "http://terminology.hl7.org/CodeSystem/observation-category",
          "code": "exam",
          "display": "exam",
          "userSelected": true
        } ]
      } ],
      "code": {
        "coding": [ {
          "system": "http://loinc.org",
          "code": "93857-1"
        } ]
      },
      "subject": {
        "reference": "Patient/17479eda-9d6a-47c4-95d3-55e3b1bacb68"
      },
      "effectiveDateTime": "2026-02-01T08:15:00.000+00:00",
      "performer": [ {
        "reference": "Organization/example1",
        "display": "Hendricks Country Hospital"
      } ],
      "valueDateTime": "2026-02-01T08:15:00.000+00:00"
    },
    "request": {
      "method": "PUT",
      "url": "Observation/5d658a68-6c69-441a-a5a7-a13fc57d5307"
    }
  }, {
    "fullUrl": "https://madie.cms.gov/Condition/a8686010-c168-4f8b-bed6-dffb8d6c2546",
    "resource": {
      "resourceType": "Condition",
      "id": "a8686010-c168-4f8b-bed6-dffb8d6c2546",
      "meta": {
        "profile": [ "http://hl7.org/fhir/us/qicore/StructureDefinition/qicore-condition-encounter-diagnosis" ]
      },
      "category": [ {
        "coding": [ {
          "system": "http://terminology.hl7.org/CodeSystem/condition-category",
          "code": "encounter-diagnosis",
          "display": "Encounter Diagnosis"
        } ]
      } ],
      "code": {
        "coding": [ {
          "system": "http://hl7.org/fhir/sid/icd-10-cm",
          "version": "2023",
          "code": "Z3A.21",
          "display": "21 weeks gestation",
          "userSelected": true
        } ]
      },
      "subject": {
        "reference": "Patient/17479eda-9d6a-47c4-95d3-55e3b1bacb68"
      },
      "recordedDate": "2026-10-26T08:00:00.000+00:00"
    },
    "request": {
      "method": "PUT",
      "url": "Condition/a8686010-c168-4f8b-bed6-dffb8d6c2546"
    }
  }, {
    "fullUrl": "https://madie.cms.gov/Encounter/0bef6887-a788-4972-8673-22b6241af7a1",
    "resource": {
      "resourceType": "Encounter",
      "id": "0bef6887-a788-4972-8673-22b6241af7a1",
      "meta": {
        "profile": [ "http://hl7.org/fhir/us/qicore/StructureDefinition/qicore-encounter" ]
      },
      "status": "finished",
      "class": {
        "system": "http://terminology.hl7.org/CodeSystem/v3-ActCode",
        "code": "IMP",
        "display": "inpatient encounter"
      },
      "type": [ {
        "coding": [ {
          "system": "http://snomed.info/sct",
          "code": "183452005"
        } ]
      } ],
      "subject": {
        "reference": "Patient/17479eda-9d6a-47c4-95d3-55e3b1bacb68"
      },
      "period": {
        "start": "2026-02-01T08:00:00.000+00:00",
        "end": "2026-02-05T08:15:00.000+00:00"
      },
      "reasonReference": [ {
        "reference": "Condition/a8686010-c168-4f8b-bed6-dffb8d6c2546"
      } ]
    },
    "request": {
      "method": "PUT",
      "url": "Encounter/0bef6887-a788-4972-8673-22b6241af7a1"
    }
  }, {
    "fullUrl": "https://madie.cms.gov/Encounter/3747ef1e-52b7-4a1a-a921-b3911074ae75",
    "resource": {
      "resourceType": "Encounter",
      "id": "3747ef1e-52b7-4a1a-a921-b3911074ae75",
      "meta": {
        "profile": [ "http://hl7.org/fhir/us/qicore/StructureDefinition/qicore-encounter" ]
      },
      "status": "finished",
      "class": {
        "system": "http://terminology.hl7.org/CodeSystem/v3-ActCode",
        "code": "EMER",
        "display": "emergency"
      },
      "type": [ {
        "coding": [ {
          "system": "http://snomed.info/sct",
          "code": "4525004"
        } ]
      } ],
      "subject": {
        "reference": "Patient/17479eda-9d6a-47c4-95d3-55e3b1bacb68"
      },
      "period": {
        "start": "2026-02-01T07:00:00.000+00:00",
        "end": "2026-02-01T07:59:00.000+00:00"
      }
    },
    "request": {
      "method": "PUT",
      "url": "Encounter/3747ef1e-52b7-4a1a-a921-b3911074ae75"
    }
  }, {
    "fullUrl": "https://madie.cms.gov/Procedure/c1fcb630-93c0-4567-ada0-d5c5b2a4ab8a",
    "resource": {
      "resourceType": "Procedure",
      "id": "c1fcb630-93c0-4567-ada0-d5c5b2a4ab8a",
      "meta": {
        "profile": [ "http://hl7.org/fhir/us/qicore/StructureDefinition/qicore-procedure" ]
      },
      "extension": [ {
        "url": "http://hl7.org/fhir/us/qicore/StructureDefinition/qicore-recorded",
        "valueDateTime": "2026-02-04T13:35:00.000+00:00"
      } ],
      "status": "completed",
      "code": {
        "coding": [ {
          "system": "http://snomed.info/sct",
          "code": "10745001"
        } ]
      },
      "subject": {
        "reference": "Patient/17479eda-9d6a-47c4-95d3-55e3b1bacb68"
      },
      "performedPeriod": {
        "start": "2026-02-01T08:00:00.000+00:00",
        "end": "2026-02-05T08:15:00.000+00:00"
      }
    },
    "request": {
      "method": "PUT",
      "url": "Procedure/c1fcb630-93c0-4567-ada0-d5c5b2a4ab8a"
    }
  }, {
    "fullUrl": "https://madie.cms.gov/Observation/0f314d66-4851-43a0-a66a-4920a41d8b69",
    "resource": {
      "resourceType": "Observation",
      "id": "0f314d66-4851-43a0-a66a-4920a41d8b69",
      "meta": {
        "profile": [ "http://hl7.org/fhir/us/qicore/StructureDefinition/qicore-observation-lab" ]
      },
      "status": "final",
      "category": [ {
        "coding": [ {
          "system": "http://terminology.hl7.org/CodeSystem/observation-category",
          "code": "laboratory",
          "display": "laboratory",
          "userSelected": true
        } ]
      } ],
      "code": {
        "coding": [ {
          "system": "http://loinc.org",
          "version": "2.73",
          "code": "26464-8",
          "display": "Leukocytes [#/volume] in Blood",
          "userSelected": true
        } ]
      },
      "subject": {
        "reference": "Patient/17479eda-9d6a-47c4-95d3-55e3b1bacb68"
      },
      "effectiveDateTime": "2026-02-01T08:00:00.000+00:00",
      "issued": "2026-02-01T08:00:00.000+00:00",
      "valueQuantity": {
        "unit": "10*3/u"
      }
    },
    "request": {
      "method": "PUT",
      "url": "Observation/0f314d66-4851-43a0-a66a-4920a41d8b69"
    }
  }, {
    "fullUrl": "https://madie.cms.gov/MeasureReport/56367fde-b94c-41de-af80-e6beea01ef38",
    "resource": {
      "resourceType": "MeasureReport",
      "id": "56367fde-b94c-41de-af80-e6beea01ef38",
      "meta": {
        "profile": [ "http://hl7.org/fhir/us/cqfmeasures/StructureDefinition/test-case-cqfm" ]
      },
      "contained": [ {
        "resourceType": "Parameters",
        "id": "a49df87c-47c7-4eee-9bca-07cf9282c97d-parameters",
        "parameter": [ {
          "name": "subject",
          "valueString": "17479eda-9d6a-47c4-95d3-55e3b1bacb68"
        } ]
      } ],
      "extension": [ {
        "url": "http://hl7.org/fhir/StructureDefinition/cqf-inputParameters",
        "valueReference": {
          "reference": "#a49df87c-47c7-4eee-9bca-07cf9282c97d-parameters"
        }
      }, {
        "url": "http://hl7.org/fhir/us/cqfmeasures/StructureDefinition/cqfm-testCaseDescription",
        "valueMarkdown": "WBC value is null."
      } ],
      "modifierExtension": [ {
        "url": "http://hl7.org/fhir/us/cqfmeasures/StructureDefinition/cqfm-isTestCase",
        "valueBoolean": true
      } ],
      "status": "complete",
      "type": "individual",
      "measure": "https://madie.cms.gov/Measure/CMS1028FHIRPCSevereOBComps",
      "period": {
        "start": "2026-01-01",
        "end": "2026-12-31"
      },
      "group": [ {
        "id": "Group_1",
        "population": [ {
          "id": "InitialPopulation_1",
          "code": {
            "coding": [ {
              "system": "http://terminology.hl7.org/CodeSystem/measure-population",
              "code": "initial-population",
              "display": "Initial Population"
            } ]
          },
          "count": 1
        }, {
          "id": "Denominator_1",
          "code": {
            "coding": [ {
              "system": "http://terminology.hl7.org/CodeSystem/measure-population",
              "code": "denominator",
              "display": "Denominator"
            } ]
          },
          "count": 1
        }, {
          "id": "Numerator_1",
          "code": {
            "coding": [ {
              "system": "http://terminology.hl7.org/CodeSystem/measure-population",
              "code": "numerator",
              "display": "Numerator"
            } ]
          },
          "count": 0
        }, {
          "id": "NumeratorExclusion_1",
          "code": {
            "coding": [ {
              "system": "http://terminology.hl7.org/CodeSystem/measure-population",
              "code": "numerator-exclusion",
              "display": "Numerator Exclusion"
            } ]
          },
          "count": 0
        } ],
        "measureScore": {
          "value": 0.0
        }
      }, {
        "id": "Group_2",
        "population": [ {
          "id": "InitialPopulation_2",
          "code": {
            "coding": [ {
              "system": "http://terminology.hl7.org/CodeSystem/measure-population",
              "code": "initial-population",
              "display": "Initial Population"
            } ]
          },
          "count": 1
        }, {
          "id": "Denominator_2",
          "code": {
            "coding": [ {
              "system": "http://terminology.hl7.org/CodeSystem/measure-population",
              "code": "denominator",
              "display": "Denominator"
            } ]
          },
          "count": 1
        }, {
          "id": "Numerator_2",
          "code": {
            "coding": [ {
              "system": "http://terminology.hl7.org/CodeSystem/measure-population",
              "code": "numerator",
              "display": "Numerator"
            } ]
          },
          "count": 0
        }, {
          "id": "NumeratorExclusion_2",
          "code": {
            "coding": [ {
              "system": "http://terminology.hl7.org/CodeSystem/measure-population",
              "code": "numerator-exclusion",
              "display": "Numerator Exclusion"
            } ]
          },
          "count": 0
        } ],
        "measureScore": {
          "value": 0.0
        }
      } ],
      "evaluatedResource": [ {
        "reference": "Patient/17479eda-9d6a-47c4-95d3-55e3b1bacb68"
      }, {
        "reference": "Observation/5d658a68-6c69-441a-a5a7-a13fc57d5307"
      }, {
        "reference": "Condition/a8686010-c168-4f8b-bed6-dffb8d6c2546"
      }, {
        "reference": "Encounter/0bef6887-a788-4972-8673-22b6241af7a1"
      }, {
        "reference": "Encounter/3747ef1e-52b7-4a1a-a921-b3911074ae75"
      }, {
        "reference": "Procedure/c1fcb630-93c0-4567-ada0-d5c5b2a4ab8a"
      }, {
        "reference": "Observation/0f314d66-4851-43a0-a66a-4920a41d8b69"
      } ]
    },
    "request": {
      "method": "PUT",
      "url": "MeasureReport/56367fde-b94c-41de-af80-e6beea01ef38"
    }
  } ]
}