{
  "resourceType": "Bundle",
  "id": "6109650598086b538055a0f2",
  "type": "transaction",
  "entry": [ {
    "fullUrl": "https://madie.cms.gov/Patient/45e565d9-370c-4471-ab70-21d65fb14cd9",
    "resource": {
      "resourceType": "Patient",
      "id": "45e565d9-370c-4471-ab70-21d65fb14cd9",
      "meta": {
        "profile": [ "http://hl7.org/fhir/us/qicore/StructureDefinition/qicore-patient" ]
      },
      "text": {
        "status": "generated",
        "div": "<div xmlns=\"http://www.w3.org/1999/xhtml\"><div class=\"hapiHeaderText\">OPEnc1DayAfterMP <b>IPPFAIL </b></div><table class=\"hapiPropertyTable\"><tbody><tr><td>Identifier</td><td>cb76ca79e162958d7a07677b4555c841</td></tr><tr><td>Date of birth</td><td><span>13 December 1995</span></td></tr></tbody></table></div>"
      },
      "extension": [ {
        "url": "http://hl7.org/fhir/us/core/StructureDefinition/us-core-race",
        "extension": [ {
          "url": "ombCategory",
          "valueCoding": {
            "system": "urn:oid:2.16.840.1.113883.6.238",
            "code": "1002-5",
            "display": "American Indian or Alaska Native",
            "userSelected": true
          }
        }, {
          "url": "text",
          "valueString": "American Indian or Alaska Native"
        } ]
      }, {
        "url": "http://hl7.org/fhir/us/core/StructureDefinition/us-core-ethnicity",
        "extension": [ {
          "url": "ombCategory",
          "valueCoding": {
            "system": "urn:oid:2.16.840.1.113883.6.238",
            "code": "2135-2",
            "display": "Hispanic or Latino",
            "userSelected": true
          }
        }, {
          "url": "text",
          "valueString": "Hispanic or Latino"
        } ]
      } ],
      "identifier": [ {
        "type": {
          "coding": [ {
            "system": "http://terminology.hl7.org/CodeSystem/v2-0203",
            "code": "MR"
          } ]
        },
        "system": "https://bonnie-fhir.healthit.gov/",
        "value": "6109650598086b538055a0f2"
      } ],
      "active": true,
      "name": [ {
        "use": "usual",
        "family": "IPFail",
        "given": [ "Enc1DayAfterMP" ]
      } ],
      "gender": "female",
      "birthDate": "2011-12-13"
    },
    "request": {
      "method": "PUT",
      "url": "Patient/45e565d9-370c-4471-ab70-21d65fb14cd9"
    }
  }, {
    "fullUrl": "https://madie.cms.gov/Encounter/be89ca1a-44c4-49a4-8d90-6311c21a4ffc",
    "resource": {
      "resourceType": "Encounter",
      "id": "be89ca1a-44c4-49a4-8d90-6311c21a4ffc",
      "status": "finished",
      "class": {
        "system": "http://terminology.hl7.org/CodeSystem/v3-ActCode",
        "code": "AMB",
        "display": "ambulatory",
        "userSelected": true
      },
      "type": [ {
        "coding": [ {
          "system": "http://www.ama-assn.org/go/cpt",
          "code": "99241"
        } ]
      } ],
      "subject": {
        "reference": "Patient/45e565d9-370c-4471-ab70-21d65fb14cd9"
      },
      "period": {
        "start": "2028-01-01T10:02:00.000+00:00",
        "end": "2028-01-01T10:23:00.000+00:00"
      },
      "length": {
        "value": 0.0,
        "unit": "days"
      },
      "diagnosis": [ {
        "condition": {
          "reference": "Condition/05fb1189-838a-4262-bd5c-3a4f4e224d70"
        },
        "use": {
          "coding": [ {
            "system": "http://snomed.info/sct",
            "version": "2022-09",
            "code": "191610000",
            "display": "Recurrent major depressive episodes, mild (disorder)",
            "userSelected": true
          } ]
        }
      } ]
    },
    "request": {
      "method": "PUT",
      "url": "Encounter/be89ca1a-44c4-49a4-8d90-6311c21a4ffc"
    }
  }, {
    "fullUrl": "https://madie.cms.gov/Condition/05fb1189-838a-4262-bd5c-3a4f4e224d70",
    "resource": {
      "resourceType": "Condition",
      "id": "05fb1189-838a-4262-bd5c-3a4f4e224d70",
      "category": [ {
        "coding": [ {
          "system": "http://terminology.hl7.org/CodeSystem/condition-category",
          "code": "encounter-diagnosis",
          "display": "encounter-diagnosis",
          "userSelected": true
        } ]
      } ],
      "code": {
        "coding": [ {
          "system": "http://snomed.info/sct",
          "version": "2022-09",
          "code": "10811121000119102",
          "display": "Major depressive disorder in mother complicating childbirth (disorder)",
          "userSelected": true
        } ]
      },
      "subject": {
        "reference": "Patient/45e565d9-370c-4471-ab70-21d65fb14cd9"
      },
      "recordedDate": "2028-01-01T10:02:00.000+00:00"
    },
    "request": {
      "method": "PUT",
      "url": "Condition/05fb1189-838a-4262-bd5c-3a4f4e224d70"
    }
  }, {
    "fullUrl": "https://madie.cms.gov/Coverage/675591ca-0bf2-4cc8-a5dc-4e8f778d9b01",
    "resource": {
      "resourceType": "Coverage",
      "id": "675591ca-0bf2-4cc8-a5dc-4e8f778d9b01",
      "status": "active",
      "type": {
        "coding": [ {
          "system": "http://www.nlm.nih.gov/research/umls/sop",
          "version": "9.2",
          "code": "1",
          "display": "MEDICARE",
          "userSelected": true
        } ]
      },
      "beneficiary": {
        "reference": "Patient/45e565d9-370c-4471-ab70-21d65fb14cd9"
      },
      "period": {
        "start": "2027-01-01T08:00:00.000+00:00",
        "end": "2028-03-29T08:15:00.000+00:00"
      },
      "payor": [ {
        "reference": "Organization/fc5ad738-57a2-41d5-9b03-5813df3a0909"
      } ]
    },
    "request": {
      "method": "PUT",
      "url": "Coverage/675591ca-0bf2-4cc8-a5dc-4e8f778d9b01"
    }
  }, {
    "fullUrl": "https://madie.cms.gov/Organization/fc5ad738-57a2-41d5-9b03-5813df3a0909",
    "resource": {
      "resourceType": "Organization",
      "id": "fc5ad738-57a2-41d5-9b03-5813df3a0909",
      "meta": {
        "profile": [ "http://hl7.org/fhir/us/qicore/StructureDefinition/qicore-organization" ]
      },
      "identifier": [ {
        "use": "temp",
        "system": "urn:oid:2.16.840.1.113883.4.4",
        "value": "21-3259825"
      } ],
      "active": true,
      "type": [ {
        "coding": [ {
          "system": "http://terminology.hl7.org/CodeSystem/organization-type",
          "code": "pay",
          "display": "Payer"
        } ]
      } ],
      "name": "Blue Cross Blue Shield of Texas",
      "telecom": [ {
        "system": "phone",
        "value": "(+1) 972-766-6900"
      } ],
      "address": [ {
        "use": "billing",
        "type": "postal",
        "line": [ "P.O. Box 660044" ],
        "city": "Dallas",
        "state": "TX",
        "postalCode": "75266-0044",
        "country": "USA"
      } ]
    },
    "request": {
      "method": "PUT",
      "url": "Organization/fc5ad738-57a2-41d5-9b03-5813df3a0909"
    }
  }, {
    "fullUrl": "https://madie.cms.gov/Practitioner/7f15512b-bb66-4d96-aca7-47386ea467be",
    "resource": {
      "resourceType": "Practitioner",
      "id": "7f15512b-bb66-4d96-aca7-47386ea467be",
      "identifier": [ {
        "system": "http://hl7.org/fhir/sid/us-npi",
        "value": "123456"
      } ],
      "name": [ {
        "family": "Evil",
        "prefix": [ "Dr" ]
      } ]
    },
    "request": {
      "method": "PUT",
      "url": "Practitioner/7f15512b-bb66-4d96-aca7-47386ea467be"
    }
  }, {
    "fullUrl": "https://madie.cms.gov/MeasureReport/0a8651c0-cb78-47ce-b8dd-8b7c133dcaf3",
    "resource": {
      "resourceType": "MeasureReport",
      "id": "0a8651c0-cb78-47ce-b8dd-8b7c133dcaf3",
      "meta": {
        "profile": [ "http://hl7.org/fhir/us/cqfmeasures/StructureDefinition/test-case-cqfm" ]
      },
      "contained": [ {
        "resourceType": "Parameters",
        "id": "550443d3-a1eb-48ed-8b36-e48032d7382b-parameters",
        "parameter": [ {
          "name": "subject",
          "valueString": "45e565d9-370c-4471-ab70-21d65fb14cd9"
        } ]
      } ],
      "extension": [ {
        "url": "http://hl7.org/fhir/StructureDefinition/cqf-inputParameters",
        "valueReference": {
          "reference": "#550443d3-a1eb-48ed-8b36-e48032d7382b-parameters"
        }
      }, {
        "url": "http://hl7.org/fhir/us/cqfmeasures/StructureDefinition/cqfm-testCaseDescription",
        "valueMarkdown": "Patient has Outpatient Consultation encounter 1 day after measurement period to test timing"
      } ],
      "modifierExtension": [ {
        "url": "http://hl7.org/fhir/us/cqfmeasures/StructureDefinition/cqfm-isTestCase",
        "valueBoolean": true
      } ],
      "status": "complete",
      "type": "individual",
      "measure": "https://madie.cms.gov/Measure/CMS177FHIRChildMDDSuicideAssmt",
      "period": {
        "start": "2026-01-01",
        "end": "2026-12-31"
      },
      "group": [ {
        "id": "Group_1",
        "population": [ {
          "id": "InitialPopulation_1",
          "code": {
            "coding": [ {
              "system": "http://terminology.hl7.org/CodeSystem/measure-population",
              "code": "initial-population",
              "display": "Initial Population"
            } ]
          },
          "count": 0
        }, {
          "id": "Denominator_1",
          "code": {
            "coding": [ {
              "system": "http://terminology.hl7.org/CodeSystem/measure-population",
              "code": "denominator",
              "display": "Denominator"
            } ]
          },
          "count": 0
        }, {
          "id": "Numerator_1",
          "code": {
            "coding": [ {
              "system": "http://terminology.hl7.org/CodeSystem/measure-population",
              "code": "numerator",
              "display": "Numerator"
            } ]
          },
          "count": 0
        } ],
        "measureScore": {
          "value": 0.0
        }
      } ],
      "evaluatedResource": [ {
        "reference": "Patient/45e565d9-370c-4471-ab70-21d65fb14cd9"
      }, {
        "reference": "Encounter/be89ca1a-44c4-49a4-8d90-6311c21a4ffc"
      }, {
        "reference": "Condition/05fb1189-838a-4262-bd5c-3a4f4e224d70"
      }, {
        "reference": "Coverage/675591ca-0bf2-4cc8-a5dc-4e8f778d9b01"
      }, {
        "reference": "Organization/fc5ad738-57a2-41d5-9b03-5813df3a0909"
      }, {
        "reference": "Practitioner/7f15512b-bb66-4d96-aca7-47386ea467be"
      } ]
    },
    "request": {
      "method": "PUT",
      "url": "MeasureReport/0a8651c0-cb78-47ce-b8dd-8b7c133dcaf3"
    }
  } ]
}