{
  "resourceType": "Bundle",
  "id": "633b3f9f0968f80122503cdb",
  "type": "transaction",
  "entry": [ {
    "fullUrl": "https://madie.cms.gov/Patient/51c90bbb-f142-4bdf-a47a-237b2ff9403c",
    "resource": {
      "resourceType": "Patient",
      "id": "51c90bbb-f142-4bdf-a47a-237b2ff9403c",
      "meta": {
        "profile": [ "http://hl7.org/fhir/us/qicore/StructureDefinition/qicore-patient" ]
      },
      "text": {
        "status": "generated",
        "div": "<div xmlns=\"http://www.w3.org/1999/xhtml\"><div class=\"hapiHeaderText\">BldTxRelvDtTime1MinB4MNDayB4EDOBTriageHosp<b>NUMFail</b></div><table class=\"hapiPropertyTable\"><tbody><tr><td>Date of birth</td><td><span>01 February 2004</span></td></tr></tbody></table></div>"
      },
      "extension": [ {
        "url": "http://hl7.org/fhir/us/core/StructureDefinition/us-core-race",
        "extension": [ {
          "url": "ombCategory",
          "valueCoding": {
            "system": "urn:oid:2.16.840.1.113883.6.238",
            "code": "1002-5",
            "display": "American Indian or Alaska Native",
            "userSelected": true
          }
        }, {
          "url": "text",
          "valueString": "American Indian or Alaska Native"
        } ]
      }, {
        "url": "http://hl7.org/fhir/us/core/StructureDefinition/us-core-ethnicity",
        "extension": [ {
          "url": "ombCategory",
          "valueCoding": {
            "system": "urn:oid:2.16.840.1.113883.6.238",
            "code": "2135-2",
            "display": "Hispanic or Latino",
            "userSelected": true
          }
        }, {
          "url": "text",
          "valueString": "Hispanic or Latino"
        } ]
      } ],
      "identifier": [ {
        "type": {
          "coding": [ {
            "system": "http://terminology.hl7.org/CodeSystem/v2-0203",
            "code": "MR"
          } ]
        },
        "system": "https://bonnie-fhir.healthit.gov/",
        "value": "633b3f9f0968f80122503cdb"
      } ],
      "active": true,
      "name": [ {
        "use": "usual",
        "family": "NUMFail",
        "given": [ "BldTxRelvDtTime1MinB4MNDayB4EDOBTriageHosp" ]
      } ],
      "gender": "female",
      "birthDate": "2005-02-01"
    },
    "request": {
      "method": "PUT",
      "url": "Patient/51c90bbb-f142-4bdf-a47a-237b2ff9403c"
    }
  }, {
    "fullUrl": "https://madie.cms.gov/Observation/cc77003c-ce1c-4116-ad2d-78a2c0d7f629",
    "resource": {
      "resourceType": "Observation",
      "id": "cc77003c-ce1c-4116-ad2d-78a2c0d7f629",
      "meta": {
        "profile": [ "http://hl7.org/fhir/us/qicore/StructureDefinition/qicore-simple-observation" ]
      },
      "status": "final",
      "category": [ {
        "coding": [ {
          "system": "http://terminology.hl7.org/CodeSystem/observation-category",
          "code": "exam",
          "display": "exam",
          "userSelected": true
        } ]
      } ],
      "code": {
        "coding": [ {
          "system": "http://loinc.org",
          "code": "93857-1"
        } ]
      },
      "subject": {
        "reference": "Patient/51c90bbb-f142-4bdf-a47a-237b2ff9403c"
      },
      "effectiveDateTime": "2026-02-01T08:00:00.000+00:00",
      "performer": [ {
        "reference": "Organization/example1",
        "display": "Hendricks Country Hospital"
      } ],
      "valueDateTime": "2026-02-01T08:00:00.000+00:00"
    },
    "request": {
      "method": "PUT",
      "url": "Observation/cc77003c-ce1c-4116-ad2d-78a2c0d7f629"
    }
  }, {
    "fullUrl": "https://madie.cms.gov/Observation/92652345-0e39-4c1f-bdd0-0754a8ad4f9b",
    "resource": {
      "resourceType": "Observation",
      "id": "92652345-0e39-4c1f-bdd0-0754a8ad4f9b",
      "meta": {
        "profile": [ "http://hl7.org/fhir/us/qicore/StructureDefinition/qicore-simple-observation" ]
      },
      "status": "final",
      "category": [ {
        "coding": [ {
          "system": "http://terminology.hl7.org/CodeSystem/observation-category",
          "code": "exam",
          "display": "exam",
          "userSelected": true
        } ]
      } ],
      "code": {
        "coding": [ {
          "system": "http://loinc.org",
          "code": "11884-4"
        } ]
      },
      "subject": {
        "reference": "Patient/51c90bbb-f142-4bdf-a47a-237b2ff9403c"
      },
      "effectiveDateTime": "2026-02-01T08:00:00.000+00:00",
      "performer": [ {
        "reference": "Organization/example1",
        "display": "Hendricks Country Hospital"
      } ],
      "valueQuantity": {
        "value": 20,
        "system": "http://unitsofmeasure.org",
        "code": "wk"
      }
    },
    "request": {
      "method": "PUT",
      "url": "Observation/92652345-0e39-4c1f-bdd0-0754a8ad4f9b"
    }
  }, {
    "fullUrl": "https://madie.cms.gov/Observation/2f33de75-7720-4be9-9543-d27aac4ae39a",
    "resource": {
      "resourceType": "Observation",
      "id": "2f33de75-7720-4be9-9543-d27aac4ae39a",
      "meta": {
        "profile": [ "http://hl7.org/fhir/us/qicore/StructureDefinition/qicore-simple-observation" ]
      },
      "status": "final",
      "category": [ {
        "coding": [ {
          "system": "http://terminology.hl7.org/CodeSystem/observation-category",
          "code": "exam",
          "display": "exam",
          "userSelected": true
        } ]
      } ],
      "code": {
        "coding": [ {
          "system": "http://loinc.org",
          "code": "11884-4"
        } ]
      },
      "subject": {
        "reference": "Patient/51c90bbb-f142-4bdf-a47a-237b2ff9403c"
      },
      "effectiveDateTime": "2026-02-01T08:01:00.000+00:00",
      "performer": [ {
        "reference": "Organization/example1",
        "display": "Hendricks Country Hospital"
      } ]
    },
    "request": {
      "method": "PUT",
      "url": "Observation/2f33de75-7720-4be9-9543-d27aac4ae39a"
    }
  }, {
    "fullUrl": "https://madie.cms.gov/Encounter/0b3b04b5-adfb-4195-b760-93ec0d9469c2",
    "resource": {
      "resourceType": "Encounter",
      "id": "0b3b04b5-adfb-4195-b760-93ec0d9469c2",
      "meta": {
        "profile": [ "http://hl7.org/fhir/us/qicore/StructureDefinition/qicore-encounter" ]
      },
      "status": "finished",
      "class": {
        "system": "http://terminology.hl7.org/CodeSystem/v3-ActCode",
        "code": "IMP",
        "display": "inpatient encounter"
      },
      "type": [ {
        "coding": [ {
          "system": "http://snomed.info/sct",
          "code": "183452005"
        } ]
      } ],
      "subject": {
        "reference": "Patient/51c90bbb-f142-4bdf-a47a-237b2ff9403c"
      },
      "period": {
        "start": "2026-02-01T08:00:00.000+00:00",
        "end": "2026-02-05T08:15:00.000+00:00"
      }
    },
    "request": {
      "method": "PUT",
      "url": "Encounter/0b3b04b5-adfb-4195-b760-93ec0d9469c2"
    }
  }, {
    "fullUrl": "https://madie.cms.gov/Coverage/15aa45e4-2c53-44df-9998-aaf4acd3d52f",
    "resource": {
      "resourceType": "Coverage",
      "id": "15aa45e4-2c53-44df-9998-aaf4acd3d52f",
      "status": "active",
      "subscriberId": "523435",
      "beneficiary": {
        "reference": "Patient/51c90bbb-f142-4bdf-a47a-237b2ff9403c"
      },
      "relationship": {
        "coding": [ {
          "system": "http://terminology.hl7.org/CodeSystem/subscriber-relationship",
          "code": "self"
        } ]
      },
      "period": {
        "start": "2005-02-01T08:00:00.000+00:00"
      },
      "payor": [ {
        "reference": "Organization/b0482ce4-296c-4d2a-8ee3-ee9f145cf830"
      } ]
    },
    "request": {
      "method": "PUT",
      "url": "Coverage/15aa45e4-2c53-44df-9998-aaf4acd3d52f"
    }
  }, {
    "fullUrl": "https://madie.cms.gov/Procedure/cfd7deda-98c5-4b60-b328-29f645eaac1a",
    "resource": {
      "resourceType": "Procedure",
      "id": "cfd7deda-98c5-4b60-b328-29f645eaac1a",
      "meta": {
        "profile": [ "http://hl7.org/fhir/us/qicore/StructureDefinition/qicore-procedure" ]
      },
      "extension": [ {
        "url": "http://hl7.org/fhir/us/qicore/StructureDefinition/qicore-recorded",
        "valueDateTime": "2014-04-05T13:35:00.000+00:00"
      } ],
      "status": "completed",
      "code": {
        "coding": [ {
          "system": "http://snomed.info/sct",
          "code": "10745001"
        } ]
      },
      "subject": {
        "reference": "Patient/51c90bbb-f142-4bdf-a47a-237b2ff9403c"
      },
      "performedPeriod": {
        "start": "2026-02-01T08:00:00.000+00:00",
        "end": "2026-02-05T08:15:00.000+00:00"
      }
    },
    "request": {
      "method": "PUT",
      "url": "Procedure/cfd7deda-98c5-4b60-b328-29f645eaac1a"
    }
  }, {
    "fullUrl": "https://madie.cms.gov/Procedure/a05b83ac-794b-43fc-9d26-92879cac3379",
    "resource": {
      "resourceType": "Procedure",
      "id": "a05b83ac-794b-43fc-9d26-92879cac3379",
      "meta": {
        "profile": [ "http://hl7.org/fhir/us/qicore/StructureDefinition/qicore-procedure" ]
      },
      "extension": [ {
        "url": "http://hl7.org/fhir/us/qicore/StructureDefinition/qicore-recorded",
        "valueDateTime": "2026-02-01T04:01:00.000+00:00"
      } ],
      "status": "completed",
      "code": {
        "coding": [ {
          "system": "http://snomed.info/sct",
          "code": "11397000"
        } ]
      },
      "subject": {
        "reference": "Patient/51c90bbb-f142-4bdf-a47a-237b2ff9403c"
      },
      "performedPeriod": {
        "start": "2026-01-31T11:59:00.000+00:00",
        "end": "2026-02-01T00:59:00.000+00:00"
      }
    },
    "request": {
      "method": "PUT",
      "url": "Procedure/a05b83ac-794b-43fc-9d26-92879cac3379"
    }
  }, {
    "fullUrl": "https://madie.cms.gov/Organization/b0482ce4-296c-4d2a-8ee3-ee9f145cf830",
    "resource": {
      "resourceType": "Organization",
      "id": "b0482ce4-296c-4d2a-8ee3-ee9f145cf830",
      "meta": {
        "profile": [ "http://hl7.org/fhir/us/qicore/StructureDefinition/qicore-organization" ]
      },
      "identifier": [ {
        "use": "temp",
        "system": "urn:oid:2.16.840.1.113883.4.4",
        "value": "21-3259825"
      } ],
      "active": true,
      "type": [ {
        "coding": [ {
          "system": "http://terminology.hl7.org/CodeSystem/organization-type",
          "code": "pay",
          "display": "Payer"
        } ]
      } ],
      "name": "Blue Cross Blue Shield of Texas",
      "telecom": [ {
        "system": "phone",
        "value": "(+1) 972-766-6900"
      } ],
      "address": [ {
        "use": "billing",
        "type": "postal",
        "line": [ "P.O. Box 660044" ],
        "city": "Dallas",
        "state": "TX",
        "postalCode": "75266-0044",
        "country": "USA"
      } ]
    },
    "request": {
      "method": "PUT",
      "url": "Organization/b0482ce4-296c-4d2a-8ee3-ee9f145cf830"
    }
  }, {
    "fullUrl": "https://madie.cms.gov/Practitioner/c28ec46f-7458-4052-ba71-3a89f75062b2",
    "resource": {
      "resourceType": "Practitioner",
      "id": "c28ec46f-7458-4052-ba71-3a89f75062b2",
      "meta": {
        "profile": [ "http://hl7.org/fhir/us/qicore/StructureDefinition/qicore-practitioner" ]
      },
      "identifier": [ {
        "system": "http://hl7.org/fhir/sid/us-npi",
        "value": "1234569999"
      } ],
      "name": [ {
        "family": "Evil",
        "prefix": [ "Dr" ]
      } ]
    },
    "request": {
      "method": "PUT",
      "url": "Practitioner/c28ec46f-7458-4052-ba71-3a89f75062b2"
    }
  }, {
    "fullUrl": "https://madie.cms.gov/MeasureReport/4cfb9fd4-e28d-4baa-9337-d03f6309f52b",
    "resource": {
      "resourceType": "MeasureReport",
      "id": "4cfb9fd4-e28d-4baa-9337-d03f6309f52b",
      "meta": {
        "profile": [ "http://hl7.org/fhir/us/cqfmeasures/StructureDefinition/test-case-cqfm" ]
      },
      "contained": [ {
        "resourceType": "Parameters",
        "id": "e17f41fc-4d8d-4e6d-8606-a06312cd7774-parameters",
        "parameter": [ {
          "name": "subject",
          "valueString": "51c90bbb-f142-4bdf-a47a-237b2ff9403c"
        } ]
      } ],
      "extension": [ {
        "url": "http://hl7.org/fhir/StructureDefinition/cqf-inputParameters",
        "valueReference": {
          "reference": "#e17f41fc-4d8d-4e6d-8606-a06312cd7774-parameters"
        }
      }, {
        "url": "http://hl7.org/fhir/us/cqfmeasures/StructureDefinition/cqfm-testCaseDescription",
        "valueMarkdown": "Blood Transfusion Relevant Date Time 1 Minute before midnight day before encounter begin\n"
      } ],
      "modifierExtension": [ {
        "url": "http://hl7.org/fhir/us/cqfmeasures/StructureDefinition/cqfm-isTestCase",
        "valueBoolean": true
      } ],
      "status": "complete",
      "type": "individual",
      "measure": "https://madie.cms.gov/Measure/CMS1028FHIRPCSevereOBComps",
      "period": {
        "start": "2026-01-01",
        "end": "2026-12-31"
      },
      "group": [ {
        "id": "Group_1",
        "population": [ {
          "id": "InitialPopulation_1",
          "code": {
            "coding": [ {
              "system": "http://terminology.hl7.org/CodeSystem/measure-population",
              "code": "initial-population",
              "display": "Initial Population"
            } ]
          },
          "count": 1
        }, {
          "id": "Denominator_1",
          "code": {
            "coding": [ {
              "system": "http://terminology.hl7.org/CodeSystem/measure-population",
              "code": "denominator",
              "display": "Denominator"
            } ]
          },
          "count": 1
        }, {
          "id": "Numerator_1",
          "code": {
            "coding": [ {
              "system": "http://terminology.hl7.org/CodeSystem/measure-population",
              "code": "numerator",
              "display": "Numerator"
            } ]
          },
          "count": 0
        }, {
          "id": "NumeratorExclusion_1",
          "code": {
            "coding": [ {
              "system": "http://terminology.hl7.org/CodeSystem/measure-population",
              "code": "numerator-exclusion",
              "display": "Numerator Exclusion"
            } ]
          },
          "count": 0
        } ],
        "measureScore": {
          "value": 0.0
        }
      }, {
        "id": "Group_2",
        "population": [ {
          "id": "InitialPopulation_2",
          "code": {
            "coding": [ {
              "system": "http://terminology.hl7.org/CodeSystem/measure-population",
              "code": "initial-population",
              "display": "Initial Population"
            } ]
          },
          "count": 1
        }, {
          "id": "Denominator_2",
          "code": {
            "coding": [ {
              "system": "http://terminology.hl7.org/CodeSystem/measure-population",
              "code": "denominator",
              "display": "Denominator"
            } ]
          },
          "count": 1
        }, {
          "id": "Numerator_2",
          "code": {
            "coding": [ {
              "system": "http://terminology.hl7.org/CodeSystem/measure-population",
              "code": "numerator",
              "display": "Numerator"
            } ]
          },
          "count": 0
        }, {
          "id": "NumeratorExclusion_2",
          "code": {
            "coding": [ {
              "system": "http://terminology.hl7.org/CodeSystem/measure-population",
              "code": "numerator-exclusion",
              "display": "Numerator Exclusion"
            } ]
          },
          "count": 0
        } ],
        "measureScore": {
          "value": 0.0
        }
      } ],
      "evaluatedResource": [ {
        "reference": "Patient/51c90bbb-f142-4bdf-a47a-237b2ff9403c"
      }, {
        "reference": "Observation/cc77003c-ce1c-4116-ad2d-78a2c0d7f629"
      }, {
        "reference": "Observation/92652345-0e39-4c1f-bdd0-0754a8ad4f9b"
      }, {
        "reference": "Observation/2f33de75-7720-4be9-9543-d27aac4ae39a"
      }, {
        "reference": "Encounter/0b3b04b5-adfb-4195-b760-93ec0d9469c2"
      }, {
        "reference": "Coverage/15aa45e4-2c53-44df-9998-aaf4acd3d52f"
      }, {
        "reference": "Procedure/cfd7deda-98c5-4b60-b328-29f645eaac1a"
      }, {
        "reference": "Procedure/a05b83ac-794b-43fc-9d26-92879cac3379"
      }, {
        "reference": "Organization/b0482ce4-296c-4d2a-8ee3-ee9f145cf830"
      }, {
        "reference": "Practitioner/c28ec46f-7458-4052-ba71-3a89f75062b2"
      } ]
    },
    "request": {
      "method": "PUT",
      "url": "MeasureReport/4cfb9fd4-e28d-4baa-9337-d03f6309f52b"
    }
  } ]
}