{
  "resourceType": "Bundle",
  "id": "657cbdc9b4f1f0343662347a",
  "type": "transaction",
  "entry": [ {
    "fullUrl": "https://madie.cms.gov/Patient/c61005f2-b932-45eb-a8b8-03f834b7adac",
    "resource": {
      "resourceType": "Patient",
      "id": "c61005f2-b932-45eb-a8b8-03f834b7adac",
      "meta": {
        "profile": [ "http://hl7.org/fhir/us/qicore/StructureDefinition/qicore-patient" ]
      },
      "extension": [ {
        "url": "http://hl7.org/fhir/us/core/StructureDefinition/us-core-race",
        "extension": [ {
          "url": "ombCategory",
          "valueCoding": {
            "system": "urn:oid:2.16.840.1.113883.6.238",
            "code": "2106-3",
            "display": "White",
            "userSelected": true
          }
        }, {
          "url": "text",
          "valueString": "White"
        } ]
      }, {
        "url": "http://hl7.org/fhir/us/core/StructureDefinition/us-core-ethnicity",
        "extension": [ {
          "url": "ombCategory",
          "valueCoding": {
            "system": "urn:oid:2.16.840.1.113883.6.238",
            "code": "2186-5",
            "display": "Not Hispanic or Latino",
            "userSelected": true
          }
        }, {
          "url": "text",
          "valueString": "Not Hispanic or Latino"
        } ]
      } ],
      "identifier": [ {
        "type": {
          "coding": [ {
            "system": "http://terminology.hl7.org/CodeSystem/v2-0203",
            "code": "MR"
          } ]
        },
        "system": "https://bonnie-fhir.healthit.gov/",
        "value": "657cbdc9b4f1f0343662347a"
      } ],
      "name": [ {
        "family": "EncounterLocationsFail",
        "given": [ "EncounterLocationMissing" ]
      } ],
      "gender": "female",
      "birthDate": "2008-01-01"
    },
    "request": {
      "method": "PUT",
      "url": "Patient/c61005f2-b932-45eb-a8b8-03f834b7adac"
    }
  }, {
    "fullUrl": "https://madie.cms.gov/Encounter/4697b39e-0cf1-49e2-b278-ee283b2368c4",
    "resource": {
      "resourceType": "Encounter",
      "id": "4697b39e-0cf1-49e2-b278-ee283b2368c4",
      "meta": {
        "profile": [ "http://hl7.org/fhir/us/qicore/StructureDefinition/qicore-encounter" ]
      },
      "status": "entered-in-error",
      "class": {
        "system": "http://terminology.hl7.org/CodeSystem/v3-ActCode",
        "code": "ACUTE",
        "display": "inpatient acute"
      },
      "type": [ {
        "coding": [ {
          "system": "http://snomed.info/sct",
          "version": "2024",
          "code": "32485007",
          "display": "Hospital admission (procedure)",
          "userSelected": true
        } ]
      } ],
      "subject": {
        "reference": "Patient/c61005f2-b932-45eb-a8b8-03f834b7adac"
      },
      "period": {
        "start": "2026-01-01T08:00:00.000+00:00",
        "end": "2026-01-02T09:15:00.000+00:00"
      }
    },
    "request": {
      "method": "PUT",
      "url": "Encounter/4697b39e-0cf1-49e2-b278-ee283b2368c4"
    }
  }, {
    "fullUrl": "https://madie.cms.gov/Location/ef18e3a0-be58-4d56-b375-94595388d8c0",
    "resource": {
      "resourceType": "Location",
      "id": "ef18e3a0-be58-4d56-b375-94595388d8c0",
      "meta": {
        "profile": [ "http://hl7.org/fhir/us/qicore/StructureDefinition/qicore-location" ]
      },
      "identifier": [ {
        "use": "usual",
        "system": "http://exampleoflocation.com",
        "value": "B1-S.F2"
      } ],
      "name": "Medical Surgical East, first floor",
      "type": [ {
        "coding": [ {
          "system": "https://www.cdc.gov/nhsn/cdaportal/terminology/codesystem/hsloc.html",
          "code": "1025-6",
          "display": "Trauma Critical Care",
          "userSelected": true
        } ]
      } ]
    },
    "request": {
      "method": "PUT",
      "url": "Location/ef18e3a0-be58-4d56-b375-94595388d8c0"
    }
  }, {
    "fullUrl": "https://madie.cms.gov/MedicationAdministration/847d2da7-f217-4c3f-8856-21d1a573b0b2",
    "resource": {
      "resourceType": "MedicationAdministration",
      "id": "847d2da7-f217-4c3f-8856-21d1a573b0b2",
      "meta": {
        "profile": [ "http://hl7.org/fhir/us/qicore/StructureDefinition/qicore-medicationadministration" ]
      },
      "status": "completed",
      "medicationCodeableConcept": {
        "coding": [ {
          "system": "http://www.nlm.nih.gov/research/umls/rxnorm",
          "code": "1007184",
          "display": "insulin aspart protamine, human / insulin aspart, human"
        } ]
      },
      "subject": {
        "reference": "Patient/c61005f2-b932-45eb-a8b8-03f834b7adac"
      },
      "effectivePeriod": {
        "start": "2026-01-01T08:00:00.000+00:00",
        "end": "2026-01-01T08:15:00.000+00:00"
      }
    },
    "request": {
      "method": "PUT",
      "url": "MedicationAdministration/847d2da7-f217-4c3f-8856-21d1a573b0b2"
    }
  }, {
    "fullUrl": "https://madie.cms.gov/Coverage/e55090a2-cd7d-4966-b139-cf6d9a127662",
    "resource": {
      "resourceType": "Coverage",
      "id": "e55090a2-cd7d-4966-b139-cf6d9a127662",
      "meta": {
        "profile": [ "http://hl7.org/fhir/us/qicore/StructureDefinition/qicore-coverage" ]
      },
      "identifier": [ {
        "system": "http://benefitsinc.com/certificate",
        "value": "12345"
      } ],
      "status": "active",
      "type": {
        "coding": [ {
          "system": "https://nahdo.org/sopt",
          "version": "1.0.1",
          "code": "1",
          "display": "MEDICARE",
          "userSelected": true
        } ]
      },
      "subscriberId": "AB9876",
      "beneficiary": {
        "reference": "Patient/c61005f2-b932-45eb-a8b8-03f834b7adac"
      },
      "relationship": {
        "coding": [ {
          "system": "http://terminology.hl7.org/CodeSystem/subscriber-relationship",
          "code": "self"
        } ]
      },
      "payor": [ {
        "reference": "Organization/e5ce19bd-af33-4746-839b-fe237a1dbff2"
      } ]
    },
    "request": {
      "method": "PUT",
      "url": "Coverage/e55090a2-cd7d-4966-b139-cf6d9a127662"
    }
  }, {
    "fullUrl": "https://madie.cms.gov/Organization/e5ce19bd-af33-4746-839b-fe237a1dbff2",
    "resource": {
      "resourceType": "Organization",
      "id": "e5ce19bd-af33-4746-839b-fe237a1dbff2",
      "meta": {
        "profile": [ "http://hl7.org/fhir/us/qicore/StructureDefinition/qicore-organization" ]
      },
      "identifier": [ {
        "use": "temp",
        "system": "urn:oid:2.16.840.1.113883.4.4",
        "value": "21-3259825"
      } ],
      "active": true,
      "type": [ {
        "coding": [ {
          "system": "http://terminology.hl7.org/CodeSystem/organization-type",
          "code": "pay",
          "display": "Payer"
        } ]
      } ],
      "name": "Blue Cross Blue Shield of Texas",
      "telecom": [ {
        "system": "phone",
        "value": "(+1) 972-766-6900"
      } ],
      "address": [ {
        "use": "billing",
        "type": "postal",
        "line": [ "P.O. Box 660044" ],
        "city": "Dallas",
        "state": "TX",
        "postalCode": "75266-0044",
        "country": "USA"
      } ]
    },
    "request": {
      "method": "PUT",
      "url": "Organization/e5ce19bd-af33-4746-839b-fe237a1dbff2"
    }
  }, {
    "fullUrl": "https://madie.cms.gov/Practitioner/0704c330-4c08-4ca8-b86e-984f662b5a22",
    "resource": {
      "resourceType": "Practitioner",
      "id": "0704c330-4c08-4ca8-b86e-984f662b5a22",
      "meta": {
        "profile": [ "http://hl7.org/fhir/us/qicore/StructureDefinition/qicore-practitioner" ]
      },
      "identifier": [ {
        "system": "http://hl7.org/fhir/sid/us-npi",
        "value": "0723660813"
      } ],
      "name": [ {
        "family": "Evil",
        "prefix": [ "Dr" ]
      } ]
    },
    "request": {
      "method": "PUT",
      "url": "Practitioner/0704c330-4c08-4ca8-b86e-984f662b5a22"
    }
  }, {
    "fullUrl": "https://madie.cms.gov/MeasureReport/99858be8-74fb-46ac-84fd-ca8dcb45b821",
    "resource": {
      "resourceType": "MeasureReport",
      "id": "99858be8-74fb-46ac-84fd-ca8dcb45b821",
      "meta": {
        "profile": [ "http://hl7.org/fhir/us/cqfmeasures/StructureDefinition/test-case-cqfm" ]
      },
      "contained": [ {
        "resourceType": "Parameters",
        "id": "c90ab8bf-ef03-48c2-baf3-c325d3df0893-parameters",
        "parameter": [ {
          "name": "subject",
          "valueString": "c61005f2-b932-45eb-a8b8-03f834b7adac"
        } ]
      } ],
      "extension": [ {
        "url": "http://hl7.org/fhir/StructureDefinition/cqf-inputParameters",
        "valueReference": {
          "reference": "#c90ab8bf-ef03-48c2-baf3-c325d3df0893-parameters"
        }
      }, {
        "url": "http://hl7.org/fhir/us/cqfmeasures/StructureDefinition/cqfm-testCaseDescription",
        "valueMarkdown": "Inpatient encounter with diabetic medication and missing encounter location"
      } ],
      "modifierExtension": [ {
        "url": "http://hl7.org/fhir/us/cqfmeasures/StructureDefinition/cqfm-isTestCase",
        "valueBoolean": true
      } ],
      "status": "complete",
      "type": "individual",
      "measure": "https://madie.cms.gov/Measure/NHSNGlycemicControlHypoglycemiaInitialPopulation",
      "period": {
        "start": "2026-01-01",
        "end": "2026-12-31"
      },
      "group": [ {
        "id": "Group_1",
        "population": [ {
          "id": "InitialPopulation_1",
          "code": {
            "coding": [ {
              "system": "http://terminology.hl7.org/CodeSystem/measure-population",
              "code": "initial-population",
              "display": "Initial Population"
            } ]
          },
          "count": 1
        } ],
        "measureScore": {
          "value": 0.0
        }
      } ],
      "evaluatedResource": [ {
        "reference": "Patient/c61005f2-b932-45eb-a8b8-03f834b7adac"
      }, {
        "reference": "Encounter/4697b39e-0cf1-49e2-b278-ee283b2368c4"
      }, {
        "reference": "Location/ef18e3a0-be58-4d56-b375-94595388d8c0"
      }, {
        "reference": "MedicationAdministration/847d2da7-f217-4c3f-8856-21d1a573b0b2"
      }, {
        "reference": "Coverage/e55090a2-cd7d-4966-b139-cf6d9a127662"
      }, {
        "reference": "Organization/e5ce19bd-af33-4746-839b-fe237a1dbff2"
      }, {
        "reference": "Practitioner/0704c330-4c08-4ca8-b86e-984f662b5a22"
      } ]
    },
    "request": {
      "method": "PUT",
      "url": "MeasureReport/99858be8-74fb-46ac-84fd-ca8dcb45b821"
    }
  } ]
}