{
  "resourceType": "Bundle",
  "id": "633c9d030968f8012250fc87",
  "type": "transaction",
  "entry": [ {
    "fullUrl": "https://madie.cms.gov/Patient/96b57130-dda8-481b-b96b-c0d48068384e",
    "resource": {
      "resourceType": "Patient",
      "id": "96b57130-dda8-481b-b96b-c0d48068384e",
      "meta": {
        "profile": [ "http://hl7.org/fhir/us/qicore/StructureDefinition/qicore-patient" ]
      },
      "text": {
        "status": "generated",
        "div": "<div xmlns=\"http://www.w3.org/1999/xhtml\"><div class=\"hapiHeaderText\">CMOdurEnc_ED&lt;1hrObs&lt;1hrBFEnc <b>DENEXPASS </b></div><table class=\"hapiPropertyTable\"><tbody><tr><td>Identifier</td><td>073447d69f29a0b5f6598bee2a80898d</td></tr><tr><td>Date of birth</td><td><span>18 September 1985</span></td></tr></tbody></table></div>"
      },
      "extension": [ {
        "url": "http://hl7.org/fhir/us/core/StructureDefinition/us-core-race",
        "extension": [ {
          "url": "ombCategory",
          "valueCoding": {
            "system": "urn:oid:2.16.840.1.113883.6.238",
            "code": "1002-5",
            "display": "American Indian or Alaska Native",
            "userSelected": true
          }
        }, {
          "url": "text",
          "valueString": "American Indian or Alaska Native"
        } ]
      }, {
        "url": "http://hl7.org/fhir/us/core/StructureDefinition/us-core-ethnicity",
        "extension": [ {
          "url": "ombCategory",
          "valueCoding": {
            "system": "urn:oid:2.16.840.1.113883.6.238",
            "code": "2135-2",
            "display": "Hispanic or Latino",
            "userSelected": true
          }
        }, {
          "url": "text",
          "valueString": "Hispanic or Latino"
        } ]
      } ],
      "identifier": [ {
        "type": {
          "coding": [ {
            "system": "http://terminology.hl7.org/CodeSystem/v2-0203",
            "code": "MR"
          } ]
        },
        "system": "https://bonnie-fhir.healthit.gov/",
        "value": "633c9d030968f8012250fc87"
      } ],
      "active": true,
      "name": [ {
        "use": "usual",
        "family": "DENEXPass ",
        "given": [ "CMOdurEnc_ED<1hrObs<1hrBFEnc" ]
      } ],
      "gender": "female",
      "birthDate": "1986-09-18"
    },
    "request": {
      "method": "PUT",
      "url": "Patient/96b57130-dda8-481b-b96b-c0d48068384e"
    }
  }, {
    "fullUrl": "https://madie.cms.gov/Condition/8ce52a4b-40ee-4d16-b745-4174a873c921",
    "resource": {
      "resourceType": "Condition",
      "id": "8ce52a4b-40ee-4d16-b745-4174a873c921",
      "meta": {
        "profile": [ "http://hl7.org/fhir/us/qicore/StructureDefinition/qicore-condition-problems-health-concerns" ]
      },
      "clinicalStatus": {
        "coding": [ {
          "system": "http://terminology.hl7.org/CodeSystem/condition-clinical",
          "code": "inactive"
        } ]
      },
      "verificationStatus": {
        "coding": [ {
          "system": "http://terminology.hl7.org/CodeSystem/condition-ver-status",
          "code": "confirmed"
        } ]
      },
      "category": [ {
        "coding": [ {
          "system": "http://terminology.hl7.org/CodeSystem/condition-category",
          "code": "encounter-diagnosis",
          "display": "Encounter Diagnosis"
        } ]
      } ],
      "code": {
        "coding": [ {
          "system": "http://hl7.org/fhir/sid/icd-10-cm",
          "code": "I48.20"
        }, {
          "system": "http://hl7.org/fhir/sid/icd-10-cm",
          "code": "I48.0"
        }, {
          "system": "http://snomed.info/sct",
          "code": "5370000"
        } ]
      },
      "subject": {
        "reference": "Patient/96b57130-dda8-481b-b96b-c0d48068384e"
      },
      "onsetDateTime": "2026-10-01T09:00:00.000+00:00",
      "abatementDateTime": "2026-10-12T00:15:00.000+00:00"
    },
    "request": {
      "method": "PUT",
      "url": "Condition/8ce52a4b-40ee-4d16-b745-4174a873c921"
    }
  }, {
    "fullUrl": "https://madie.cms.gov/Encounter/b9afc8d5-3cc0-4e76-901a-c5c315642489",
    "resource": {
      "resourceType": "Encounter",
      "id": "b9afc8d5-3cc0-4e76-901a-c5c315642489",
      "meta": {
        "profile": [ "http://hl7.org/fhir/us/qicore/StructureDefinition/qicore-encounter" ]
      },
      "status": "finished",
      "class": {
        "system": "http://terminology.hl7.org/CodeSystem/v3-ActCode",
        "code": "EMER",
        "display": "emergency"
      },
      "type": [ {
        "coding": [ {
          "system": "http://snomed.info/sct",
          "code": "4525004"
        } ]
      } ],
      "subject": {
        "reference": "Patient/96b57130-dda8-481b-b96b-c0d48068384e"
      },
      "period": {
        "start": "2026-10-01T07:00:00.000+00:00",
        "end": "2026-10-01T07:59:00.000+00:00"
      },
      "length": {
        "value": 0,
        "unit": "days"
      }
    },
    "request": {
      "method": "PUT",
      "url": "Encounter/b9afc8d5-3cc0-4e76-901a-c5c315642489"
    }
  }, {
    "fullUrl": "https://madie.cms.gov/Encounter/f751f060-fb35-44e7-a3bb-ed8b901c0e5d",
    "resource": {
      "resourceType": "Encounter",
      "id": "f751f060-fb35-44e7-a3bb-ed8b901c0e5d",
      "meta": {
        "profile": [ "http://hl7.org/fhir/us/qicore/StructureDefinition/qicore-encounter" ]
      },
      "status": "finished",
      "class": {
        "system": "http://terminology.hl7.org/CodeSystem/v3-ActCode",
        "code": "OBSENC",
        "display": "observation encounter"
      },
      "type": [ {
        "coding": [ {
          "system": "http://snomed.info/sct",
          "code": "448851000124103"
        } ]
      } ],
      "subject": {
        "reference": "Patient/96b57130-dda8-481b-b96b-c0d48068384e"
      },
      "period": {
        "start": "2026-10-01T08:00:00.000+00:00",
        "end": "2026-10-01T08:59:00.000+00:00"
      },
      "length": {
        "value": 0,
        "unit": "days"
      }
    },
    "request": {
      "method": "PUT",
      "url": "Encounter/f751f060-fb35-44e7-a3bb-ed8b901c0e5d"
    }
  }, {
    "fullUrl": "https://madie.cms.gov/Encounter/d5d1dc0b-5935-414c-9e03-70fe7d09ced1",
    "resource": {
      "resourceType": "Encounter",
      "id": "d5d1dc0b-5935-414c-9e03-70fe7d09ced1",
      "meta": {
        "profile": [ "http://hl7.org/fhir/us/qicore/StructureDefinition/qicore-encounter" ]
      },
      "status": "finished",
      "class": {
        "system": "http://terminology.hl7.org/CodeSystem/v3-ActCode",
        "code": "IMP",
        "display": "inpatient encounter"
      },
      "type": [ {
        "coding": [ {
          "system": "http://snomed.info/sct",
          "code": "32485007"
        } ]
      } ],
      "subject": {
        "reference": "Patient/96b57130-dda8-481b-b96b-c0d48068384e"
      },
      "period": {
        "start": "2026-10-01T09:00:00.000+00:00",
        "end": "2026-10-12T00:15:00.000+00:00"
      },
      "length": {
        "value": 11,
        "unit": "days"
      },
      "reasonReference": [ {
        "reference": "Condition/8ce52a4b-40ee-4d16-b745-4174a873c921"
      } ]
    },
    "request": {
      "method": "PUT",
      "url": "Encounter/d5d1dc0b-5935-414c-9e03-70fe7d09ced1"
    }
  }, {
    "fullUrl": "https://madie.cms.gov/claim/5ca62962b8484628b8de1ec5",
    "resource": {
      "resourceType": "Claim",
      "id": "5ca62962b8484628b8de1ec5",
      "meta": {
        "profile": [ "http://hl7.org/fhir/us/qicore/StructureDefinition/qicore-claim" ]
      },
      "status": "active",
      "type": {
        "coding": [ {
          "system": "http://terminology.hl7.org/CodeSystem/claim-type",
          "code": "institutional"
        } ]
      },
      "use": "claim",
      "patient": {
        "reference": "Patient/d170a0a8-b5ad-4303-b6df-e304dd5f92ad"
      },
      "created": "2026-12-01",
      "provider": {
        "reference": "Practitioner/a3225022-b1c7-48fe-a9f4-746308c23e51"
      },
      "priority": {
        "coding": [ {
          "system": "http://terminology.hl7.org/CodeSystem/processpriority",
          "code": "normal"
        } ]
      },
      "diagnosis": [ {
        "sequence": 1,
        "diagnosisCodeableConcept": {
          "coding": [ {
            "system": "http://hl7.org/fhir/sid/icd-10-cm",
            "code": "I63.00"
          } ]
        },
        "type": [ {
          "coding": [ {
            "system": "http://terminology.hl7.org/CodeSystem/ex-diagnosistype",
            "code": "principal"
          } ]
        } ]
      } ],
      "insurance": [ {
        "sequence": 1,
        "focal": true,
        "coverage": {
          "reference": "Coverage/5fa041661c76ba66d9959367"
        }
      } ],
      "item": [ {
        "sequence": 1,
        "diagnosisSequence": [ 1 ],
        "productOrService": {
          "coding": [ {
            "system": "http://terminology.hl7.org/CodeSystem/ex-USCLS",
            "code": "99555"
          } ]
        },
        "encounter": [ {
          "reference": "Encounter/d5d1dc0b-5935-414c-9e03-70fe7d09ced1"
        } ]
      } ]
    },
    "request": {
      "method": "PUT",
      "url": "Claim/5ca62962b8484628b8de1ec5"
    }
  }, {
    "fullUrl": "https://madie.cms.gov/ServiceRequest/f061090c-e7eb-4c15-8015-4ce242d916ea",
    "resource": {
      "resourceType": "ServiceRequest",
      "id": "f061090c-e7eb-4c15-8015-4ce242d916ea",
      "meta": {
        "profile": [ "http://hl7.org/fhir/us/qicore/StructureDefinition/qicore-servicerequest" ]
      },
      "status": "active",
      "intent": "order",
      "code": {
        "coding": [ {
          "system": "http://snomed.info/sct",
          "code": "133918004"
        } ]
      },
      "subject": {
        "reference": "Patient/96b57130-dda8-481b-b96b-c0d48068384e"
      },
      "authoredOn": "2026-10-01T09:00:00.000+00:00"
    },
    "request": {
      "method": "PUT",
      "url": "ServiceRequest/f061090c-e7eb-4c15-8015-4ce242d916ea"
    }
  }, {
    "fullUrl": "https://madie.cms.gov/Coverage/96fef963-6285-4b9b-8b8d-8786fe59c4e4",
    "resource": {
      "resourceType": "Coverage",
      "id": "96fef963-6285-4b9b-8b8d-8786fe59c4e4",
      "status": "active",
      "subscriberId": "523435",
      "beneficiary": {
        "reference": "Patient/96b57130-dda8-481b-b96b-c0d48068384e"
      },
      "relationship": {
        "coding": [ {
          "system": "http://terminology.hl7.org/CodeSystem/subscriber-relationship",
          "code": "self"
        } ]
      },
      "period": {
        "start": "1986-09-18T08:00:00.000+00:00"
      },
      "payor": [ {
        "reference": "Organization/898d2799-5e54-4992-adbf-d2d72135f38b"
      } ]
    },
    "request": {
      "method": "PUT",
      "url": "Coverage/96fef963-6285-4b9b-8b8d-8786fe59c4e4"
    }
  }, {
    "fullUrl": "https://madie.cms.gov/Condition/c101361c-7b4f-45be-a818-1b53a9316595",
    "resource": {
      "resourceType": "Condition",
      "id": "c101361c-7b4f-45be-a818-1b53a9316595",
      "meta": {
        "profile": [ "http://hl7.org/fhir/us/qicore/StructureDefinition/qicore-condition" ]
      },
      "clinicalStatus": {
        "coding": [ {
          "system": "http://terminology.hl7.org/CodeSystem/condition-clinical",
          "code": "active"
        } ]
      },
      "verificationStatus": {
        "coding": [ {
          "system": "http://terminology.hl7.org/CodeSystem/condition-ver-status",
          "code": "confirmed"
        } ]
      },
      "category": [ {
        "coding": [ {
          "system": "http://terminology.hl7.org/CodeSystem/condition-category",
          "code": "encounter-diagnosis",
          "display": "Encounter Diagnosis"
        } ]
      } ],
      "code": {
        "coding": [ {
          "system": "http://snomed.info/sct",
          "version": "2021-09",
          "code": "111297002",
          "display": "Nonparalytic stroke (disorder)",
          "userSelected": true
        } ]
      },
      "subject": {
        "reference": "Patient/96b57130-dda8-481b-b96b-c0d48068384e"
      },
      "recordedDate": "2026-10-13T08:00:00.000+00:00"
    },
    "request": {
      "method": "PUT",
      "url": "Condition/c101361c-7b4f-45be-a818-1b53a9316595"
    }
  }, {
    "fullUrl": "https://madie.cms.gov/Organization/898d2799-5e54-4992-adbf-d2d72135f38b",
    "resource": {
      "resourceType": "Organization",
      "id": "898d2799-5e54-4992-adbf-d2d72135f38b",
      "meta": {
        "profile": [ "http://hl7.org/fhir/us/qicore/StructureDefinition/qicore-organization" ]
      },
      "identifier": [ {
        "use": "temp",
        "system": "urn:oid:2.16.840.1.113883.4.4",
        "value": "21-3259825"
      } ],
      "active": true,
      "type": [ {
        "coding": [ {
          "system": "http://terminology.hl7.org/CodeSystem/organization-type",
          "code": "pay",
          "display": "Payer"
        } ]
      } ],
      "name": "Blue Cross Blue Shield of Texas",
      "telecom": [ {
        "system": "phone",
        "value": "(+1) 972-766-6900"
      } ],
      "address": [ {
        "use": "billing",
        "type": "postal",
        "line": [ "P.O. Box 660044" ],
        "city": "Dallas",
        "state": "TX",
        "postalCode": "75266-0044",
        "country": "USA"
      } ]
    },
    "request": {
      "method": "PUT",
      "url": "Organization/898d2799-5e54-4992-adbf-d2d72135f38b"
    }
  }, {
    "fullUrl": "https://madie.cms.gov/Practitioner/a3225022-b1c7-48fe-a9f4-746308c23e51",
    "resource": {
      "resourceType": "Practitioner",
      "id": "a3225022-b1c7-48fe-a9f4-746308c23e51",
      "meta": {
        "profile": [ "http://hl7.org/fhir/us/qicore/StructureDefinition/qicore-practitioner" ]
      },
      "identifier": [ {
        "system": "http://hl7.org/fhir/sid/us-npi",
        "value": "9999999896"
      } ],
      "name": [ {
        "family": "Evil",
        "prefix": [ "Dr" ]
      } ]
    },
    "request": {
      "method": "PUT",
      "url": "Practitioner/a3225022-b1c7-48fe-a9f4-746308c23e51"
    }
  }, {
    "fullUrl": "https://madie.cms.gov/MeasureReport/5d3fccff-2e4b-4b3b-ad02-bc3083d9d6d5",
    "resource": {
      "resourceType": "MeasureReport",
      "id": "5d3fccff-2e4b-4b3b-ad02-bc3083d9d6d5",
      "meta": {
        "profile": [ "http://hl7.org/fhir/us/cqfmeasures/StructureDefinition/test-case-cqfm" ]
      },
      "contained": [ {
        "resourceType": "Parameters",
        "id": "13ca416e-e248-4695-80d8-0c25ac4fff68-parameters",
        "parameter": [ {
          "name": "subject",
          "valueString": "96b57130-dda8-481b-b96b-c0d48068384e"
        } ]
      } ],
      "extension": [ {
        "url": "http://hl7.org/fhir/StructureDefinition/cqf-inputParameters",
        "valueReference": {
          "reference": "#13ca416e-e248-4695-80d8-0c25ac4fff68-parameters"
        }
      }, {
        "url": "http://hl7.org/fhir/us/cqfmeasures/StructureDefinition/cqfm-testCaseDescription",
        "valueMarkdown": "Patient receives CMO during inpatient encounter. ED ends 1 min before Observation start, Observation ends 1 min before inpatient encounter start Testing  HospitalizationWithObservation function.\n"
      } ],
      "modifierExtension": [ {
        "url": "http://hl7.org/fhir/us/cqfmeasures/StructureDefinition/cqfm-isTestCase",
        "valueBoolean": true
      } ],
      "status": "complete",
      "type": "individual",
      "measure": "https://madie.cms.gov/Measure/CMS71FHIRSTKAnticoagAFFlutter",
      "period": {
        "start": "2026-01-01",
        "end": "2026-12-31"
      },
      "group": [ {
        "id": "Group_1",
        "population": [ {
          "id": "InitialPopulation_1",
          "code": {
            "coding": [ {
              "system": "http://terminology.hl7.org/CodeSystem/measure-population",
              "code": "initial-population",
              "display": "Initial Population"
            } ]
          },
          "count": 1
        }, {
          "id": "Denominator_1",
          "code": {
            "coding": [ {
              "system": "http://terminology.hl7.org/CodeSystem/measure-population",
              "code": "denominator",
              "display": "Denominator"
            } ]
          },
          "count": 1
        }, {
          "id": "DenominatorExclusion_1",
          "code": {
            "coding": [ {
              "system": "http://terminology.hl7.org/CodeSystem/measure-population",
              "code": "denominator-exclusion",
              "display": "Denominator Exclusion"
            } ]
          },
          "count": 1
        }, {
          "id": "Numerator_1",
          "code": {
            "coding": [ {
              "system": "http://terminology.hl7.org/CodeSystem/measure-population",
              "code": "numerator",
              "display": "Numerator"
            } ]
          },
          "count": 0
        }, {
          "id": "DenominatorException_1",
          "code": {
            "coding": [ {
              "system": "http://terminology.hl7.org/CodeSystem/measure-population",
              "code": "denominator-exception",
              "display": "Denominator Exception"
            } ]
          },
          "count": 0
        } ],
        "measureScore": {
          "value": 0.0
        }
      } ],
      "evaluatedResource": [ {
        "reference": "Patient/96b57130-dda8-481b-b96b-c0d48068384e"
      }, {
        "reference": "Condition/8ce52a4b-40ee-4d16-b745-4174a873c921"
      }, {
        "reference": "Encounter/b9afc8d5-3cc0-4e76-901a-c5c315642489"
      }, {
        "reference": "Encounter/f751f060-fb35-44e7-a3bb-ed8b901c0e5d"
      }, {
        "reference": "Encounter/d5d1dc0b-5935-414c-9e03-70fe7d09ced1"
      }, {
        "reference": "Claim/5ca62962b8484628b8de1ec5"
      }, {
        "reference": "ServiceRequest/f061090c-e7eb-4c15-8015-4ce242d916ea"
      }, {
        "reference": "Coverage/96fef963-6285-4b9b-8b8d-8786fe59c4e4"
      }, {
        "reference": "Condition/c101361c-7b4f-45be-a818-1b53a9316595"
      }, {
        "reference": "Organization/898d2799-5e54-4992-adbf-d2d72135f38b"
      }, {
        "reference": "Practitioner/a3225022-b1c7-48fe-a9f4-746308c23e51"
      } ]
    },
    "request": {
      "method": "PUT",
      "url": "MeasureReport/5d3fccff-2e4b-4b3b-ad02-bc3083d9d6d5"
    }
  } ]
}