{
  "resourceType": "Bundle",
  "id": "63594c7a6aee9629c82981df",
  "type": "transaction",
  "entry": [ {
    "fullUrl": "https://madie.cms.gov/Patient/aac6d1c2-17f7-40ed-90ca-144158702079",
    "resource": {
      "resourceType": "Patient",
      "id": "aac6d1c2-17f7-40ed-90ca-144158702079",
      "meta": {
        "profile": [ "http://hl7.org/fhir/us/qicore/StructureDefinition/qicore-patient" ]
      },
      "text": {
        "status": "generated",
        "div": "<div xmlns=\"http://www.w3.org/1999/xhtml\"><div class=\"hapiHeaderText\">Risk_PlacentaPrevia <b>RISKPass </b></div><table class=\"hapiPropertyTable\"><tbody><tr><td>Date of birth</td><td><span>01 February 2004</span></td></tr></tbody></table></div>"
      },
      "extension": [ {
        "url": "http://hl7.org/fhir/us/core/StructureDefinition/us-core-race",
        "extension": [ {
          "url": "ombCategory",
          "valueCoding": {
            "system": "urn:oid:2.16.840.1.113883.6.238",
            "code": "1002-5",
            "display": "American Indian or Alaska Native",
            "userSelected": true
          }
        }, {
          "url": "text",
          "valueString": "American Indian or Alaska Native"
        } ]
      }, {
        "url": "http://hl7.org/fhir/us/core/StructureDefinition/us-core-ethnicity",
        "extension": [ {
          "url": "ombCategory",
          "valueCoding": {
            "system": "urn:oid:2.16.840.1.113883.6.238",
            "code": "2135-2",
            "display": "Hispanic or Latino",
            "userSelected": true
          }
        }, {
          "url": "text",
          "valueString": "Hispanic or Latino"
        } ]
      } ],
      "identifier": [ {
        "type": {
          "coding": [ {
            "system": "http://terminology.hl7.org/CodeSystem/v2-0203",
            "code": "MR"
          } ]
        },
        "system": "https://bonnie-fhir.healthit.gov/",
        "value": "63594c7a6aee9629c82981df"
      } ],
      "active": true,
      "name": [ {
        "use": "usual",
        "family": "RiskPass",
        "given": [ "RiskPlacentaPrevia" ]
      } ],
      "gender": "female",
      "birthDate": "2005-02-01"
    },
    "request": {
      "method": "PUT",
      "url": "Patient/aac6d1c2-17f7-40ed-90ca-144158702079"
    }
  }, {
    "fullUrl": "https://madie.cms.gov/Observation/fd6ac84a-f9a2-4c55-806b-8bbedf1b5169",
    "resource": {
      "resourceType": "Observation",
      "id": "fd6ac84a-f9a2-4c55-806b-8bbedf1b5169",
      "meta": {
        "profile": [ "http://hl7.org/fhir/us/qicore/StructureDefinition/qicore-simple-observation" ]
      },
      "status": "final",
      "category": [ {
        "coding": [ {
          "system": "http://terminology.hl7.org/CodeSystem/observation-category",
          "code": "exam",
          "display": "exam",
          "userSelected": true
        } ]
      } ],
      "code": {
        "coding": [ {
          "system": "http://loinc.org",
          "code": "93857-1"
        } ]
      },
      "subject": {
        "reference": "Patient/aac6d1c2-17f7-40ed-90ca-144158702079"
      },
      "effectiveDateTime": "2026-02-01T08:00:00.000+00:00",
      "valueDateTime": "2026-02-01T08:00:00.000+00:00"
    },
    "request": {
      "method": "PUT",
      "url": "Observation/fd6ac84a-f9a2-4c55-806b-8bbedf1b5169"
    }
  }, {
    "fullUrl": "https://madie.cms.gov/Observation/c9d024f9-d84b-4bcd-8f34-e34bddc4243c",
    "resource": {
      "resourceType": "Observation",
      "id": "c9d024f9-d84b-4bcd-8f34-e34bddc4243c",
      "meta": {
        "profile": [ "http://hl7.org/fhir/us/qicore/StructureDefinition/qicore-simple-observation" ]
      },
      "status": "final",
      "category": [ {
        "coding": [ {
          "system": "http://terminology.hl7.org/CodeSystem/observation-category",
          "code": "exam",
          "display": "exam",
          "userSelected": true
        } ]
      } ],
      "code": {
        "coding": [ {
          "system": "http://loinc.org",
          "code": "11778-8"
        } ]
      },
      "subject": {
        "reference": "Patient/aac6d1c2-17f7-40ed-90ca-144158702079"
      },
      "effectiveDateTime": "2026-02-01T08:00:00.000+00:00",
      "valueDateTime": "2026-02-01T00:00:00.000+00:00"
    },
    "request": {
      "method": "PUT",
      "url": "Observation/c9d024f9-d84b-4bcd-8f34-e34bddc4243c"
    }
  }, {
    "fullUrl": "https://madie.cms.gov/Encounter/22d2be15-355c-4d80-b6ef-39ded1108ca7",
    "resource": {
      "resourceType": "Encounter",
      "id": "22d2be15-355c-4d80-b6ef-39ded1108ca7",
      "meta": {
        "profile": [ "http://hl7.org/fhir/us/qicore/StructureDefinition/qicore-encounter" ]
      },
      "status": "finished",
      "class": {
        "system": "http://terminology.hl7.org/CodeSystem/v3-ActCode",
        "code": "IMP",
        "display": "inpatient encounter"
      },
      "type": [ {
        "coding": [ {
          "system": "http://snomed.info/sct",
          "code": "183452005"
        } ]
      } ],
      "subject": {
        "reference": "Patient/aac6d1c2-17f7-40ed-90ca-144158702079"
      },
      "period": {
        "start": "2026-02-01T08:00:00.000+00:00",
        "end": "2026-02-05T08:15:00.000+00:00"
      },
      "reasonReference": [ {
        "reference": "Condition/4d2b77c7-22ef-4f24-b5b0-a154a6d30baf"
      }, {
        "reference": "Condition/df750510-a353-4aeb-b57a-a1865efbbcef"
      } ]
    },
    "request": {
      "method": "PUT",
      "url": "Encounter/22d2be15-355c-4d80-b6ef-39ded1108ca7"
    }
  }, {
    "fullUrl": "https://madie.cms.gov/Claim/7a59397d-800a-4c8b-bf5f-1e5521aaf39f",
    "resource": {
      "resourceType": "Claim",
      "id": "7a59397d-800a-4c8b-bf5f-1e5521aaf39f",
      "meta": {
        "profile": [ "http://hl7.org/fhir/us/qicore/StructureDefinition/qicore-claim" ]
      },
      "status": "active",
      "type": {
        "coding": [ {
          "system": "http://terminology.hl7.org/CodeSystem/claim-type",
          "code": "institutional",
          "display": "Institutional"
        } ]
      },
      "use": "claim",
      "patient": {
        "reference": "Patient/aac6d1c2-17f7-40ed-90ca-144158702079"
      },
      "created": "2026-11-08",
      "provider": {
        "reference": "Practitioner/practitioner-123456"
      },
      "priority": {
        "coding": [ {
          "system": "http://terminology.hl7.org/CodeSystem/processpriority",
          "code": "normal"
        } ]
      },
      "diagnosis": [ {
        "sequence": 1,
        "diagnosisCodeableConcept": {
          "coding": [ {
            "system": "http://hl7.org/fhir/sid/icd-10-cm",
            "code": "O44.00",
            "display": "Placenta Previa"
          } ]
        },
        "type": [ {
          "coding": [ {
            "system": "http://terminology.hl7.org/CodeSystem/ex-diagnosistype",
            "code": "discharge",
            "display": "Discharge Diagnosis"
          } ]
        } ],
        "onAdmission": {
          "coding": [ {
            "system": "https://www.cms.gov/Medicare/Medicare-Fee-for-Service-Payment/HospitalAcqCond/Coding",
            "code": "Y"
          } ]
        }
      }, {
        "sequence": 2,
        "diagnosisCodeableConcept": {
          "coding": [ {
            "system": "http://hl7.org/fhir/sid/icd-10-cm",
            "code": "A32.7",
            "display": "Listerial sepsis"
          } ]
        },
        "type": [ {
          "coding": [ {
            "system": "http://terminology.hl7.org/CodeSystem/ex-diagnosistype",
            "code": "discharge",
            "display": "Discharge Diagnosis"
          } ]
        } ],
        "onAdmission": {
          "coding": [ {
            "system": "https://www.cms.gov/Medicare/Medicare-Fee-for-Service-Payment/HospitalAcqCond/Coding",
            "code": "N"
          } ]
        }
      } ],
      "insurance": [ {
        "sequence": 1,
        "focal": true,
        "coverage": {
          "reference": "Coverage/Coverage-1"
        }
      } ],
      "item": [ {
        "sequence": 1,
        "careTeamSequence": [ 1 ],
        "diagnosisSequence": [ 1 ],
        "productOrService": {
          "coding": [ {
            "system": "http://www.ama-assn.org/go/cpt",
            "code": "99232"
          } ]
        },
        "encounter": [ {
          "reference": "Encounter/22d2be15-355c-4d80-b6ef-39ded1108ca7"
        } ]
      }, {
        "sequence": 2,
        "careTeamSequence": [ 1 ],
        "diagnosisSequence": [ 2 ],
        "productOrService": {
          "coding": [ {
            "system": "http://www.ama-assn.org/go/cpt",
            "code": "99233"
          } ]
        },
        "encounter": [ {
          "reference": "Encounter/22d2be15-355c-4d80-b6ef-39ded1108ca7"
        } ]
      } ],
      "total": {
        "value": 3800,
        "currency": "USD"
      }
    },
    "request": {
      "method": "PUT",
      "url": "Claim/7a59397d-800a-4c8b-bf5f-1e5521aaf39f"
    }
  }, {
    "fullUrl": "https://madie.cms.gov/Procedure/528f3768-d3f6-4e72-a87a-3fc9db9baa47",
    "resource": {
      "resourceType": "Procedure",
      "id": "528f3768-d3f6-4e72-a87a-3fc9db9baa47",
      "meta": {
        "profile": [ "http://hl7.org/fhir/us/qicore/StructureDefinition/qicore-procedure" ]
      },
      "extension": [ {
        "url": "http://hl7.org/fhir/us/qicore/StructureDefinition/qicore-recorded",
        "valueDateTime": "2014-04-05T13:35:00.000+00:00"
      } ],
      "status": "completed",
      "code": {
        "coding": [ {
          "system": "http://snomed.info/sct",
          "code": "10745001"
        } ]
      },
      "subject": {
        "reference": "Patient/aac6d1c2-17f7-40ed-90ca-144158702079"
      },
      "performedDateTime": "2026-02-01T08:00:00.000+00:00"
    },
    "request": {
      "method": "PUT",
      "url": "Procedure/528f3768-d3f6-4e72-a87a-3fc9db9baa47"
    }
  }, {
    "fullUrl": "https://madie.cms.gov/Condition/df750510-a353-4aeb-b57a-a1865efbbcef",
    "resource": {
      "resourceType": "Condition",
      "id": "df750510-a353-4aeb-b57a-a1865efbbcef",
      "meta": {
        "profile": [ "http://hl7.org/fhir/us/qicore/StructureDefinition/qicore-condition-encounter-diagnosis" ]
      },
      "category": [ {
        "coding": [ {
          "system": "http://terminology.hl7.org/CodeSystem/condition-category",
          "code": "encounter-diagnosis",
          "display": "Encounter Diagnosis"
        } ]
      } ],
      "code": {
        "coding": [ {
          "system": "http://hl7.org/fhir/sid/icd-10-cm",
          "version": "2023",
          "code": "A32.7",
          "display": "Listerial sepsis",
          "userSelected": true
        } ]
      },
      "subject": {
        "reference": "Patient/aac6d1c2-17f7-40ed-90ca-144158702079"
      },
      "recordedDate": "2026-10-26T08:00:00.000+00:00"
    },
    "request": {
      "method": "PUT",
      "url": "Condition/df750510-a353-4aeb-b57a-a1865efbbcef"
    }
  }, {
    "fullUrl": "https://madie.cms.gov/Condition/4d2b77c7-22ef-4f24-b5b0-a154a6d30baf",
    "resource": {
      "resourceType": "Condition",
      "id": "4d2b77c7-22ef-4f24-b5b0-a154a6d30baf",
      "meta": {
        "profile": [ "http://hl7.org/fhir/us/qicore/StructureDefinition/qicore-condition-encounter-diagnosis" ]
      },
      "category": [ {
        "coding": [ {
          "system": "http://terminology.hl7.org/CodeSystem/condition-category",
          "code": "encounter-diagnosis",
          "display": "Encounter Diagnosis"
        } ]
      } ],
      "code": {
        "coding": [ {
          "system": "http://hl7.org/fhir/sid/icd-10-cm",
          "version": "2023",
          "code": "O44.00",
          "display": "Placenta Previa",
          "userSelected": true
        } ]
      },
      "subject": {
        "reference": "Patient/aac6d1c2-17f7-40ed-90ca-144158702079"
      },
      "recordedDate": "2026-10-26T08:00:00.000+00:00"
    },
    "request": {
      "method": "PUT",
      "url": "Condition/4d2b77c7-22ef-4f24-b5b0-a154a6d30baf"
    }
  }, {
    "fullUrl": "https://madie.cms.gov/MeasureReport/da7eb438-fde1-4353-8928-23be5d04befb",
    "resource": {
      "resourceType": "MeasureReport",
      "id": "da7eb438-fde1-4353-8928-23be5d04befb",
      "meta": {
        "profile": [ "http://hl7.org/fhir/us/cqfmeasures/StructureDefinition/test-case-cqfm" ]
      },
      "contained": [ {
        "resourceType": "Parameters",
        "id": "daf3fb92-4739-46c9-a5e4-293ebcab35e6-parameters",
        "parameter": [ {
          "name": "subject",
          "valueString": "aac6d1c2-17f7-40ed-90ca-144158702079"
        } ]
      } ],
      "extension": [ {
        "url": "http://hl7.org/fhir/StructureDefinition/cqf-inputParameters",
        "valueReference": {
          "reference": "#daf3fb92-4739-46c9-a5e4-293ebcab35e6-parameters"
        }
      }, {
        "url": "http://hl7.org/fhir/us/cqfmeasures/StructureDefinition/cqfm-testCaseDescription",
        "valueMarkdown": "Risk variable of placenta previa\n"
      } ],
      "modifierExtension": [ {
        "url": "http://hl7.org/fhir/us/cqfmeasures/StructureDefinition/cqfm-isTestCase",
        "valueBoolean": true
      } ],
      "status": "complete",
      "type": "individual",
      "measure": "https://madie.cms.gov/Measure/CMS1028FHIRPCSevereOBComps",
      "period": {
        "start": "2026-01-01",
        "end": "2026-12-31"
      },
      "group": [ {
        "id": "Group_1",
        "population": [ {
          "id": "InitialPopulation_1",
          "code": {
            "coding": [ {
              "system": "http://terminology.hl7.org/CodeSystem/measure-population",
              "code": "initial-population",
              "display": "Initial Population"
            } ]
          },
          "count": 1
        }, {
          "id": "Denominator_1",
          "code": {
            "coding": [ {
              "system": "http://terminology.hl7.org/CodeSystem/measure-population",
              "code": "denominator",
              "display": "Denominator"
            } ]
          },
          "count": 1
        }, {
          "id": "Numerator_1",
          "code": {
            "coding": [ {
              "system": "http://terminology.hl7.org/CodeSystem/measure-population",
              "code": "numerator",
              "display": "Numerator"
            } ]
          },
          "count": 1
        }, {
          "id": "NumeratorExclusion_1",
          "code": {
            "coding": [ {
              "system": "http://terminology.hl7.org/CodeSystem/measure-population",
              "code": "numerator-exclusion",
              "display": "Numerator Exclusion"
            } ]
          },
          "count": 0
        } ],
        "measureScore": {
          "value": 0.0
        }
      }, {
        "id": "Group_2",
        "population": [ {
          "id": "InitialPopulation_2",
          "code": {
            "coding": [ {
              "system": "http://terminology.hl7.org/CodeSystem/measure-population",
              "code": "initial-population",
              "display": "Initial Population"
            } ]
          },
          "count": 1
        }, {
          "id": "Denominator_2",
          "code": {
            "coding": [ {
              "system": "http://terminology.hl7.org/CodeSystem/measure-population",
              "code": "denominator",
              "display": "Denominator"
            } ]
          },
          "count": 1
        }, {
          "id": "Numerator_2",
          "code": {
            "coding": [ {
              "system": "http://terminology.hl7.org/CodeSystem/measure-population",
              "code": "numerator",
              "display": "Numerator"
            } ]
          },
          "count": 1
        }, {
          "id": "NumeratorExclusion_2",
          "code": {
            "coding": [ {
              "system": "http://terminology.hl7.org/CodeSystem/measure-population",
              "code": "numerator-exclusion",
              "display": "Numerator Exclusion"
            } ]
          },
          "count": 0
        } ],
        "measureScore": {
          "value": 0.0
        }
      } ],
      "evaluatedResource": [ {
        "reference": "Patient/aac6d1c2-17f7-40ed-90ca-144158702079"
      }, {
        "reference": "Observation/fd6ac84a-f9a2-4c55-806b-8bbedf1b5169"
      }, {
        "reference": "Observation/c9d024f9-d84b-4bcd-8f34-e34bddc4243c"
      }, {
        "reference": "Encounter/22d2be15-355c-4d80-b6ef-39ded1108ca7"
      }, {
        "reference": "Claim/7a59397d-800a-4c8b-bf5f-1e5521aaf39f"
      }, {
        "reference": "Procedure/528f3768-d3f6-4e72-a87a-3fc9db9baa47"
      }, {
        "reference": "Condition/df750510-a353-4aeb-b57a-a1865efbbcef"
      }, {
        "reference": "Condition/4d2b77c7-22ef-4f24-b5b0-a154a6d30baf"
      } ]
    },
    "request": {
      "method": "PUT",
      "url": "MeasureReport/da7eb438-fde1-4353-8928-23be5d04befb"
    }
  } ]
}