{
  "resourceType": "Bundle",
  "id": "62b1e0cb3968556e5150cf3a",
  "type": "collection",
  "entry": [ {
    "fullUrl": "https://madie.cms.gov/Patient/d5f7630a-6fcf-4cfc-ba20-dfd5ee88af9a",
    "resource": {
      "resourceType": "Patient",
      "id": "d5f7630a-6fcf-4cfc-ba20-dfd5ee88af9a",
      "meta": {
        "profile": [ "http://hl7.org/fhir/us/qicore/StructureDefinition/qicore-patient" ]
      },
      "extension": [ {
        "url": "http://hl7.org/fhir/us/core/StructureDefinition/us-core-race",
        "extension": [ {
          "url": "ombCategory",
          "valueCoding": {
            "system": "urn:oid:2.16.840.1.113883.6.238",
            "code": "1002-5",
            "display": "American Indian or Alaska Native",
            "userSelected": true
          }
        }, {
          "url": "text",
          "valueString": "American Indian or Alaska Native"
        } ]
      }, {
        "url": "http://hl7.org/fhir/us/core/StructureDefinition/us-core-ethnicity",
        "extension": [ {
          "url": "ombCategory",
          "valueCoding": {
            "system": "urn:oid:2.16.840.1.113883.6.238",
            "code": "2135-2",
            "display": "Hispanic or Latino",
            "userSelected": true
          }
        }, {
          "url": "text",
          "valueString": "Hispanic or Latino"
        } ]
      }, {
        "url": "http://hl7.org/fhir/us/core/StructureDefinition/us-core-sex",
        "valueCode": "248153007"
      } ],
      "identifier": [ {
        "type": {
          "coding": [ {
            "system": "http://terminology.hl7.org/CodeSystem/v2-0203",
            "code": "MR"
          } ]
        },
        "system": "https://bonnie-fhir.healthit.gov/",
        "value": "62b1e0cb3968556e5150cf3a"
      } ],
      "name": [ {
        "family": "NUMERPass",
        "given": [ "12yoPosAdolDepScreenandFollowUpPrescription" ]
      } ],
      "gender": "male",
      "birthDate": "2014-01-01"
    }
  }, {
    "fullUrl": "https://madie.cms.gov/Encounter/c6164d65-b5bc-40e9-9ab8-cd436fa56a22",
    "resource": {
      "resourceType": "Encounter",
      "id": "c6164d65-b5bc-40e9-9ab8-cd436fa56a22",
      "meta": {
        "profile": [ "http://hl7.org/fhir/us/qicore/StructureDefinition/qicore-encounter" ]
      },
      "status": "finished",
      "class": {
        "system": "http://terminology.hl7.org/CodeSystem/v3-ActCode",
        "code": "AMB",
        "display": "ambulatory"
      },
      "type": [ {
        "coding": [ {
          "system": "http://snomed.info/sct",
          "code": "10197000",
          "display": "Psychiatric interview and evaluation (procedure)",
          "userSelected": true
        } ]
      } ],
      "subject": {
        "reference": "Patient/d5f7630a-6fcf-4cfc-ba20-dfd5ee88af9a"
      },
      "period": {
        "start": "2026-06-21T08:00:00.000Z",
        "end": "2026-06-21T08:15:00.000Z"
      }
    }
  }, {
    "fullUrl": "https://madie.cms.gov/Observation/07c1b0dc-66a5-4a6a-b838-1e59eb0394ac",
    "resource": {
      "resourceType": "Observation",
      "id": "07c1b0dc-66a5-4a6a-b838-1e59eb0394ac",
      "meta": {
        "profile": [ "http://hl7.org/fhir/us/qicore/StructureDefinition/qicore-observation-screening-assessment" ]
      },
      "status": "final",
      "category": [ {
        "coding": [ {
          "system": "http://terminology.hl7.org/CodeSystem/observation-category",
          "code": "procedure",
          "display": "Procedure"
        } ]
      }, {
        "coding": [ {
          "system": "http://terminology.hl7.org/CodeSystem/observation-category",
          "code": "survey",
          "display": "Survey"
        } ]
      } ],
      "code": {
        "coding": [ {
          "system": "http://loinc.org",
          "code": "73831-0",
          "display": "Adolescent depression screening assessment",
          "userSelected": true
        } ]
      },
      "subject": {
        "reference": "Patient/d5f7630a-6fcf-4cfc-ba20-dfd5ee88af9a"
      },
      "effectiveDateTime": "2026-06-15T08:00:00.000Z",
      "valueCodeableConcept": {
        "coding": [ {
          "system": "http://snomed.info/sct",
          "code": "428181000124104",
          "display": "Depression screening positive (finding)",
          "userSelected": true
        } ]
      }
    }
  }, {
    "fullUrl": "https://madie.cms.gov/MedicationRequest/9e8f5701-ba89-4800-b00b-6b576e7926f6",
    "resource": {
      "resourceType": "MedicationRequest",
      "id": "9e8f5701-ba89-4800-b00b-6b576e7926f6",
      "meta": {
        "profile": [ "http://hl7.org/fhir/us/qicore/StructureDefinition/qicore-medicationrequest" ]
      },
      "status": "active",
      "intent": "order",
      "doNotPerform": false,
      "medicationCodeableConcept": {
        "coding": [ {
          "system": "http://www.nlm.nih.gov/research/umls/rxnorm",
          "code": "1190110",
          "display": "fluoxetine 60 MG Oral Tablet",
          "userSelected": true
        } ]
      },
      "subject": {
        "reference": "Patient/d5f7630a-6fcf-4cfc-ba20-dfd5ee88af9a"
      },
      "authoredOn": "2026-06-21T08:00:00.000Z",
      "requester": {
        "reference": "Practitioner/123456"
      },
      "dispenseRequest": {
        "expectedSupplyDuration": {
          "value": 30,
          "system": "http://unitsofmeasure.org",
          "code": "days"
        }
      }
    }
  }, {
    "fullUrl": "https://madie.cms.gov/Coverage/495d5a6d-e60f-45ea-8ee5-b609b8fb0daa",
    "resource": {
      "resourceType": "Coverage",
      "id": "495d5a6d-e60f-45ea-8ee5-b609b8fb0daa",
      "meta": {
        "profile": [ "http://hl7.org/fhir/us/qicore/StructureDefinition/qicore-coverage" ]
      },
      "status": "active",
      "type": {
        "coding": [ {
          "system": "https://nahdo.org/sopt",
          "code": "113",
          "display": "Medicare POS",
          "userSelected": true
        } ]
      },
      "subscriberId": "123456789",
      "beneficiary": {
        "reference": "Patient/d5f7630a-6fcf-4cfc-ba20-dfd5ee88af9a"
      },
      "relationship": {
        "coding": [ {
          "system": "http://terminology.hl7.org/CodeSystem/subscriber-relationship",
          "code": "self",
          "display": "Self",
          "userSelected": true
        } ]
      },
      "period": {
        "start": "2021-06-21T08:00:00.000Z",
        "end": "2026-06-21T08:15:00.000Z"
      },
      "payor": [ {
        "reference": "Organization/0a52fec1-a00d-48b5-95a5-399871c70874"
      } ]
    }
  }, {
    "fullUrl": "https://madie.cms.gov/Organization/0a52fec1-a00d-48b5-95a5-399871c70874",
    "resource": {
      "resourceType": "Organization",
      "id": "0a52fec1-a00d-48b5-95a5-399871c70874",
      "meta": {
        "profile": [ "http://hl7.org/fhir/us/qicore/StructureDefinition/qicore-organization" ]
      },
      "identifier": [ {
        "use": "temp",
        "system": "urn:oid:2.16.840.1.113883.4.4",
        "value": "21-3259825"
      } ],
      "active": true,
      "type": [ {
        "coding": [ {
          "system": "http://terminology.hl7.org/CodeSystem/organization-type",
          "code": "pay",
          "display": "Payer"
        } ]
      } ],
      "name": "Blue Cross Blue Shield of Texas",
      "telecom": [ {
        "system": "phone",
        "value": "(+1) 972-766-6900"
      } ],
      "address": [ {
        "use": "billing",
        "type": "postal",
        "line": [ "P.O. Box 660044" ],
        "city": "Dallas",
        "state": "TX",
        "postalCode": "75266-0044",
        "country": "USA"
      } ]
    }
  }, {
    "fullUrl": "https://madie.cms.gov/Practitioner/41cbedb6-30e1-43f9-8c52-54c423f8af7b",
    "resource": {
      "resourceType": "Practitioner",
      "id": "41cbedb6-30e1-43f9-8c52-54c423f8af7b",
      "meta": {
        "profile": [ "http://hl7.org/fhir/us/qicore/StructureDefinition/qicore-practitioner" ]
      },
      "identifier": [ {
        "system": "http://hl7.org/fhir/sid/us-npi",
        "value": "1234567893"
      } ],
      "name": [ {
        "family": "Evil",
        "prefix": [ "Dr" ]
      } ]
    }
  }, {
    "fullUrl": "https://madie.cms.gov/MeasureReport/9ace9bd2-31c3-4e2f-87c9-e5900fa8bc4e",
    "resource": {
      "resourceType": "MeasureReport",
      "id": "9ace9bd2-31c3-4e2f-87c9-e5900fa8bc4e",
      "meta": {
        "profile": [ "http://hl7.org/fhir/us/cqfmeasures/StructureDefinition/test-case-cqfm" ]
      },
      "contained": [ {
        "resourceType": "Parameters",
        "id": "f55d3688-fc15-4c48-9da7-6d01b88a8455-parameters",
        "parameter": [ {
          "name": "subject",
          "valueString": "d5f7630a-6fcf-4cfc-ba20-dfd5ee88af9a"
        } ]
      } ],
      "extension": [ {
        "url": "http://hl7.org/fhir/StructureDefinition/cqf-inputParameters",
        "valueReference": {
          "reference": "#f55d3688-fc15-4c48-9da7-6d01b88a8455-parameters"
        }
      }, {
        "url": "http://hl7.org/fhir/us/cqfmeasures/StructureDefinition/cqfm-testCaseDescription",
        "valueMarkdown": "12yo with previous positive adolescent depression screening and medication request follow up"
      } ],
      "modifierExtension": [ {
        "url": "http://hl7.org/fhir/us/cqfmeasures/StructureDefinition/cqfm-isTestCase",
        "valueBoolean": true
      } ],
      "status": "complete",
      "type": "individual",
      "measure": "https://madie.cms.gov/Measure/CMS2FHIRPCSDepScreenAndFollowUp",
      "period": {
        "start": "2026-01-01",
        "end": "2026-12-31"
      },
      "group": [ {
        "id": "Group_1",
        "population": [ {
          "id": "InitialPopulation_1",
          "code": {
            "coding": [ {
              "system": "http://terminology.hl7.org/CodeSystem/measure-population",
              "code": "initial-population",
              "display": "Initial Population"
            } ]
          },
          "count": 1
        }, {
          "id": "Denominator_1",
          "code": {
            "coding": [ {
              "system": "http://terminology.hl7.org/CodeSystem/measure-population",
              "code": "denominator",
              "display": "Denominator"
            } ]
          },
          "count": 1
        }, {
          "id": "DenominatorExclusion_1",
          "code": {
            "coding": [ {
              "system": "http://terminology.hl7.org/CodeSystem/measure-population",
              "code": "denominator-exclusion",
              "display": "Denominator Exclusion"
            } ]
          },
          "count": 0
        }, {
          "id": "Numerator_1",
          "code": {
            "coding": [ {
              "system": "http://terminology.hl7.org/CodeSystem/measure-population",
              "code": "numerator",
              "display": "Numerator"
            } ]
          },
          "count": 1
        }, {
          "id": "DenominatorException_1",
          "code": {
            "coding": [ {
              "system": "http://terminology.hl7.org/CodeSystem/measure-population",
              "code": "denominator-exception",
              "display": "Denominator Exception"
            } ]
          },
          "count": 0
        } ],
        "measureScore": {
          "value": 1.0
        }
      } ],
      "evaluatedResource": [ {
        "reference": "Patient/d5f7630a-6fcf-4cfc-ba20-dfd5ee88af9a"
      }, {
        "reference": "Encounter/c6164d65-b5bc-40e9-9ab8-cd436fa56a22"
      }, {
        "reference": "Observation/07c1b0dc-66a5-4a6a-b838-1e59eb0394ac"
      }, {
        "reference": "MedicationRequest/9e8f5701-ba89-4800-b00b-6b576e7926f6"
      }, {
        "reference": "Coverage/495d5a6d-e60f-45ea-8ee5-b609b8fb0daa"
      }, {
        "reference": "Organization/0a52fec1-a00d-48b5-95a5-399871c70874"
      }, {
        "reference": "Practitioner/41cbedb6-30e1-43f9-8c52-54c423f8af7b"
      } ]
    }
  } ]
}