{
  "resourceType": "Bundle",
  "id": "633c9d040968f8012250fca4",
  "type": "transaction",
  "entry": [ {
    "fullUrl": "https://madie.cms.gov/Patient/a8856231-e110-4811-ac95-3f65c3d440fa",
    "resource": {
      "resourceType": "Patient",
      "id": "a8856231-e110-4811-ac95-3f65c3d440fa",
      "meta": {
        "profile": [ "http://hl7.org/fhir/us/qicore/StructureDefinition/qicore-patient" ]
      },
      "text": {
        "status": "generated",
        "div": "<div xmlns=\"http://www.w3.org/1999/xhtml\"><div class=\"hapiHeaderText\">CMOdurED_ED&lt;1hrObs&lt;1hrBFEnc <b>DENEXPASS </b></div><table class=\"hapiPropertyTable\"><tbody><tr><td>Identifier</td><td>0b5c2e2db5c7f9518d6eb2bf44cd7df8817ff6b8521c862f9878d999f0ab28a2</td></tr><tr><td>Date of birth</td><td><span>18 September 1985</span></td></tr></tbody></table></div>"
      },
      "extension": [ {
        "url": "http://hl7.org/fhir/us/core/StructureDefinition/us-core-race",
        "extension": [ {
          "url": "ombCategory",
          "valueCoding": {
            "system": "urn:oid:2.16.840.1.113883.6.238",
            "code": "1002-5",
            "display": "American Indian or Alaska Native",
            "userSelected": true
          }
        }, {
          "url": "text",
          "valueString": "American Indian or Alaska Native"
        } ]
      }, {
        "url": "http://hl7.org/fhir/us/core/StructureDefinition/us-core-ethnicity",
        "extension": [ {
          "url": "ombCategory",
          "valueCoding": {
            "system": "urn:oid:2.16.840.1.113883.6.238",
            "code": "2135-2",
            "display": "Hispanic or Latino",
            "userSelected": true
          }
        }, {
          "url": "text",
          "valueString": "Hispanic or Latino"
        } ]
      } ],
      "identifier": [ {
        "type": {
          "coding": [ {
            "system": "http://terminology.hl7.org/CodeSystem/v2-0203",
            "code": "MR"
          } ]
        },
        "system": "https://bonnie-fhir.healthit.gov/",
        "value": "633c9d040968f8012250fca4"
      } ],
      "active": true,
      "name": [ {
        "use": "usual",
        "family": "DENEXPass",
        "given": [ "CMOdurED_ED<1hrObs<1hrBFEnc" ]
      } ],
      "gender": "female",
      "birthDate": "1986-09-18"
    },
    "request": {
      "method": "PUT",
      "url": "Patient/a8856231-e110-4811-ac95-3f65c3d440fa"
    }
  }, {
    "fullUrl": "https://madie.cms.gov/Condition/e71aa538-7d8a-493f-bb4d-928330c94c53",
    "resource": {
      "resourceType": "Condition",
      "id": "e71aa538-7d8a-493f-bb4d-928330c94c53",
      "meta": {
        "profile": [ "http://hl7.org/fhir/us/qicore/StructureDefinition/qicore-condition-problems-health-concerns" ]
      },
      "clinicalStatus": {
        "coding": [ {
          "system": "http://terminology.hl7.org/CodeSystem/condition-clinical",
          "code": "inactive"
        } ]
      },
      "verificationStatus": {
        "coding": [ {
          "system": "http://terminology.hl7.org/CodeSystem/condition-ver-status",
          "code": "confirmed"
        } ]
      },
      "category": [ {
        "coding": [ {
          "system": "http://terminology.hl7.org/CodeSystem/condition-category",
          "code": "encounter-diagnosis",
          "display": "Encounter Diagnosis"
        } ]
      } ],
      "code": {
        "coding": [ {
          "system": "http://hl7.org/fhir/sid/icd-10-cm",
          "code": "I48.20"
        }, {
          "system": "http://hl7.org/fhir/sid/icd-10-cm",
          "code": "I48.0"
        }, {
          "system": "http://snomed.info/sct",
          "code": "5370000"
        } ]
      },
      "subject": {
        "reference": "Patient/a8856231-e110-4811-ac95-3f65c3d440fa"
      },
      "onsetDateTime": "2026-10-01T09:00:00.000+00:00",
      "abatementDateTime": "2026-10-12T00:15:00.000+00:00"
    },
    "request": {
      "method": "PUT",
      "url": "Condition/e71aa538-7d8a-493f-bb4d-928330c94c53"
    }
  }, {
    "fullUrl": "https://madie.cms.gov/Encounter/1628432d-bb25-491c-a697-8507acd01a89",
    "resource": {
      "resourceType": "Encounter",
      "id": "1628432d-bb25-491c-a697-8507acd01a89",
      "meta": {
        "profile": [ "http://hl7.org/fhir/us/qicore/StructureDefinition/qicore-encounter" ]
      },
      "status": "finished",
      "class": {
        "system": "http://terminology.hl7.org/CodeSystem/v3-ActCode",
        "code": "EMER",
        "display": "emergency"
      },
      "type": [ {
        "coding": [ {
          "system": "http://snomed.info/sct",
          "code": "4525004"
        } ]
      } ],
      "subject": {
        "reference": "Patient/a8856231-e110-4811-ac95-3f65c3d440fa"
      },
      "period": {
        "start": "2026-09-30T07:59:00.000+00:00",
        "end": "2026-09-30T09:00:00.000+00:00"
      },
      "length": {
        "value": 0,
        "unit": "days"
      }
    },
    "request": {
      "method": "PUT",
      "url": "Encounter/1628432d-bb25-491c-a697-8507acd01a89"
    }
  }, {
    "fullUrl": "https://madie.cms.gov/Encounter/1d4bc428-3e19-49e3-8bbc-4db7919110f8",
    "resource": {
      "resourceType": "Encounter",
      "id": "1d4bc428-3e19-49e3-8bbc-4db7919110f8",
      "meta": {
        "profile": [ "http://hl7.org/fhir/us/qicore/StructureDefinition/qicore-encounter" ]
      },
      "status": "finished",
      "class": {
        "system": "http://terminology.hl7.org/CodeSystem/v3-ActCode",
        "code": "OBSENC",
        "display": "observation encounter"
      },
      "type": [ {
        "coding": [ {
          "system": "http://snomed.info/sct",
          "code": "448851000124103"
        } ]
      } ],
      "subject": {
        "reference": "Patient/a8856231-e110-4811-ac95-3f65c3d440fa"
      },
      "period": {
        "start": "2026-09-30T09:01:00.000+00:00",
        "end": "2026-09-30T09:05:00.000+00:00"
      },
      "length": {
        "value": 0,
        "unit": "days"
      }
    },
    "request": {
      "method": "PUT",
      "url": "Encounter/1d4bc428-3e19-49e3-8bbc-4db7919110f8"
    }
  }, {
    "fullUrl": "https://madie.cms.gov/Encounter/685baec6-8c16-41a7-86db-7dd37f5da470",
    "resource": {
      "resourceType": "Encounter",
      "id": "685baec6-8c16-41a7-86db-7dd37f5da470",
      "meta": {
        "profile": [ "http://hl7.org/fhir/us/qicore/StructureDefinition/qicore-encounter" ]
      },
      "status": "finished",
      "class": {
        "system": "http://terminology.hl7.org/CodeSystem/v3-ActCode",
        "code": "IMP",
        "display": "inpatient encounter"
      },
      "type": [ {
        "coding": [ {
          "system": "http://snomed.info/sct",
          "code": "32485007"
        } ]
      } ],
      "subject": {
        "reference": "Patient/a8856231-e110-4811-ac95-3f65c3d440fa"
      },
      "period": {
        "start": "2026-09-30T09:06:00.000+00:00",
        "end": "2026-10-12T00:15:00.000+00:00"
      },
      "length": {
        "value": 12,
        "unit": "days"
      },
      "reasonReference": [ {
        "reference": "Condition/e71aa538-7d8a-493f-bb4d-928330c94c53"
      } ]
    },
    "request": {
      "method": "PUT",
      "url": "Encounter/685baec6-8c16-41a7-86db-7dd37f5da470"
    }
  }, {
    "fullUrl": "https://madie.cms.gov/Condition/52b0588c-6672-4d83-bca4-af095fabffc4",
    "resource": {
      "resourceType": "Condition",
      "id": "52b0588c-6672-4d83-bca4-af095fabffc4",
      "meta": {
        "profile": [ "http://hl7.org/fhir/us/qicore/StructureDefinition/qicore-condition-problems-health-concerns" ]
      },
      "clinicalStatus": {
        "coding": [ {
          "system": "http://terminology.hl7.org/CodeSystem/condition-clinical",
          "code": "active"
        } ]
      },
      "verificationStatus": {
        "coding": [ {
          "system": "http://terminology.hl7.org/CodeSystem/condition-ver-status",
          "code": "confirmed"
        } ]
      },
      "category": [ {
        "coding": [ {
          "system": "http://terminology.hl7.org/CodeSystem/condition-category",
          "code": "encounter-diagnosis",
          "display": "Encounter Diagnosis"
        } ]
      } ],
      "code": {
        "coding": [ {
          "system": "http://snomed.info/sct",
          "version": "2021-09",
          "code": "111297002",
          "display": "Nonparalytic stroke (disorder)",
          "userSelected": true
        } ]
      },
      "subject": {
        "reference": "Patient/a8856231-e110-4811-ac95-3f65c3d440fa"
      },
      "recordedDate": "2026-09-30T09:06:00.000+00:00"
    },
    "request": {
      "method": "PUT",
      "url": "Condition/52b0588c-6672-4d83-bca4-af095fabffc4"
    }
  }, {
    "fullUrl": "https://madie.cms.gov/ServiceRequest/b4c73abb-6250-4b42-9349-38862c65a9fe",
    "resource": {
      "resourceType": "ServiceRequest",
      "id": "b4c73abb-6250-4b42-9349-38862c65a9fe",
      "meta": {
        "profile": [ "http://hl7.org/fhir/us/qicore/StructureDefinition/qicore-servicerequest" ]
      },
      "status": "active",
      "intent": "order",
      "code": {
        "coding": [ {
          "system": "http://snomed.info/sct",
          "code": "133918004"
        } ]
      },
      "subject": {
        "reference": "Patient/a8856231-e110-4811-ac95-3f65c3d440fa"
      },
      "authoredOn": "2026-09-30T08:01:00.000+00:00"
    },
    "request": {
      "method": "PUT",
      "url": "ServiceRequest/b4c73abb-6250-4b42-9349-38862c65a9fe"
    }
  }, {
    "fullUrl": "https://madie.cms.gov/claim/5ca62962b8484628b8de1ec5",
    "resource": {
      "resourceType": "Claim",
      "id": "5ca62962b8484628b8de1ec5",
      "meta": {
        "profile": [ "http://hl7.org/fhir/us/qicore/StructureDefinition/qicore-claim" ]
      },
      "status": "active",
      "type": {
        "coding": [ {
          "system": "http://terminology.hl7.org/CodeSystem/claim-type",
          "code": "institutional"
        } ]
      },
      "use": "claim",
      "patient": {
        "reference": "Patient/d170a0a8-b5ad-4303-b6df-e304dd5f92ad"
      },
      "created": "2026-12-01",
      "provider": {
        "reference": "Practitioner/05063133-77d3-48a2-9e3d-90f375eb985d"
      },
      "priority": {
        "coding": [ {
          "system": "http://terminology.hl7.org/CodeSystem/processpriority",
          "code": "normal"
        } ]
      },
      "diagnosis": [ {
        "sequence": 1,
        "diagnosisCodeableConcept": {
          "coding": [ {
            "system": "http://hl7.org/fhir/sid/icd-10-cm",
            "code": "I63.00"
          } ]
        },
        "type": [ {
          "coding": [ {
            "system": "http://terminology.hl7.org/CodeSystem/ex-diagnosistype",
            "code": "principal"
          } ]
        } ]
      } ],
      "insurance": [ {
        "sequence": 1,
        "focal": true,
        "coverage": {
          "reference": "Coverage/5fa041661c76ba66d9959367"
        }
      } ],
      "item": [ {
        "sequence": 1,
        "diagnosisSequence": [ 1 ],
        "productOrService": {
          "coding": [ {
            "system": "http://terminology.hl7.org/CodeSystem/ex-USCLS",
            "code": "99555"
          } ]
        },
        "encounter": [ {
          "reference": "Encounter/685baec6-8c16-41a7-86db-7dd37f5da470"
        } ]
      } ]
    },
    "request": {
      "method": "PUT",
      "url": "Claim/5ca62962b8484628b8de1ec5"
    }
  }, {
    "fullUrl": "https://madie.cms.gov/Coverage/a60b368e-ce13-4768-9b98-1edcd0a07834",
    "resource": {
      "resourceType": "Coverage",
      "id": "a60b368e-ce13-4768-9b98-1edcd0a07834",
      "meta": {
        "profile": [ "http://hl7.org/fhir/us/qicore/StructureDefinition/qicore-coverage" ]
      },
      "status": "active",
      "subscriberId": "523435",
      "beneficiary": {
        "reference": "Patient/162a5913-9989-42f2-8d6a-ae460e245e4c"
      },
      "relationship": {
        "coding": [ {
          "system": "http://terminology.hl7.org/CodeSystem/subscriber-relationship",
          "code": "self"
        } ]
      },
      "payor": [ {
        "reference": "Organization/a1c28f57-290e-449f-b074-46e5ed0cd9c7"
      } ]
    },
    "request": {
      "method": "PUT",
      "url": "Coverage/a60b368e-ce13-4768-9b98-1edcd0a07834"
    }
  }, {
    "fullUrl": "https://madie.cms.gov/Organization/a1c28f57-290e-449f-b074-46e5ed0cd9c7",
    "resource": {
      "resourceType": "Organization",
      "id": "a1c28f57-290e-449f-b074-46e5ed0cd9c7",
      "meta": {
        "profile": [ "http://hl7.org/fhir/us/qicore/StructureDefinition/qicore-organization" ]
      },
      "identifier": [ {
        "use": "temp",
        "system": "urn:oid:2.16.840.1.113883.4.4",
        "value": "21-3259825"
      } ],
      "active": true,
      "type": [ {
        "coding": [ {
          "system": "http://terminology.hl7.org/CodeSystem/organization-type",
          "code": "pay",
          "display": "Payer"
        } ]
      } ],
      "name": "Blue Cross Blue Shield of Texas",
      "telecom": [ {
        "system": "phone",
        "value": "(+1) 972-766-6900"
      } ],
      "address": [ {
        "use": "billing",
        "type": "postal",
        "line": [ "P.O. Box 660044" ],
        "city": "Dallas",
        "state": "TX",
        "postalCode": "75266-0044",
        "country": "USA"
      } ]
    },
    "request": {
      "method": "PUT",
      "url": "Organization/a1c28f57-290e-449f-b074-46e5ed0cd9c7"
    }
  }, {
    "fullUrl": "https://madie.cms.gov/Practitioner/05063133-77d3-48a2-9e3d-90f375eb985d",
    "resource": {
      "resourceType": "Practitioner",
      "id": "05063133-77d3-48a2-9e3d-90f375eb985d",
      "meta": {
        "profile": [ "http://hl7.org/fhir/us/qicore/StructureDefinition/qicore-practitioner" ]
      },
      "identifier": [ {
        "system": "http://hl7.org/fhir/sid/us-npi",
        "value": "9999999896"
      } ],
      "name": [ {
        "family": "Evil",
        "prefix": [ "Dr" ]
      } ]
    },
    "request": {
      "method": "PUT",
      "url": "Practitioner/05063133-77d3-48a2-9e3d-90f375eb985d"
    }
  }, {
    "fullUrl": "https://madie.cms.gov/MeasureReport/c6112658-e0d7-4864-983d-041f228213fa",
    "resource": {
      "resourceType": "MeasureReport",
      "id": "c6112658-e0d7-4864-983d-041f228213fa",
      "meta": {
        "profile": [ "http://hl7.org/fhir/us/cqfmeasures/StructureDefinition/test-case-cqfm" ]
      },
      "contained": [ {
        "resourceType": "Parameters",
        "id": "a2ca3224-12e4-4f8e-bf89-f724eec38701-parameters",
        "parameter": [ {
          "name": "subject",
          "valueString": "a8856231-e110-4811-ac95-3f65c3d440fa"
        } ]
      } ],
      "extension": [ {
        "url": "http://hl7.org/fhir/StructureDefinition/cqf-inputParameters",
        "valueReference": {
          "reference": "#a2ca3224-12e4-4f8e-bf89-f724eec38701-parameters"
        }
      }, {
        "url": "http://hl7.org/fhir/us/cqfmeasures/StructureDefinition/cqfm-testCaseDescription",
        "valueMarkdown": "Patient receives CMO during ED. ED ends 1 min before Obs start and Obs ends 1 min before inpatient start.  Testing HospitalizationWithObservation function\n"
      } ],
      "modifierExtension": [ {
        "url": "http://hl7.org/fhir/us/cqfmeasures/StructureDefinition/cqfm-isTestCase",
        "valueBoolean": true
      } ],
      "status": "complete",
      "type": "individual",
      "measure": "https://madie.cms.gov/Measure/CMS71FHIRSTKAnticoagAFFlutter",
      "period": {
        "start": "2026-01-01",
        "end": "2026-12-31"
      },
      "group": [ {
        "id": "Group_1",
        "population": [ {
          "id": "InitialPopulation_1",
          "code": {
            "coding": [ {
              "system": "http://terminology.hl7.org/CodeSystem/measure-population",
              "code": "initial-population",
              "display": "Initial Population"
            } ]
          },
          "count": 1
        }, {
          "id": "Denominator_1",
          "code": {
            "coding": [ {
              "system": "http://terminology.hl7.org/CodeSystem/measure-population",
              "code": "denominator",
              "display": "Denominator"
            } ]
          },
          "count": 1
        }, {
          "id": "DenominatorExclusion_1",
          "code": {
            "coding": [ {
              "system": "http://terminology.hl7.org/CodeSystem/measure-population",
              "code": "denominator-exclusion",
              "display": "Denominator Exclusion"
            } ]
          },
          "count": 1
        }, {
          "id": "Numerator_1",
          "code": {
            "coding": [ {
              "system": "http://terminology.hl7.org/CodeSystem/measure-population",
              "code": "numerator",
              "display": "Numerator"
            } ]
          },
          "count": 0
        }, {
          "id": "DenominatorException_1",
          "code": {
            "coding": [ {
              "system": "http://terminology.hl7.org/CodeSystem/measure-population",
              "code": "denominator-exception",
              "display": "Denominator Exception"
            } ]
          },
          "count": 0
        } ],
        "measureScore": {
          "value": 0.0
        }
      } ],
      "evaluatedResource": [ {
        "reference": "Patient/a8856231-e110-4811-ac95-3f65c3d440fa"
      }, {
        "reference": "Condition/e71aa538-7d8a-493f-bb4d-928330c94c53"
      }, {
        "reference": "Encounter/1628432d-bb25-491c-a697-8507acd01a89"
      }, {
        "reference": "Encounter/1d4bc428-3e19-49e3-8bbc-4db7919110f8"
      }, {
        "reference": "Encounter/685baec6-8c16-41a7-86db-7dd37f5da470"
      }, {
        "reference": "Condition/52b0588c-6672-4d83-bca4-af095fabffc4"
      }, {
        "reference": "ServiceRequest/b4c73abb-6250-4b42-9349-38862c65a9fe"
      }, {
        "reference": "Claim/5ca62962b8484628b8de1ec5"
      }, {
        "reference": "Coverage/a60b368e-ce13-4768-9b98-1edcd0a07834"
      }, {
        "reference": "Organization/a1c28f57-290e-449f-b074-46e5ed0cd9c7"
      }, {
        "reference": "Practitioner/05063133-77d3-48a2-9e3d-90f375eb985d"
      } ]
    },
    "request": {
      "method": "PUT",
      "url": "MeasureReport/c6112658-e0d7-4864-983d-041f228213fa"
    }
  } ]
}