{
  "resourceType": "Bundle",
  "id": "62c880ec0111a60120dc21f0",
  "type": "transaction",
  "entry": [ {
    "fullUrl": "https://madie.cms.gov/Patient/8e23417a-471a-45bb-b936-57466dc6592c",
    "resource": {
      "resourceType": "Patient",
      "id": "8e23417a-471a-45bb-b936-57466dc6592c",
      "meta": {
        "profile": [ "http://hl7.org/fhir/us/qicore/StructureDefinition/qicore-patient" ]
      },
      "extension": [ {
        "url": "http://hl7.org/fhir/us/core/StructureDefinition/us-core-race",
        "extension": [ {
          "url": "ombCategory",
          "valueCoding": {
            "system": "urn:oid:2.16.840.1.113883.6.238",
            "code": "1002-5",
            "display": "American Indian or Alaska Native"
          }
        }, {
          "url": "text",
          "valueString": "American Indian or Alaska Native"
        } ]
      }, {
        "url": "http://hl7.org/fhir/us/core/StructureDefinition/us-core-ethnicity",
        "extension": [ {
          "url": "ombCategory",
          "valueCoding": {
            "system": "urn:oid:2.16.840.1.113883.6.238",
            "code": "2135-2",
            "display": "Hispanic or Latino"
          }
        }, {
          "url": "text",
          "valueString": "Hispanic or Latino"
        } ]
      } ],
      "identifier": [ {
        "type": {
          "coding": [ {
            "system": "http://terminology.hl7.org/CodeSystem/v2-0203",
            "code": "MR"
          } ]
        },
        "system": "https://bonnie-fhir.healthit.gov/",
        "value": "62c880ec0111a60120dc21f0"
      } ],
      "active": true,
      "name": [ {
        "use": "usual",
        "family": "NUMERPassPop1",
        "given": [ "MultEp1Num1Den2" ]
      } ],
      "gender": "female",
      "birthDate": "1938-05-13"
    },
    "request": {
      "method": "PUT",
      "url": "Patient/8e23417a-471a-45bb-b936-57466dc6592c"
    }
  }, {
    "fullUrl": "https://madie.cms.gov/Observation/e8914352-65d1-47f4-9359-3c73e624afd4",
    "resource": {
      "resourceType": "Observation",
      "id": "e8914352-65d1-47f4-9359-3c73e624afd4",
      "meta": {
        "profile": [ "http://hl7.org/fhir/us/qicore/StructureDefinition/qicore-observation-screening-assessment" ]
      },
      "status": "final",
      "category": [ {
        "coding": [ {
          "system": "http://terminology.hl7.org/CodeSystem/observation-category",
          "code": "survey",
          "display": "Survey"
        } ],
        "text": "Survey"
      } ],
      "code": {
        "coding": [ {
          "system": "http://loinc.org",
          "code": "38208-5",
          "display": "Pain severity - Reported"
        } ],
        "text": "Pain severity - Reported"
      },
      "subject": {
        "reference": "Patient/8e23417a-471a-45bb-b936-57466dc6592c"
      },
      "effectiveDateTime": "2026-03-03T14:00:00.000+00:00",
      "valueInteger": 10
    },
    "request": {
      "method": "PUT",
      "url": "Observation/e8914352-65d1-47f4-9359-3c73e624afd4"
    }
  }, {
    "fullUrl": "https://madie.cms.gov/Observation/9e01a316-12d1-4816-a3da-2b8f0687f8ab",
    "resource": {
      "resourceType": "Observation",
      "id": "9e01a316-12d1-4816-a3da-2b8f0687f8ab",
      "meta": {
        "profile": [ "http://hl7.org/fhir/us/qicore/StructureDefinition/qicore-observation-screening-assessment" ]
      },
      "status": "final",
      "category": [ {
        "coding": [ {
          "system": "http://terminology.hl7.org/CodeSystem/observation-category",
          "code": "survey",
          "display": "Survey"
        } ],
        "text": "Survey"
      } ],
      "code": {
        "coding": [ {
          "system": "http://loinc.org",
          "code": "38208-5",
          "display": "Pain severity - Reported"
        } ],
        "text": "Pain severity - Reported"
      },
      "subject": {
        "reference": "Patient/8e23417a-471a-45bb-b936-57466dc6592c"
      },
      "effectiveDateTime": "2026-05-22T08:00:00.000+00:00"
    },
    "request": {
      "method": "PUT",
      "url": "Observation/9e01a316-12d1-4816-a3da-2b8f0687f8ab"
    }
  }, {
    "fullUrl": "https://madie.cms.gov/Observation/9e01a316-12d1-4816-a3da-2b8f0687f8ab1",
    "resource": {
      "resourceType": "Observation",
      "id": "9e01a316-12d1-4816-a3da-2b8f0687f8ab1",
      "meta": {
        "profile": [ "http://hl7.org/fhir/us/qicore/StructureDefinition/qicore-observation-screening-assessment" ]
      },
      "status": "final",
      "category": [ {
        "coding": [ {
          "system": "http://terminology.hl7.org/CodeSystem/observation-category",
          "code": "survey",
          "display": "Survey"
        } ],
        "text": "Survey"
      } ],
      "code": {
        "coding": [ {
          "system": "http://loinc.org",
          "code": "38208-5",
          "display": "Pain severity - Reported"
        } ],
        "text": "Pain severity - Reported"
      },
      "subject": {
        "reference": "Patient/8e23417a-471a-45bb-b936-57466dc6592c"
      },
      "effectiveDateTime": "2026-05-30T13:00:00.000+00:00"
    },
    "request": {
      "method": "PUT",
      "url": "Observation/9e01a316-12d1-4816-a3da-2b8f0687f8ab1"
    }
  }, {
    "fullUrl": "https://madie.cms.gov/Condition/84f1dd8e-4bf9-420b-9315-b3e71e25520d",
    "resource": {
      "resourceType": "Condition",
      "id": "84f1dd8e-4bf9-420b-9315-b3e71e25520d",
      "meta": {
        "profile": [ "http://hl7.org/fhir/us/qicore/StructureDefinition/qicore-condition-encounter-diagnosis" ]
      },
      "clinicalStatus": {
        "coding": [ {
          "system": "http://terminology.hl7.org/CodeSystem/condition-clinical",
          "code": "active",
          "display": "active"
        } ]
      },
      "verificationStatus": {
        "coding": [ {
          "system": "http://terminology.hl7.org/CodeSystem/condition-ver-status",
          "code": "confirmed",
          "display": "Confirmed"
        } ]
      },
      "category": [ {
        "coding": [ {
          "system": "http://terminology.hl7.org/CodeSystem/condition-category",
          "code": "encounter-diagnosis",
          "display": "Encounter Diagnosis"
        } ]
      } ],
      "code": {
        "coding": [ {
          "system": "http://hl7.org/fhir/sid/icd-10-cm",
          "code": "C00.0"
        } ]
      },
      "subject": {
        "reference": "Patient/8e23417a-471a-45bb-b936-57466dc6592c"
      },
      "onsetDateTime": "2012-11-01T13:30:00.000+00:00"
    },
    "request": {
      "method": "PUT",
      "url": "Condition/84f1dd8e-4bf9-420b-9315-b3e71e25520d"
    }
  }, {
    "fullUrl": "https://madie.cms.gov/Encounter/73ad54a8-532e-4e3d-b2ca-b8f19885b6ad",
    "resource": {
      "resourceType": "Encounter",
      "id": "73ad54a8-532e-4e3d-b2ca-b8f19885b6ad",
      "meta": {
        "profile": [ "http://hl7.org/fhir/us/qicore/StructureDefinition/qicore-encounter" ]
      },
      "status": "finished",
      "class": {
        "system": "http://terminology.hl7.org/CodeSystem/v3-ActCode",
        "code": "AMB",
        "display": "ambulatory",
        "userSelected": true
      },
      "type": [ {
        "coding": [ {
          "system": "http://snomed.info/sct",
          "code": "185463005"
        } ]
      } ],
      "subject": {
        "reference": "Patient/8e23417a-471a-45bb-b936-57466dc6592c"
      },
      "period": {
        "start": "2026-01-30T14:00:00.000+00:00",
        "end": "2026-01-30T15:00:00.000+00:00"
      }
    },
    "request": {
      "method": "PUT",
      "url": "Encounter/73ad54a8-532e-4e3d-b2ca-b8f19885b6ad"
    }
  }, {
    "fullUrl": "https://madie.cms.gov/Encounter/a033cbf2-901b-4db4-a1ab-edcb15be2530",
    "resource": {
      "resourceType": "Encounter",
      "id": "a033cbf2-901b-4db4-a1ab-edcb15be2530",
      "meta": {
        "profile": [ "http://hl7.org/fhir/us/qicore/StructureDefinition/qicore-encounter" ]
      },
      "status": "finished",
      "class": {
        "system": "http://terminology.hl7.org/CodeSystem/v3-ActCode",
        "code": "AMB",
        "display": "ambulatory",
        "userSelected": true
      },
      "type": [ {
        "coding": [ {
          "system": "http://snomed.info/sct",
          "code": "185463005"
        } ]
      } ],
      "subject": {
        "reference": "Patient/8e23417a-471a-45bb-b936-57466dc6592c"
      },
      "period": {
        "start": "2026-03-03T13:30:00.000+00:00",
        "end": "2026-03-03T14:30:00.000+00:00"
      }
    },
    "request": {
      "method": "PUT",
      "url": "Encounter/a033cbf2-901b-4db4-a1ab-edcb15be2530"
    }
  }, {
    "fullUrl": "https://madie.cms.gov/Encounter/c6296245-9eea-4863-9875-45c74f555c97",
    "resource": {
      "resourceType": "Encounter",
      "id": "c6296245-9eea-4863-9875-45c74f555c97",
      "meta": {
        "profile": [ "http://hl7.org/fhir/us/qicore/StructureDefinition/qicore-encounter" ]
      },
      "status": "finished",
      "class": {
        "system": "http://terminology.hl7.org/CodeSystem/v3-ActCode",
        "code": "AMB",
        "display": "ambulatory",
        "userSelected": true
      },
      "type": [ {
        "coding": [ {
          "system": "http://www.ama-assn.org/go/cpt",
          "code": "99202"
        } ]
      } ],
      "subject": {
        "reference": "Patient/8e23417a-471a-45bb-b936-57466dc6592c"
      },
      "period": {
        "start": "2026-05-30T12:45:00.000+00:00",
        "end": "2026-05-30T13:45:00.000+00:00"
      }
    },
    "request": {
      "method": "PUT",
      "url": "Encounter/c6296245-9eea-4863-9875-45c74f555c97"
    }
  }, {
    "fullUrl": "https://madie.cms.gov/Encounter/72262e69-c890-4f22-8536-8f288c98f9ce",
    "resource": {
      "resourceType": "Encounter",
      "id": "72262e69-c890-4f22-8536-8f288c98f9ce",
      "meta": {
        "profile": [ "http://hl7.org/fhir/us/qicore/StructureDefinition/qicore-encounter" ]
      },
      "status": "finished",
      "class": {
        "system": "http://terminology.hl7.org/CodeSystem/v3-ActCode",
        "code": "AMB",
        "display": "ambulatory",
        "userSelected": true
      },
      "type": [ {
        "coding": [ {
          "system": "http://www.ama-assn.org/go/cpt",
          "code": "99202"
        } ]
      } ],
      "subject": {
        "reference": "Patient/8e23417a-471a-45bb-b936-57466dc6592c"
      },
      "period": {
        "start": "2026-07-03T10:45:00.000+00:00",
        "end": "2026-07-03T11:45:00.000+00:00"
      }
    },
    "request": {
      "method": "PUT",
      "url": "Encounter/72262e69-c890-4f22-8536-8f288c98f9ce"
    }
  }, {
    "fullUrl": "https://madie.cms.gov/Coverage/54ddaa5f-dca0-4cdd-8644-221461f526af",
    "resource": {
      "resourceType": "Coverage",
      "id": "54ddaa5f-dca0-4cdd-8644-221461f526af",
      "meta": {
        "profile": [ "http://hl7.org/fhir/us/qicore/StructureDefinition/qicore-coverage" ]
      },
      "status": "active",
      "beneficiary": {
        "reference": "Patient/8e23417a-471a-45bb-b936-57466dc6592c"
      },
      "period": {
        "start": "1938-05-13T08:00:00.000+00:00"
      },
      "payor": [ {
        "reference": "Organization/c5cd69e6-c42e-436d-b094-445ac1bf64e7"
      } ]
    },
    "request": {
      "method": "PUT",
      "url": "Coverage/54ddaa5f-dca0-4cdd-8644-221461f526af"
    }
  }, {
    "fullUrl": "https://madie.cms.gov/Procedure/c7e08f3b-3964-48b6-be41-200f31e14bf5",
    "resource": {
      "resourceType": "Procedure",
      "id": "c7e08f3b-3964-48b6-be41-200f31e14bf5",
      "meta": {
        "profile": [ "http://hl7.org/fhir/us/qicore/StructureDefinition/qicore-procedure" ]
      },
      "extension": [ {
        "url": "http://hl7.org/fhir/us/qicore/StructureDefinition/qicore-recorded",
        "valueDateTime": "2026-02-27T12:35:00.000+00:00"
      } ],
      "status": "completed",
      "code": {
        "coding": [ {
          "system": "http://www.ama-assn.org/go/cpt",
          "code": "96409"
        } ]
      },
      "subject": {
        "reference": "Patient/8e23417a-471a-45bb-b936-57466dc6592c"
      },
      "performedPeriod": {
        "start": "2026-02-27T11:30:00.000+00:00",
        "end": "2026-02-27T11:30:00.000+00:00"
      }
    },
    "request": {
      "method": "PUT",
      "url": "Procedure/c7e08f3b-3964-48b6-be41-200f31e14bf5"
    }
  }, {
    "fullUrl": "https://madie.cms.gov/Procedure/263ef91e-1350-4ddb-a379-2be1e9f932e9",
    "resource": {
      "resourceType": "Procedure",
      "id": "263ef91e-1350-4ddb-a379-2be1e9f932e9",
      "meta": {
        "profile": [ "http://hl7.org/fhir/us/qicore/StructureDefinition/qicore-procedure" ]
      },
      "extension": [ {
        "url": "http://hl7.org/fhir/us/qicore/StructureDefinition/qicore-recorded",
        "valueDateTime": "2026-04-01T12:35:00.000+00:00"
      } ],
      "status": "completed",
      "code": {
        "coding": [ {
          "system": "http://www.ama-assn.org/go/cpt",
          "code": "96409"
        } ]
      },
      "subject": {
        "reference": "Patient/8e23417a-471a-45bb-b936-57466dc6592c"
      },
      "performedPeriod": {
        "start": "2026-04-01T12:30:00.000+00:00",
        "end": "2026-04-01T12:30:00.000+00:00"
      }
    },
    "request": {
      "method": "PUT",
      "url": "Procedure/263ef91e-1350-4ddb-a379-2be1e9f932e9"
    }
  }, {
    "fullUrl": "https://madie.cms.gov/Procedure/c11293da-20dd-493d-94e9-eeca03040cad",
    "resource": {
      "resourceType": "Procedure",
      "id": "c11293da-20dd-493d-94e9-eeca03040cad",
      "meta": {
        "profile": [ "http://hl7.org/fhir/us/qicore/StructureDefinition/qicore-procedure" ]
      },
      "extension": [ {
        "url": "http://hl7.org/fhir/us/qicore/StructureDefinition/qicore-recorded",
        "valueDateTime": "2026-05-30T13:55:00.000+00:00"
      } ],
      "status": "completed",
      "code": {
        "coding": [ {
          "system": "http://snomed.info/sct",
          "code": "169396008"
        } ]
      },
      "subject": {
        "reference": "Patient/8e23417a-471a-45bb-b936-57466dc6592c"
      },
      "performedPeriod": {
        "start": "2026-05-30T12:45:00.000+00:00",
        "end": "2026-05-30T13:45:00.000+00:00"
      }
    },
    "request": {
      "method": "PUT",
      "url": "Procedure/c11293da-20dd-493d-94e9-eeca03040cad"
    }
  }, {
    "fullUrl": "https://madie.cms.gov/Procedure/1664a1be-52c2-4493-8861-b804ab5d2087",
    "resource": {
      "resourceType": "Procedure",
      "id": "1664a1be-52c2-4493-8861-b804ab5d2087",
      "meta": {
        "profile": [ "http://hl7.org/fhir/us/qicore/StructureDefinition/qicore-procedure" ]
      },
      "extension": [ {
        "url": "http://hl7.org/fhir/us/qicore/StructureDefinition/qicore-recorded",
        "valueDateTime": "2026-06-04T16:35:00.000+00:00"
      } ],
      "status": "completed",
      "code": {
        "coding": [ {
          "system": "http://www.ama-assn.org/go/cpt",
          "code": "51720"
        } ]
      },
      "subject": {
        "reference": "Patient/8e23417a-471a-45bb-b936-57466dc6592c"
      },
      "performedPeriod": {
        "start": "2026-06-04T15:30:00.000+00:00",
        "end": "2026-06-04T15:30:00.000+00:00"
      }
    },
    "request": {
      "method": "PUT",
      "url": "Procedure/1664a1be-52c2-4493-8861-b804ab5d2087"
    }
  }, {
    "fullUrl": "https://madie.cms.gov/Organization/c5cd69e6-c42e-436d-b094-445ac1bf64e7",
    "resource": {
      "resourceType": "Organization",
      "id": "c5cd69e6-c42e-436d-b094-445ac1bf64e7",
      "meta": {
        "profile": [ "http://hl7.org/fhir/us/qicore/StructureDefinition/qicore-organization" ]
      },
      "identifier": [ {
        "use": "temp",
        "system": "urn:oid:2.16.840.1.113883.4.4",
        "value": "21-3259825"
      } ],
      "active": true,
      "type": [ {
        "coding": [ {
          "system": "http://terminology.hl7.org/CodeSystem/organization-type",
          "code": "pay",
          "display": "Payer"
        } ]
      } ],
      "name": "Blue Cross Blue Shield of Texas",
      "telecom": [ {
        "system": "phone",
        "value": "(+1) 972-766-6900"
      } ],
      "address": [ {
        "use": "billing",
        "type": "postal",
        "line": [ "P.O. Box 660044" ],
        "city": "Dallas",
        "state": "TX",
        "postalCode": "75266-0044",
        "country": "USA"
      } ]
    },
    "request": {
      "method": "PUT",
      "url": "Organization/c5cd69e6-c42e-436d-b094-445ac1bf64e7"
    }
  }, {
    "fullUrl": "https://madie.cms.gov/Practitioner/37814621-9efe-4824-aa3a-b79c09443667",
    "resource": {
      "resourceType": "Practitioner",
      "id": "37814621-9efe-4824-aa3a-b79c09443667",
      "meta": {
        "profile": [ "http://hl7.org/fhir/us/qicore/StructureDefinition/qicore-practitioner" ]
      },
      "identifier": [ {
        "system": "http://hl7.org/fhir/sid/us-npi",
        "value": "1234567890"
      } ],
      "name": [ {
        "family": "Evil",
        "prefix": [ "Dr" ]
      } ]
    },
    "request": {
      "method": "PUT",
      "url": "Practitioner/37814621-9efe-4824-aa3a-b79c09443667"
    }
  }, {
    "fullUrl": "https://madie.cms.gov/MeasureReport/c828863c-4c72-4cc4-8156-ede8adc10db1",
    "resource": {
      "resourceType": "MeasureReport",
      "id": "c828863c-4c72-4cc4-8156-ede8adc10db1",
      "meta": {
        "profile": [ "http://hl7.org/fhir/us/cqfmeasures/StructureDefinition/test-case-cqfm" ]
      },
      "contained": [ {
        "resourceType": "Parameters",
        "id": "b91a7dfe-f120-4784-b711-313e94dd63c8-parameters",
        "parameter": [ {
          "name": "subject",
          "valueString": "8e23417a-471a-45bb-b936-57466dc6592c"
        } ]
      } ],
      "extension": [ {
        "url": "http://hl7.org/fhir/StructureDefinition/cqf-inputParameters",
        "valueReference": {
          "reference": "#b91a7dfe-f120-4784-b711-313e94dd63c8-parameters"
        }
      }, {
        "url": "http://hl7.org/fhir/us/cqfmeasures/StructureDefinition/cqfm-testCaseDescription",
        "valueMarkdown": "Patient with cancer diagnosis overlaps the office visits during measurement period. Multiple chemotherapy administrations prior and after office visits. Pain intensity assessment was performed during 2 office visits, but only 1 has a result.    \n"
      } ],
      "modifierExtension": [ {
        "url": "http://hl7.org/fhir/us/cqfmeasures/StructureDefinition/cqfm-isTestCase",
        "valueBoolean": true
      } ],
      "status": "complete",
      "type": "individual",
      "measure": "https://madie.cms.gov/Measure/CMS157FHIRPainIntensityQuantified",
      "period": {
        "start": "2026-01-01",
        "end": "2026-12-31"
      },
      "group": [ {
        "id": "Group_1",
        "population": [ {
          "id": "InitialPopulation_1",
          "code": {
            "coding": [ {
              "system": "http://terminology.hl7.org/CodeSystem/measure-population",
              "code": "initial-population",
              "display": "Initial Population"
            } ]
          },
          "count": 2
        }, {
          "id": "Denominator_1",
          "code": {
            "coding": [ {
              "system": "http://terminology.hl7.org/CodeSystem/measure-population",
              "code": "denominator",
              "display": "Denominator"
            } ]
          },
          "count": 2
        }, {
          "id": "Numerator_1",
          "code": {
            "coding": [ {
              "system": "http://terminology.hl7.org/CodeSystem/measure-population",
              "code": "numerator",
              "display": "Numerator"
            } ]
          },
          "count": 1
        } ],
        "measureScore": {
          "value": 0.0
        }
      }, {
        "id": "Group_2",
        "population": [ {
          "id": "InitialPopulation_2",
          "code": {
            "coding": [ {
              "system": "http://terminology.hl7.org/CodeSystem/measure-population",
              "code": "initial-population",
              "display": "Initial Population"
            } ]
          },
          "count": 0
        }, {
          "id": "Denominator_2",
          "code": {
            "coding": [ {
              "system": "http://terminology.hl7.org/CodeSystem/measure-population",
              "code": "denominator",
              "display": "Denominator"
            } ]
          },
          "count": 0
        }, {
          "id": "Numerator_2",
          "code": {
            "coding": [ {
              "system": "http://terminology.hl7.org/CodeSystem/measure-population",
              "code": "numerator",
              "display": "Numerator"
            } ]
          },
          "count": 0
        } ],
        "measureScore": {
          "value": 0.0
        }
      } ],
      "evaluatedResource": [ {
        "reference": "Patient/8e23417a-471a-45bb-b936-57466dc6592c"
      }, {
        "reference": "Observation/e8914352-65d1-47f4-9359-3c73e624afd4"
      }, {
        "reference": "Observation/9e01a316-12d1-4816-a3da-2b8f0687f8ab"
      }, {
        "reference": "Observation/9e01a316-12d1-4816-a3da-2b8f0687f8ab1"
      }, {
        "reference": "Condition/84f1dd8e-4bf9-420b-9315-b3e71e25520d"
      }, {
        "reference": "Encounter/73ad54a8-532e-4e3d-b2ca-b8f19885b6ad"
      }, {
        "reference": "Encounter/a033cbf2-901b-4db4-a1ab-edcb15be2530"
      }, {
        "reference": "Encounter/c6296245-9eea-4863-9875-45c74f555c97"
      }, {
        "reference": "Encounter/72262e69-c890-4f22-8536-8f288c98f9ce"
      }, {
        "reference": "Coverage/54ddaa5f-dca0-4cdd-8644-221461f526af"
      }, {
        "reference": "Procedure/c7e08f3b-3964-48b6-be41-200f31e14bf5"
      }, {
        "reference": "Procedure/263ef91e-1350-4ddb-a379-2be1e9f932e9"
      }, {
        "reference": "Procedure/c11293da-20dd-493d-94e9-eeca03040cad"
      }, {
        "reference": "Procedure/1664a1be-52c2-4493-8861-b804ab5d2087"
      }, {
        "reference": "Organization/c5cd69e6-c42e-436d-b094-445ac1bf64e7"
      }, {
        "reference": "Practitioner/37814621-9efe-4824-aa3a-b79c09443667"
      } ]
    },
    "request": {
      "method": "PUT",
      "url": "MeasureReport/c828863c-4c72-4cc4-8156-ede8adc10db1"
    }
  } ]
}