{
  "resourceType": "Bundle",
  "id": "DENEX2Pass-HospiceObsValueIsYes",
  "type": "transaction",
  "entry": [ {
    "fullUrl": "https://madie.cms.gov/Patient/71a21841-f5bb-4e75-9328-aedf3cdc8a34",
    "resource": {
      "resourceType": "Patient",
      "id": "71a21841-f5bb-4e75-9328-aedf3cdc8a34",
      "meta": {
        "profile": [ "http://hl7.org/fhir/us/qicore/StructureDefinition/qicore-patient" ]
      },
      "extension": [ {
        "url": "http://hl7.org/fhir/us/core/StructureDefinition/us-core-race",
        "extension": [ {
          "url": "ombCategory",
          "valueCoding": {
            "system": "urn:oid:2.16.840.1.113883.6.238",
            "code": "2028-9",
            "display": "Asian",
            "userSelected": true
          }
        }, {
          "url": "text",
          "valueString": "Asian"
        } ]
      }, {
        "url": "http://hl7.org/fhir/us/core/StructureDefinition/us-core-ethnicity",
        "extension": [ {
          "url": "ombCategory",
          "valueCoding": {
            "system": "urn:oid:2.16.840.1.113883.6.238",
            "code": "2135-2",
            "display": "Hispanic or Latino",
            "userSelected": true
          }
        }, {
          "url": "text",
          "valueString": "Hispanic or Latino"
        } ]
      } ],
      "identifier": [ {
        "type": {
          "coding": [ {
            "system": "http://terminology.hl7.org/CodeSystem/v2-0203",
            "code": "MR"
          } ]
        },
        "system": "http://hospital.smarthealthit.org",
        "value": "999999995"
      } ],
      "name": [ {
        "family": "Bertha",
        "given": [ "Betty" ]
      } ],
      "gender": "female",
      "birthDate": "2016-12-31"
    },
    "request": {
      "method": "PUT",
      "url": "Patient/71a21841-f5bb-4e75-9328-aedf3cdc8a34"
    }
  }, {
    "fullUrl": "https://madie.cms.gov/Encounter/3ec46c6b-1338-4a68-83c8-789615a316e1",
    "resource": {
      "resourceType": "Encounter",
      "id": "3ec46c6b-1338-4a68-83c8-789615a316e1",
      "meta": {
        "profile": [ "http://hl7.org/fhir/us/qicore/StructureDefinition/qicore-encounter" ]
      },
      "status": "finished",
      "class": {
        "system": "http://terminology.hl7.org/CodeSystem/v3-ActCode",
        "code": "AMB",
        "display": "ambulatory"
      },
      "type": [ {
        "coding": [ {
          "system": "http://snomed.info/sct",
          "code": "185464004",
          "display": "Out of hours visit - not night visit (procedure)"
        } ]
      } ],
      "subject": {
        "reference": "Patient/71a21841-f5bb-4e75-9328-aedf3cdc8a34"
      },
      "period": {
        "start": "2026-01-01T00:00:00.000+00:00",
        "end": "2026-01-01T01:00:00.000+00:00"
      }
    },
    "request": {
      "method": "PUT",
      "url": "Encounter/3ec46c6b-1338-4a68-83c8-789615a316e1"
    }
  }, {
    "fullUrl": "https://madie.cms.gov/MedicationRequest/5fdbdc3f-64c4-4ae3-90cd-b585c39a3830",
    "resource": {
      "resourceType": "MedicationRequest",
      "id": "5fdbdc3f-64c4-4ae3-90cd-b585c39a3830",
      "meta": {
        "profile": [ "http://hl7.org/fhir/us/qicore/StructureDefinition/qicore-medicationrequest" ]
      },
      "status": "completed",
      "intent": "order",
      "medicationCodeableConcept": {
        "coding": [ {
          "system": "http://www.nlm.nih.gov/research/umls/rxnorm",
          "code": "884173",
          "display": "clonidine hydrochloride 0.1 MG Oral Tablet"
        } ]
      },
      "subject": {
        "reference": "Patient/71a21841-f5bb-4e75-9328-aedf3cdc8a34"
      },
      "authoredOn": "2026-01-02T00:00:00.000+00:00",
      "requester": {
        "reference": "Practitioner/example"
      },
      "dosageInstruction": [ {
        "timing": {
          "repeat": {
            "boundsPeriod": {
              "start": "2026-01-02T00:00:00.000+00:00",
              "end": "2026-07-30T23:59:59.000+00:00"
            }
          }
        }
      } ],
      "dispenseRequest": {
        "expectedSupplyDuration": {
          "value": 210,
          "system": "http://unitsofmeasure.org",
          "code": "d"
        }
      }
    },
    "request": {
      "method": "PUT",
      "url": "MedicationRequest/5fdbdc3f-64c4-4ae3-90cd-b585c39a3830"
    }
  }, {
    "fullUrl": "https://madie.cms.gov/Encounter/c77143d7-dbe3-43a6-ae55-741c3872c8c6",
    "resource": {
      "resourceType": "Encounter",
      "id": "c77143d7-dbe3-43a6-ae55-741c3872c8c6",
      "meta": {
        "profile": [ "http://hl7.org/fhir/us/qicore/StructureDefinition/qicore-encounter" ]
      },
      "status": "finished",
      "class": {
        "system": "http://terminology.hl7.org/CodeSystem/v3-ActCode",
        "code": "AMB",
        "display": "ambulatory"
      },
      "type": [ {
        "coding": [ {
          "system": "http://www.ama-assn.org/go/cpt",
          "code": "90791",
          "display": "Psychiatric diagnostic evaluation"
        } ]
      } ],
      "subject": {
        "reference": "Patient/71a21841-f5bb-4e75-9328-aedf3cdc8a34"
      },
      "period": {
        "start": "2026-01-31T00:00:00.000+00:00",
        "end": "2026-01-31T01:00:00.000+00:00"
      }
    },
    "request": {
      "method": "PUT",
      "url": "Encounter/c77143d7-dbe3-43a6-ae55-741c3872c8c6"
    }
  }, {
    "fullUrl": "https://madie.cms.gov/Encounter/dbf06faa-5da2-4e8f-835d-06bcb20c64aa",
    "resource": {
      "resourceType": "Encounter",
      "id": "dbf06faa-5da2-4e8f-835d-06bcb20c64aa",
      "meta": {
        "profile": [ "http://hl7.org/fhir/us/qicore/StructureDefinition/qicore-encounter" ]
      },
      "status": "finished",
      "class": {
        "system": "http://terminology.hl7.org/CodeSystem/v3-ActCode",
        "code": "AMB",
        "display": "ambulatory"
      },
      "type": [ {
        "coding": [ {
          "system": "http://www.ama-assn.org/go/cpt",
          "code": "90791",
          "display": "Psychiatric diagnostic evaluation"
        } ]
      } ],
      "subject": {
        "reference": "Patient/71a21841-f5bb-4e75-9328-aedf3cdc8a34"
      },
      "period": {
        "start": "2026-06-30T00:00:00.000+00:00",
        "end": "2026-06-30T01:00:00.000+00:00"
      }
    },
    "request": {
      "method": "PUT",
      "url": "Encounter/dbf06faa-5da2-4e8f-835d-06bcb20c64aa"
    }
  }, {
    "fullUrl": "https://madie.cms.gov/Encounter/953700dc-966f-4140-94cd-058c13cf7b99",
    "resource": {
      "resourceType": "Encounter",
      "id": "953700dc-966f-4140-94cd-058c13cf7b99",
      "meta": {
        "profile": [ "http://hl7.org/fhir/us/qicore/StructureDefinition/qicore-encounter" ]
      },
      "status": "finished",
      "class": {
        "system": "http://terminology.hl7.org/CodeSystem/v3-ActCode",
        "code": "AMB",
        "display": "ambulatory"
      },
      "type": [ {
        "coding": [ {
          "system": "http://www.ama-assn.org/go/cpt",
          "code": "99245",
          "display": "Office or other outpatient consultation for a new or established patient, which requires a medically appropriate history and/or examination and high level of medical decision making. When using total time on the date of the encounter for code selection, 55 minutes must be met or exceeded."
        } ]
      } ],
      "subject": {
        "reference": "Patient/71a21841-f5bb-4e75-9328-aedf3cdc8a34"
      },
      "period": {
        "start": "2026-08-31T00:00:00.000+00:00",
        "end": "2026-08-31T01:00:00.000+00:00"
      }
    },
    "request": {
      "method": "PUT",
      "url": "Encounter/953700dc-966f-4140-94cd-058c13cf7b99"
    }
  }, {
    "fullUrl": "https://madie.cms.gov/Observation/7b008d15-2c93-4bb5-8cfa-33af78556f6b",
    "resource": {
      "resourceType": "Observation",
      "id": "7b008d15-2c93-4bb5-8cfa-33af78556f6b",
      "meta": {
        "profile": [ "http://hl7.org/fhir/us/qicore/StructureDefinition/qicore-observation-screening-assessment" ]
      },
      "status": "final",
      "category": [ {
        "coding": [ {
          "system": "http://terminology.hl7.org/CodeSystem/observation-category",
          "code": "survey"
        } ]
      } ],
      "code": {
        "coding": [ {
          "system": "http://loinc.org",
          "code": "45755-6",
          "display": "Hospice care [Minimum Data Set]"
        } ]
      },
      "subject": {
        "reference": "Patient/71a21841-f5bb-4e75-9328-aedf3cdc8a34"
      },
      "effectivePeriod": {
        "start": "2025-12-31T00:00:00.000+00:00",
        "end": "2026-01-01T00:00:00.000+00:00"
      },
      "valueCodeableConcept": {
        "coding": [ {
          "system": "http://snomed.info/sct",
          "code": "373066001",
          "display": "Yes (qualifier value)"
        } ]
      }
    },
    "request": {
      "method": "PUT",
      "url": "Observation/7b008d15-2c93-4bb5-8cfa-33af78556f6b"
    }
  }, {
    "fullUrl": "https://madie.cms.gov/MeasureReport/81da1daa-f63c-4229-80e3-f8926ede352b",
    "resource": {
      "resourceType": "MeasureReport",
      "id": "81da1daa-f63c-4229-80e3-f8926ede352b",
      "meta": {
        "profile": [ "http://hl7.org/fhir/us/cqfmeasures/StructureDefinition/test-case-cqfm" ]
      },
      "contained": [ {
        "resourceType": "Parameters",
        "id": "61d24a96-1477-47d5-8abb-d22806a8e5f7-parameters",
        "parameter": [ {
          "name": "subject",
          "valueString": "71a21841-f5bb-4e75-9328-aedf3cdc8a34"
        } ]
      } ],
      "extension": [ {
        "url": "http://hl7.org/fhir/StructureDefinition/cqf-inputParameters",
        "valueReference": {
          "reference": "#61d24a96-1477-47d5-8abb-d22806a8e5f7-parameters"
        }
      }, {
        "url": "http://hl7.org/fhir/us/cqfmeasures/StructureDefinition/cqfm-testCaseDescription",
        "valueMarkdown": "Hospice observation value is yes"
      } ],
      "modifierExtension": [ {
        "url": "http://hl7.org/fhir/us/cqfmeasures/StructureDefinition/cqfm-isTestCase",
        "valueBoolean": true
      } ],
      "status": "complete",
      "type": "individual",
      "measure": "https://madie.cms.gov/Measure/CMS136FHIRChildADHDMedFollowUp",
      "period": {
        "start": "2026-01-01",
        "end": "2026-12-31"
      },
      "group": [ {
        "id": "Group_1",
        "population": [ {
          "id": "InitialPopulation_1",
          "code": {
            "coding": [ {
              "system": "http://terminology.hl7.org/CodeSystem/measure-population",
              "code": "initial-population",
              "display": "Initial Population"
            } ]
          },
          "count": 1
        }, {
          "id": "Denominator_1",
          "code": {
            "coding": [ {
              "system": "http://terminology.hl7.org/CodeSystem/measure-population",
              "code": "denominator",
              "display": "Denominator"
            } ]
          },
          "count": 1
        }, {
          "id": "DenominatorExclusion_1",
          "code": {
            "coding": [ {
              "system": "http://terminology.hl7.org/CodeSystem/measure-population",
              "code": "denominator-exclusion",
              "display": "Denominator Exclusion"
            } ]
          },
          "count": 1
        }, {
          "id": "Numerator_1",
          "code": {
            "coding": [ {
              "system": "http://terminology.hl7.org/CodeSystem/measure-population",
              "code": "numerator",
              "display": "Numerator"
            } ]
          },
          "count": 0
        } ],
        "measureScore": {
          "value": 1.0
        }
      }, {
        "id": "Group_2",
        "population": [ {
          "id": "InitialPopulation_2",
          "code": {
            "coding": [ {
              "system": "http://terminology.hl7.org/CodeSystem/measure-population",
              "code": "initial-population",
              "display": "Initial Population"
            } ]
          },
          "count": 1
        }, {
          "id": "Denominator_2",
          "code": {
            "coding": [ {
              "system": "http://terminology.hl7.org/CodeSystem/measure-population",
              "code": "denominator",
              "display": "Denominator"
            } ]
          },
          "count": 1
        }, {
          "id": "DenominatorExclusion_2",
          "code": {
            "coding": [ {
              "system": "http://terminology.hl7.org/CodeSystem/measure-population",
              "code": "denominator-exclusion",
              "display": "Denominator Exclusion"
            } ]
          },
          "count": 1
        }, {
          "id": "Numerator_2",
          "code": {
            "coding": [ {
              "system": "http://terminology.hl7.org/CodeSystem/measure-population",
              "code": "numerator",
              "display": "Numerator"
            } ]
          },
          "count": 0
        } ],
        "measureScore": {
          "value": 1.0
        }
      } ],
      "evaluatedResource": [ {
        "reference": "Patient/71a21841-f5bb-4e75-9328-aedf3cdc8a34"
      }, {
        "reference": "Encounter/3ec46c6b-1338-4a68-83c8-789615a316e1"
      }, {
        "reference": "MedicationRequest/5fdbdc3f-64c4-4ae3-90cd-b585c39a3830"
      }, {
        "reference": "Encounter/c77143d7-dbe3-43a6-ae55-741c3872c8c6"
      }, {
        "reference": "Encounter/dbf06faa-5da2-4e8f-835d-06bcb20c64aa"
      }, {
        "reference": "Encounter/953700dc-966f-4140-94cd-058c13cf7b99"
      }, {
        "reference": "Observation/7b008d15-2c93-4bb5-8cfa-33af78556f6b"
      } ]
    },
    "request": {
      "method": "PUT",
      "url": "MeasureReport/81da1daa-f63c-4229-80e3-f8926ede352b"
    }
  } ]
}