{
  "resourceType": "Bundle",
  "id": "tests-NumerFail-LabTestAfterEncounter-bundle",
  "type": "transaction",
  "entry": [ {
    "fullUrl": "https://madie.cms.gov/Condition/6fad7081-3605-40bc-8a8a-c1658a7e162c",
    "resource": {
      "resourceType": "Condition",
      "id": "6fad7081-3605-40bc-8a8a-c1658a7e162c",
      "meta": {
        "profile": [ "http://hl7.org/fhir/us/qicore/StructureDefinition/qicore-condition-encounter-diagnosis" ]
      },
      "clinicalStatus": {
        "coding": [ {
          "system": "http://terminology.hl7.org/CodeSystem/condition-clinical",
          "code": "active"
        } ]
      },
      "verificationStatus": {
        "coding": [ {
          "system": "http://terminology.hl7.org/CodeSystem/condition-ver-status",
          "code": "confirmed"
        } ]
      },
      "category": [ {
        "coding": [ {
          "system": "http://terminology.hl7.org/CodeSystem/condition-category",
          "code": "encounter-diagnosis",
          "display": "Encounter Diagnosis"
        } ]
      } ],
      "code": {
        "coding": [ {
          "system": "http://snomed.info/sct",
          "code": "46635009",
          "display": "Diabetes Mellitus"
        } ]
      },
      "subject": {
        "reference": "Patient/7507debb-a991-4de0-bd71-634a684ddcd7"
      },
      "encounter": {
        "reference": "Encounter/32196194-1d17-43c7-ada5-fd3b19808c14"
      },
      "onsetDateTime": "2025-10-02T08:00:00.000+00:00"
    },
    "request": {
      "method": "PUT",
      "url": "Condition/6fad7081-3605-40bc-8a8a-c1658a7e162c"
    }
  }, {
    "fullUrl": "https://madie.cms.gov/MedicationAdministration/43ce4f7c-bf68-4343-88f1-10696d543672",
    "resource": {
      "resourceType": "MedicationAdministration",
      "id": "43ce4f7c-bf68-4343-88f1-10696d543672",
      "meta": {
        "profile": [ "http://hl7.org/fhir/us/qicore/StructureDefinition/qicore-medicationadministration" ]
      },
      "status": "completed",
      "medicationCodeableConcept": {
        "coding": [ {
          "system": "http://www.nlm.nih.gov/research/umls/rxnorm",
          "code": "1368385",
          "display": "Hypoglycemics Treatment Medications"
        } ]
      },
      "subject": {
        "reference": "Patient/7507debb-a991-4de0-bd71-634a684ddcd7"
      },
      "context": {
        "reference": "Encounter/32196194-1d17-43c7-ada5-fd3b19808c14"
      },
      "effectivePeriod": {
        "start": "2026-07-11T08:00:00.000+00:00",
        "end": "2026-07-11T09:00:00.000+00:00"
      },
      "dosage": {
        "route": {
          "coding": [ {
            "system": "http://terminology.hl7.org/CodeSystem/medication-route",
            "code": "ORAL",
            "display": "Oral"
          } ]
        }
      }
    },
    "request": {
      "method": "PUT",
      "url": "MedicationAdministration/43ce4f7c-bf68-4343-88f1-10696d543672"
    }
  }, {
    "fullUrl": "https://madie.cms.gov/Encounter/32196194-1d17-43c7-ada5-fd3b19808c14",
    "resource": {
      "resourceType": "Encounter",
      "id": "32196194-1d17-43c7-ada5-fd3b19808c14",
      "meta": {
        "profile": [ "http://hl7.org/fhir/us/qicore/StructureDefinition/qicore-encounter" ]
      },
      "status": "finished",
      "class": {
        "system": "http://terminology.hl7.org/CodeSystem/v3-ActCode",
        "code": "IMP",
        "display": "inpatient encounter"
      },
      "type": [ {
        "coding": [ {
          "system": "http://snomed.info/sct",
          "code": "183452005",
          "display": "Inpatient encounter"
        } ]
      } ],
      "subject": {
        "reference": "Patient/7507debb-a991-4de0-bd71-634a684ddcd7"
      },
      "period": {
        "start": "2026-07-11T08:00:00.000+00:00",
        "end": "2026-07-13T09:00:00.000+00:00"
      }
    },
    "request": {
      "method": "PUT",
      "url": "Encounter/32196194-1d17-43c7-ada5-fd3b19808c14"
    }
  }, {
    "fullUrl": "https://madie.cms.gov/Patient/7507debb-a991-4de0-bd71-634a684ddcd7",
    "resource": {
      "resourceType": "Patient",
      "id": "7507debb-a991-4de0-bd71-634a684ddcd7",
      "meta": {
        "profile": [ "http://hl7.org/fhir/us/qicore/StructureDefinition/qicore-patient" ]
      },
      "extension": [ {
        "url": "http://hl7.org/fhir/us/core/StructureDefinition/us-core-race",
        "extension": [ {
          "url": "ombCategory",
          "valueCoding": {
            "system": "urn:oid:2.16.840.1.113883.6.238",
            "code": "2106-3",
            "display": "White"
          }
        }, {
          "url": "text",
          "valueString": "White"
        } ]
      }, {
        "url": "http://hl7.org/fhir/us/core/StructureDefinition/us-core-ethnicity",
        "extension": [ {
          "url": "ombCategory",
          "valueCoding": {
            "system": "urn:oid:2.16.840.1.113883.6.238",
            "code": "2135-2",
            "display": "Hispanic or Latino"
          }
        }, {
          "url": "text",
          "valueString": "Hispanic or Latino"
        } ]
      }, {
        "url": "http://hl7.org/fhir/us/core/StructureDefinition/us-core-sex",
        "valueCode": "248153007"
      } ],
      "identifier": [ {
        "system": "http://hospital.smarthealthit.org",
        "value": "999999999"
      } ],
      "name": [ {
        "family": "Example",
        "given": [ "Patient" ]
      } ],
      "gender": "female",
      "birthDate": "1956-01-01"
    },
    "request": {
      "method": "PUT",
      "url": "Patient/7507debb-a991-4de0-bd71-634a684ddcd7"
    }
  }, {
    "fullUrl": "https://madie.cms.gov/Observation/cd2e4cf1-e22f-47d1-b0b1-15bd9948ae1d",
    "resource": {
      "resourceType": "Observation",
      "id": "cd2e4cf1-e22f-47d1-b0b1-15bd9948ae1d",
      "meta": {
        "profile": [ "http://hl7.org/fhir/us/qicore/StructureDefinition/qicore-observation-lab" ]
      },
      "status": "final",
      "category": [ {
        "coding": [ {
          "system": "http://terminology.hl7.org/CodeSystem/observation-category",
          "code": "laboratory",
          "display": "Laboratory"
        } ]
      } ],
      "code": {
        "coding": [ {
          "system": "http://loinc.org",
          "version": "2.72",
          "code": "1547-9",
          "display": "Glucose Lab Test Mass Per Volume"
        } ]
      },
      "subject": {
        "reference": "Patient/7507debb-a991-4de0-bd71-634a684ddcd7"
      },
      "effectiveDateTime": "2026-07-13T09:01:00.000+00:00",
      "valueQuantity": {
        "value": 301,
        "unit": "mg/dL"
      }
    },
    "request": {
      "method": "PUT",
      "url": "Observation/cd2e4cf1-e22f-47d1-b0b1-15bd9948ae1d"
    }
  }, {
    "fullUrl": "https://madie.cms.gov/MeasureReport/6b01e3f8-ef51-41c3-8a23-b2868877df06",
    "resource": {
      "resourceType": "MeasureReport",
      "id": "6b01e3f8-ef51-41c3-8a23-b2868877df06",
      "meta": {
        "profile": [ "http://hl7.org/fhir/us/cqfmeasures/StructureDefinition/test-case-cqfm" ]
      },
      "contained": [ {
        "resourceType": "Parameters",
        "id": "a4d3521e-26c1-4c05-8af7-648cf403df26-parameters",
        "parameter": [ {
          "name": "subject",
          "valueString": "7507debb-a991-4de0-bd71-634a684ddcd7"
        } ]
      } ],
      "extension": [ {
        "url": "http://hl7.org/fhir/StructureDefinition/cqf-inputParameters",
        "valueReference": {
          "reference": "#a4d3521e-26c1-4c05-8af7-648cf403df26-parameters"
        }
      }, {
        "url": "http://hl7.org/fhir/us/cqfmeasures/StructureDefinition/cqfm-testCaseDescription",
        "valueMarkdown": "Encounter with diagnosis and meds, elevated lab occurs 1 minute after end of encounter so does not meet Numerator."
      } ],
      "modifierExtension": [ {
        "url": "http://hl7.org/fhir/us/cqfmeasures/StructureDefinition/cqfm-isTestCase",
        "valueBoolean": true
      } ],
      "status": "complete",
      "type": "individual",
      "measure": "https://madie.cms.gov/Measure/CMS871FHIRHHHyper",
      "period": {
        "start": "2026-01-01",
        "end": "2026-12-31"
      },
      "group": [ {
        "id": "Group_1",
        "population": [ {
          "id": "InitialPopulation_1",
          "code": {
            "coding": [ {
              "system": "http://terminology.hl7.org/CodeSystem/measure-population",
              "code": "initial-population",
              "display": "Initial Population"
            } ]
          },
          "count": 1
        }, {
          "id": "Denominator_1",
          "code": {
            "coding": [ {
              "system": "http://terminology.hl7.org/CodeSystem/measure-population",
              "code": "denominator",
              "display": "Denominator"
            } ]
          },
          "count": 1
        }, {
          "id": "DenominatorExclusion_1",
          "code": {
            "coding": [ {
              "system": "http://terminology.hl7.org/CodeSystem/measure-population",
              "code": "denominator-exclusion",
              "display": "Denominator Exclusion"
            } ]
          },
          "count": 0
        }, {
          "id": "Numerator_1",
          "code": {
            "coding": [ {
              "system": "http://terminology.hl7.org/CodeSystem/measure-population",
              "code": "numerator",
              "display": "Numerator"
            } ]
          },
          "count": 0
        }, {
          "id": "NumeratorExclusion_1",
          "code": {
            "coding": [ {
              "system": "http://terminology.hl7.org/CodeSystem/measure-population",
              "code": "numerator-exclusion",
              "display": "Numerator Exclusion"
            } ]
          },
          "count": 0
        }, {
          "id": "MeasureObservation_1_1_1",
          "code": {
            "coding": [ {
              "system": "http://terminology.hl7.org/CodeSystem/measure-population",
              "code": "measure-observation",
              "display": "Measure Observation"
            } ]
          },
          "count": 1
        } ],
        "measureScore": {
          "value": 0.0
        }
      } ],
      "evaluatedResource": [ {
        "reference": "Condition/6fad7081-3605-40bc-8a8a-c1658a7e162c"
      }, {
        "reference": "MedicationAdministration/43ce4f7c-bf68-4343-88f1-10696d543672"
      }, {
        "reference": "Encounter/32196194-1d17-43c7-ada5-fd3b19808c14"
      }, {
        "reference": "Patient/7507debb-a991-4de0-bd71-634a684ddcd7"
      }, {
        "reference": "Observation/cd2e4cf1-e22f-47d1-b0b1-15bd9948ae1d"
      } ]
    },
    "request": {
      "method": "PUT",
      "url": "MeasureReport/6b01e3f8-ef51-41c3-8a23-b2868877df06"
    }
  } ]
}