{
  "resourceType": "Bundle",
  "id": "60f82c3098086b570510e2f4",
  "type": "transaction",
  "entry": [ {
    "fullUrl": "https://madie.cms.gov/Patient/c21e25c9-a450-4e08-b9be-f0ca9dac5389",
    "resource": {
      "resourceType": "Patient",
      "id": "c21e25c9-a450-4e08-b9be-f0ca9dac5389",
      "meta": {
        "profile": [ "http://hl7.org/fhir/us/qicore/StructureDefinition/qicore-patient" ]
      },
      "text": {
        "status": "generated",
        "div": "<div xmlns=\"http://www.w3.org/1999/xhtml\"><div class=\"hapiHeaderText\">CMO_DayOf_AuthDat_1minB4EDStart_EDEndLT1hrB4Obs_ObsEndLT1hrB4IP <b>DENEXPASS </b></div><table class=\"hapiPropertyTable\"><tbody><tr><td>Date of birth</td><td><span>01 January 1980</span></td></tr></tbody></table></div>"
      },
      "extension": [ {
        "url": "http://hl7.org/fhir/us/core/StructureDefinition/us-core-race",
        "extension": [ {
          "url": "ombCategory",
          "valueCoding": {
            "system": "urn:oid:2.16.840.1.113883.6.238",
            "code": "2106-3",
            "display": "White",
            "userSelected": true
          }
        }, {
          "url": "text",
          "valueString": "White"
        } ]
      }, {
        "url": "http://hl7.org/fhir/us/core/StructureDefinition/us-core-ethnicity",
        "extension": [ {
          "url": "ombCategory",
          "valueCoding": {
            "system": "urn:oid:2.16.840.1.113883.6.238",
            "code": "2186-5",
            "display": "Not Hispanic or Latino",
            "userSelected": true
          }
        }, {
          "url": "text",
          "valueString": "Not Hispanic or Latino"
        } ]
      } ],
      "identifier": [ {
        "type": {
          "coding": [ {
            "system": "http://terminology.hl7.org/CodeSystem/v2-0203",
            "code": "MR"
          } ]
        },
        "system": "https://bonnie-fhir.healthit.gov/",
        "value": "60f82c3098086b570510e2f4"
      } ],
      "active": true,
      "name": [ {
        "use": "usual",
        "family": "DENEXPass",
        "given": [ "CMO_DayOf_AuthDat_1minB4EDStart_EDEndLT1hrB4Obs_ObsEndLT1hrB4IP" ]
      } ],
      "gender": "female",
      "birthDate": "1981-01-01"
    },
    "request": {
      "method": "PUT",
      "url": "Patient/c21e25c9-a450-4e08-b9be-f0ca9dac5389"
    }
  }, {
    "fullUrl": "https://madie.cms.gov/Encounter/6ee6c773-7b30-4fe2-b849-c1e6752c78ab",
    "resource": {
      "resourceType": "Encounter",
      "id": "6ee6c773-7b30-4fe2-b849-c1e6752c78ab",
      "meta": {
        "profile": [ "http://hl7.org/fhir/us/qicore/StructureDefinition/qicore-encounter" ]
      },
      "status": "finished",
      "class": {
        "system": "http://terminology.hl7.org/CodeSystem/v3-ActCode",
        "code": "EMER",
        "display": "emergency",
        "userSelected": true
      },
      "type": [ {
        "coding": [ {
          "system": "http://snomed.info/sct",
          "code": "4525004"
        } ]
      } ],
      "subject": {
        "reference": "Patient/c21e25c9-a450-4e08-b9be-f0ca9dac5389"
      },
      "period": {
        "start": "2026-11-18T07:00:00.000+00:00",
        "end": "2026-11-18T08:01:00.000+00:00"
      },
      "reasonReference": [ {
        "reference": "Condition/392d405c-a4d3-49db-861c-b21842ea5349"
      } ]
    },
    "request": {
      "method": "PUT",
      "url": "Encounter/6ee6c773-7b30-4fe2-b849-c1e6752c78ab"
    }
  }, {
    "fullUrl": "https://madie.cms.gov/Encounter/ffb5989a-c6ce-48f3-ac85-595694393766",
    "resource": {
      "resourceType": "Encounter",
      "id": "ffb5989a-c6ce-48f3-ac85-595694393766",
      "meta": {
        "profile": [ "http://hl7.org/fhir/us/qicore/StructureDefinition/qicore-encounter" ]
      },
      "status": "finished",
      "class": {
        "system": "http://terminology.hl7.org/CodeSystem/v3-ActCode",
        "code": "OBSENC",
        "display": "observation encounter",
        "userSelected": true
      },
      "type": [ {
        "coding": [ {
          "system": "http://snomed.info/sct",
          "code": "448951000124107"
        } ]
      } ],
      "subject": {
        "reference": "Patient/c21e25c9-a450-4e08-b9be-f0ca9dac5389"
      },
      "period": {
        "start": "2026-11-18T09:00:00.000+00:00",
        "end": "2026-11-18T10:01:00.000+00:00"
      }
    },
    "request": {
      "method": "PUT",
      "url": "Encounter/ffb5989a-c6ce-48f3-ac85-595694393766"
    }
  }, {
    "fullUrl": "https://madie.cms.gov/claim/5ca62962b8484628b8de1ec5",
    "resource": {
      "resourceType": "Claim",
      "id": "5ca62962b8484628b8de1ec5",
      "meta": {
        "profile": [ "http://hl7.org/fhir/us/qicore/StructureDefinition/qicore-claim" ]
      },
      "status": "active",
      "type": {
        "coding": [ {
          "system": "http://terminology.hl7.org/CodeSystem/claim-type",
          "code": "institutional"
        } ]
      },
      "use": "claim",
      "patient": {
        "reference": "Patient/c21e25c9-a450-4e08-b9be-f0ca9dac5389"
      },
      "created": "2026-12-01",
      "provider": {
        "reference": "Practitioner/practitioner-123456"
      },
      "priority": {
        "coding": [ {
          "system": "http://terminology.hl7.org/CodeSystem/processpriority",
          "code": "normal"
        } ]
      },
      "diagnosis": [ {
        "sequence": 1,
        "diagnosisCodeableConcept": {
          "coding": [ {
            "system": "http://hl7.org/fhir/sid/icd-10-cm",
            "code": "I63.00"
          } ]
        },
        "type": [ {
          "coding": [ {
            "system": "http://terminology.hl7.org/CodeSystem/ex-diagnosistype",
            "code": "principal"
          } ]
        } ]
      } ],
      "insurance": [ {
        "sequence": 1,
        "focal": true,
        "coverage": {
          "reference": "Coverage/5fa041661c76ba66d9959367"
        }
      } ],
      "item": [ {
        "sequence": 1,
        "diagnosisSequence": [ 1 ],
        "productOrService": {
          "coding": [ {
            "system": "http://terminology.hl7.org/CodeSystem/ex-USCLS",
            "code": "99555"
          } ]
        },
        "encounter": [ {
          "reference": "Encounter/1e1bc424-98f6-442b-802b-ec54ae1cade5"
        } ]
      } ]
    },
    "request": {
      "method": "PUT",
      "url": "Claim/5ca62962b8484628b8de1ec5"
    }
  }, {
    "fullUrl": "https://madie.cms.gov/Encounter/1e1bc424-98f6-442b-802b-ec54ae1cade5",
    "resource": {
      "resourceType": "Encounter",
      "id": "1e1bc424-98f6-442b-802b-ec54ae1cade5",
      "meta": {
        "profile": [ "http://hl7.org/fhir/us/qicore/StructureDefinition/qicore-encounter" ]
      },
      "status": "finished",
      "class": {
        "system": "http://terminology.hl7.org/CodeSystem/v3-ActCode",
        "code": "IMP",
        "display": "inpatient encounter",
        "userSelected": true
      },
      "type": [ {
        "coding": [ {
          "system": "http://snomed.info/sct",
          "code": "183452005"
        } ]
      } ],
      "subject": {
        "reference": "Patient/c21e25c9-a450-4e08-b9be-f0ca9dac5389"
      },
      "period": {
        "start": "2026-11-18T11:00:00.000+00:00",
        "end": "2026-11-20T08:15:00.000+00:00"
      },
      "reasonReference": [ {
        "reference": "Condition/392d405c-a4d3-49db-861c-b21842ea5349"
      } ]
    },
    "request": {
      "method": "PUT",
      "url": "Encounter/1e1bc424-98f6-442b-802b-ec54ae1cade5"
    }
  }, {
    "fullUrl": "https://madie.cms.gov/ServiceRequest/bbe98194-6fc8-4d28-9c9c-6925672dfcc8",
    "resource": {
      "resourceType": "ServiceRequest",
      "id": "bbe98194-6fc8-4d28-9c9c-6925672dfcc8",
      "meta": {
        "profile": [ "http://hl7.org/fhir/us/qicore/StructureDefinition/qicore-servicerequest" ]
      },
      "status": "active",
      "intent": "order",
      "code": {
        "coding": [ {
          "system": "http://snomed.info/sct",
          "code": "133918004"
        } ]
      },
      "subject": {
        "reference": "Patient/c21e25c9-a450-4e08-b9be-f0ca9dac5389"
      },
      "authoredOn": "2026-11-18T06:59:00.000+00:00"
    },
    "request": {
      "method": "PUT",
      "url": "ServiceRequest/bbe98194-6fc8-4d28-9c9c-6925672dfcc8"
    }
  }, {
    "fullUrl": "https://madie.cms.gov/Condition/392d405c-a4d3-49db-861c-b21842ea5349",
    "resource": {
      "resourceType": "Condition",
      "id": "392d405c-a4d3-49db-861c-b21842ea5349",
      "meta": {
        "profile": [ "http://hl7.org/fhir/us/qicore/StructureDefinition/qicore-condition" ]
      },
      "clinicalStatus": {
        "coding": [ {
          "system": "http://terminology.hl7.org/CodeSystem/condition-clinical",
          "code": "active"
        } ]
      },
      "verificationStatus": {
        "coding": [ {
          "system": "http://terminology.hl7.org/CodeSystem/condition-ver-status",
          "code": "confirmed"
        } ]
      },
      "category": [ {
        "coding": [ {
          "system": "http://terminology.hl7.org/CodeSystem/condition-category",
          "code": "encounter-diagnosis",
          "display": "Encounter Diagnosis"
        } ]
      } ],
      "code": {
        "coding": [ {
          "system": "http://snomed.info/sct",
          "version": "2020-09",
          "code": "111297002",
          "display": "Nonparalytic stroke (disorder)",
          "userSelected": true
        } ]
      },
      "subject": {
        "reference": "Patient/c21e25c9-a450-4e08-b9be-f0ca9dac5389"
      },
      "recordedDate": "2026-08-12T08:00:00.000+00:00"
    },
    "request": {
      "method": "PUT",
      "url": "Condition/392d405c-a4d3-49db-861c-b21842ea5349"
    }
  }, {
    "fullUrl": "https://madie.cms.gov/Coverage/999c61b9-bac8-4d65-a071-e915a88a7fa1",
    "resource": {
      "resourceType": "Coverage",
      "id": "999c61b9-bac8-4d65-a071-e915a88a7fa1",
      "meta": {
        "profile": [ "http://hl7.org/fhir/us/qicore/StructureDefinition/qicore-coverage" ]
      },
      "status": "active",
      "beneficiary": {
        "reference": "Patient/c21e25c9-a450-4e08-b9be-f0ca9dac5389"
      },
      "payor": [ {
        "reference": "Organization/3231d226-7e15-4002-bc8f-554540f35607"
      } ]
    },
    "request": {
      "method": "PUT",
      "url": "Coverage/999c61b9-bac8-4d65-a071-e915a88a7fa1"
    }
  }, {
    "fullUrl": "https://madie.cms.gov/Organization/3231d226-7e15-4002-bc8f-554540f35607",
    "resource": {
      "resourceType": "Organization",
      "id": "3231d226-7e15-4002-bc8f-554540f35607",
      "meta": {
        "profile": [ "http://hl7.org/fhir/us/qicore/StructureDefinition/qicore-organization" ]
      },
      "identifier": [ {
        "use": "temp",
        "system": "urn:oid:2.16.840.1.113883.4.4",
        "value": "21-3259825"
      } ],
      "active": true,
      "type": [ {
        "coding": [ {
          "system": "http://terminology.hl7.org/CodeSystem/organization-type",
          "code": "pay",
          "display": "Payer"
        } ]
      } ],
      "name": "Blue Cross Blue Shield of Texas",
      "telecom": [ {
        "system": "phone",
        "value": "(+1) 972-766-6900"
      } ],
      "address": [ {
        "use": "billing",
        "type": "postal",
        "line": [ "P.O. Box 660044" ],
        "city": "Dallas",
        "state": "TX",
        "postalCode": "75266-0044",
        "country": "USA"
      } ]
    },
    "request": {
      "method": "PUT",
      "url": "Organization/3231d226-7e15-4002-bc8f-554540f35607"
    }
  }, {
    "fullUrl": "https://madie.cms.gov/MeasureReport/50314afb-892f-4bb4-9402-af58ea9fffb4",
    "resource": {
      "resourceType": "MeasureReport",
      "id": "50314afb-892f-4bb4-9402-af58ea9fffb4",
      "meta": {
        "profile": [ "http://hl7.org/fhir/us/cqfmeasures/StructureDefinition/test-case-cqfm" ]
      },
      "contained": [ {
        "resourceType": "Parameters",
        "id": "5e7a2718-75de-4da7-97a9-8fc7c7a85ab0-parameters",
        "parameter": [ {
          "name": "subject",
          "valueString": "c21e25c9-a450-4e08-b9be-f0ca9dac5389"
        } ]
      } ],
      "extension": [ {
        "url": "http://hl7.org/fhir/StructureDefinition/cqf-inputParameters",
        "valueReference": {
          "reference": "#5e7a2718-75de-4da7-97a9-8fc7c7a85ab0-parameters"
        }
      }, {
        "url": "http://hl7.org/fhir/us/cqfmeasures/StructureDefinition/cqfm-testCaseDescription",
        "valueMarkdown": "Patient receives comfort measures ordereded on the day of hospital arrival, 1 minute before the start of the ED start. ED ends less than 1 hour before Obs Start, Obs ends less than 1 hour before IP start.\n"
      } ],
      "modifierExtension": [ {
        "url": "http://hl7.org/fhir/us/cqfmeasures/StructureDefinition/cqfm-isTestCase",
        "valueBoolean": true
      } ],
      "status": "complete",
      "type": "individual",
      "measure": "https://madie.cms.gov/Measure/CMS72FHIRSTKAntithromboticDay2",
      "period": {
        "start": "2026-01-01",
        "end": "2026-12-31"
      },
      "group": [ {
        "id": "Group_1",
        "population": [ {
          "id": "InitialPopulation_1",
          "code": {
            "coding": [ {
              "system": "http://terminology.hl7.org/CodeSystem/measure-population",
              "code": "initial-population",
              "display": "Initial Population"
            } ]
          },
          "count": 1
        }, {
          "id": "Denominator_1",
          "code": {
            "coding": [ {
              "system": "http://terminology.hl7.org/CodeSystem/measure-population",
              "code": "denominator",
              "display": "Denominator"
            } ]
          },
          "count": 1
        }, {
          "id": "DenominatorExclusion_1",
          "code": {
            "coding": [ {
              "system": "http://terminology.hl7.org/CodeSystem/measure-population",
              "code": "denominator-exclusion",
              "display": "Denominator Exclusion"
            } ]
          },
          "count": 1
        }, {
          "id": "Numerator_1",
          "code": {
            "coding": [ {
              "system": "http://terminology.hl7.org/CodeSystem/measure-population",
              "code": "numerator",
              "display": "Numerator"
            } ]
          },
          "count": 0
        }, {
          "id": "DenominatorException_1",
          "code": {
            "coding": [ {
              "system": "http://terminology.hl7.org/CodeSystem/measure-population",
              "code": "denominator-exception",
              "display": "Denominator Exception"
            } ]
          },
          "count": 0
        } ],
        "measureScore": {
          "value": 0.0
        }
      } ],
      "evaluatedResource": [ {
        "reference": "Patient/c21e25c9-a450-4e08-b9be-f0ca9dac5389"
      }, {
        "reference": "Encounter/6ee6c773-7b30-4fe2-b849-c1e6752c78ab"
      }, {
        "reference": "Encounter/ffb5989a-c6ce-48f3-ac85-595694393766"
      }, {
        "reference": "Claim/5ca62962b8484628b8de1ec5"
      }, {
        "reference": "Encounter/1e1bc424-98f6-442b-802b-ec54ae1cade5"
      }, {
        "reference": "ServiceRequest/bbe98194-6fc8-4d28-9c9c-6925672dfcc8"
      }, {
        "reference": "Condition/392d405c-a4d3-49db-861c-b21842ea5349"
      }, {
        "reference": "Coverage/999c61b9-bac8-4d65-a071-e915a88a7fa1"
      }, {
        "reference": "Organization/3231d226-7e15-4002-bc8f-554540f35607"
      } ]
    },
    "request": {
      "method": "PUT",
      "url": "MeasureReport/50314afb-892f-4bb4-9402-af58ea9fffb4"
    }
  } ]
}