{
  "resourceType": "Bundle",
  "id": "363b28a9-e77d-4fee-aaaf-73ebb35bc57c",
  "type": "transaction",
  "entry": [ {
    "fullUrl": "https://madie.cms.gov/Patient/4c12355d-2548-471a-a98f-b9a58c2cbfe0",
    "resource": {
      "resourceType": "Patient",
      "id": "4c12355d-2548-471a-a98f-b9a58c2cbfe0",
      "meta": {
        "profile": [ "http://hl7.org/fhir/us/qicore/StructureDefinition/qicore-patient" ]
      },
      "extension": [ {
        "url": "http://hl7.org/fhir/us/core/StructureDefinition/us-core-race",
        "extension": [ {
          "url": "ombCategory",
          "valueCoding": {
            "system": "urn:oid:2.16.840.1.113883.6.238",
            "code": "2106-3",
            "display": "White"
          }
        }, {
          "url": "text",
          "valueString": "White"
        } ]
      }, {
        "url": "http://hl7.org/fhir/us/core/StructureDefinition/us-core-ethnicity",
        "extension": [ {
          "url": "ombCategory",
          "valueCoding": {
            "system": "urn:oid:2.16.840.1.113883.6.238",
            "code": "2135-2",
            "display": "Hispanic or Latino"
          }
        }, {
          "url": "text",
          "valueString": "Hispanic or Latino"
        } ]
      } ],
      "identifier": [ {
        "system": "http://hospital.smarthealthit.org",
        "value": "999999999"
      } ],
      "name": [ {
        "family": "Example",
        "given": [ "Patient" ]
      } ],
      "gender": "other",
      "birthDate": "1956-01-01"
    },
    "request": {
      "method": "PUT",
      "url": "Patient/4c12355d-2548-471a-a98f-b9a58c2cbfe0"
    }
  }, {
    "fullUrl": "https://madie.cms.gov/Encounter/5df6357f-ebcc-4d82-8ca8-9fe1b4d89511",
    "resource": {
      "resourceType": "Encounter",
      "id": "5df6357f-ebcc-4d82-8ca8-9fe1b4d89511",
      "meta": {
        "profile": [ "http://hl7.org/fhir/us/qicore/StructureDefinition/qicore-encounter" ]
      },
      "status": "finished",
      "class": {
        "system": "http://terminology.hl7.org/CodeSystem/v3-ActCode",
        "code": "IMP",
        "display": "inpatient encounter"
      },
      "type": [ {
        "coding": [ {
          "system": "http://snomed.info/sct",
          "code": "183452005"
        } ]
      } ],
      "subject": {
        "reference": "Patient/4c12355d-2548-471a-a98f-b9a58c2cbfe0"
      },
      "period": {
        "start": "2026-04-07T08:00:00.000+00:00",
        "end": "2026-04-12T08:15:00.000+00:00"
      }
    },
    "request": {
      "method": "PUT",
      "url": "Encounter/5df6357f-ebcc-4d82-8ca8-9fe1b4d89511"
    }
  }, {
    "fullUrl": "https://madie.cms.gov/Condition/2dbdbd6d-6bbf-4e53-aa82-15d334f3398a",
    "resource": {
      "resourceType": "Condition",
      "id": "2dbdbd6d-6bbf-4e53-aa82-15d334f3398a",
      "meta": {
        "profile": [ "http://hl7.org/fhir/us/qicore/StructureDefinition/qicore-condition-encounter-diagnosis" ]
      },
      "category": [ {
        "coding": [ {
          "system": "http://terminology.hl7.org/CodeSystem/condition-category",
          "code": "encounter-diagnosis",
          "display": "Encounter Diagnosis"
        } ]
      } ],
      "code": {
        "coding": [ {
          "system": "http://hl7.org/fhir/sid/icd-10-cm",
          "code": "E10.21",
          "display": "Type 1 diabetes mellitus with diabetic nephropathy"
        } ]
      },
      "subject": {
        "reference": "Patient/4c12355d-2548-471a-a98f-b9a58c2cbfe0"
      },
      "onsetDateTime": "2011-01-02"
    },
    "request": {
      "method": "PUT",
      "url": "Condition/2dbdbd6d-6bbf-4e53-aa82-15d334f3398a"
    }
  }, {
    "fullUrl": "https://madie.cms.gov/Observation/aa76d962-99e9-4895-bbba-a692eac609a4",
    "resource": {
      "resourceType": "Observation",
      "id": "aa76d962-99e9-4895-bbba-a692eac609a4",
      "meta": {
        "profile": [ "http://hl7.org/fhir/us/qicore/StructureDefinition/qicore-observation-lab" ]
      },
      "status": "final",
      "category": [ {
        "coding": [ {
          "system": "http://terminology.hl7.org/CodeSystem/observation-category",
          "code": "laboratory",
          "display": "Laboratory"
        } ]
      } ],
      "code": {
        "coding": [ {
          "system": "http://loinc.org",
          "version": "2.72",
          "code": "1556-0",
          "display": "Fasting glucose [Mass/volume] in Capillary blood",
          "userSelected": true
        } ]
      },
      "subject": {
        "reference": "Patient/4c12355d-2548-471a-a98f-b9a58c2cbfe0"
      },
      "effectiveDateTime": "2026-04-09T07:00:00.000+00:00",
      "valueQuantity": {
        "value": 201,
        "unit": "mg/dL"
      }
    },
    "request": {
      "method": "PUT",
      "url": "Observation/aa76d962-99e9-4895-bbba-a692eac609a4"
    }
  }, {
    "fullUrl": "https://madie.cms.gov/Observation/49622c9e-0586-464a-aa1f-25e1f6f93618",
    "resource": {
      "resourceType": "Observation",
      "id": "49622c9e-0586-464a-aa1f-25e1f6f93618",
      "meta": {
        "profile": [ "http://hl7.org/fhir/us/qicore/StructureDefinition/qicore-observation-lab" ]
      },
      "status": "final",
      "category": [ {
        "coding": [ {
          "system": "http://terminology.hl7.org/CodeSystem/observation-category",
          "code": "laboratory",
          "display": "Laboratory"
        } ]
      } ],
      "code": {
        "coding": [ {
          "system": "http://loinc.org",
          "version": "2.72",
          "code": "1556-0",
          "display": "Fasting glucose [Mass/volume] in Capillary blood",
          "userSelected": true
        } ]
      },
      "subject": {
        "reference": "Patient/4c12355d-2548-471a-a98f-b9a58c2cbfe0"
      },
      "effectiveDateTime": "2026-04-10T07:00:00.000+00:00",
      "valueQuantity": {
        "value": 200,
        "unit": "mg/dL"
      }
    },
    "request": {
      "method": "PUT",
      "url": "Observation/49622c9e-0586-464a-aa1f-25e1f6f93618"
    }
  }, {
    "fullUrl": "https://madie.cms.gov/MeasureReport/13ec3a0e-0600-44a9-be19-99c22f815732",
    "resource": {
      "resourceType": "MeasureReport",
      "id": "13ec3a0e-0600-44a9-be19-99c22f815732",
      "meta": {
        "profile": [ "http://hl7.org/fhir/us/cqfmeasures/StructureDefinition/test-case-cqfm" ]
      },
      "contained": [ {
        "resourceType": "Parameters",
        "id": "c67572ae-5d04-461c-aa78-b479db78a442-parameters",
        "parameter": [ {
          "name": "subject",
          "valueString": "4c12355d-2548-471a-a98f-b9a58c2cbfe0"
        } ]
      } ],
      "extension": [ {
        "url": "http://hl7.org/fhir/StructureDefinition/cqf-inputParameters",
        "valueReference": {
          "reference": "#c67572ae-5d04-461c-aa78-b479db78a442-parameters"
        }
      }, {
        "url": "http://hl7.org/fhir/us/cqfmeasures/StructureDefinition/cqfm-testCaseDescription",
        "valueMarkdown": "IP encounter for patient w/diabetes. Had 2 consecutive days of glucose >200mg/dL, then followed by a day with no glucose level result. Meets Numerator. "
      } ],
      "modifierExtension": [ {
        "url": "http://hl7.org/fhir/us/cqfmeasures/StructureDefinition/cqfm-isTestCase",
        "valueBoolean": true
      } ],
      "status": "complete",
      "type": "individual",
      "measure": "https://madie.cms.gov/Measure/CMS871FHIRHHHyper",
      "period": {
        "start": "2026-01-01",
        "end": "2026-12-31"
      },
      "group": [ {
        "id": "Group_1",
        "population": [ {
          "id": "InitialPopulation_1",
          "code": {
            "coding": [ {
              "system": "http://terminology.hl7.org/CodeSystem/measure-population",
              "code": "initial-population",
              "display": "Initial Population"
            } ]
          },
          "count": 1
        }, {
          "id": "Denominator_1",
          "code": {
            "coding": [ {
              "system": "http://terminology.hl7.org/CodeSystem/measure-population",
              "code": "denominator",
              "display": "Denominator"
            } ]
          },
          "count": 1
        }, {
          "id": "DenominatorExclusion_1",
          "code": {
            "coding": [ {
              "system": "http://terminology.hl7.org/CodeSystem/measure-population",
              "code": "denominator-exclusion",
              "display": "Denominator Exclusion"
            } ]
          },
          "count": 0
        }, {
          "id": "Numerator_1",
          "code": {
            "coding": [ {
              "system": "http://terminology.hl7.org/CodeSystem/measure-population",
              "code": "numerator",
              "display": "Numerator"
            } ]
          },
          "count": 1
        }, {
          "id": "NumeratorExclusion_1",
          "code": {
            "coding": [ {
              "system": "http://terminology.hl7.org/CodeSystem/measure-population",
              "code": "numerator-exclusion",
              "display": "Numerator Exclusion"
            } ]
          },
          "count": 0
        }, {
          "id": "MeasureObservation_1_1_1",
          "code": {
            "coding": [ {
              "system": "http://terminology.hl7.org/CodeSystem/measure-population",
              "code": "measure-observation",
              "display": "Measure Observation"
            } ]
          },
          "count": 4
        }, {
          "id": "MeasureObservation_1_2_1",
          "code": {
            "coding": [ {
              "system": "http://terminology.hl7.org/CodeSystem/measure-population",
              "code": "measure-observation",
              "display": "Measure Observation"
            } ]
          },
          "count": 1
        } ],
        "measureScore": {
          "value": 0.0
        }
      } ],
      "evaluatedResource": [ {
        "reference": "Patient/4c12355d-2548-471a-a98f-b9a58c2cbfe0"
      }, {
        "reference": "Encounter/5df6357f-ebcc-4d82-8ca8-9fe1b4d89511"
      }, {
        "reference": "Condition/2dbdbd6d-6bbf-4e53-aa82-15d334f3398a"
      }, {
        "reference": "Observation/aa76d962-99e9-4895-bbba-a692eac609a4"
      }, {
        "reference": "Observation/49622c9e-0586-464a-aa1f-25e1f6f93618"
      } ]
    },
    "request": {
      "method": "PUT",
      "url": "MeasureReport/13ec3a0e-0600-44a9-be19-99c22f815732"
    }
  } ]
}