{
  "resourceType": "Bundle",
  "id": "63487c2f0968f801225401aa",
  "type": "transaction",
  "entry": [ {
    "fullUrl": "https://madie.cms.gov/Patient/337997e0-68a7-47e2-a9b8-f9846bf23baf",
    "resource": {
      "resourceType": "Patient",
      "id": "337997e0-68a7-47e2-a9b8-f9846bf23baf",
      "meta": {
        "profile": [ "http://hl7.org/fhir/us/qicore/StructureDefinition/qicore-patient" ]
      },
      "text": {
        "status": "generated",
        "div": "<div xmlns=\"http://www.w3.org/1999/xhtml\"><div class=\"hapiHeaderText\">AssessTimeOfDeliveryResultIsBad<b>DENOMFail</b></div><table class=\"hapiPropertyTable\"><tbody><tr><td>Identifier</td><td>2b1f0141ffe85efd85bb0ba18ddf833ac147ccc7ffd86f1de2a9b7f23de6478b</td></tr><tr><td>Date of birth</td><td><span>14 February 1985</span></td></tr></tbody></table></div>"
      },
      "extension": [ {
        "url": "http://hl7.org/fhir/us/core/StructureDefinition/us-core-race",
        "extension": [ {
          "url": "ombCategory",
          "valueCoding": {
            "system": "urn:oid:2.16.840.1.113883.6.238",
            "code": "1002-5",
            "display": "American Indian or Alaska Native",
            "userSelected": true
          }
        }, {
          "url": "text",
          "valueString": "American Indian or Alaska Native"
        } ]
      }, {
        "url": "http://hl7.org/fhir/us/core/StructureDefinition/us-core-ethnicity",
        "extension": [ {
          "url": "ombCategory",
          "valueCoding": {
            "system": "urn:oid:2.16.840.1.113883.6.238",
            "code": "2135-2",
            "display": "Hispanic or Latino",
            "userSelected": true
          }
        }, {
          "url": "text",
          "valueString": "Hispanic or Latino"
        } ]
      } ],
      "identifier": [ {
        "type": {
          "coding": [ {
            "system": "http://terminology.hl7.org/CodeSystem/v2-0203",
            "code": "MR"
          } ]
        },
        "system": "https://bonnie-fhir.healthit.gov/",
        "value": "63487c2f0968f801225401aa"
      } ],
      "active": true,
      "name": [ {
        "use": "usual",
        "family": "DENOMFail",
        "given": [ "AssessTimeOfDeliveryResultIsBad" ]
      } ],
      "gender": "female",
      "birthDate": "1998-02-14"
    },
    "request": {
      "method": "PUT",
      "url": "Patient/337997e0-68a7-47e2-a9b8-f9846bf23baf"
    }
  }, {
    "fullUrl": "https://madie.cms.gov/Observation/766bdf20-0261-4a4a-bcaa-cdb98a2aaae1",
    "resource": {
      "resourceType": "Observation",
      "id": "766bdf20-0261-4a4a-bcaa-cdb98a2aaae1",
      "meta": {
        "profile": [ "http://hl7.org/fhir/us/qicore/StructureDefinition/qicore-simple-observation" ]
      },
      "status": "final",
      "category": [ {
        "coding": [ {
          "system": "http://terminology.hl7.org/CodeSystem/observation-category",
          "code": "exam",
          "display": "exam",
          "userSelected": true
        } ]
      } ],
      "code": {
        "coding": [ {
          "system": "http://loinc.org",
          "code": "11884-4"
        } ]
      },
      "subject": {
        "reference": "Patient/337997e0-68a7-47e2-a9b8-f9846bf23baf"
      },
      "effectiveDateTime": "2026-06-08T07:15:00.000+00:00",
      "valueQuantity": {
        "value": 38,
        "system": "http://unitsofmeasure.org",
        "code": "wk"
      }
    },
    "request": {
      "method": "PUT",
      "url": "Observation/766bdf20-0261-4a4a-bcaa-cdb98a2aaae1"
    }
  }, {
    "fullUrl": "https://madie.cms.gov/Observation/1d016289-8c82-469d-aff8-e3361b9082d6",
    "resource": {
      "resourceType": "Observation",
      "id": "1d016289-8c82-469d-aff8-e3361b9082d6",
      "meta": {
        "profile": [ "http://hl7.org/fhir/us/qicore/StructureDefinition/qicore-simple-observation" ]
      },
      "status": "final",
      "category": [ {
        "coding": [ {
          "system": "http://terminology.hl7.org/CodeSystem/observation-category",
          "code": "exam",
          "display": "exam",
          "userSelected": true
        } ]
      } ],
      "code": {
        "coding": [ {
          "system": "http://loinc.org",
          "code": "11996-6"
        } ]
      },
      "subject": {
        "reference": "Patient/337997e0-68a7-47e2-a9b8-f9846bf23baf"
      },
      "effectiveDateTime": "2026-06-08T07:59:00.000+00:00",
      "valueInteger": 1
    },
    "request": {
      "method": "PUT",
      "url": "Observation/1d016289-8c82-469d-aff8-e3361b9082d6"
    }
  }, {
    "fullUrl": "https://madie.cms.gov/Observation/59452313-4ed5-4fe6-bc74-55f4ef5111a4",
    "resource": {
      "resourceType": "Observation",
      "id": "59452313-4ed5-4fe6-bc74-55f4ef5111a4",
      "meta": {
        "profile": [ "http://hl7.org/fhir/us/qicore/StructureDefinition/qicore-simple-observation" ]
      },
      "status": "final",
      "category": [ {
        "coding": [ {
          "system": "http://terminology.hl7.org/CodeSystem/observation-category",
          "code": "exam",
          "display": "exam",
          "userSelected": true
        } ]
      } ],
      "code": {
        "coding": [ {
          "system": "http://loinc.org",
          "code": "93857-1"
        } ]
      },
      "subject": {
        "reference": "Patient/337997e0-68a7-47e2-a9b8-f9846bf23baf"
      },
      "effectiveDateTime": "2026-06-08T08:00:00.000+00:00",
      "valueDateTime": "1901-04-13T08:00:00.000+00:00"
    },
    "request": {
      "method": "PUT",
      "url": "Observation/59452313-4ed5-4fe6-bc74-55f4ef5111a4"
    }
  }, {
    "fullUrl": "https://madie.cms.gov/Encounter/dabd4619-c3f8-4ae1-81c4-90286cc2d99b",
    "resource": {
      "resourceType": "Encounter",
      "id": "dabd4619-c3f8-4ae1-81c4-90286cc2d99b",
      "meta": {
        "profile": [ "http://hl7.org/fhir/us/qicore/StructureDefinition/qicore-encounter" ]
      },
      "status": "finished",
      "class": {
        "system": "http://terminology.hl7.org/CodeSystem/v3-ActCode",
        "code": "IMP",
        "display": "inpatient encounter"
      },
      "type": [ {
        "coding": [ {
          "system": "http://snomed.info/sct",
          "code": "183452005"
        } ]
      } ],
      "subject": {
        "reference": "Patient/337997e0-68a7-47e2-a9b8-f9846bf23baf"
      },
      "period": {
        "start": "2026-06-08T08:00:00.000+00:00",
        "end": "2026-06-10T08:15:00.000+00:00"
      },
      "length": {
        "value": 2,
        "unit": "days"
      },
      "reasonReference": [ {
        "reference": "Condition/98f896e8-b2d0-44b7-9ba7-71fe0b771a27"
      } ]
    },
    "request": {
      "method": "PUT",
      "url": "Encounter/dabd4619-c3f8-4ae1-81c4-90286cc2d99b"
    }
  }, {
    "fullUrl": "https://madie.cms.gov/Procedure/4c5dbd23-e57a-4c8b-93cb-8ead56dcccd4",
    "resource": {
      "resourceType": "Procedure",
      "id": "4c5dbd23-e57a-4c8b-93cb-8ead56dcccd4",
      "meta": {
        "profile": [ "http://hl7.org/fhir/us/qicore/StructureDefinition/qicore-procedure" ]
      },
      "extension": [ {
        "url": "http://hl7.org/fhir/us/qicore/StructureDefinition/qicore-recorded",
        "valueDateTime": "2014-04-05T13:35:00.000+00:00"
      } ],
      "status": "completed",
      "code": {
        "coding": [ {
          "system": "http://www.cms.gov/Medicare/Coding/ICD10",
          "code": "10D00Z0"
        } ]
      },
      "subject": {
        "reference": "Patient/337997e0-68a7-47e2-a9b8-f9846bf23baf"
      },
      "performedPeriod": {
        "start": "2026-06-08T08:00:00.000+00:00",
        "end": "2026-06-08T09:15:00.000+00:00"
      }
    },
    "request": {
      "method": "PUT",
      "url": "Procedure/4c5dbd23-e57a-4c8b-93cb-8ead56dcccd4"
    }
  }, {
    "fullUrl": "https://madie.cms.gov/Condition/98f896e8-b2d0-44b7-9ba7-71fe0b771a27",
    "resource": {
      "resourceType": "Condition",
      "id": "98f896e8-b2d0-44b7-9ba7-71fe0b771a27",
      "meta": {
        "profile": [ "http://hl7.org/fhir/us/qicore/StructureDefinition/qicore-condition-encounter-diagnosis" ]
      },
      "category": [ {
        "coding": [ {
          "system": "http://terminology.hl7.org/CodeSystem/condition-category",
          "code": "encounter-diagnosis",
          "display": "Encounter Diagnosis"
        } ]
      } ],
      "code": {
        "coding": [ {
          "system": "http://snomed.info/sct",
          "version": "2022-09",
          "code": "169826009",
          "display": "Single live birth from singleton pregnancy (finding)",
          "userSelected": true
        } ]
      },
      "subject": {
        "reference": "Patient/337997e0-68a7-47e2-a9b8-f9846bf23baf"
      },
      "encounter": {
        "reference": "Encounter/dabd4619-c3f8-4ae1-81c4-90286cc2d99b"
      },
      "recordedDate": "2026-10-21T08:00:00.000+00:00"
    },
    "request": {
      "method": "PUT",
      "url": "Condition/98f896e8-b2d0-44b7-9ba7-71fe0b771a27"
    }
  }, {
    "fullUrl": "https://madie.cms.gov/Coverage/caf67734-c1ec-43ea-83ac-b72d88836358",
    "resource": {
      "resourceType": "Coverage",
      "id": "caf67734-c1ec-43ea-83ac-b72d88836358",
      "meta": {
        "profile": [ "http://hl7.org/fhir/us/qicore/StructureDefinition/qicore-coverage" ]
      },
      "status": "active",
      "subscriberId": "523435",
      "beneficiary": {
        "reference": "Patient/337997e0-68a7-47e2-a9b8-f9846bf23baf"
      },
      "relationship": {
        "coding": [ {
          "system": "http://terminology.hl7.org/CodeSystem/subscriber-relationship",
          "code": "self"
        } ]
      },
      "payor": [ {
        "reference": "Organization/21278fbf-1efe-4c47-a7ba-bf6d8153e23b"
      } ]
    },
    "request": {
      "method": "PUT",
      "url": "Coverage/caf67734-c1ec-43ea-83ac-b72d88836358"
    }
  }, {
    "fullUrl": "https://madie.cms.gov/Organization/21278fbf-1efe-4c47-a7ba-bf6d8153e23b",
    "resource": {
      "resourceType": "Organization",
      "id": "21278fbf-1efe-4c47-a7ba-bf6d8153e23b",
      "meta": {
        "profile": [ "http://hl7.org/fhir/us/qicore/StructureDefinition/qicore-organization" ]
      },
      "identifier": [ {
        "use": "temp",
        "system": "urn:oid:2.16.840.1.113883.4.4",
        "value": "21-3259825"
      } ],
      "active": true,
      "type": [ {
        "coding": [ {
          "system": "http://terminology.hl7.org/CodeSystem/organization-type",
          "code": "pay",
          "display": "Payer"
        } ]
      } ],
      "name": "Blue Cross Blue Shield of Texas",
      "telecom": [ {
        "system": "phone",
        "value": "(+1) 972-766-6900"
      } ],
      "address": [ {
        "use": "billing",
        "type": "postal",
        "line": [ "P.O. Box 660044" ],
        "city": "Dallas",
        "state": "TX",
        "postalCode": "75266-0044",
        "country": "USA"
      } ]
    },
    "request": {
      "method": "PUT",
      "url": "Organization/21278fbf-1efe-4c47-a7ba-bf6d8153e23b"
    }
  }, {
    "fullUrl": "https://madie.cms.gov/Practitioner/974976fb-54ca-4412-a6a6-d1e522dc4927",
    "resource": {
      "resourceType": "Practitioner",
      "id": "974976fb-54ca-4412-a6a6-d1e522dc4927",
      "meta": {
        "profile": [ "http://hl7.org/fhir/us/qicore/StructureDefinition/qicore-practitioner" ]
      },
      "identifier": [ {
        "system": "http://hl7.org/fhir/sid/us-npi",
        "value": "1234567890"
      } ],
      "name": [ {
        "family": "Evil",
        "prefix": [ "Dr" ]
      } ]
    },
    "request": {
      "method": "PUT",
      "url": "Practitioner/974976fb-54ca-4412-a6a6-d1e522dc4927"
    }
  }, {
    "fullUrl": "https://madie.cms.gov/MeasureReport/4bd321f9-4b4f-41a3-8981-d9fd3c95a06a",
    "resource": {
      "resourceType": "MeasureReport",
      "id": "4bd321f9-4b4f-41a3-8981-d9fd3c95a06a",
      "meta": {
        "profile": [ "http://hl7.org/fhir/us/cqfmeasures/StructureDefinition/test-case-cqfm" ]
      },
      "contained": [ {
        "resourceType": "Parameters",
        "id": "37563c9c-05d5-4ee1-8beb-ec62eeb4472b-parameters",
        "parameter": [ {
          "name": "subject",
          "valueString": "337997e0-68a7-47e2-a9b8-f9846bf23baf"
        } ]
      } ],
      "extension": [ {
        "url": "http://hl7.org/fhir/StructureDefinition/cqf-inputParameters",
        "valueReference": {
          "reference": "#37563c9c-05d5-4ee1-8beb-ec62eeb4472b-parameters"
        }
      }, {
        "url": "http://hl7.org/fhir/us/cqfmeasures/StructureDefinition/cqfm-testCaseDescription",
        "valueMarkdown": "Passes: IP, Fails DENOM Pt is 27 years of age,  encounter dx of delivery of singleton, gravida, EGA( >37 ) and @ 38 weeks, AsseDelivTm Result has date out of range, lower than 1900\n"
      } ],
      "modifierExtension": [ {
        "url": "http://hl7.org/fhir/us/cqfmeasures/StructureDefinition/cqfm-isTestCase",
        "valueBoolean": true
      } ],
      "status": "complete",
      "type": "individual",
      "measure": "https://madie.cms.gov/Measure/CMS0334FHIRPCCesareanBirth",
      "period": {
        "start": "2026-01-01",
        "end": "2026-12-31"
      },
      "group": [ {
        "id": "Group_1",
        "population": [ {
          "id": "InitialPopulation_1",
          "code": {
            "coding": [ {
              "system": "http://terminology.hl7.org/CodeSystem/measure-population",
              "code": "initial-population",
              "display": "Initial Population"
            } ]
          },
          "count": 1
        }, {
          "id": "Denominator_1",
          "code": {
            "coding": [ {
              "system": "http://terminology.hl7.org/CodeSystem/measure-population",
              "code": "denominator",
              "display": "Denominator"
            } ]
          },
          "count": 0
        }, {
          "id": "DenominatorExclusion_1",
          "code": {
            "coding": [ {
              "system": "http://terminology.hl7.org/CodeSystem/measure-population",
              "code": "denominator-exclusion",
              "display": "Denominator Exclusion"
            } ]
          },
          "count": 0
        }, {
          "id": "Numerator_1",
          "code": {
            "coding": [ {
              "system": "http://terminology.hl7.org/CodeSystem/measure-population",
              "code": "numerator",
              "display": "Numerator"
            } ]
          },
          "count": 0
        } ],
        "measureScore": {
          "value": 0.0
        }
      } ],
      "evaluatedResource": [ {
        "reference": "Patient/337997e0-68a7-47e2-a9b8-f9846bf23baf"
      }, {
        "reference": "Observation/766bdf20-0261-4a4a-bcaa-cdb98a2aaae1"
      }, {
        "reference": "Observation/1d016289-8c82-469d-aff8-e3361b9082d6"
      }, {
        "reference": "Observation/59452313-4ed5-4fe6-bc74-55f4ef5111a4"
      }, {
        "reference": "Encounter/dabd4619-c3f8-4ae1-81c4-90286cc2d99b"
      }, {
        "reference": "Procedure/4c5dbd23-e57a-4c8b-93cb-8ead56dcccd4"
      }, {
        "reference": "Condition/98f896e8-b2d0-44b7-9ba7-71fe0b771a27"
      }, {
        "reference": "Coverage/caf67734-c1ec-43ea-83ac-b72d88836358"
      }, {
        "reference": "Organization/21278fbf-1efe-4c47-a7ba-bf6d8153e23b"
      }, {
        "reference": "Practitioner/974976fb-54ca-4412-a6a6-d1e522dc4927"
      } ]
    },
    "request": {
      "method": "PUT",
      "url": "MeasureReport/4bd321f9-4b4f-41a3-8981-d9fd3c95a06a"
    }
  } ]
}