{
  "resourceType": "Bundle",
  "id": "612e6b0002c62a011f2ec10b",
  "type": "transaction",
  "entry": [ {
    "fullUrl": "https://madie.cms.gov/Patient/9f11ba0f-2fd8-4f45-87c8-98fd7f81e42b",
    "resource": {
      "resourceType": "Patient",
      "id": "9f11ba0f-2fd8-4f45-87c8-98fd7f81e42b",
      "meta": {
        "profile": [ "http://hl7.org/fhir/us/qicore/StructureDefinition/qicore-patient" ]
      },
      "text": {
        "status": "generated",
        "div": "<div xmlns=\"http://www.w3.org/1999/xhtml\"><div class=\"hapiHeaderText\">SCIP_GenSurgRank1 <b>DENEXPASS </b></div><table class=\"hapiPropertyTable\"><tbody><tr><td>Identifier</td><td>66c70c125db369967b4b164e75338304</td></tr><tr><td>Date of birth</td><td><span>01 September 2000</span></td></tr></tbody></table></div>"
      },
      "extension": [ {
        "url": "http://hl7.org/fhir/us/core/StructureDefinition/us-core-race",
        "extension": [ {
          "url": "ombCategory",
          "valueCoding": {
            "system": "urn:oid:2.16.840.1.113883.6.238",
            "code": "1002-5",
            "display": "American Indian or Alaska Native",
            "userSelected": true
          }
        }, {
          "url": "text",
          "valueString": "American Indian or Alaska Native"
        } ]
      }, {
        "url": "http://hl7.org/fhir/us/core/StructureDefinition/us-core-ethnicity",
        "extension": [ {
          "url": "ombCategory",
          "valueCoding": {
            "system": "urn:oid:2.16.840.1.113883.6.238",
            "code": "2135-2",
            "display": "Hispanic or Latino",
            "userSelected": true
          }
        }, {
          "url": "text",
          "valueString": "Hispanic or Latino"
        } ]
      } ],
      "identifier": [ {
        "type": {
          "coding": [ {
            "system": "http://terminology.hl7.org/CodeSystem/v2-0203",
            "code": "MR"
          } ]
        },
        "system": "https://bonnie-fhir.healthit.gov/",
        "value": "612e6b0002c62a011f2ec10b"
      } ],
      "active": true,
      "name": [ {
        "use": "usual",
        "family": "DENEXPass ",
        "given": [ "SCIPGenSurgRank1" ]
      } ],
      "gender": "male",
      "birthDate": "2001-09-01"
    },
    "request": {
      "method": "PUT",
      "url": "Patient/9f11ba0f-2fd8-4f45-87c8-98fd7f81e42b"
    }
  }, {
    "fullUrl": "https://madie.cms.gov/Encounter/715e13ec-66d2-42f1-ab93-4186f13c6384",
    "resource": {
      "resourceType": "Encounter",
      "id": "715e13ec-66d2-42f1-ab93-4186f13c6384",
      "meta": {
        "profile": [ "http://hl7.org/fhir/us/qicore/StructureDefinition/qicore-encounter" ]
      },
      "status": "finished",
      "class": {
        "system": "http://terminology.hl7.org/CodeSystem/v3-ActCode",
        "code": "IMP",
        "display": "inpatient encounter"
      },
      "type": [ {
        "coding": [ {
          "system": "http://snomed.info/sct",
          "code": "183452005"
        } ]
      } ],
      "subject": {
        "reference": "Patient/9f11ba0f-2fd8-4f45-87c8-98fd7f81e42b"
      },
      "period": {
        "start": "2026-09-02T06:00:00.000+00:00",
        "end": "2026-12-31T12:59:00.000+00:00"
      },
      "length": {
        "value": 120,
        "unit": "days"
      }
    },
    "request": {
      "method": "PUT",
      "url": "Encounter/715e13ec-66d2-42f1-ab93-4186f13c6384"
    }
  }, {
    "fullUrl": "https://madie.cms.gov/claim/5ca62962b8484628b8de1ec5",
    "resource": {
      "resourceType": "Claim",
      "id": "5ca62962b8484628b8de1ec5",
      "meta": {
        "profile": [ "http://hl7.org/fhir/us/qicore/StructureDefinition/qicore-claim" ]
      },
      "status": "active",
      "type": {
        "coding": [ {
          "system": "http://terminology.hl7.org/CodeSystem/claim-type",
          "code": "institutional"
        } ]
      },
      "use": "claim",
      "patient": {
        "reference": "Patient/9f11ba0f-2fd8-4f45-87c8-98fd7f81e42b"
      },
      "created": "2026-12-01",
      "provider": {
        "reference": "Practitioner/98a337a8-5ac3-456b-b01a-5a1d5133c488"
      },
      "priority": {
        "coding": [ {
          "system": "http://terminology.hl7.org/CodeSystem/processpriority",
          "code": "normal"
        } ]
      },
      "procedure": [ {
        "sequence": 1,
        "type": [ {
          "coding": [ {
            "system": "http://terminology.hl7.org/CodeSystem/ex-procedure-type",
            "code": "primary"
          } ]
        } ],
        "procedureCodeableConcept": {
          "coding": [ {
            "system": "http://www.cms.gov/Medicare/Coding/ICD10",
            "code": "008Q0ZZ"
          } ]
        }
      } ],
      "insurance": [ {
        "sequence": 1,
        "focal": true,
        "coverage": {
          "reference": "Coverage/382550ed-1a60-4c5b-8c5c-06609a465127"
        }
      } ],
      "item": [ {
        "sequence": 1,
        "procedureSequence": [ 1 ],
        "productOrService": {
          "coding": [ {
            "system": "http://terminology.hl7.org/CodeSystem/ex-USCLS",
            "code": "99555"
          } ]
        },
        "encounter": [ {
          "reference": "Encounter/715e13ec-66d2-42f1-ab93-4186f13c6384"
        } ]
      } ]
    },
    "request": {
      "method": "PUT",
      "url": "Claim/5ca62962b8484628b8de1ec5"
    }
  }, {
    "fullUrl": "https://madie.cms.gov/Coverage/382550ed-1a60-4c5b-8c5c-06609a465127",
    "resource": {
      "resourceType": "Coverage",
      "id": "382550ed-1a60-4c5b-8c5c-06609a465127",
      "status": "active",
      "beneficiary": {
        "reference": "Patient/9f11ba0f-2fd8-4f45-87c8-98fd7f81e42b"
      },
      "period": {
        "start": "2001-09-01T08:00:00.000+00:00"
      },
      "payor": [ {
        "reference": "Organization/77c6a6cf-d196-4ada-aeab-e1845d3c1e4d"
      } ]
    },
    "request": {
      "method": "PUT",
      "url": "Coverage/382550ed-1a60-4c5b-8c5c-06609a465127"
    }
  }, {
    "fullUrl": "https://madie.cms.gov/Procedure/81149d4e-1106-4ef2-9aef-086ed46966f6",
    "resource": {
      "resourceType": "Procedure",
      "id": "81149d4e-1106-4ef2-9aef-086ed46966f6",
      "meta": {
        "profile": [ "http://hl7.org/fhir/us/qicore/StructureDefinition/qicore-procedure" ]
      },
      "extension": [ {
        "url": "http://hl7.org/fhir/us/qicore/StructureDefinition/qicore-recorded",
        "valueDateTime": "2014-04-05T13:35:00.000+00:00"
      } ],
      "status": "completed",
      "code": {
        "coding": [ {
          "system": "http://snomed.info/sct",
          "version": "2025-03",
          "code": "72261007",
          "display": "Resection of rectum with pelvic exenteration (procedure)"
        } ]
      },
      "subject": {
        "reference": "Patient/9f11ba0f-2fd8-4f45-87c8-98fd7f81e42b"
      },
      "performedPeriod": {
        "start": "2026-09-02T09:00:00.000+00:00",
        "end": "2026-09-02T12:59:00.000+00:00"
      }
    },
    "request": {
      "method": "PUT",
      "url": "Procedure/81149d4e-1106-4ef2-9aef-086ed46966f6"
    }
  }, {
    "fullUrl": "https://madie.cms.gov/Organization/77c6a6cf-d196-4ada-aeab-e1845d3c1e4d",
    "resource": {
      "resourceType": "Organization",
      "id": "77c6a6cf-d196-4ada-aeab-e1845d3c1e4d",
      "meta": {
        "profile": [ "http://hl7.org/fhir/us/qicore/StructureDefinition/qicore-organization" ]
      },
      "identifier": [ {
        "use": "temp",
        "system": "urn:oid:2.16.840.1.113883.4.4",
        "value": "21-3259825"
      } ],
      "active": true,
      "type": [ {
        "coding": [ {
          "system": "http://terminology.hl7.org/CodeSystem/organization-type",
          "code": "pay",
          "display": "Payer"
        } ]
      } ],
      "name": "Blue Cross Blue Shield of Texas",
      "telecom": [ {
        "system": "phone",
        "value": "(+1) 972-766-6900"
      } ],
      "address": [ {
        "use": "billing",
        "type": "postal",
        "line": [ "P.O. Box 660044" ],
        "city": "Dallas",
        "state": "TX",
        "postalCode": "75266-0044",
        "country": "USA"
      } ]
    },
    "request": {
      "method": "PUT",
      "url": "Organization/77c6a6cf-d196-4ada-aeab-e1845d3c1e4d"
    }
  }, {
    "fullUrl": "https://madie.cms.gov/Practitioner/98a337a8-5ac3-456b-b01a-5a1d5133c488",
    "resource": {
      "resourceType": "Practitioner",
      "id": "98a337a8-5ac3-456b-b01a-5a1d5133c488",
      "identifier": [ {
        "system": "http://hl7.org/fhir/sid/us-npi",
        "value": "123456"
      } ],
      "name": [ {
        "family": "Evil",
        "prefix": [ "Dr" ]
      } ]
    },
    "request": {
      "method": "PUT",
      "url": "Practitioner/98a337a8-5ac3-456b-b01a-5a1d5133c488"
    }
  }, {
    "fullUrl": "https://madie.cms.gov/MeasureReport/1b63e58d-0dbc-447a-8ef1-a0e7a8a778db",
    "resource": {
      "resourceType": "MeasureReport",
      "id": "1b63e58d-0dbc-447a-8ef1-a0e7a8a778db",
      "meta": {
        "profile": [ "http://hl7.org/fhir/us/cqfmeasures/StructureDefinition/test-case-cqfm" ]
      },
      "contained": [ {
        "resourceType": "Parameters",
        "id": "e0f0ec96-5f6d-4447-8760-443a45658db2-parameters",
        "parameter": [ {
          "name": "subject",
          "valueString": "9f11ba0f-2fd8-4f45-87c8-98fd7f81e42b"
        } ]
      } ],
      "extension": [ {
        "url": "http://hl7.org/fhir/StructureDefinition/cqf-inputParameters",
        "valueReference": {
          "reference": "#e0f0ec96-5f6d-4447-8760-443a45658db2-parameters"
        }
      }, {
        "url": "http://hl7.org/fhir/us/cqfmeasures/StructureDefinition/cqfm-testCaseDescription",
        "valueMarkdown": "Patient had SCIP -GenSurg during Encounter and Rank =1\n"
      } ],
      "modifierExtension": [ {
        "url": "http://hl7.org/fhir/us/cqfmeasures/StructureDefinition/cqfm-isTestCase",
        "valueBoolean": true
      } ],
      "status": "complete",
      "type": "individual",
      "measure": "https://madie.cms.gov/Measure/CMS108FHIRVTEProphylaxis",
      "period": {
        "start": "2026-01-01",
        "end": "2026-12-31"
      },
      "group": [ {
        "id": "Group_1",
        "population": [ {
          "id": "InitialPopulation_1",
          "code": {
            "coding": [ {
              "system": "http://terminology.hl7.org/CodeSystem/measure-population",
              "code": "initial-population",
              "display": "Initial Population"
            } ]
          },
          "count": 1
        }, {
          "id": "Denominator_1",
          "code": {
            "coding": [ {
              "system": "http://terminology.hl7.org/CodeSystem/measure-population",
              "code": "denominator",
              "display": "Denominator"
            } ]
          },
          "count": 1
        }, {
          "id": "DenominatorExclusion_1",
          "code": {
            "coding": [ {
              "system": "http://terminology.hl7.org/CodeSystem/measure-population",
              "code": "denominator-exclusion",
              "display": "Denominator Exclusion"
            } ]
          },
          "count": 1
        }, {
          "id": "Numerator_1",
          "code": {
            "coding": [ {
              "system": "http://terminology.hl7.org/CodeSystem/measure-population",
              "code": "numerator",
              "display": "Numerator"
            } ]
          },
          "count": 0
        } ],
        "measureScore": {
          "value": 0.0
        }
      } ],
      "evaluatedResource": [ {
        "reference": "Patient/9f11ba0f-2fd8-4f45-87c8-98fd7f81e42b"
      }, {
        "reference": "Encounter/715e13ec-66d2-42f1-ab93-4186f13c6384"
      }, {
        "reference": "Claim/5ca62962b8484628b8de1ec5"
      }, {
        "reference": "Coverage/382550ed-1a60-4c5b-8c5c-06609a465127"
      }, {
        "reference": "Procedure/81149d4e-1106-4ef2-9aef-086ed46966f6"
      }, {
        "reference": "Organization/77c6a6cf-d196-4ada-aeab-e1845d3c1e4d"
      }, {
        "reference": "Practitioner/98a337a8-5ac3-456b-b01a-5a1d5133c488"
      } ]
    },
    "request": {
      "method": "PUT",
      "url": "MeasureReport/1b63e58d-0dbc-447a-8ef1-a0e7a8a778db"
    }
  } ]
}