{
  "resourceType": "Bundle",
  "id": "617be7ec1619a529957d62b7",
  "type": "transaction",
  "entry": [ {
    "fullUrl": "https://madie.cms.gov/Patient/2af66e9f-b6b2-4428-9eb5-c7ab057080fd",
    "resource": {
      "resourceType": "Patient",
      "id": "2af66e9f-b6b2-4428-9eb5-c7ab057080fd",
      "meta": {
        "profile": [ "http://hl7.org/fhir/us/qicore/StructureDefinition/qicore-patient" ]
      },
      "extension": [ {
        "url": "http://hl7.org/fhir/us/core/StructureDefinition/us-core-race",
        "extension": [ {
          "url": "ombCategory",
          "valueCoding": {
            "system": "urn:oid:2.16.840.1.113883.6.238",
            "code": "2076-8",
            "display": "Native Hawaiian or Other Pacific Islander",
            "userSelected": true
          }
        }, {
          "url": "text",
          "valueString": "Native Hawaiian or Other Pacific Islander"
        } ]
      }, {
        "url": "http://hl7.org/fhir/us/core/StructureDefinition/us-core-ethnicity",
        "extension": [ {
          "url": "ombCategory",
          "valueCoding": {
            "system": "urn:oid:2.16.840.1.113883.6.238",
            "code": "2186-5",
            "display": "Not Hispanic or Latino",
            "userSelected": true
          }
        }, {
          "url": "text",
          "valueString": "Not Hispanic or Latino"
        } ]
      }, {
        "url": "http://hl7.org/fhir/us/core/StructureDefinition/us-core-sex",
        "valueCode": "248152002"
      } ],
      "identifier": [ {
        "type": {
          "coding": [ {
            "system": "http://terminology.hl7.org/CodeSystem/v2-0203",
            "code": "MR"
          } ]
        },
        "system": "https://bonnie-fhir.healthit.gov/",
        "value": "617be7ec1619a529957d62b7"
      } ],
      "name": [ {
        "family": "DenExcl7Fail",
        "given": [ "DxStartsAfterEndsAfterED" ]
      } ],
      "gender": "female",
      "birthDate": "1985-12-02"
    },
    "request": {
      "method": "PUT",
      "url": "Patient/2af66e9f-b6b2-4428-9eb5-c7ab057080fd"
    }
  }, {
    "fullUrl": "https://madie.cms.gov/Encounter/07ce4d74-8bd1-4c52-bc63-7f0074e45dd4",
    "resource": {
      "resourceType": "Encounter",
      "id": "07ce4d74-8bd1-4c52-bc63-7f0074e45dd4",
      "meta": {
        "profile": [ "http://hl7.org/fhir/us/qicore/StructureDefinition/qicore-encounter" ]
      },
      "status": "finished",
      "class": {
        "system": "http://terminology.hl7.org/CodeSystem/v3-ActCode",
        "code": "EMER",
        "display": "emergency",
        "userSelected": true
      },
      "type": [ {
        "coding": [ {
          "system": "http://snomed.info/sct",
          "version": "2020-09",
          "code": "4525004",
          "display": "Emergency department patient visit (procedure)",
          "userSelected": true
        } ]
      } ],
      "subject": {
        "reference": "Patient/2af66e9f-b6b2-4428-9eb5-c7ab057080fd"
      },
      "period": {
        "start": "2026-10-09T08:05:00.000+00:00",
        "end": "2026-10-10T07:15:00.000+00:00"
      },
      "reasonReference": [ {
        "reference": "Condition/2a64dfc5-ff94-45d0-a6e0-03f804a7e1ce"
      } ]
    },
    "request": {
      "method": "PUT",
      "url": "Encounter/07ce4d74-8bd1-4c52-bc63-7f0074e45dd4"
    }
  }, {
    "fullUrl": "https://madie.cms.gov/Condition/2a64dfc5-ff94-45d0-a6e0-03f804a7e1ce",
    "resource": {
      "resourceType": "Condition",
      "id": "2a64dfc5-ff94-45d0-a6e0-03f804a7e1ce",
      "meta": {
        "profile": [ "http://hl7.org/fhir/us/qicore/StructureDefinition/qicore-condition-problems-health-concerns" ]
      },
      "clinicalStatus": {
        "coding": [ {
          "system": "http://terminology.hl7.org/CodeSystem/condition-clinical",
          "code": "active",
          "display": "active",
          "userSelected": true
        } ]
      },
      "category": [ {
        "coding": [ {
          "system": "http://terminology.hl7.org/CodeSystem/condition-category",
          "code": "problem-list-item",
          "display": "Problem List Item",
          "userSelected": true
        } ]
      } ],
      "code": {
        "coding": [ {
          "system": "http://snomed.info/sct",
          "version": "2020-09",
          "code": "401303003",
          "display": "Acute ST segment elevation myocardial infarction (disorder)",
          "userSelected": true
        } ]
      },
      "subject": {
        "reference": "Patient/2af66e9f-b6b2-4428-9eb5-c7ab057080fd"
      },
      "onsetDateTime": "2026-10-09T08:30:00.000+00:00"
    },
    "request": {
      "method": "PUT",
      "url": "Condition/2a64dfc5-ff94-45d0-a6e0-03f804a7e1ce"
    }
  }, {
    "fullUrl": "https://madie.cms.gov/Condition/94d20fe0-9660-4e4d-8d5b-2a7204ad6d58",
    "resource": {
      "resourceType": "Condition",
      "id": "94d20fe0-9660-4e4d-8d5b-2a7204ad6d58",
      "meta": {
        "profile": [ "http://hl7.org/fhir/us/qicore/StructureDefinition/qicore-condition-problems-health-concerns" ]
      },
      "clinicalStatus": {
        "coding": [ {
          "system": "http://terminology.hl7.org/CodeSystem/condition-clinical",
          "version": "4.0.1",
          "code": "inactive",
          "display": "Inactive",
          "userSelected": true
        } ]
      },
      "category": [ {
        "coding": [ {
          "system": "http://terminology.hl7.org/CodeSystem/condition-category",
          "code": "problem-list-item",
          "display": "Problem List Item",
          "userSelected": true
        } ]
      } ],
      "code": {
        "coding": [ {
          "system": "http://snomed.info/sct",
          "version": "2020-03",
          "code": "110030002",
          "display": "Concussion injury of brain (disorder)",
          "userSelected": true
        } ]
      },
      "subject": {
        "reference": "Patient/2af66e9f-b6b2-4428-9eb5-c7ab057080fd"
      },
      "onsetDateTime": "2026-10-11T08:00:00.000+00:00",
      "abatementDateTime": "2026-10-30T06:07:00.000+00:00"
    },
    "request": {
      "method": "PUT",
      "url": "Condition/94d20fe0-9660-4e4d-8d5b-2a7204ad6d58"
    }
  }, {
    "fullUrl": "https://madie.cms.gov/MeasureReport/40d87f6e-481d-4b9d-85c4-9a9c33e8548d",
    "resource": {
      "resourceType": "MeasureReport",
      "id": "40d87f6e-481d-4b9d-85c4-9a9c33e8548d",
      "meta": {
        "profile": [ "http://hl7.org/fhir/us/cqfmeasures/StructureDefinition/test-case-cqfm" ]
      },
      "contained": [ {
        "resourceType": "Parameters",
        "id": "53196a9a-bb57-45bf-83bc-ab09119e9ff7-parameters",
        "parameter": [ {
          "name": "subject",
          "valueString": "2af66e9f-b6b2-4428-9eb5-c7ab057080fd"
        } ]
      } ],
      "extension": [ {
        "url": "http://hl7.org/fhir/StructureDefinition/cqf-inputParameters",
        "valueReference": {
          "reference": "#53196a9a-bb57-45bf-83bc-ab09119e9ff7-parameters"
        }
      }, {
        "url": "http://hl7.org/fhir/us/cqfmeasures/StructureDefinition/cqfm-testCaseDescription",
        "valueMarkdown": "Patient has closed head trauma (exclusion diagnosis) starts after and ends after ED"
      } ],
      "modifierExtension": [ {
        "url": "http://hl7.org/fhir/us/cqfmeasures/StructureDefinition/cqfm-isTestCase",
        "valueBoolean": true
      } ],
      "status": "complete",
      "type": "individual",
      "measure": "https://madie.cms.gov/Measure/CMS996FHIRAptTxforSTEMI",
      "period": {
        "start": "2026-01-01",
        "end": "2026-12-31"
      },
      "group": [ {
        "id": "Group_1",
        "population": [ {
          "id": "InitialPopulation_1",
          "code": {
            "coding": [ {
              "system": "http://terminology.hl7.org/CodeSystem/measure-population",
              "code": "initial-population",
              "display": "Initial Population"
            } ]
          },
          "count": 1
        }, {
          "id": "Denominator_1",
          "code": {
            "coding": [ {
              "system": "http://terminology.hl7.org/CodeSystem/measure-population",
              "code": "denominator",
              "display": "Denominator"
            } ]
          },
          "count": 1
        }, {
          "id": "DenominatorExclusion_1",
          "code": {
            "coding": [ {
              "system": "http://terminology.hl7.org/CodeSystem/measure-population",
              "code": "denominator-exclusion",
              "display": "Denominator Exclusion"
            } ]
          },
          "count": 0
        }, {
          "id": "Numerator_1",
          "code": {
            "coding": [ {
              "system": "http://terminology.hl7.org/CodeSystem/measure-population",
              "code": "numerator",
              "display": "Numerator"
            } ]
          },
          "count": 0
        }, {
          "id": "DenominatorException_1",
          "code": {
            "coding": [ {
              "system": "http://terminology.hl7.org/CodeSystem/measure-population",
              "code": "denominator-exception",
              "display": "Denominator Exception"
            } ]
          },
          "count": 0
        } ],
        "measureScore": {
          "value": 0.0
        }
      } ],
      "evaluatedResource": [ {
        "reference": "Patient/2af66e9f-b6b2-4428-9eb5-c7ab057080fd"
      }, {
        "reference": "Encounter/07ce4d74-8bd1-4c52-bc63-7f0074e45dd4"
      }, {
        "reference": "Condition/2a64dfc5-ff94-45d0-a6e0-03f804a7e1ce"
      }, {
        "reference": "Condition/94d20fe0-9660-4e4d-8d5b-2a7204ad6d58"
      } ]
    },
    "request": {
      "method": "PUT",
      "url": "MeasureReport/40d87f6e-481d-4b9d-85c4-9a9c33e8548d"
    }
  } ]
}