{
  "resourceType": "Bundle",
  "id": "612e6b4402c62a011f2ed1e1",
  "type": "transaction",
  "entry": [ {
    "fullUrl": "https://madie.cms.gov/Patient/8961c16d-d6a2-4da2-bbe0-d66f7ed6d85a",
    "resource": {
      "resourceType": "Patient",
      "id": "8961c16d-d6a2-4da2-bbe0-d66f7ed6d85a",
      "meta": {
        "profile": [ "http://hl7.org/fhir/us/qicore/StructureDefinition/qicore-patient" ]
      },
      "text": {
        "status": "generated",
        "div": "<div xmlns=\"http://www.w3.org/1999/xhtml\"><div class=\"hapiHeaderText\">CMPerfGT1DayAfterIPEnc <b>DENEXFAIL </b></div><table class=\"hapiPropertyTable\"><tbody><tr><td>Identifier</td><td>dcec2fd8df342b0e963fde01bb96af93</td></tr><tr><td>Date of birth</td><td><span>02 January 1974</span></td></tr></tbody></table></div>"
      },
      "extension": [ {
        "url": "http://hl7.org/fhir/us/core/StructureDefinition/us-core-race",
        "extension": [ {
          "url": "ombCategory",
          "valueCoding": {
            "system": "urn:oid:2.16.840.1.113883.6.238",
            "code": "1002-5",
            "display": "American Indian or Alaska Native",
            "userSelected": true
          }
        }, {
          "url": "text",
          "valueString": "American Indian or Alaska Native"
        } ]
      }, {
        "url": "http://hl7.org/fhir/us/core/StructureDefinition/us-core-ethnicity",
        "extension": [ {
          "url": "ombCategory",
          "valueCoding": {
            "system": "urn:oid:2.16.840.1.113883.6.238",
            "code": "2135-2",
            "display": "Hispanic or Latino",
            "userSelected": true
          }
        }, {
          "url": "text",
          "valueString": "Hispanic or Latino"
        } ]
      } ],
      "identifier": [ {
        "type": {
          "coding": [ {
            "system": "http://terminology.hl7.org/CodeSystem/v2-0203",
            "code": "MR"
          } ]
        },
        "system": "https://bonnie-fhir.healthit.gov/",
        "value": "612e6b4402c62a011f2ed1e1"
      } ],
      "active": true,
      "name": [ {
        "use": "usual",
        "family": "DENEXFail",
        "given": [ "CMPerfGT1DayAfterIPEnc" ]
      } ],
      "gender": "male",
      "birthDate": "1975-01-02"
    },
    "request": {
      "method": "PUT",
      "url": "Patient/8961c16d-d6a2-4da2-bbe0-d66f7ed6d85a"
    }
  }, {
    "fullUrl": "https://madie.cms.gov/Encounter/834f551e-3c9a-4ede-a326-6b9819e3f104",
    "resource": {
      "resourceType": "Encounter",
      "id": "834f551e-3c9a-4ede-a326-6b9819e3f104",
      "meta": {
        "profile": [ "http://hl7.org/fhir/us/qicore/StructureDefinition/qicore-encounter" ]
      },
      "status": "finished",
      "class": {
        "system": "http://terminology.hl7.org/CodeSystem/v3-ActCode",
        "code": "IMP",
        "display": "inpatient encounter"
      },
      "type": [ {
        "coding": [ {
          "system": "http://snomed.info/sct",
          "code": "8715000"
        } ]
      } ],
      "subject": {
        "reference": "Patient/8961c16d-d6a2-4da2-bbe0-d66f7ed6d85a"
      },
      "period": {
        "start": "2026-11-01T08:00:00.000+00:00",
        "end": "2026-11-26T08:15:00.000+00:00"
      },
      "length": {
        "value": 25.0,
        "unit": "days"
      }
    },
    "request": {
      "method": "PUT",
      "url": "Encounter/834f551e-3c9a-4ede-a326-6b9819e3f104"
    }
  }, {
    "fullUrl": "https://madie.cms.gov/Procedure/3e2ed96c-d774-4e04-8d4d-6a7630ec657d",
    "resource": {
      "resourceType": "Procedure",
      "id": "3e2ed96c-d774-4e04-8d4d-6a7630ec657d",
      "meta": {
        "profile": [ "http://hl7.org/fhir/us/qicore/StructureDefinition/qicore-procedure" ]
      },
      "extension": [ {
        "url": "http://hl7.org/fhir/us/qicore/StructureDefinition/qicore-recorded",
        "valueDateTime": "2013-12-04T13:35:00.000+00:00"
      } ],
      "status": "completed",
      "code": {
        "coding": [ {
          "system": "http://snomed.info/sct",
          "code": "133918004"
        } ]
      },
      "subject": {
        "reference": "Patient/8961c16d-d6a2-4da2-bbe0-d66f7ed6d85a"
      },
      "performedPeriod": {
        "start": "2026-11-05T11:00:00.000+00:00"
      }
    },
    "request": {
      "method": "PUT",
      "url": "Procedure/3e2ed96c-d774-4e04-8d4d-6a7630ec657d"
    }
  }, {
    "fullUrl": "https://madie.cms.gov/Coverage/f78cb5e8-a161-4457-9321-ced612d21254",
    "resource": {
      "resourceType": "Coverage",
      "id": "f78cb5e8-a161-4457-9321-ced612d21254",
      "status": "active",
      "beneficiary": {
        "reference": "Patient/8961c16d-d6a2-4da2-bbe0-d66f7ed6d85a"
      },
      "period": {
        "start": "1975-01-02T08:00:00.000+00:00"
      },
      "payor": [ {
        "reference": "Organization/c5d648b5-bd0e-4c26-932f-0c46505b9193"
      } ]
    },
    "request": {
      "method": "PUT",
      "url": "Coverage/f78cb5e8-a161-4457-9321-ced612d21254"
    }
  }, {
    "fullUrl": "https://madie.cms.gov/Procedure/6e269b69-de20-44f5-934f-c42aace3791b",
    "resource": {
      "resourceType": "Procedure",
      "id": "6e269b69-de20-44f5-934f-c42aace3791b",
      "meta": {
        "profile": [ "http://hl7.org/fhir/us/qicore/StructureDefinition/qicore-procedure" ]
      },
      "extension": [ {
        "url": "http://hl7.org/fhir/us/qicore/StructureDefinition/qicore-recorded",
        "valueDateTime": "2013-12-04T13:35:00.000+00:00"
      } ],
      "status": "completed",
      "code": {
        "coding": [ {
          "system": "http://www.icd10data.com/icd10pcs",
          "code": "3E030FZ"
        }, {
          "system": "http://snomed.info/sct",
          "code": "18946005"
        } ]
      },
      "subject": {
        "reference": "Patient/8961c16d-d6a2-4da2-bbe0-d66f7ed6d85a"
      },
      "performedPeriod": {
        "start": "2026-11-01T09:00:00.000+00:00",
        "end": "2026-12-02T09:15:00.000+00:00"
      }
    },
    "request": {
      "method": "PUT",
      "url": "Procedure/6e269b69-de20-44f5-934f-c42aace3791b"
    }
  }, {
    "fullUrl": "https://madie.cms.gov/Organization/c5d648b5-bd0e-4c26-932f-0c46505b9193",
    "resource": {
      "resourceType": "Organization",
      "id": "c5d648b5-bd0e-4c26-932f-0c46505b9193",
      "meta": {
        "profile": [ "http://hl7.org/fhir/us/qicore/StructureDefinition/qicore-organization" ]
      },
      "identifier": [ {
        "use": "temp",
        "system": "urn:oid:2.16.840.1.113883.4.4",
        "value": "21-3259825"
      } ],
      "active": true,
      "type": [ {
        "coding": [ {
          "system": "http://terminology.hl7.org/CodeSystem/organization-type",
          "code": "pay",
          "display": "Payer"
        } ]
      } ],
      "name": "Blue Cross Blue Shield of Texas",
      "telecom": [ {
        "system": "phone",
        "value": "(+1) 972-766-6900"
      } ],
      "address": [ {
        "use": "billing",
        "type": "postal",
        "line": [ "P.O. Box 660044" ],
        "city": "Dallas",
        "state": "TX",
        "postalCode": "75266-0044",
        "country": "USA"
      } ]
    },
    "request": {
      "method": "PUT",
      "url": "Organization/c5d648b5-bd0e-4c26-932f-0c46505b9193"
    }
  }, {
    "fullUrl": "https://madie.cms.gov/Practitioner/7a9a1f9e-28c5-483e-a860-d1995046b33a",
    "resource": {
      "resourceType": "Practitioner",
      "id": "7a9a1f9e-28c5-483e-a860-d1995046b33a",
      "identifier": [ {
        "system": "http://hl7.org/fhir/sid/us-npi",
        "value": "123456"
      } ],
      "name": [ {
        "family": "Evil",
        "prefix": [ "Dr" ]
      } ]
    },
    "request": {
      "method": "PUT",
      "url": "Practitioner/7a9a1f9e-28c5-483e-a860-d1995046b33a"
    }
  }, {
    "fullUrl": "https://madie.cms.gov/MeasureReport/e5b03aea-7065-4a54-ac9f-be861a696673",
    "resource": {
      "resourceType": "MeasureReport",
      "id": "e5b03aea-7065-4a54-ac9f-be861a696673",
      "meta": {
        "profile": [ "http://hl7.org/fhir/us/cqfmeasures/StructureDefinition/test-case-cqfm" ]
      },
      "contained": [ {
        "resourceType": "Parameters",
        "id": "f0c7fedb-61f3-4f3a-ab8e-124c6b728a2e-parameters",
        "parameter": [ {
          "name": "subject",
          "valueString": "8961c16d-d6a2-4da2-bbe0-d66f7ed6d85a"
        } ]
      } ],
      "extension": [ {
        "url": "http://hl7.org/fhir/StructureDefinition/cqf-inputParameters",
        "valueReference": {
          "reference": "#f0c7fedb-61f3-4f3a-ab8e-124c6b728a2e-parameters"
        }
      }, {
        "url": "http://hl7.org/fhir/us/cqfmeasures/StructureDefinition/cqfm-testCaseDescription",
        "valueMarkdown": "comfort measures > 1 day after IP encounter starts\n"
      } ],
      "modifierExtension": [ {
        "url": "http://hl7.org/fhir/us/cqfmeasures/StructureDefinition/cqfm-isTestCase",
        "valueBoolean": true
      } ],
      "status": "complete",
      "type": "individual",
      "measure": "https://madie.cms.gov/Measure/CMS108FHIRVTEProphylaxis",
      "period": {
        "start": "2026-01-01",
        "end": "2026-12-31"
      },
      "group": [ {
        "id": "Group_1",
        "population": [ {
          "id": "InitialPopulation_1",
          "code": {
            "coding": [ {
              "system": "http://terminology.hl7.org/CodeSystem/measure-population",
              "code": "initial-population",
              "display": "Initial Population"
            } ]
          },
          "count": 1
        }, {
          "id": "Denominator_1",
          "code": {
            "coding": [ {
              "system": "http://terminology.hl7.org/CodeSystem/measure-population",
              "code": "denominator",
              "display": "Denominator"
            } ]
          },
          "count": 1
        }, {
          "id": "DenominatorExclusion_1",
          "code": {
            "coding": [ {
              "system": "http://terminology.hl7.org/CodeSystem/measure-population",
              "code": "denominator-exclusion",
              "display": "Denominator Exclusion"
            } ]
          },
          "count": 0
        }, {
          "id": "Numerator_1",
          "code": {
            "coding": [ {
              "system": "http://terminology.hl7.org/CodeSystem/measure-population",
              "code": "numerator",
              "display": "Numerator"
            } ]
          },
          "count": 0
        } ],
        "measureScore": {
          "value": 0.0
        }
      } ],
      "evaluatedResource": [ {
        "reference": "Patient/8961c16d-d6a2-4da2-bbe0-d66f7ed6d85a"
      }, {
        "reference": "Encounter/834f551e-3c9a-4ede-a326-6b9819e3f104"
      }, {
        "reference": "Procedure/3e2ed96c-d774-4e04-8d4d-6a7630ec657d"
      }, {
        "reference": "Coverage/f78cb5e8-a161-4457-9321-ced612d21254"
      }, {
        "reference": "Procedure/6e269b69-de20-44f5-934f-c42aace3791b"
      }, {
        "reference": "Organization/c5d648b5-bd0e-4c26-932f-0c46505b9193"
      }, {
        "reference": "Practitioner/7a9a1f9e-28c5-483e-a860-d1995046b33a"
      } ]
    },
    "request": {
      "method": "PUT",
      "url": "MeasureReport/e5b03aea-7065-4a54-ac9f-be861a696673"
    }
  } ]
}