{
  "resourceType": "Bundle",
  "id": "612e6a7a02c62a011f2ea2a3",
  "type": "transaction",
  "entry": [ {
    "fullUrl": "https://madie.cms.gov/Patient/1b7603d3-81d1-45be-8b6f-a483827e9eb8",
    "resource": {
      "resourceType": "Patient",
      "id": "1b7603d3-81d1-45be-8b6f-a483827e9eb8",
      "meta": {
        "profile": [ "http://hl7.org/fhir/us/qicore/StructureDefinition/qicore-patient" ]
      },
      "text": {
        "status": "generated",
        "div": "<div xmlns=\"http://www.w3.org/1999/xhtml\"><div class=\"hapiHeaderText\">MA_LMWH_DayOfAdmit <b>NUMERPASS </b></div><table class=\"hapiPropertyTable\"><tbody><tr><td>Identifier</td><td>e213550d1409db28f4a0cef7910ee883</td></tr><tr><td>Date of birth</td><td><span>02 January 1974</span></td></tr></tbody></table></div>"
      },
      "extension": [ {
        "url": "http://hl7.org/fhir/us/core/StructureDefinition/us-core-race",
        "extension": [ {
          "url": "ombCategory",
          "valueCoding": {
            "system": "urn:oid:2.16.840.1.113883.6.238",
            "code": "1002-5",
            "display": "American Indian or Alaska Native",
            "userSelected": true
          }
        }, {
          "url": "text",
          "valueString": "American Indian or Alaska Native"
        } ]
      }, {
        "url": "http://hl7.org/fhir/us/core/StructureDefinition/us-core-ethnicity",
        "extension": [ {
          "url": "ombCategory",
          "valueCoding": {
            "system": "urn:oid:2.16.840.1.113883.6.238",
            "code": "2135-2",
            "display": "Hispanic or Latino",
            "userSelected": true
          }
        }, {
          "url": "text",
          "valueString": "Hispanic or Latino"
        } ]
      } ],
      "identifier": [ {
        "type": {
          "coding": [ {
            "system": "http://terminology.hl7.org/CodeSystem/v2-0203",
            "code": "MR"
          } ]
        },
        "system": "https://bonnie-fhir.healthit.gov/",
        "value": "612e6a7a02c62a011f2ea2a3"
      } ],
      "active": true,
      "name": [ {
        "use": "usual",
        "family": "NUMERPass",
        "given": [ "MALMWHDayOfAdmit" ]
      } ],
      "gender": "male",
      "birthDate": "1975-01-02"
    },
    "request": {
      "method": "PUT",
      "url": "Patient/1b7603d3-81d1-45be-8b6f-a483827e9eb8"
    }
  }, {
    "fullUrl": "https://madie.cms.gov/Encounter/05d4164f-6853-418f-a8f2-b34f037e8ea1",
    "resource": {
      "resourceType": "Encounter",
      "id": "05d4164f-6853-418f-a8f2-b34f037e8ea1",
      "meta": {
        "profile": [ "http://hl7.org/fhir/us/qicore/StructureDefinition/qicore-encounter" ]
      },
      "status": "finished",
      "class": {
        "system": "http://terminology.hl7.org/CodeSystem/v3-ActCode",
        "code": "IMP",
        "display": "inpatient encounter"
      },
      "type": [ {
        "coding": [ {
          "system": "http://snomed.info/sct",
          "code": "8715000"
        } ]
      } ],
      "subject": {
        "reference": "Patient/1b7603d3-81d1-45be-8b6f-a483827e9eb8"
      },
      "period": {
        "start": "2026-11-01T08:00:00.000+00:00",
        "end": "2026-11-26T08:15:00.000+00:00"
      },
      "length": {
        "value": 25,
        "unit": "days"
      }
    },
    "request": {
      "method": "PUT",
      "url": "Encounter/05d4164f-6853-418f-a8f2-b34f037e8ea1"
    }
  }, {
    "fullUrl": "https://madie.cms.gov/Coverage/6cf79dea-d8c1-4c49-8afc-bdb64ac4441b",
    "resource": {
      "resourceType": "Coverage",
      "id": "6cf79dea-d8c1-4c49-8afc-bdb64ac4441b",
      "status": "active",
      "beneficiary": {
        "reference": "Patient/1b7603d3-81d1-45be-8b6f-a483827e9eb8"
      },
      "period": {
        "start": "1975-01-02T08:00:00.000+00:00"
      },
      "payor": [ {
        "reference": "Organization/7de5bcf9-fb91-4e52-9896-6cc19f849357"
      } ]
    },
    "request": {
      "method": "PUT",
      "url": "Coverage/6cf79dea-d8c1-4c49-8afc-bdb64ac4441b"
    }
  }, {
    "fullUrl": "https://madie.cms.gov/MedicationAdministration/819498e3-da9c-4989-b615-c26f61e5787b",
    "resource": {
      "resourceType": "MedicationAdministration",
      "id": "819498e3-da9c-4989-b615-c26f61e5787b",
      "meta": {
        "profile": [ "http://hl7.org/fhir/us/qicore/StructureDefinition/qicore-medicationadministration" ]
      },
      "status": "completed",
      "medicationCodeableConcept": {
        "coding": [ {
          "system": "http://www.nlm.nih.gov/research/umls/rxnorm",
          "code": "854228"
        } ]
      },
      "subject": {
        "reference": "Patient/1b7603d3-81d1-45be-8b6f-a483827e9eb8"
      },
      "effectivePeriod": {
        "start": "2026-11-01T09:00:00.000+00:00",
        "end": "2026-11-01T09:15:00.000+00:00"
      }
    },
    "request": {
      "method": "PUT",
      "url": "MedicationAdministration/819498e3-da9c-4989-b615-c26f61e5787b"
    }
  }, {
    "fullUrl": "https://madie.cms.gov/Organization/7de5bcf9-fb91-4e52-9896-6cc19f849357",
    "resource": {
      "resourceType": "Organization",
      "id": "7de5bcf9-fb91-4e52-9896-6cc19f849357",
      "meta": {
        "profile": [ "http://hl7.org/fhir/us/qicore/StructureDefinition/qicore-organization" ]
      },
      "identifier": [ {
        "use": "temp",
        "system": "urn:oid:2.16.840.1.113883.4.4",
        "value": "21-3259825"
      } ],
      "active": true,
      "type": [ {
        "coding": [ {
          "system": "http://terminology.hl7.org/CodeSystem/organization-type",
          "code": "pay",
          "display": "Payer"
        } ]
      } ],
      "name": "Blue Cross Blue Shield of Texas",
      "telecom": [ {
        "system": "phone",
        "value": "(+1) 972-766-6900"
      } ],
      "address": [ {
        "use": "billing",
        "type": "postal",
        "line": [ "P.O. Box 660044" ],
        "city": "Dallas",
        "state": "TX",
        "postalCode": "75266-0044",
        "country": "USA"
      } ]
    },
    "request": {
      "method": "PUT",
      "url": "Organization/7de5bcf9-fb91-4e52-9896-6cc19f849357"
    }
  }, {
    "fullUrl": "https://madie.cms.gov/Practitioner/67f7c419-fc8d-46ce-831e-02f5eb91009b",
    "resource": {
      "resourceType": "Practitioner",
      "id": "67f7c419-fc8d-46ce-831e-02f5eb91009b",
      "identifier": [ {
        "system": "http://hl7.org/fhir/sid/us-npi",
        "value": "123456"
      } ],
      "name": [ {
        "family": "Evil",
        "prefix": [ "Dr" ]
      } ]
    },
    "request": {
      "method": "PUT",
      "url": "Practitioner/67f7c419-fc8d-46ce-831e-02f5eb91009b"
    }
  }, {
    "fullUrl": "https://madie.cms.gov/MeasureReport/e6d2783c-ff6d-4501-996c-43215961b1c9",
    "resource": {
      "resourceType": "MeasureReport",
      "id": "e6d2783c-ff6d-4501-996c-43215961b1c9",
      "meta": {
        "profile": [ "http://hl7.org/fhir/us/cqfmeasures/StructureDefinition/test-case-cqfm" ]
      },
      "contained": [ {
        "resourceType": "Parameters",
        "id": "4092a10d-1a74-407a-bec7-5358e2c31525-parameters",
        "parameter": [ {
          "name": "subject",
          "valueString": "1b7603d3-81d1-45be-8b6f-a483827e9eb8"
        } ]
      } ],
      "extension": [ {
        "url": "http://hl7.org/fhir/StructureDefinition/cqf-inputParameters",
        "valueReference": {
          "reference": "#4092a10d-1a74-407a-bec7-5358e2c31525-parameters"
        }
      }, {
        "url": "http://hl7.org/fhir/us/cqfmeasures/StructureDefinition/cqfm-testCaseDescription",
        "valueMarkdown": "lmwh administered during IP encounter\n"
      } ],
      "modifierExtension": [ {
        "url": "http://hl7.org/fhir/us/cqfmeasures/StructureDefinition/cqfm-isTestCase",
        "valueBoolean": true
      } ],
      "status": "complete",
      "type": "individual",
      "measure": "https://madie.cms.gov/Measure/CMS108FHIRVTEProphylaxis",
      "period": {
        "start": "2026-01-01",
        "end": "2026-12-31"
      },
      "group": [ {
        "id": "Group_1",
        "population": [ {
          "id": "InitialPopulation_1",
          "code": {
            "coding": [ {
              "system": "http://terminology.hl7.org/CodeSystem/measure-population",
              "code": "initial-population",
              "display": "Initial Population"
            } ]
          },
          "count": 1
        }, {
          "id": "Denominator_1",
          "code": {
            "coding": [ {
              "system": "http://terminology.hl7.org/CodeSystem/measure-population",
              "code": "denominator",
              "display": "Denominator"
            } ]
          },
          "count": 1
        }, {
          "id": "DenominatorExclusion_1",
          "code": {
            "coding": [ {
              "system": "http://terminology.hl7.org/CodeSystem/measure-population",
              "code": "denominator-exclusion",
              "display": "Denominator Exclusion"
            } ]
          },
          "count": 0
        }, {
          "id": "Numerator_1",
          "code": {
            "coding": [ {
              "system": "http://terminology.hl7.org/CodeSystem/measure-population",
              "code": "numerator",
              "display": "Numerator"
            } ]
          },
          "count": 1
        } ],
        "measureScore": {
          "value": 0.0
        }
      } ],
      "evaluatedResource": [ {
        "reference": "Patient/1b7603d3-81d1-45be-8b6f-a483827e9eb8"
      }, {
        "reference": "Encounter/05d4164f-6853-418f-a8f2-b34f037e8ea1"
      }, {
        "reference": "Coverage/6cf79dea-d8c1-4c49-8afc-bdb64ac4441b"
      }, {
        "reference": "MedicationAdministration/819498e3-da9c-4989-b615-c26f61e5787b"
      }, {
        "reference": "Organization/7de5bcf9-fb91-4e52-9896-6cc19f849357"
      }, {
        "reference": "Practitioner/67f7c419-fc8d-46ce-831e-02f5eb91009b"
      } ]
    },
    "request": {
      "method": "PUT",
      "url": "MeasureReport/e6d2783c-ff6d-4501-996c-43215961b1c9"
    }
  } ]
}