{
  "resourceType": "Bundle",
  "id": "61168b8798086b77ef9c5ecc",
  "type": "collection",
  "entry": [ {
    "fullUrl": "https://madie.cms.gov/Patient/03b74242-d93e-438e-ac6a-f46b41548209",
    "resource": {
      "resourceType": "Patient",
      "id": "03b74242-d93e-438e-ac6a-f46b41548209",
      "meta": {
        "profile": [ "http://hl7.org/fhir/us/qicore/StructureDefinition/qicore-patient" ]
      },
      "extension": [ {
        "url": "http://hl7.org/fhir/us/core/StructureDefinition/us-core-race",
        "extension": [ {
          "url": "ombCategory",
          "valueCoding": {
            "system": "urn:oid:2.16.840.1.113883.6.238",
            "code": "2106-3",
            "display": "White",
            "userSelected": true
          }
        }, {
          "url": "text",
          "valueString": "White"
        } ]
      }, {
        "url": "http://hl7.org/fhir/us/core/StructureDefinition/us-core-ethnicity",
        "extension": [ {
          "url": "ombCategory",
          "valueCoding": {
            "system": "urn:oid:2.16.840.1.113883.6.238",
            "code": "2186-5",
            "display": "Not Hispanic or Latino",
            "userSelected": true
          }
        }, {
          "url": "text",
          "valueString": "Not Hispanic or Latino"
        } ]
      } ],
      "identifier": [ {
        "type": {
          "coding": [ {
            "system": "http://terminology.hl7.org/CodeSystem/v2-0203",
            "code": "MR"
          } ]
        },
        "system": "https://myGoodHealthCare.com/",
        "value": "61168b8798086b77ef9c5ecc"
      } ],
      "active": true,
      "name": [ {
        "use": "usual",
        "family": "DENEXCEPPass",
        "given": [ "CommEdemaAbsentNotDoneMR" ]
      } ],
      "gender": "male",
      "birthDate": "1973-08-29"
    }
  }, {
    "fullUrl": "https://madie.cms.gov/Communication/2fcd9812-be57-4992-b36e-98e04df35621",
    "resource": {
      "resourceType": "Communication",
      "id": "2fcd9812-be57-4992-b36e-98e04df35621",
      "meta": {
        "profile": [ "http://hl7.org/fhir/us/qicore/StructureDefinition/qicore-communicationnotdone" ]
      },
      "extension": [ {
        "url": "http://hl7.org/fhir/us/qicore/StructureDefinition/qicore-recorded",
        "valueDateTime": "2026-07-30T15:00:00.000+00:00"
      } ],
      "status": "not-done",
      "statusReason": {
        "coding": [ {
          "system": "http://snomed.info/sct",
          "version": "http://snomed.info/sct/731000124108/version/202303",
          "code": "183932001",
          "display": "Procedure contraindicated (situation)",
          "userSelected": true
        } ]
      },
      "category": [ {
        "coding": [ {
          "system": "http://snomed.info/sct",
          "code": "428341000124108",
          "display": "Macular edema absent (situation)"
        } ]
      } ],
      "subject": {
        "reference": "Patient/03b74242-d93e-438e-ac6a-f46b41548209"
      },
      "topic": {
        "coding": [ {
          "system": "http://terminology.hl7.org/CodeSystem/communication-topic",
          "code": "progress-update",
          "display": "Progress Update"
        } ]
      },
      "sent": "2026-07-09T08:00:00.000+00:00",
      "reasonCode": [ {
        "coding": [ {
          "system": "http://snomed.info/sct",
          "version": "http://snomed.info/sct/731000124108/version/202303",
          "code": "428341000124108"
        } ]
      } ]
    }
  }, {
    "fullUrl": "https://madie.cms.gov/Condition/4fe8c6d7-f755-405f-96a9-0aa712bd44b5",
    "resource": {
      "resourceType": "Condition",
      "id": "4fe8c6d7-f755-405f-96a9-0aa712bd44b5",
      "meta": {
        "profile": [ "http://hl7.org/fhir/us/qicore/StructureDefinition/qicore-condition-problems-health-concerns" ]
      },
      "clinicalStatus": {
        "coding": [ {
          "system": "http://terminology.hl7.org/CodeSystem/condition-clinical",
          "code": "active",
          "display": "active",
          "userSelected": true
        } ]
      },
      "category": [ {
        "coding": [ {
          "system": "http://terminology.hl7.org/CodeSystem/condition-category",
          "code": "problem-list-item",
          "display": "Problem List Item"
        } ]
      } ],
      "code": {
        "coding": [ {
          "system": "http://snomed.info/sct",
          "version": "http://snomed.info/sct/731000124108/version/20250301",
          "code": "193349004"
        }, {
          "system": "http://hl7.org/fhir/sid/icd-10-cm",
          "code": "E08.311"
        } ]
      },
      "subject": {
        "reference": "Patient/03b74242-d93e-438e-ac6a-f46b41548209"
      },
      "onsetDateTime": "2014-07-01T15:00:00.000+00:00"
    }
  }, {
    "fullUrl": "https://madie.cms.gov/Observation/fad4fd18-96fb-44cb-896f-10f554f46f36",
    "resource": {
      "resourceType": "Observation",
      "id": "fad4fd18-96fb-44cb-896f-10f554f46f36",
      "meta": {
        "profile": [ "http://hl7.org/fhir/us/qicore/StructureDefinition/qicore-observation-clinical-result" ]
      },
      "status": "final",
      "category": [ {
        "coding": [ {
          "system": "http://terminology.hl7.org/CodeSystem/observation-category",
          "code": "vital-signs",
          "display": "Vital Signs"
        } ]
      }, {
        "coding": [ {
          "system": "http://terminology.hl7.org/CodeSystem/observation-category",
          "code": "survey"
        } ]
      } ],
      "code": {
        "coding": [ {
          "system": "http://loinc.org",
          "version": "2.73",
          "code": "32451-7"
        } ]
      },
      "subject": {
        "reference": "Patient/03b74242-d93e-438e-ac6a-f46b41548209"
      },
      "effectiveDateTime": "2026-07-09T08:00:00.000+00:00",
      "valueBoolean": true
    }
  }, {
    "fullUrl": "https://madie.cms.gov/Encounter/d661bb93-3e82-4244-a4aa-0d9422245e5e",
    "resource": {
      "resourceType": "Encounter",
      "id": "d661bb93-3e82-4244-a4aa-0d9422245e5e",
      "meta": {
        "profile": [ "http://hl7.org/fhir/us/qicore/StructureDefinition/qicore-encounter" ]
      },
      "status": "finished",
      "class": {
        "system": "http://terminology.hl7.org/CodeSystem/v3-ActCode",
        "code": "AMB"
      },
      "type": [ {
        "coding": [ {
          "system": "http://www.ama-assn.org/go/cpt",
          "version": "2023",
          "code": "99205"
        } ]
      } ],
      "subject": {
        "reference": "Patient/03b74242-d93e-438e-ac6a-f46b41548209"
      },
      "period": {
        "start": "2026-07-02T15:00:00.000+00:00",
        "end": "2026-08-02T16:00:00.000+00:00"
      }
    }
  }, {
    "fullUrl": "https://madie.cms.gov/Communication/d7ee678f-857c-4ab1-aa8d-015094bb2a44",
    "resource": {
      "resourceType": "Communication",
      "id": "d7ee678f-857c-4ab1-aa8d-015094bb2a44",
      "meta": {
        "profile": [ "http://hl7.org/fhir/us/qicore/StructureDefinition/qicore-communicationnotdone" ]
      },
      "extension": [ {
        "url": "http://hl7.org/fhir/us/qicore/StructureDefinition/qicore-recorded",
        "valueDateTime": "2026-07-30T15:00:00.000+00:00"
      } ],
      "status": "not-done",
      "statusReason": {
        "coding": [ {
          "system": "http://snomed.info/sct",
          "version": "http://snomed.info/sct/731000124108/version/202303",
          "code": "183932001",
          "display": "Procedure contraindicated (situation)",
          "userSelected": true
        } ]
      },
      "category": [ {
        "coding": [ {
          "system": "http://snomed.info/sct",
          "code": "312912001",
          "display": "Macular edema due to diabetes mellitus (disorder)",
          "userSelected": true
        } ]
      } ],
      "topic": {
        "coding": [ {
          "system": "http://terminology.hl7.org/CodeSystem/communication-topic",
          "code": "progress-update",
          "display": "Progress Update"
        } ]
      },
      "sent": "2026-07-09T08:00:00.000+00:00"
    }
  }, {
    "fullUrl": "https://madie.cms.gov/MeasureReport/2d67e856-3068-4fd1-a687-803e00dc3307",
    "resource": {
      "resourceType": "MeasureReport",
      "id": "2d67e856-3068-4fd1-a687-803e00dc3307",
      "meta": {
        "profile": [ "http://hl7.org/fhir/us/cqfmeasures/StructureDefinition/test-case-cqfm" ]
      },
      "contained": [ {
        "resourceType": "Parameters",
        "id": "12a81a58-0bb0-4269-ab7a-9b519227f575-parameters",
        "parameter": [ {
          "name": "subject",
          "valueString": "03b74242-d93e-438e-ac6a-f46b41548209"
        } ]
      } ],
      "extension": [ {
        "url": "http://hl7.org/fhir/StructureDefinition/cqf-inputParameters",
        "valueReference": {
          "reference": "#12a81a58-0bb0-4269-ab7a-9b519227f575-parameters"
        }
      }, {
        "url": "http://hl7.org/fhir/us/cqfmeasures/StructureDefinition/cqfm-testCaseDescription",
        "valueMarkdown": "Communication status not done for Macular edema absent (situation)"
      } ],
      "modifierExtension": [ {
        "url": "http://hl7.org/fhir/us/cqfmeasures/StructureDefinition/cqfm-isTestCase",
        "valueBoolean": true
      } ],
      "status": "complete",
      "type": "individual",
      "measure": "https://madie.cms.gov/Measure/CMS142FHIRCommWithDrManagingDiab",
      "period": {
        "start": "2026-01-01",
        "end": "2026-12-31"
      },
      "group": [ {
        "id": "Group_1",
        "population": [ {
          "id": "InitialPopulation_1",
          "code": {
            "coding": [ {
              "system": "http://terminology.hl7.org/CodeSystem/measure-population",
              "code": "initial-population",
              "display": "Initial Population"
            } ]
          },
          "count": 1
        }, {
          "id": "Denominator_1",
          "code": {
            "coding": [ {
              "system": "http://terminology.hl7.org/CodeSystem/measure-population",
              "code": "denominator",
              "display": "Denominator"
            } ]
          },
          "count": 1
        }, {
          "id": "Numerator_1",
          "code": {
            "coding": [ {
              "system": "http://terminology.hl7.org/CodeSystem/measure-population",
              "code": "numerator",
              "display": "Numerator"
            } ]
          },
          "count": 0
        }, {
          "id": "DenominatorException_1",
          "code": {
            "coding": [ {
              "system": "http://terminology.hl7.org/CodeSystem/measure-population",
              "code": "denominator-exception",
              "display": "Denominator Exception"
            } ]
          },
          "count": 1
        } ],
        "measureScore": {
          "value": 1.0
        }
      } ],
      "evaluatedResource": [ {
        "reference": "Patient/03b74242-d93e-438e-ac6a-f46b41548209"
      }, {
        "reference": "Communication/2fcd9812-be57-4992-b36e-98e04df35621"
      }, {
        "reference": "Condition/4fe8c6d7-f755-405f-96a9-0aa712bd44b5"
      }, {
        "reference": "Observation/fad4fd18-96fb-44cb-896f-10f554f46f36"
      }, {
        "reference": "Encounter/d661bb93-3e82-4244-a4aa-0d9422245e5e"
      }, {
        "reference": "Communication/d7ee678f-857c-4ab1-aa8d-015094bb2a44"
      } ]
    }
  } ]
}