{
  "resourceType": "Bundle",
  "id": "6356d03854e383debade759e",
  "type": "transaction",
  "entry": [ {
    "fullUrl": "https://madie.cms.gov/Patient/68a3faaa-5f89-454c-8ad9-7675172704a5",
    "resource": {
      "resourceType": "Patient",
      "id": "68a3faaa-5f89-454c-8ad9-7675172704a5",
      "meta": {
        "profile": [ "http://hl7.org/fhir/us/qicore/StructureDefinition/qicore-patient" ]
      },
      "text": {
        "status": "generated",
        "div": "<div xmlns=\"http://www.w3.org/1999/xhtml\"><div class=\"hapiHeaderText\">DxCodeReasonCodeOf20Weeks<b>DENOMPASS</b></div><table class=\"hapiPropertyTable\"><tbody><tr><td>Date of birth</td><td><span>01 February 2004</span></td></tr></tbody></table></div>"
      },
      "extension": [ {
        "url": "http://hl7.org/fhir/us/core/StructureDefinition/us-core-race",
        "extension": [ {
          "url": "ombCategory",
          "valueCoding": {
            "system": "urn:oid:2.16.840.1.113883.6.238",
            "code": "1002-5",
            "display": "American Indian or Alaska Native",
            "userSelected": true
          }
        }, {
          "url": "text",
          "valueString": "American Indian or Alaska Native"
        } ]
      }, {
        "url": "http://hl7.org/fhir/us/core/StructureDefinition/us-core-ethnicity",
        "extension": [ {
          "url": "ombCategory",
          "valueCoding": {
            "system": "urn:oid:2.16.840.1.113883.6.238",
            "code": "2135-2",
            "display": "Hispanic or Latino",
            "userSelected": true
          }
        }, {
          "url": "text",
          "valueString": "Hispanic or Latino"
        } ]
      } ],
      "identifier": [ {
        "type": {
          "coding": [ {
            "system": "http://terminology.hl7.org/CodeSystem/v2-0203",
            "code": "MR"
          } ]
        },
        "system": "https://bonnie-fhir.healthit.gov/",
        "value": "6356d03854e383debade759e"
      } ],
      "active": true,
      "name": [ {
        "use": "usual",
        "family": "DENOMPass",
        "given": [ "DxCodeReasonCodeOf20Weeks" ]
      } ],
      "gender": "female",
      "birthDate": "2005-02-01"
    },
    "request": {
      "method": "PUT",
      "url": "Patient/68a3faaa-5f89-454c-8ad9-7675172704a5"
    }
  }, {
    "fullUrl": "https://madie.cms.gov/Observation/72bac837-3bf8-43e6-915e-a38d448c6e6f",
    "resource": {
      "resourceType": "Observation",
      "id": "72bac837-3bf8-43e6-915e-a38d448c6e6f",
      "meta": {
        "profile": [ "http://hl7.org/fhir/us/qicore/StructureDefinition/qicore-simple-observation" ]
      },
      "status": "final",
      "category": [ {
        "coding": [ {
          "system": "http://terminology.hl7.org/CodeSystem/observation-category",
          "code": "exam",
          "display": "exam",
          "userSelected": true
        } ]
      } ],
      "code": {
        "coding": [ {
          "system": "http://loinc.org",
          "code": "93857-1"
        } ]
      },
      "subject": {
        "reference": "Patient/68a3faaa-5f89-454c-8ad9-7675172704a5"
      },
      "effectiveDateTime": "2026-02-01T08:00:00.000+00:00",
      "performer": [ {
        "reference": "Organization/example1",
        "display": "Hendricks Country Hospital"
      } ],
      "valueDateTime": "2026-02-01T08:00:00.000+00:00"
    },
    "request": {
      "method": "PUT",
      "url": "Observation/72bac837-3bf8-43e6-915e-a38d448c6e6f"
    }
  }, {
    "fullUrl": "https://madie.cms.gov/Encounter/f7422f8d-d7b6-4e27-a880-0d4ad8dc7b66",
    "resource": {
      "resourceType": "Encounter",
      "id": "f7422f8d-d7b6-4e27-a880-0d4ad8dc7b66",
      "meta": {
        "profile": [ "http://hl7.org/fhir/us/qicore/StructureDefinition/qicore-encounter" ]
      },
      "status": "finished",
      "class": {
        "system": "http://terminology.hl7.org/CodeSystem/v3-ActCode",
        "code": "IMP",
        "display": "inpatient encounter"
      },
      "type": [ {
        "coding": [ {
          "system": "http://snomed.info/sct",
          "code": "183452005"
        } ]
      } ],
      "subject": {
        "reference": "Patient/68a3faaa-5f89-454c-8ad9-7675172704a5"
      },
      "period": {
        "start": "2026-02-01T08:00:00.000+00:00",
        "end": "2026-02-05T08:15:00.000+00:00"
      },
      "reasonCode": [ {
        "coding": [ {
          "system": "http://snomed.info/sct",
          "code": "23464008",
          "display": "Gestation period, 20 weeks (finding)"
        } ]
      } ]
    },
    "request": {
      "method": "PUT",
      "url": "Encounter/f7422f8d-d7b6-4e27-a880-0d4ad8dc7b66"
    }
  }, {
    "fullUrl": "https://madie.cms.gov/Procedure/6c488347-420c-42fb-aef1-1ea02dc2a80c",
    "resource": {
      "resourceType": "Procedure",
      "id": "6c488347-420c-42fb-aef1-1ea02dc2a80c",
      "meta": {
        "profile": [ "http://hl7.org/fhir/us/qicore/StructureDefinition/qicore-procedure" ]
      },
      "extension": [ {
        "url": "http://hl7.org/fhir/us/qicore/StructureDefinition/qicore-recorded",
        "valueDateTime": "2014-04-05T13:35:00.000+00:00"
      } ],
      "status": "completed",
      "code": {
        "coding": [ {
          "system": "http://snomed.info/sct",
          "code": "10745001"
        } ]
      },
      "subject": {
        "reference": "Patient/68a3faaa-5f89-454c-8ad9-7675172704a5"
      },
      "performedPeriod": {
        "start": "2026-02-01T08:00:00.000+00:00",
        "end": "2026-02-05T08:15:00.000+00:00"
      }
    },
    "request": {
      "method": "PUT",
      "url": "Procedure/6c488347-420c-42fb-aef1-1ea02dc2a80c"
    }
  }, {
    "fullUrl": "https://madie.cms.gov/Coverage/f0afd449-d269-4db2-8f27-686ee9c00081",
    "resource": {
      "resourceType": "Coverage",
      "id": "f0afd449-d269-4db2-8f27-686ee9c00081",
      "meta": {
        "profile": [ "http://hl7.org/fhir/us/qicore/StructureDefinition/qicore-coverage" ]
      },
      "status": "active",
      "subscriberId": "523435",
      "beneficiary": {
        "reference": "Patient/68a3faaa-5f89-454c-8ad9-7675172704a5"
      },
      "relationship": {
        "coding": [ {
          "system": "http://terminology.hl7.org/CodeSystem/subscriber-relationship",
          "code": "self"
        } ]
      },
      "payor": [ {
        "reference": "Organization/0a98b4fb-53ae-4033-aeee-0a9e34b49e35"
      } ]
    },
    "request": {
      "method": "PUT",
      "url": "Coverage/f0afd449-d269-4db2-8f27-686ee9c00081"
    }
  }, {
    "fullUrl": "https://madie.cms.gov/Organization/0a98b4fb-53ae-4033-aeee-0a9e34b49e35",
    "resource": {
      "resourceType": "Organization",
      "id": "0a98b4fb-53ae-4033-aeee-0a9e34b49e35",
      "meta": {
        "profile": [ "http://hl7.org/fhir/us/qicore/StructureDefinition/qicore-organization" ]
      },
      "identifier": [ {
        "use": "temp",
        "system": "urn:oid:2.16.840.1.113883.4.4",
        "value": "21-3259825"
      } ],
      "active": true,
      "type": [ {
        "coding": [ {
          "system": "http://terminology.hl7.org/CodeSystem/organization-type",
          "code": "pay",
          "display": "Payer"
        } ]
      } ],
      "name": "Blue Cross Blue Shield of Texas",
      "telecom": [ {
        "system": "phone",
        "value": "(+1) 972-766-6900"
      } ],
      "address": [ {
        "use": "billing",
        "type": "postal",
        "line": [ "P.O. Box 660044" ],
        "city": "Dallas",
        "state": "TX",
        "postalCode": "75266-0044",
        "country": "USA"
      } ]
    },
    "request": {
      "method": "PUT",
      "url": "Organization/0a98b4fb-53ae-4033-aeee-0a9e34b49e35"
    }
  }, {
    "fullUrl": "https://madie.cms.gov/Practitioner/e4b015c4-da05-4997-95cd-f14ac051cb8e",
    "resource": {
      "resourceType": "Practitioner",
      "id": "e4b015c4-da05-4997-95cd-f14ac051cb8e",
      "meta": {
        "profile": [ "http://hl7.org/fhir/us/qicore/StructureDefinition/qicore-practitioner" ]
      },
      "identifier": [ {
        "system": "http://hl7.org/fhir/sid/us-npi",
        "value": "1234567890"
      } ],
      "name": [ {
        "family": "Evil",
        "prefix": [ "Dr" ]
      } ]
    },
    "request": {
      "method": "PUT",
      "url": "Practitioner/e4b015c4-da05-4997-95cd-f14ac051cb8e"
    }
  }, {
    "fullUrl": "https://madie.cms.gov/MeasureReport/6c992705-fe4c-4e6a-807e-c2218e8c6349",
    "resource": {
      "resourceType": "MeasureReport",
      "id": "6c992705-fe4c-4e6a-807e-c2218e8c6349",
      "meta": {
        "profile": [ "http://hl7.org/fhir/us/cqfmeasures/StructureDefinition/test-case-cqfm" ]
      },
      "contained": [ {
        "resourceType": "Parameters",
        "id": "332f0bc6-4bcd-4bde-aa9e-4d71c33a107c-parameters",
        "parameter": [ {
          "name": "subject",
          "valueString": "68a3faaa-5f89-454c-8ad9-7675172704a5"
        } ]
      } ],
      "extension": [ {
        "url": "http://hl7.org/fhir/StructureDefinition/cqf-inputParameters",
        "valueReference": {
          "reference": "#332f0bc6-4bcd-4bde-aa9e-4d71c33a107c-parameters"
        }
      }, {
        "url": "http://hl7.org/fhir/us/cqfmeasures/StructureDefinition/cqfm-testCaseDescription",
        "valueMarkdown": "Diagnosis Code of 20 Weeks - reasonCode"
      } ],
      "modifierExtension": [ {
        "url": "http://hl7.org/fhir/us/cqfmeasures/StructureDefinition/cqfm-isTestCase",
        "valueBoolean": true
      } ],
      "status": "complete",
      "type": "individual",
      "measure": "https://madie.cms.gov/Measure/CMS1028FHIRPCSevereOBComps",
      "period": {
        "start": "2026-01-01",
        "end": "2026-12-31"
      },
      "group": [ {
        "id": "Group_1",
        "population": [ {
          "id": "InitialPopulation_1",
          "code": {
            "coding": [ {
              "system": "http://terminology.hl7.org/CodeSystem/measure-population",
              "code": "initial-population",
              "display": "Initial Population"
            } ]
          },
          "count": 1
        }, {
          "id": "Denominator_1",
          "code": {
            "coding": [ {
              "system": "http://terminology.hl7.org/CodeSystem/measure-population",
              "code": "denominator",
              "display": "Denominator"
            } ]
          },
          "count": 1
        }, {
          "id": "Numerator_1",
          "code": {
            "coding": [ {
              "system": "http://terminology.hl7.org/CodeSystem/measure-population",
              "code": "numerator",
              "display": "Numerator"
            } ]
          },
          "count": 0
        }, {
          "id": "NumeratorExclusion_1",
          "code": {
            "coding": [ {
              "system": "http://terminology.hl7.org/CodeSystem/measure-population",
              "code": "numerator-exclusion",
              "display": "Numerator Exclusion"
            } ]
          },
          "count": 0
        } ],
        "measureScore": {
          "value": 0.0
        }
      }, {
        "id": "Group_2",
        "population": [ {
          "id": "InitialPopulation_2",
          "code": {
            "coding": [ {
              "system": "http://terminology.hl7.org/CodeSystem/measure-population",
              "code": "initial-population",
              "display": "Initial Population"
            } ]
          },
          "count": 1
        }, {
          "id": "Denominator_2",
          "code": {
            "coding": [ {
              "system": "http://terminology.hl7.org/CodeSystem/measure-population",
              "code": "denominator",
              "display": "Denominator"
            } ]
          },
          "count": 1
        }, {
          "id": "Numerator_2",
          "code": {
            "coding": [ {
              "system": "http://terminology.hl7.org/CodeSystem/measure-population",
              "code": "numerator",
              "display": "Numerator"
            } ]
          },
          "count": 0
        }, {
          "id": "NumeratorExclusion_2",
          "code": {
            "coding": [ {
              "system": "http://terminology.hl7.org/CodeSystem/measure-population",
              "code": "numerator-exclusion",
              "display": "Numerator Exclusion"
            } ]
          },
          "count": 0
        } ],
        "measureScore": {
          "value": 0.0
        }
      } ],
      "evaluatedResource": [ {
        "reference": "Patient/68a3faaa-5f89-454c-8ad9-7675172704a5"
      }, {
        "reference": "Observation/72bac837-3bf8-43e6-915e-a38d448c6e6f"
      }, {
        "reference": "Encounter/f7422f8d-d7b6-4e27-a880-0d4ad8dc7b66"
      }, {
        "reference": "Procedure/6c488347-420c-42fb-aef1-1ea02dc2a80c"
      }, {
        "reference": "Coverage/f0afd449-d269-4db2-8f27-686ee9c00081"
      }, {
        "reference": "Organization/0a98b4fb-53ae-4033-aeee-0a9e34b49e35"
      }, {
        "reference": "Practitioner/e4b015c4-da05-4997-95cd-f14ac051cb8e"
      } ]
    },
    "request": {
      "method": "PUT",
      "url": "MeasureReport/6c992705-fe4c-4e6a-807e-c2218e8c6349"
    }
  } ]
}