{
  "resourceType": "Bundle",
  "id": "tests-75cf10f8-a7a4-4ac5-b60f-f73bfc9ae92e-bundle",
  "type": "transaction",
  "entry": [ {
    "fullUrl": "https://madie.cms.gov/MeasureReport/a60b39f5-8ce6-4777-9597-e800cee15ef8",
    "resource": {
      "resourceType": "MeasureReport",
      "id": "a60b39f5-8ce6-4777-9597-e800cee15ef8",
      "meta": {
        "profile": [ "http://hl7.org/fhir/us/cqfmeasures/StructureDefinition/test-case-cqfm" ]
      },
      "contained": [ {
        "resourceType": "Parameters",
        "id": "aa222c67-3dc9-4d71-a923-9a3b8e9a292b-parameters",
        "parameter": [ {
          "name": "subject",
          "valueString": "75cf10f8-a7a4-4ac5-b60f-f73bfc9ae92e"
        } ]
      } ],
      "extension": [ {
        "url": "http://hl7.org/fhir/us/cqfmeasures/StructureDefinition/cqfm-inputParameters",
        "valueReference": {
          "reference": "#aa222c67-3dc9-4d71-a923-9a3b8e9a292b-parameters"
        }
      }, {
        "url": "http://hl7.org/fhir/us/cqfmeasures/StructureDefinition/cqfm-testCaseDescription",
        "valueMarkdown": "IP Encounter with 0.4mg/dL increase in SCr. Meets Exclusion - must be at least a 0.3 increase. \nVScode: Denominator Exclusion=[Encounter(id=DENEXPass-CreatinineIncrease0.4mg-01)]\nMADiE highlight issue special characters even in titles"
      } ],
      "modifierExtension": [ {
        "url": "http://hl7.org/fhir/us/cqfmeasures/StructureDefinition/cqfm-isTestCase",
        "valueBoolean": true
      } ],
      "status": "complete",
      "type": "individual",
      "measure": "https://madie.cms.gov/Measure/CMS832HHAKIFHIR",
      "period": {
        "start": "2026-01-01",
        "end": "2026-12-31"
      },
      "group": [ {
        "id": "67b50f879214df46de2f1fdb",
        "population": [ {
          "id": "DA0D3694-7F57-4FB9-8410-1F64E44CA01E",
          "code": {
            "coding": [ {
              "system": "http://terminology.hl7.org/CodeSystem/measure-population",
              "code": "initial-population",
              "display": "Initial Population"
            } ]
          },
          "count": 1
        }, {
          "id": "624D8554-9CB0-4BF0-882D-05C4F88BCC2C",
          "code": {
            "coding": [ {
              "system": "http://terminology.hl7.org/CodeSystem/measure-population",
              "code": "denominator",
              "display": "Denominator"
            } ]
          },
          "count": 1
        }, {
          "id": "000FF050-D4A2-4C8B-8123-4538D35D5441",
          "code": {
            "coding": [ {
              "system": "http://terminology.hl7.org/CodeSystem/measure-population",
              "code": "denominator-exclusion",
              "display": "Denominator Exclusion"
            } ]
          },
          "count": 1
        }, {
          "id": "01644D07-D9F8-403E-A66D-109ABA29BB6E",
          "code": {
            "coding": [ {
              "system": "http://terminology.hl7.org/CodeSystem/measure-population",
              "code": "numerator",
              "display": "Numerator"
            } ]
          },
          "count": 0
        } ],
        "measureScore": {
          "value": 0
        }
      } ],
      "evaluatedResource": [ {
        "reference": "Patient/75cf10f8-a7a4-4ac5-b60f-f73bfc9ae92e"
      }, {
        "reference": "Encounter/f37f8a05-3b61-423b-be96-90920bd913d3"
      }, {
        "reference": "Observation/875b988e-3b34-4269-a654-5f2154931bc6"
      }, {
        "reference": "Observation/3616d026-48e8-4aca-83df-79a65e83a4dd"
      }, {
        "reference": "Observation/92d1693f-6326-471f-8122-49a698676ba1"
      }, {
        "reference": "Coverage/aa922397-feaa-4926-98f8-c3c0cd97a2db"
      }, {
        "reference": "Organization/b0a15925-398f-40bf-952e-ab6fc17a9036"
      } ]
    },
    "request": {
      "method": "PUT",
      "url": "MeasureReport/a60b39f5-8ce6-4777-9597-e800cee15ef8"
    }
  }, {
    "fullUrl": "https://madie.cms.gov/Encounter/f37f8a05-3b61-423b-be96-90920bd913d3",
    "resource": {
      "resourceType": "Encounter",
      "id": "f37f8a05-3b61-423b-be96-90920bd913d3",
      "meta": {
        "profile": [ "http://hl7.org/fhir/us/qicore/StructureDefinition/qicore-encounter" ]
      },
      "status": "finished",
      "class": {
        "system": "http://terminology.hl7.org/CodeSystem/v3-ActCode",
        "code": "IMP",
        "display": "inpatient encounter"
      },
      "type": [ {
        "coding": [ {
          "system": "http://snomed.info/sct",
          "code": "183452005"
        } ]
      } ],
      "subject": {
        "reference": "Patient/75cf10f8-a7a4-4ac5-b60f-f73bfc9ae92e"
      },
      "period": {
        "start": "2026-09-29T08:00:00.000+00:00",
        "end": "2026-10-03T20:00:00.000+00:00"
      }
    },
    "request": {
      "method": "PUT",
      "url": "Encounter/f37f8a05-3b61-423b-be96-90920bd913d3"
    }
  }, {
    "fullUrl": "https://madie.cms.gov/Observation/92d1693f-6326-471f-8122-49a698676ba1",
    "resource": {
      "resourceType": "Observation",
      "id": "92d1693f-6326-471f-8122-49a698676ba1",
      "meta": {
        "profile": [ "http://hl7.org/fhir/us/qicore/StructureDefinition/qicore-observation-lab" ]
      },
      "status": "final",
      "category": [ {
        "coding": [ {
          "system": "http://terminology.hl7.org/CodeSystem/observation-category",
          "code": "laboratory",
          "display": "Laboratory"
        } ]
      } ],
      "code": {
        "coding": [ {
          "system": "http://loinc.org",
          "version": "2.72",
          "code": "2160-0",
          "display": "Creatinine [Mass/volume] in Serum or Plasma",
          "userSelected": true
        } ]
      },
      "subject": {
        "reference": "Patient/75cf10f8-a7a4-4ac5-b60f-f73bfc9ae92e"
      },
      "effectiveDateTime": "2026-10-01T07:35:00.000+00:00",
      "issued": "2026-10-01T08:05:00.000+00:00",
      "valueQuantity": {
        "value": 1.31,
        "unit": "mg/dL",
        "system": "http://unitsofmeasure.org",
        "code": "mg/dL"
      }
    },
    "request": {
      "method": "PUT",
      "url": "Observation/92d1693f-6326-471f-8122-49a698676ba1"
    }
  }, {
    "fullUrl": "https://madie.cms.gov/Patient/75cf10f8-a7a4-4ac5-b60f-f73bfc9ae92e",
    "resource": {
      "resourceType": "Patient",
      "id": "75cf10f8-a7a4-4ac5-b60f-f73bfc9ae92e",
      "meta": {
        "profile": [ "http://hl7.org/fhir/us/qicore/StructureDefinition/qicore-patient" ]
      },
      "text": {
        "status": "generated",
        "div": "<div xmlns=\"http://www.w3.org/1999/xhtml\"><div class=\"hapiHeaderText\">Turns 18 day of Encounter <b>DENEXPass </b></div><table class=\"hapiPropertyTable\"><tbody><tr><td>Identifier</td><td>f0eda1c9668fdacdcad3378589bf6e0a71e7dec1618f14fca4d442ec96e402b1</td></tr><tr><td>Date of birth</td><td><span>29 September 2006</span></td></tr></tbody></table></div>"
      },
      "extension": [ {
        "url": "http://hl7.org/fhir/us/core/StructureDefinition/us-core-race",
        "extension": [ {
          "url": "ombCategory",
          "valueCoding": {
            "system": "urn:oid:2.16.840.1.113883.6.238",
            "code": "1002-5",
            "display": "American Indian or Alaska Native",
            "userSelected": true
          }
        }, {
          "url": "text",
          "valueString": "American Indian or Alaska Native"
        } ]
      }, {
        "url": "http://hl7.org/fhir/us/core/StructureDefinition/us-core-ethnicity",
        "extension": [ {
          "url": "ombCategory",
          "valueCoding": {
            "system": "urn:oid:2.16.840.1.113883.6.238",
            "code": "2135-2",
            "display": "Hispanic or Latino",
            "userSelected": true
          }
        }, {
          "url": "text",
          "valueString": "Hispanic or Latino"
        } ]
      }, {
        "url": "http://hl7.org/fhir/us/core/StructureDefinition/us-core-sex",
        "valueCode": "248152002"
      } ],
      "identifier": [ {
        "type": {
          "coding": [ {
            "system": "http://terminology.hl7.org/CodeSystem/v2-0203",
            "code": "MR"
          } ]
        },
        "system": "http://bonnie-fhir.healthit.gov/",
        "value": "DENEXPass-CreatinineIncrease"
      } ],
      "active": true,
      "name": [ {
        "use": "usual",
        "family": "DENEXPass",
        "given": [ "CreatinineIncrease" ]
      } ],
      "gender": "female",
      "birthDate": "1983-10-10"
    },
    "request": {
      "method": "PUT",
      "url": "Patient/75cf10f8-a7a4-4ac5-b60f-f73bfc9ae92e"
    }
  }, {
    "fullUrl": "https://madie.cms.gov/Observation/3616d026-48e8-4aca-83df-79a65e83a4dd",
    "resource": {
      "resourceType": "Observation",
      "id": "3616d026-48e8-4aca-83df-79a65e83a4dd",
      "meta": {
        "profile": [ "http://hl7.org/fhir/us/qicore/StructureDefinition/qicore-observation-lab" ]
      },
      "status": "final",
      "category": [ {
        "coding": [ {
          "system": "http://terminology.hl7.org/CodeSystem/observation-category",
          "code": "laboratory",
          "display": "Laboratory"
        } ]
      } ],
      "code": {
        "coding": [ {
          "system": "http://loinc.org",
          "code": "2160-0",
          "display": "Creatinine [Mass/volume] in Serum or Plasma"
        } ]
      },
      "subject": {
        "reference": "Patient/75cf10f8-a7a4-4ac5-b60f-f73bfc9ae92e"
      },
      "effectiveDateTime": "2026-09-30T07:00:00.000+00:00",
      "issued": "2026-09-30T07:30:00.000+00:00",
      "valueQuantity": {
        "value": 0.9,
        "unit": "mg/dL",
        "system": "http://unitsofmeasure.org",
        "code": "mg/dL"
      }
    },
    "request": {
      "method": "PUT",
      "url": "Observation/3616d026-48e8-4aca-83df-79a65e83a4dd"
    }
  }, {
    "fullUrl": "https://madie.cms.gov/Coverage/aa922397-feaa-4926-98f8-c3c0cd97a2db",
    "resource": {
      "resourceType": "Coverage",
      "id": "aa922397-feaa-4926-98f8-c3c0cd97a2db",
      "meta": {
        "profile": [ "http://hl7.org/fhir/us/qicore/StructureDefinition/qicore-coverage" ]
      },
      "status": "active",
      "type": {
        "coding": [ {
          "system": "https://nahdo.org/sopt",
          "version": "9.2",
          "code": "211",
          "display": "Medicaid HMO"
        } ]
      },
      "beneficiary": {
        "reference": "Patient/75cf10f8-a7a4-4ac5-b60f-f73bfc9ae92e"
      },
      "period": {
        "start": "2024-12-01T00:00:00.000+00:00"
      },
      "payor": [ {
        "reference": "Organization/b0a15925-398f-40bf-952e-ab6fc17a9036"
      } ]
    },
    "request": {
      "method": "PUT",
      "url": "Coverage/aa922397-feaa-4926-98f8-c3c0cd97a2db"
    }
  }, {
    "fullUrl": "https://madie.cms.gov/Organization/b0a15925-398f-40bf-952e-ab6fc17a9036",
    "resource": {
      "resourceType": "Organization",
      "id": "b0a15925-398f-40bf-952e-ab6fc17a9036",
      "meta": {
        "profile": [ "http://hl7.org/fhir/us/qicore/StructureDefinition/qicore-organization" ]
      },
      "identifier": [ {
        "use": "temp",
        "system": "urn:oid:2.16.840.1.113883.4.4",
        "value": "21-3259825"
      } ],
      "active": true,
      "type": [ {
        "coding": [ {
          "system": "http://terminology.hl7.org/CodeSystem/organization-type",
          "code": "pay",
          "display": "Payer"
        } ]
      } ],
      "name": "Blue Cross Blue Shield of Texas",
      "telecom": [ {
        "system": "phone",
        "value": "(+1) 972-766-6900"
      } ],
      "address": [ {
        "use": "billing",
        "type": "postal",
        "line": [ "P.O. Box 660044" ],
        "city": "Dallas",
        "state": "TX",
        "postalCode": "75266-0044",
        "country": "USA"
      } ]
    },
    "request": {
      "method": "PUT",
      "url": "Organization/b0a15925-398f-40bf-952e-ab6fc17a9036"
    }
  }, {
    "fullUrl": "https://madie.cms.gov/Observation/875b988e-3b34-4269-a654-5f2154931bc6",
    "resource": {
      "resourceType": "Observation",
      "id": "875b988e-3b34-4269-a654-5f2154931bc6",
      "meta": {
        "profile": [ "http://hl7.org/fhir/us/qicore/StructureDefinition/qicore-observation-lab" ]
      },
      "status": "final",
      "category": [ {
        "coding": [ {
          "system": "http://terminology.hl7.org/CodeSystem/observation-category",
          "code": "laboratory",
          "display": "Laboratory"
        } ]
      } ],
      "code": {
        "coding": [ {
          "system": "http://loinc.org",
          "version": "2.72",
          "code": "2160-0",
          "display": "Creatinine [Mass/volume] in Serum or Plasma",
          "userSelected": true
        } ]
      },
      "subject": {
        "reference": "Patient/75cf10f8-a7a4-4ac5-b60f-f73bfc9ae92e"
      },
      "effectiveDateTime": "2026-10-01T08:01:00.000+00:00",
      "issued": "2026-10-01T08:31:00.000+00:00",
      "valueQuantity": {
        "value": 0.9,
        "unit": "mg/dL",
        "system": "http://unitsofmeasure.org",
        "code": "mg/dL"
      }
    },
    "request": {
      "method": "PUT",
      "url": "Observation/875b988e-3b34-4269-a654-5f2154931bc6"
    }
  }, {
    "fullUrl": "https://madie.cms.gov/MeasureReport/9b737810-bd3d-4a24-bd96-51154fd040af",
    "resource": {
      "resourceType": "MeasureReport",
      "id": "9b737810-bd3d-4a24-bd96-51154fd040af",
      "meta": {
        "profile": [ "http://hl7.org/fhir/us/cqfmeasures/StructureDefinition/test-case-cqfm" ]
      },
      "contained": [ {
        "resourceType": "Parameters",
        "id": "c7814d64-34f1-4e7c-8730-632c0a5e0ad9-parameters",
        "parameter": [ {
          "name": "subject",
          "valueString": "75cf10f8-a7a4-4ac5-b60f-f73bfc9ae92e"
        } ]
      } ],
      "extension": [ {
        "url": "http://hl7.org/fhir/StructureDefinition/cqf-inputParameters",
        "valueReference": {
          "reference": "#c7814d64-34f1-4e7c-8730-632c0a5e0ad9-parameters"
        }
      }, {
        "url": "http://hl7.org/fhir/us/cqfmeasures/StructureDefinition/cqfm-testCaseDescription",
        "valueMarkdown": "IP Encounter with 0.4mg/dL increase in SCr. Meets Exclusion - must be at least a 0.3 increase. \nVScode: Denominator Exclusion=[Encounter(id=DENEXPass-CreatinineIncrease0.4mg-01)]\nMADiE highlight issue special characters even in titles"
      } ],
      "modifierExtension": [ {
        "url": "http://hl7.org/fhir/us/cqfmeasures/StructureDefinition/cqfm-isTestCase",
        "valueBoolean": true
      } ],
      "status": "complete",
      "type": "individual",
      "measure": "https://madie.cms.gov/Measure/CMS832FHIRHHAKI",
      "period": {
        "start": "2026-01-01",
        "end": "2026-12-31"
      },
      "group": [ {
        "id": "Group_1",
        "population": [ {
          "id": "InitialPopulation_1",
          "code": {
            "coding": [ {
              "system": "http://terminology.hl7.org/CodeSystem/measure-population",
              "code": "initial-population",
              "display": "Initial Population"
            } ]
          },
          "count": 1
        }, {
          "id": "Denominator_1",
          "code": {
            "coding": [ {
              "system": "http://terminology.hl7.org/CodeSystem/measure-population",
              "code": "denominator",
              "display": "Denominator"
            } ]
          },
          "count": 1
        }, {
          "id": "DenominatorExclusion_1",
          "code": {
            "coding": [ {
              "system": "http://terminology.hl7.org/CodeSystem/measure-population",
              "code": "denominator-exclusion",
              "display": "Denominator Exclusion"
            } ]
          },
          "count": 1
        }, {
          "id": "Numerator_1",
          "code": {
            "coding": [ {
              "system": "http://terminology.hl7.org/CodeSystem/measure-population",
              "code": "numerator",
              "display": "Numerator"
            } ]
          },
          "count": 0
        } ],
        "measureScore": {
          "value": 0.0
        }
      } ],
      "evaluatedResource": [ {
        "reference": "MeasureReport/a60b39f5-8ce6-4777-9597-e800cee15ef8"
      }, {
        "reference": "Encounter/f37f8a05-3b61-423b-be96-90920bd913d3"
      }, {
        "reference": "Observation/92d1693f-6326-471f-8122-49a698676ba1"
      }, {
        "reference": "Patient/75cf10f8-a7a4-4ac5-b60f-f73bfc9ae92e"
      }, {
        "reference": "Observation/3616d026-48e8-4aca-83df-79a65e83a4dd"
      }, {
        "reference": "Coverage/aa922397-feaa-4926-98f8-c3c0cd97a2db"
      }, {
        "reference": "Organization/b0a15925-398f-40bf-952e-ab6fc17a9036"
      }, {
        "reference": "Observation/875b988e-3b34-4269-a654-5f2154931bc6"
      } ]
    },
    "request": {
      "method": "PUT",
      "url": "MeasureReport/9b737810-bd3d-4a24-bd96-51154fd040af"
    }
  } ]
}