{
  "resourceType": "Bundle",
  "id": "NUMERFail-SBP140DBP89DuringMP",
  "type": "transaction",
  "entry": [ {
    "fullUrl": "https://madie.cms.gov/Patient/bff7264b-35fc-402b-8a15-22c78e227064",
    "resource": {
      "resourceType": "Patient",
      "id": "bff7264b-35fc-402b-8a15-22c78e227064",
      "meta": {
        "profile": [ "http://hl7.org/fhir/us/qicore/StructureDefinition/qicore-patient" ]
      },
      "extension": [ {
        "url": "http://hl7.org/fhir/us/core/StructureDefinition/us-core-race",
        "extension": [ {
          "url": "ombCategory",
          "valueCoding": {
            "system": "urn:oid:2.16.840.1.113883.6.238",
            "code": "2028-9",
            "display": "Asian"
          }
        }, {
          "url": "text",
          "valueString": "Asian"
        } ]
      }, {
        "url": "http://hl7.org/fhir/us/core/StructureDefinition/us-core-ethnicity",
        "extension": [ {
          "url": "ombCategory",
          "valueCoding": {
            "system": "urn:oid:2.16.840.1.113883.6.238",
            "code": "2135-2",
            "display": "Hispanic or Latino"
          }
        }, {
          "url": "text",
          "valueString": "Hispanic or Latino"
        } ]
      } ],
      "identifier": [ {
        "system": "http://hospital.smarthealthit.org",
        "value": "999999995"
      } ],
      "name": [ {
        "family": "NUMERFail",
        "given": [ "SBP140DBP89DuringMP" ]
      } ],
      "gender": "female",
      "birthDate": "2007-12-31"
    },
    "request": {
      "method": "PUT",
      "url": "Patient/bff7264b-35fc-402b-8a15-22c78e227064"
    }
  }, {
    "fullUrl": "https://madie.cms.gov/Encounter/81f42cd5-3e7d-4f1f-9adc-3f446f6d4a1d",
    "resource": {
      "resourceType": "Encounter",
      "id": "81f42cd5-3e7d-4f1f-9adc-3f446f6d4a1d",
      "meta": {
        "profile": [ "http://hl7.org/fhir/us/qicore/StructureDefinition/qicore-encounter" ]
      },
      "status": "finished",
      "class": {
        "system": "http://terminology.hl7.org/CodeSystem/v3-ActCode",
        "code": "AMB",
        "display": "ambulatory"
      },
      "type": [ {
        "coding": [ {
          "system": "http://snomed.info/sct",
          "code": "3391000175108",
          "display": "Office visit for pediatric care and assessment (procedure)"
        } ]
      } ],
      "subject": {
        "reference": "Patient/bff7264b-35fc-402b-8a15-22c78e227064"
      },
      "period": {
        "start": "2026-01-01T00:00:00.000+00:00",
        "end": "2026-01-01T01:00:00.000+00:00"
      }
    },
    "request": {
      "method": "PUT",
      "url": "Encounter/81f42cd5-3e7d-4f1f-9adc-3f446f6d4a1d"
    }
  }, {
    "fullUrl": "https://madie.cms.gov/Condition/c4cc817b-2630-426e-a0b3-f89e82aa92c5",
    "resource": {
      "resourceType": "Condition",
      "id": "c4cc817b-2630-426e-a0b3-f89e82aa92c5",
      "meta": {
        "profile": [ "http://hl7.org/fhir/us/qicore/StructureDefinition/qicore-condition-encounter-diagnosis" ]
      },
      "clinicalStatus": {
        "coding": [ {
          "system": "http://terminology.hl7.org/CodeSystem/condition-clinical",
          "code": "active"
        } ]
      },
      "category": [ {
        "coding": [ {
          "system": "http://terminology.hl7.org/CodeSystem/condition-category",
          "code": "encounter-diagnosis",
          "display": "Encounter Diagnosis"
        } ]
      } ],
      "code": {
        "coding": [ {
          "system": "http://snomed.info/sct",
          "code": "371125006",
          "display": "Labile essential hypertension (disorder)"
        } ]
      },
      "subject": {
        "reference": "Patient/bff7264b-35fc-402b-8a15-22c78e227064"
      },
      "onsetDateTime": "2026-06-30T23:59:59.000+00:00"
    },
    "request": {
      "method": "PUT",
      "url": "Condition/c4cc817b-2630-426e-a0b3-f89e82aa92c5"
    }
  }, {
    "fullUrl": "https://madie.cms.gov/Observation/806ea9c7-60bb-4b30-b334-4de3b2ea6b89",
    "resource": {
      "resourceType": "Observation",
      "id": "806ea9c7-60bb-4b30-b334-4de3b2ea6b89",
      "meta": {
        "profile": [ "http://hl7.org/fhir/us/core/StructureDefinition/us-core-blood-pressure" ]
      },
      "status": "final",
      "category": [ {
        "coding": [ {
          "system": "http://terminology.hl7.org/CodeSystem/observation-category",
          "code": "vital-signs",
          "display": "Vital Signs"
        } ],
        "text": "Vital Signs"
      } ],
      "code": {
        "coding": [ {
          "system": "http://loinc.org",
          "code": "85354-9",
          "display": "Blood pressure panel with all children optional"
        } ]
      },
      "subject": {
        "reference": "Patient/bff7264b-35fc-402b-8a15-22c78e227064"
      },
      "encounter": {
        "reference": "Encounter/81f42cd5-3e7d-4f1f-9adc-3f446f6d4a1d-1"
      },
      "effectiveDateTime": "2026-01-01T00:00:00.000+00:00",
      "component": [ {
        "code": {
          "coding": [ {
            "system": "http://loinc.org",
            "code": "8480-6",
            "display": "Systolic blood pressure"
          } ]
        },
        "valueQuantity": {
          "value": 140,
          "unit": "mmHg",
          "system": "http://unitsofmeasure.org",
          "code": "mm[Hg]"
        }
      }, {
        "code": {
          "coding": [ {
            "system": "http://loinc.org",
            "code": "8462-4",
            "display": "Diastolic blood pressure"
          } ]
        },
        "valueQuantity": {
          "value": 89,
          "unit": "mmHg",
          "system": "http://unitsofmeasure.org",
          "code": "mm[Hg]"
        }
      } ]
    },
    "request": {
      "method": "PUT",
      "url": "Observation/806ea9c7-60bb-4b30-b334-4de3b2ea6b89"
    }
  }, {
    "fullUrl": "https://madie.cms.gov/Encounter/81f42cd5-3e7d-4f1f-9adc-3f446f6d4a1d-1",
    "resource": {
      "resourceType": "Encounter",
      "id": "81f42cd5-3e7d-4f1f-9adc-3f446f6d4a1d-1",
      "meta": {
        "profile": [ "http://hl7.org/fhir/us/qicore/StructureDefinition/qicore-encounter" ]
      },
      "status": "finished",
      "class": {
        "system": "http://terminology.hl7.org/CodeSystem/v3-ActCode",
        "code": "AMB",
        "display": "ambulatory"
      },
      "type": [ {
        "coding": [ {
          "system": "http://snomed.info/sct",
          "code": "3391000175108",
          "display": "Office visit for pediatric care and assessment (procedure)"
        } ]
      } ],
      "subject": {
        "reference": "Patient/bff7264b-35fc-402b-8a15-22c78e227064"
      },
      "period": {
        "start": "2026-01-01T00:00:00.000+00:00",
        "end": "2026-01-01T01:00:00.000+00:00"
      }
    },
    "request": {
      "method": "PUT",
      "url": "Encounter/81f42cd5-3e7d-4f1f-9adc-3f446f6d4a1d-1"
    }
  }, {
    "fullUrl": "https://madie.cms.gov/MeasureReport/70a6dfe9-450a-471c-a8a8-73e14443e71b",
    "resource": {
      "resourceType": "MeasureReport",
      "id": "70a6dfe9-450a-471c-a8a8-73e14443e71b",
      "meta": {
        "profile": [ "http://hl7.org/fhir/us/cqfmeasures/StructureDefinition/test-case-cqfm" ]
      },
      "contained": [ {
        "resourceType": "Parameters",
        "id": "be6aa0fe-8bb6-44df-a4c7-2638340f873d-parameters",
        "parameter": [ {
          "name": "subject",
          "valueString": "bff7264b-35fc-402b-8a15-22c78e227064"
        } ]
      } ],
      "extension": [ {
        "url": "http://hl7.org/fhir/StructureDefinition/cqf-inputParameters",
        "valueReference": {
          "reference": "#be6aa0fe-8bb6-44df-a4c7-2638340f873d-parameters"
        }
      }, {
        "url": "http://hl7.org/fhir/us/cqfmeasures/StructureDefinition/cqfm-testCaseDescription",
        "valueMarkdown": "BP 140/89 during MP"
      } ],
      "modifierExtension": [ {
        "url": "http://hl7.org/fhir/us/cqfmeasures/StructureDefinition/cqfm-isTestCase",
        "valueBoolean": true
      } ],
      "status": "complete",
      "type": "individual",
      "measure": "https://madie.cms.gov/Measure/CMS165FHIRControllingHighBP",
      "period": {
        "start": "2026-01-01",
        "end": "2026-12-31"
      },
      "group": [ {
        "id": "Group_1",
        "population": [ {
          "id": "InitialPopulation_1",
          "code": {
            "coding": [ {
              "system": "http://terminology.hl7.org/CodeSystem/measure-population",
              "code": "initial-population",
              "display": "Initial Population"
            } ]
          },
          "count": 1
        }, {
          "id": "Denominator_1",
          "code": {
            "coding": [ {
              "system": "http://terminology.hl7.org/CodeSystem/measure-population",
              "code": "denominator",
              "display": "Denominator"
            } ]
          },
          "count": 1
        }, {
          "id": "DenominatorExclusion_1",
          "code": {
            "coding": [ {
              "system": "http://terminology.hl7.org/CodeSystem/measure-population",
              "code": "denominator-exclusion",
              "display": "Denominator Exclusion"
            } ]
          },
          "count": 0
        }, {
          "id": "Numerator_1",
          "code": {
            "coding": [ {
              "system": "http://terminology.hl7.org/CodeSystem/measure-population",
              "code": "numerator",
              "display": "Numerator"
            } ]
          },
          "count": 0
        } ],
        "measureScore": {
          "value": 1.0
        }
      } ],
      "evaluatedResource": [ {
        "reference": "Patient/bff7264b-35fc-402b-8a15-22c78e227064"
      }, {
        "reference": "Encounter/81f42cd5-3e7d-4f1f-9adc-3f446f6d4a1d"
      }, {
        "reference": "Condition/c4cc817b-2630-426e-a0b3-f89e82aa92c5"
      }, {
        "reference": "Observation/806ea9c7-60bb-4b30-b334-4de3b2ea6b89"
      }, {
        "reference": "Encounter/81f42cd5-3e7d-4f1f-9adc-3f446f6d4a1d-1"
      } ]
    },
    "request": {
      "method": "PUT",
      "url": "MeasureReport/70a6dfe9-450a-471c-a8a8-73e14443e71b"
    }
  } ]
}