{
  "resourceType": "Bundle",
  "id": "NUMPass-RetinalExamDec31OfMPRetinoDxDec31B4MP",
  "type": "transaction",
  "entry": [ {
    "fullUrl": "https://madie.cms.gov/Patient/52d1f4f3-14a0-4eed-a0c2-334b8146b117",
    "resource": {
      "resourceType": "Patient",
      "id": "52d1f4f3-14a0-4eed-a0c2-334b8146b117",
      "meta": {
        "profile": [ "http://hl7.org/fhir/us/qicore/StructureDefinition/qicore-patient" ]
      },
      "extension": [ {
        "url": "http://hl7.org/fhir/us/core/StructureDefinition/us-core-race",
        "extension": [ {
          "url": "ombCategory",
          "valueCoding": {
            "system": "urn:oid:2.16.840.1.113883.6.238",
            "code": "2028-9",
            "display": "Asian",
            "userSelected": true
          }
        }, {
          "url": "text",
          "valueString": "Asian"
        } ]
      }, {
        "url": "http://hl7.org/fhir/us/core/StructureDefinition/us-core-ethnicity",
        "extension": [ {
          "url": "ombCategory",
          "valueCoding": {
            "system": "urn:oid:2.16.840.1.113883.6.238",
            "code": "2135-2",
            "display": "Hispanic or Latino",
            "userSelected": true
          }
        }, {
          "url": "text",
          "valueString": "Hispanic or Latino"
        } ]
      } ],
      "identifier": [ {
        "type": {
          "coding": [ {
            "system": "http://terminology.hl7.org/CodeSystem/v2-0203",
            "code": "MR"
          } ]
        },
        "system": "http://hospital.smarthealthit.org",
        "value": "999999995"
      } ],
      "name": [ {
        "family": "Bertha",
        "given": [ "Betty" ]
      } ],
      "gender": "female",
      "birthDate": "2008-12-31"
    },
    "request": {
      "method": "PUT",
      "url": "Patient/52d1f4f3-14a0-4eed-a0c2-334b8146b117"
    }
  }, {
    "fullUrl": "https://madie.cms.gov/Encounter/ebc3e5ee-31f3-414d-b281-2b5c5a97197a",
    "resource": {
      "resourceType": "Encounter",
      "id": "ebc3e5ee-31f3-414d-b281-2b5c5a97197a",
      "meta": {
        "profile": [ "http://hl7.org/fhir/us/qicore/StructureDefinition/qicore-encounter" ]
      },
      "status": "finished",
      "class": {
        "system": "http://terminology.hl7.org/CodeSystem/v3-ActCode",
        "code": "AMB",
        "display": "ambulatory"
      },
      "type": [ {
        "coding": [ {
          "system": "http://snomed.info/sct",
          "code": "185463005",
          "display": "Visit out of hours (procedure)"
        } ]
      } ],
      "subject": {
        "reference": "Patient/52d1f4f3-14a0-4eed-a0c2-334b8146b117"
      },
      "period": {
        "start": "2026-01-01T00:00:00.000+00:00",
        "end": "2026-01-01T00:00:00.000+00:00"
      }
    },
    "request": {
      "method": "PUT",
      "url": "Encounter/ebc3e5ee-31f3-414d-b281-2b5c5a97197a"
    }
  }, {
    "fullUrl": "https://madie.cms.gov/Condition/f39b46a9-a2f9-404b-b7f5-15d25213176c",
    "resource": {
      "resourceType": "Condition",
      "id": "f39b46a9-a2f9-404b-b7f5-15d25213176c",
      "meta": {
        "profile": [ "http://hl7.org/fhir/us/qicore/StructureDefinition/qicore-condition-encounter-diagnosis" ]
      },
      "clinicalStatus": {
        "coding": [ {
          "system": "http://terminology.hl7.org/CodeSystem/condition-clinical",
          "code": "active"
        } ]
      },
      "category": [ {
        "coding": [ {
          "system": "http://terminology.hl7.org/CodeSystem/condition-category",
          "code": "encounter-diagnosis",
          "display": "Encounter Diagnosis"
        } ]
      } ],
      "code": {
        "coding": [ {
          "system": "http://snomed.info/sct",
          "code": "102781000119107",
          "display": "Sensory neuropathy due to type 1 diabetes mellitus (disorder)"
        } ]
      },
      "subject": {
        "reference": "Patient/52d1f4f3-14a0-4eed-a0c2-334b8146b117"
      },
      "onsetDateTime": "2026-01-01T00:00:00.000+00:00"
    },
    "request": {
      "method": "PUT",
      "url": "Condition/f39b46a9-a2f9-404b-b7f5-15d25213176c"
    }
  }, {
    "fullUrl": "https://madie.cms.gov/Condition/f39b46a9-a2f9-404b-b7f5-15d25213176c.1",
    "resource": {
      "resourceType": "Condition",
      "id": "f39b46a9-a2f9-404b-b7f5-15d25213176c.1",
      "meta": {
        "profile": [ "http://hl7.org/fhir/us/qicore/StructureDefinition/qicore-condition-encounter-diagnosis" ]
      },
      "clinicalStatus": {
        "coding": [ {
          "system": "http://terminology.hl7.org/CodeSystem/condition-clinical",
          "code": "active"
        } ]
      },
      "category": [ {
        "coding": [ {
          "system": "http://terminology.hl7.org/CodeSystem/condition-category",
          "code": "encounter-diagnosis",
          "display": "Encounter Diagnosis"
        } ]
      } ],
      "code": {
        "coding": [ {
          "system": "http://snomed.info/sct",
          "code": "193349004",
          "display": "Preproliferative retinopathy due to diabetes mellitus (disorder)"
        } ]
      },
      "subject": {
        "reference": "Patient/52d1f4f3-14a0-4eed-a0c2-334b8146b117"
      },
      "onsetDateTime": "2025-12-31T23:59:59.000+00:00"
    },
    "request": {
      "method": "PUT",
      "url": "Condition/f39b46a9-a2f9-404b-b7f5-15d25213176c.1"
    }
  }, {
    "fullUrl": "https://madie.cms.gov/Observation/c481df78-845e-46e1-a888-255d2db029d1",
    "resource": {
      "resourceType": "Observation",
      "id": "c481df78-845e-46e1-a888-255d2db029d1",
      "meta": {
        "profile": [ "http://hl7.org/fhir/us/qicore/StructureDefinition-qicore-observation-clinical-result" ]
      },
      "status": "final",
      "category": [ {
        "coding": [ {
          "system": "http://terminology.hl7.org/CodeSystem/observation-category",
          "code": "exam"
        } ]
      } ],
      "code": {
        "coding": [ {
          "system": "http://snomed.info/sct",
          "code": "20067007",
          "display": "Ocular fundus photography (procedure)"
        } ]
      },
      "subject": {
        "reference": "Patient/52d1f4f3-14a0-4eed-a0c2-334b8146b117"
      },
      "effectivePeriod": {
        "start": "2026-12-30T23:59:59.000+00:00",
        "end": "2026-12-31T23:59:59.000+00:00"
      }
    },
    "request": {
      "method": "PUT",
      "url": "Observation/c481df78-845e-46e1-a888-255d2db029d1"
    }
  }, {
    "fullUrl": "https://madie.cms.gov/MeasureReport/6c178f11-c343-4b20-a0c2-24ab27e61fed",
    "resource": {
      "resourceType": "MeasureReport",
      "id": "6c178f11-c343-4b20-a0c2-24ab27e61fed",
      "meta": {
        "profile": [ "http://hl7.org/fhir/us/cqfmeasures/StructureDefinition/test-case-cqfm" ]
      },
      "contained": [ {
        "resourceType": "Parameters",
        "id": "a81bf99f-8332-43f0-b8e3-129802850e29-parameters",
        "parameter": [ {
          "name": "subject",
          "valueString": "52d1f4f3-14a0-4eed-a0c2-334b8146b117"
        } ]
      } ],
      "extension": [ {
        "url": "http://hl7.org/fhir/StructureDefinition/cqf-inputParameters",
        "valueReference": {
          "reference": "#a81bf99f-8332-43f0-b8e3-129802850e29-parameters"
        }
      }, {
        "url": "http://hl7.org/fhir/us/cqfmeasures/StructureDefinition/cqfm-testCaseDescription",
        "valueMarkdown": "Patient 18yo w/ an Office Visit Encounter, Diabetes Condition ending 1/1 during the MP, and Retinopathy Condition 1/1 of the year after the MP, with an Eye Exam Observation 1/1 of the year before the MP."
      } ],
      "modifierExtension": [ {
        "url": "http://hl7.org/fhir/us/cqfmeasures/StructureDefinition/cqfm-isTestCase",
        "valueBoolean": true
      } ],
      "status": "complete",
      "type": "individual",
      "measure": "https://madie.cms.gov/Measure/CMS131FHIRDiabetesEyeExam",
      "period": {
        "start": "2026-01-01",
        "end": "2026-12-31"
      },
      "group": [ {
        "id": "Group_1",
        "population": [ {
          "id": "InitialPopulation_1",
          "code": {
            "coding": [ {
              "system": "http://terminology.hl7.org/CodeSystem/measure-population",
              "code": "initial-population",
              "display": "Initial Population"
            } ]
          },
          "count": 1
        }, {
          "id": "Denominator_1",
          "code": {
            "coding": [ {
              "system": "http://terminology.hl7.org/CodeSystem/measure-population",
              "code": "denominator",
              "display": "Denominator"
            } ]
          },
          "count": 1
        }, {
          "id": "DenominatorExclusion_1",
          "code": {
            "coding": [ {
              "system": "http://terminology.hl7.org/CodeSystem/measure-population",
              "code": "denominator-exclusion",
              "display": "Denominator Exclusion"
            } ]
          },
          "count": 0
        }, {
          "id": "Numerator_1",
          "code": {
            "coding": [ {
              "system": "http://terminology.hl7.org/CodeSystem/measure-population",
              "code": "numerator",
              "display": "Numerator"
            } ]
          },
          "count": 0
        } ],
        "measureScore": {
          "value": 1.0
        }
      } ],
      "evaluatedResource": [ {
        "reference": "Patient/52d1f4f3-14a0-4eed-a0c2-334b8146b117"
      }, {
        "reference": "Encounter/ebc3e5ee-31f3-414d-b281-2b5c5a97197a"
      }, {
        "reference": "Condition/f39b46a9-a2f9-404b-b7f5-15d25213176c"
      }, {
        "reference": "Condition/f39b46a9-a2f9-404b-b7f5-15d25213176c.1"
      }, {
        "reference": "Observation/c481df78-845e-46e1-a888-255d2db029d1"
      } ]
    },
    "request": {
      "method": "PUT",
      "url": "MeasureReport/6c178f11-c343-4b20-a0c2-24ab27e61fed"
    }
  } ]
}