{
  "resourceType": "Bundle",
  "id": "63487c2e0968f80122540185",
  "type": "transaction",
  "entry": [ {
    "fullUrl": "https://madie.cms.gov/Patient/9453e96c-c06a-469b-ab8f-e2cc32dc684c",
    "resource": {
      "resourceType": "Patient",
      "id": "9453e96c-c06a-469b-ab8f-e2cc32dc684c",
      "meta": {
        "profile": [ "http://hl7.org/fhir/us/qicore/StructureDefinition/qicore-patient" ]
      },
      "text": {
        "status": "generated",
        "div": "<div xmlns=\"http://www.w3.org/1999/xhtml\"><div class=\"hapiHeaderText\">AssessPreTerm0RelDtTime1HourAfterDeliv<b>DENOMFail</b></div><table class=\"hapiPropertyTable\"><tbody><tr><td>Identifier</td><td>84b8753708c54db876aad59c3b5dceaad455214447efdaf1a626473420ae0ee9</td></tr><tr><td>Date of birth</td><td><span>14 February 1985</span></td></tr></tbody></table></div>"
      },
      "extension": [ {
        "url": "http://hl7.org/fhir/us/core/StructureDefinition/us-core-race",
        "extension": [ {
          "url": "ombCategory",
          "valueCoding": {
            "system": "urn:oid:2.16.840.1.113883.6.238",
            "code": "1002-5",
            "display": "American Indian or Alaska Native",
            "userSelected": true
          }
        }, {
          "url": "text",
          "valueString": "American Indian or Alaska Native"
        } ]
      }, {
        "url": "http://hl7.org/fhir/us/core/StructureDefinition/us-core-ethnicity",
        "extension": [ {
          "url": "ombCategory",
          "valueCoding": {
            "system": "urn:oid:2.16.840.1.113883.6.238",
            "code": "2135-2",
            "display": "Hispanic or Latino",
            "userSelected": true
          }
        }, {
          "url": "text",
          "valueString": "Hispanic or Latino"
        } ]
      } ],
      "identifier": [ {
        "type": {
          "coding": [ {
            "system": "http://terminology.hl7.org/CodeSystem/v2-0203",
            "code": "MR"
          } ]
        },
        "system": "https://bonnie-fhir.healthit.gov/",
        "value": "63487c2e0968f80122540185"
      } ],
      "active": true,
      "name": [ {
        "use": "usual",
        "family": "DENOMFail",
        "given": [ "AssessPreTerm0RelDtTime1HourAfterDeliv" ]
      } ],
      "gender": "female",
      "birthDate": "1998-02-14"
    },
    "request": {
      "method": "PUT",
      "url": "Patient/9453e96c-c06a-469b-ab8f-e2cc32dc684c"
    }
  }, {
    "fullUrl": "https://madie.cms.gov/Observation/2ca9f252-6e9f-491f-80b9-691a87c5d91d",
    "resource": {
      "resourceType": "Observation",
      "id": "2ca9f252-6e9f-491f-80b9-691a87c5d91d",
      "meta": {
        "profile": [ "http://hl7.org/fhir/us/qicore/StructureDefinition/qicore-simple-observation" ]
      },
      "status": "final",
      "category": [ {
        "coding": [ {
          "system": "http://terminology.hl7.org/CodeSystem/observation-category",
          "code": "exam",
          "display": "exam",
          "userSelected": true
        } ]
      } ],
      "code": {
        "coding": [ {
          "system": "http://loinc.org",
          "code": "11639-2"
        } ]
      },
      "subject": {
        "reference": "Patient/9453e96c-c06a-469b-ab8f-e2cc32dc684c"
      },
      "effectiveDateTime": "2025-09-19T09:00:00.000+00:00",
      "valueInteger": 0
    },
    "request": {
      "method": "PUT",
      "url": "Observation/2ca9f252-6e9f-491f-80b9-691a87c5d91d"
    }
  }, {
    "fullUrl": "https://madie.cms.gov/Observation/5edc673c-4eff-45c0-b297-48ac3f96990f",
    "resource": {
      "resourceType": "Observation",
      "id": "5edc673c-4eff-45c0-b297-48ac3f96990f",
      "meta": {
        "profile": [ "http://hl7.org/fhir/us/qicore/StructureDefinition/qicore-simple-observation" ]
      },
      "status": "final",
      "category": [ {
        "coding": [ {
          "system": "http://terminology.hl7.org/CodeSystem/observation-category",
          "code": "exam",
          "display": "exam",
          "userSelected": true
        } ]
      } ],
      "code": {
        "coding": [ {
          "system": "http://loinc.org",
          "code": "11884-4"
        } ]
      },
      "subject": {
        "reference": "Patient/9453e96c-c06a-469b-ab8f-e2cc32dc684c"
      },
      "effectiveDateTime": "2026-06-08T20:00:00.000+00:00",
      "valueQuantity": {
        "value": 37,
        "system": "http://unitsofmeasure.org",
        "code": "wk"
      }
    },
    "request": {
      "method": "PUT",
      "url": "Observation/5edc673c-4eff-45c0-b297-48ac3f96990f"
    }
  }, {
    "fullUrl": "https://madie.cms.gov/Observation/ca014b3b-e731-4762-8554-71b16310bd3d",
    "resource": {
      "resourceType": "Observation",
      "id": "ca014b3b-e731-4762-8554-71b16310bd3d",
      "meta": {
        "profile": [ "http://hl7.org/fhir/us/qicore/StructureDefinition/qicore-simple-observation" ]
      },
      "status": "final",
      "category": [ {
        "coding": [ {
          "system": "http://terminology.hl7.org/CodeSystem/observation-category",
          "code": "exam",
          "display": "exam",
          "userSelected": true
        } ]
      } ],
      "code": {
        "coding": [ {
          "system": "http://loinc.org",
          "code": "11637-6"
        } ]
      },
      "subject": {
        "reference": "Patient/9453e96c-c06a-469b-ab8f-e2cc32dc684c"
      },
      "effectiveDateTime": "2026-06-08T21:00:00.000+00:00",
      "valueInteger": 0
    },
    "request": {
      "method": "PUT",
      "url": "Observation/ca014b3b-e731-4762-8554-71b16310bd3d"
    }
  }, {
    "fullUrl": "https://madie.cms.gov/Observation/f1eaa574-0abc-4a9a-91a4-8dd70db9d7a6",
    "resource": {
      "resourceType": "Observation",
      "id": "f1eaa574-0abc-4a9a-91a4-8dd70db9d7a6",
      "meta": {
        "profile": [ "http://hl7.org/fhir/us/qicore/StructureDefinition/qicore-simple-observation" ]
      },
      "status": "final",
      "category": [ {
        "coding": [ {
          "system": "http://terminology.hl7.org/CodeSystem/observation-category",
          "code": "exam",
          "display": "exam",
          "userSelected": true
        } ]
      } ],
      "code": {
        "coding": [ {
          "system": "http://loinc.org",
          "code": "93857-1"
        } ]
      },
      "subject": {
        "reference": "Patient/9453e96c-c06a-469b-ab8f-e2cc32dc684c"
      },
      "effectiveDateTime": "2026-06-08T20:00:00.000+00:00",
      "valueDateTime": "2026-06-08T20:00:00.000+00:00"
    },
    "request": {
      "method": "PUT",
      "url": "Observation/f1eaa574-0abc-4a9a-91a4-8dd70db9d7a6"
    }
  }, {
    "fullUrl": "https://madie.cms.gov/Encounter/c97e2afa-9026-4405-94e4-927a7365770e",
    "resource": {
      "resourceType": "Encounter",
      "id": "c97e2afa-9026-4405-94e4-927a7365770e",
      "meta": {
        "profile": [ "http://hl7.org/fhir/us/qicore/StructureDefinition/qicore-encounter" ]
      },
      "status": "finished",
      "class": {
        "system": "http://terminology.hl7.org/CodeSystem/v3-ActCode",
        "code": "IMP",
        "display": "inpatient encounter"
      },
      "type": [ {
        "coding": [ {
          "system": "http://snomed.info/sct",
          "code": "8715000"
        } ]
      } ],
      "subject": {
        "reference": "Patient/9453e96c-c06a-469b-ab8f-e2cc32dc684c"
      },
      "period": {
        "start": "2026-06-08T08:00:00.000+00:00",
        "end": "2026-06-10T08:15:00.000+00:00"
      },
      "length": {
        "value": 2,
        "unit": "days"
      },
      "reasonReference": [ {
        "reference": "Condition/02b37ee4-8ad2-4037-9733-e1b9dfe8aa02"
      } ]
    },
    "request": {
      "method": "PUT",
      "url": "Encounter/c97e2afa-9026-4405-94e4-927a7365770e"
    }
  }, {
    "fullUrl": "https://madie.cms.gov/Procedure/34f6e4dd-0ab3-4f8e-8668-2f3a36a677cc",
    "resource": {
      "resourceType": "Procedure",
      "id": "34f6e4dd-0ab3-4f8e-8668-2f3a36a677cc",
      "meta": {
        "profile": [ "http://hl7.org/fhir/us/qicore/StructureDefinition/qicore-procedure" ]
      },
      "extension": [ {
        "url": "http://hl7.org/fhir/us/qicore/StructureDefinition/qicore-recorded",
        "valueDateTime": "2014-04-05T13:35:00.000+00:00"
      } ],
      "status": "completed",
      "code": {
        "coding": [ {
          "system": "http://www.cms.gov/Medicare/Coding/ICD10",
          "code": "10D00Z0"
        }, {
          "system": "http://snomed.info/sct",
          "code": "4504004"
        }, {
          "system": "http://www.icd10data.com/icd10pcs",
          "code": "10D00Z0",
          "userSelected": true
        } ]
      },
      "subject": {
        "reference": "Patient/9453e96c-c06a-469b-ab8f-e2cc32dc684c"
      },
      "performedPeriod": {
        "start": "2026-06-08T20:00:00.000+00:00",
        "end": "2026-06-08T20:15:00.000+00:00"
      }
    },
    "request": {
      "method": "PUT",
      "url": "Procedure/34f6e4dd-0ab3-4f8e-8668-2f3a36a677cc"
    }
  }, {
    "fullUrl": "https://madie.cms.gov/Condition/02b37ee4-8ad2-4037-9733-e1b9dfe8aa02",
    "resource": {
      "resourceType": "Condition",
      "id": "02b37ee4-8ad2-4037-9733-e1b9dfe8aa02",
      "meta": {
        "profile": [ "http://hl7.org/fhir/us/qicore/StructureDefinition/qicore-condition-encounter-diagnosis" ]
      },
      "category": [ {
        "coding": [ {
          "system": "http://terminology.hl7.org/CodeSystem/condition-category",
          "code": "encounter-diagnosis",
          "display": "Encounter Diagnosis"
        } ]
      } ],
      "code": {
        "coding": [ {
          "system": "http://snomed.info/sct",
          "version": "2022-09",
          "code": "169826009",
          "display": "Single live birth from singleton pregnancy (finding)",
          "userSelected": true
        } ]
      },
      "subject": {
        "reference": "Patient/9453e96c-c06a-469b-ab8f-e2cc32dc684c"
      },
      "recordedDate": "2026-10-21T08:00:00.000+00:00"
    },
    "request": {
      "method": "PUT",
      "url": "Condition/02b37ee4-8ad2-4037-9733-e1b9dfe8aa02"
    }
  }, {
    "fullUrl": "https://madie.cms.gov/Coverage/1a7e1ac4-2317-469e-9988-2d5849b4fab7",
    "resource": {
      "resourceType": "Coverage",
      "id": "1a7e1ac4-2317-469e-9988-2d5849b4fab7",
      "meta": {
        "profile": [ "http://hl7.org/fhir/us/qicore/StructureDefinition/qicore-coverage" ]
      },
      "status": "active",
      "subscriberId": "523435",
      "beneficiary": {
        "reference": "Patient/9453e96c-c06a-469b-ab8f-e2cc32dc684c"
      },
      "relationship": {
        "coding": [ {
          "system": "http://terminology.hl7.org/CodeSystem/subscriber-relationship",
          "code": "self"
        } ]
      },
      "payor": [ {
        "reference": "Organization/ef1f3b68-7be0-44d6-90e8-09c957eb96d9"
      } ]
    },
    "request": {
      "method": "PUT",
      "url": "Coverage/1a7e1ac4-2317-469e-9988-2d5849b4fab7"
    }
  }, {
    "fullUrl": "https://madie.cms.gov/Organization/ef1f3b68-7be0-44d6-90e8-09c957eb96d9",
    "resource": {
      "resourceType": "Organization",
      "id": "ef1f3b68-7be0-44d6-90e8-09c957eb96d9",
      "meta": {
        "profile": [ "http://hl7.org/fhir/us/qicore/StructureDefinition/qicore-organization" ]
      },
      "identifier": [ {
        "use": "temp",
        "system": "urn:oid:2.16.840.1.113883.4.4",
        "value": "21-3259825"
      } ],
      "active": true,
      "type": [ {
        "coding": [ {
          "system": "http://terminology.hl7.org/CodeSystem/organization-type",
          "code": "pay",
          "display": "Payer"
        } ]
      } ],
      "name": "Blue Cross Blue Shield of Texas",
      "telecom": [ {
        "system": "phone",
        "value": "(+1) 972-766-6900"
      } ],
      "address": [ {
        "use": "billing",
        "type": "postal",
        "line": [ "P.O. Box 660044" ],
        "city": "Dallas",
        "state": "TX",
        "postalCode": "75266-0044",
        "country": "USA"
      } ]
    },
    "request": {
      "method": "PUT",
      "url": "Organization/ef1f3b68-7be0-44d6-90e8-09c957eb96d9"
    }
  }, {
    "fullUrl": "https://madie.cms.gov/Practitioner/98bfb9d1-7bbf-4871-a843-d5115b06bc33",
    "resource": {
      "resourceType": "Practitioner",
      "id": "98bfb9d1-7bbf-4871-a843-d5115b06bc33",
      "meta": {
        "profile": [ "http://hl7.org/fhir/us/qicore/StructureDefinition/qicore-practitioner" ]
      },
      "identifier": [ {
        "system": "http://hl7.org/fhir/sid/us-npi",
        "value": "1234567890"
      } ],
      "name": [ {
        "family": "Evil",
        "prefix": [ "Dr" ]
      } ]
    },
    "request": {
      "method": "PUT",
      "url": "Practitioner/98bfb9d1-7bbf-4871-a843-d5115b06bc33"
    }
  }, {
    "fullUrl": "https://madie.cms.gov/MeasureReport/32eec0a5-c1d7-46a0-9868-9c65655069fd",
    "resource": {
      "resourceType": "MeasureReport",
      "id": "32eec0a5-c1d7-46a0-9868-9c65655069fd",
      "meta": {
        "profile": [ "http://hl7.org/fhir/us/cqfmeasures/StructureDefinition/test-case-cqfm" ]
      },
      "contained": [ {
        "resourceType": "Parameters",
        "id": "5fb37b95-c239-4c4a-b188-6111fcc8d99e-parameters",
        "parameter": [ {
          "name": "subject",
          "valueString": "9453e96c-c06a-469b-ab8f-e2cc32dc684c"
        } ]
      } ],
      "extension": [ {
        "url": "http://hl7.org/fhir/StructureDefinition/cqf-inputParameters",
        "valueReference": {
          "reference": "#5fb37b95-c239-4c4a-b188-6111fcc8d99e-parameters"
        }
      }, {
        "url": "http://hl7.org/fhir/us/cqfmeasures/StructureDefinition/cqfm-testCaseDescription",
        "valueMarkdown": "\"Term Newborn=0,  <42wks B4 Asse delivery.\nPreterm=0, rel date/time 1 hour after delivery Datetime.\nwith note of timing logic needed to constrain the rel date/time time to no later than the time of Asse delivery time, DENOM will Fail\n\"\n"
      } ],
      "modifierExtension": [ {
        "url": "http://hl7.org/fhir/us/cqfmeasures/StructureDefinition/cqfm-isTestCase",
        "valueBoolean": true
      } ],
      "status": "complete",
      "type": "individual",
      "measure": "https://madie.cms.gov/Measure/CMS0334FHIRPCCesareanBirth",
      "period": {
        "start": "2026-01-01",
        "end": "2026-12-31"
      },
      "group": [ {
        "id": "Group_1",
        "population": [ {
          "id": "InitialPopulation_1",
          "code": {
            "coding": [ {
              "system": "http://terminology.hl7.org/CodeSystem/measure-population",
              "code": "initial-population",
              "display": "Initial Population"
            } ]
          },
          "count": 1
        }, {
          "id": "Denominator_1",
          "code": {
            "coding": [ {
              "system": "http://terminology.hl7.org/CodeSystem/measure-population",
              "code": "denominator",
              "display": "Denominator"
            } ]
          },
          "count": 0
        }, {
          "id": "DenominatorExclusion_1",
          "code": {
            "coding": [ {
              "system": "http://terminology.hl7.org/CodeSystem/measure-population",
              "code": "denominator-exclusion",
              "display": "Denominator Exclusion"
            } ]
          },
          "count": 0
        }, {
          "id": "Numerator_1",
          "code": {
            "coding": [ {
              "system": "http://terminology.hl7.org/CodeSystem/measure-population",
              "code": "numerator",
              "display": "Numerator"
            } ]
          },
          "count": 0
        } ],
        "measureScore": {
          "value": 0.0
        }
      } ],
      "evaluatedResource": [ {
        "reference": "Patient/9453e96c-c06a-469b-ab8f-e2cc32dc684c"
      }, {
        "reference": "Observation/2ca9f252-6e9f-491f-80b9-691a87c5d91d"
      }, {
        "reference": "Observation/5edc673c-4eff-45c0-b297-48ac3f96990f"
      }, {
        "reference": "Observation/ca014b3b-e731-4762-8554-71b16310bd3d"
      }, {
        "reference": "Observation/f1eaa574-0abc-4a9a-91a4-8dd70db9d7a6"
      }, {
        "reference": "Encounter/c97e2afa-9026-4405-94e4-927a7365770e"
      }, {
        "reference": "Procedure/34f6e4dd-0ab3-4f8e-8668-2f3a36a677cc"
      }, {
        "reference": "Condition/02b37ee4-8ad2-4037-9733-e1b9dfe8aa02"
      }, {
        "reference": "Coverage/1a7e1ac4-2317-469e-9988-2d5849b4fab7"
      }, {
        "reference": "Organization/ef1f3b68-7be0-44d6-90e8-09c957eb96d9"
      }, {
        "reference": "Practitioner/98bfb9d1-7bbf-4871-a843-d5115b06bc33"
      } ]
    },
    "request": {
      "method": "PUT",
      "url": "MeasureReport/32eec0a5-c1d7-46a0-9868-9c65655069fd"
    }
  } ]
}