{
  "resourceType": "Bundle",
  "id": "649f402a585d003d2ac643d3",
  "type": "collection",
  "entry": [ {
    "fullUrl": "https://madie.cms.gov/Patient/3d16a3a5-a2e7-49f8-8335-1b908a646ff4",
    "resource": {
      "resourceType": "Patient",
      "id": "3d16a3a5-a2e7-49f8-8335-1b908a646ff4",
      "meta": {
        "profile": [ "http://hl7.org/fhir/us/qicore/StructureDefinition/qicore-patient" ]
      },
      "extension": [ {
        "url": "http://hl7.org/fhir/us/core/StructureDefinition/us-core-race",
        "extension": [ {
          "url": "ombCategory",
          "valueCoding": {
            "system": "urn:oid:2.16.840.1.113883.6.238",
            "code": "2054-5",
            "display": "Black or African American",
            "userSelected": true
          }
        }, {
          "url": "text",
          "valueString": "Black or African American"
        } ]
      }, {
        "url": "http://hl7.org/fhir/us/core/StructureDefinition/us-core-ethnicity",
        "extension": [ {
          "url": "ombCategory",
          "valueCoding": {
            "system": "urn:oid:2.16.840.1.113883.6.238",
            "code": "2186-5",
            "display": "Not Hispanic or Latino",
            "userSelected": true
          }
        }, {
          "url": "text",
          "valueString": "Not Hispanic or Latino"
        } ]
      }, {
        "url": "http://hl7.org/fhir/us/core/StructureDefinition/us-core-sex",
        "valueCode": "248152002"
      } ],
      "identifier": [ {
        "type": {
          "coding": [ {
            "system": "http://terminology.hl7.org/CodeSystem/v2-0203",
            "code": "MR"
          } ]
        },
        "system": "https://bonnie-fhir.healthit.gov/",
        "value": "649f402a585d003d2ac643d3"
      } ],
      "name": [ {
        "family": "NUMFail",
        "given": [ "3LabBeforeMP" ]
      } ],
      "gender": "female",
      "birthDate": "2001-02-04"
    }
  }, {
    "fullUrl": "https://madie.cms.gov/Condition/eea109d1-e9a6-4acb-9e10-feeb4c012a47",
    "resource": {
      "resourceType": "Condition",
      "id": "eea109d1-e9a6-4acb-9e10-feeb4c012a47",
      "meta": {
        "profile": [ "http://hl7.org/fhir/us/qicore/StructureDefinition/qicore-condition-problems-health-concerns" ]
      },
      "clinicalStatus": {
        "coding": [ {
          "system": "http://terminology.hl7.org/CodeSystem/condition-clinical",
          "code": "active",
          "display": "active",
          "userSelected": true
        } ]
      },
      "category": [ {
        "coding": [ {
          "system": "http://terminology.hl7.org/CodeSystem/condition-category",
          "code": "problem-list-item",
          "display": "Problem List Item"
        } ]
      } ],
      "code": {
        "coding": [ {
          "system": "http://hl7.org/fhir/sid/icd-9-cm",
          "version": "2013",
          "code": "042",
          "display": "Human immunodeficiency virus [HIV] disease",
          "userSelected": true
        }, {
          "system": "http://snomed.info/sct",
          "version": "http://snomed.info/sct/731000124108/version/20250301",
          "code": "165816005",
          "userSelected": true
        } ]
      },
      "subject": {
        "reference": "Patient/3d16a3a5-a2e7-49f8-8335-1b908a646ff4"
      },
      "onsetDateTime": "2018-09-28T08:00:00.000+00:00",
      "recordedDate": "2018-09-28T08:00:00.000+00:00"
    }
  }, {
    "fullUrl": "https://madie.cms.gov/Condition/1cb26629-6ece-4ec7-807a-9db3f16c5691",
    "resource": {
      "resourceType": "Condition",
      "id": "1cb26629-6ece-4ec7-807a-9db3f16c5691",
      "meta": {
        "profile": [ "http://hl7.org/fhir/us/qicore/StructureDefinition/qicore-condition-encounter-diagnosis" ]
      },
      "clinicalStatus": {
        "coding": [ {
          "system": "http://terminology.hl7.org/CodeSystem/condition-clinical",
          "code": "active",
          "display": "active",
          "userSelected": true
        } ]
      },
      "category": [ {
        "coding": [ {
          "system": "http://terminology.hl7.org/CodeSystem/condition-category",
          "code": "encounter-diagnosis",
          "display": "Encounter Diagnosis"
        } ]
      } ],
      "code": {
        "coding": [ {
          "system": "http://hl7.org/fhir/sid/icd-9-cm",
          "version": "2013",
          "code": "042",
          "display": "Human immunodeficiency virus [HIV] disease",
          "userSelected": true
        }, {
          "system": "http://snomed.info/sct",
          "version": "http://snomed.info/sct/731000124108/version/20250301",
          "code": "165816005",
          "userSelected": true
        } ]
      },
      "subject": {
        "reference": "Patient/3d16a3a5-a2e7-49f8-8335-1b908a646ff4"
      },
      "onsetDateTime": "2018-09-28T08:00:00.000+00:00",
      "recordedDate": "2018-09-28T08:00:00.000+00:00"
    }
  }, {
    "fullUrl": "https://madie.cms.gov/Encounter/601143f9-bf33-4fea-b76e-6aa623892c1d",
    "resource": {
      "resourceType": "Encounter",
      "id": "601143f9-bf33-4fea-b76e-6aa623892c1d",
      "meta": {
        "profile": [ "http://hl7.org/fhir/us/qicore/StructureDefinition/qicore-encounter" ]
      },
      "status": "finished",
      "class": {
        "system": "http://terminology.hl7.org/CodeSystem/v3-ActCode",
        "code": "AMB",
        "display": "ambulatory"
      },
      "type": [ {
        "coding": [ {
          "system": "http://www.ama-assn.org/go/cpt",
          "version": "2023",
          "code": "99381",
          "display": "Initial comprehensive preventive medicine evaluation and management of an individual including an age and gender appropriate history, examination, counseling/anticipatory guidance/risk factor reduction interventions, and the ordering of laboratory/diagnostic procedures, new patient; infant (age younger than 1 year)",
          "userSelected": true
        } ]
      } ],
      "subject": {
        "reference": "Patient/3d16a3a5-a2e7-49f8-8335-1b908a646ff4"
      },
      "period": {
        "start": "2026-09-28T08:00:00.000+00:00",
        "end": "2026-09-28T08:30:00.000+00:00"
      }
    }
  }, {
    "fullUrl": "https://madie.cms.gov/Observation/0ec88899-2bd4-4928-92b5-31f45071ddbc",
    "resource": {
      "resourceType": "Observation",
      "id": "0ec88899-2bd4-4928-92b5-31f45071ddbc",
      "meta": {
        "profile": [ "http://hl7.org/fhir/us/qicore/StructureDefinition/qicore-observation" ]
      },
      "status": "final",
      "category": [ {
        "coding": [ {
          "system": "http://terminology.hl7.org/CodeSystem/observation-category",
          "code": "survey"
        } ]
      } ],
      "code": {
        "coding": [ {
          "system": "http://loinc.org",
          "version": "2.73",
          "code": "11084-1",
          "display": "Reagin Ab [Titer] in Serum",
          "userSelected": true
        } ]
      },
      "subject": {
        "reference": "Patient/3d16a3a5-a2e7-49f8-8335-1b908a646ff4"
      },
      "effectiveDateTime": "2024-10-31T08:16:00.000+00:00",
      "issued": "2024-10-31T08:16:00.000+00:00",
      "valueQuantity": {
        "value": 15
      }
    }
  }, {
    "fullUrl": "https://madie.cms.gov/Observation/a71a428b-936c-43e4-b897-24b793dd6cd2",
    "resource": {
      "resourceType": "Observation",
      "id": "a71a428b-936c-43e4-b897-24b793dd6cd2",
      "meta": {
        "profile": [ "http://hl7.org/fhir/us/qicore/StructureDefinition/qicore-observation" ]
      },
      "status": "final",
      "category": [ {
        "coding": [ {
          "system": "http://terminology.hl7.org/CodeSystem/observation-category",
          "code": "survey"
        } ]
      } ],
      "code": {
        "coding": [ {
          "system": "http://loinc.org",
          "version": "2.73",
          "code": "21414-8",
          "display": "Neisseria gonorrhoeae DNA [Presence] in Cervical mucus by NAA with probe detection",
          "userSelected": true
        } ]
      },
      "subject": {
        "reference": "Patient/3d16a3a5-a2e7-49f8-8335-1b908a646ff4"
      },
      "effectiveDateTime": "2024-10-31T08:00:00.000+00:00",
      "issued": "2024-10-31T08:00:00.000+00:00",
      "valueQuantity": {
        "value": 38
      }
    }
  }, {
    "fullUrl": "https://madie.cms.gov/Observation/39861437-6bee-4620-85b0-6add99d565b4",
    "resource": {
      "resourceType": "Observation",
      "id": "39861437-6bee-4620-85b0-6add99d565b4",
      "meta": {
        "profile": [ "http://hl7.org/fhir/us/qicore/StructureDefinition/qicore-observation" ]
      },
      "status": "final",
      "category": [ {
        "coding": [ {
          "system": "http://terminology.hl7.org/CodeSystem/observation-category",
          "code": "survey"
        } ]
      } ],
      "code": {
        "coding": [ {
          "system": "http://loinc.org",
          "version": "2.73",
          "code": "14463-4",
          "display": "Chlamydia trachomatis [Presence] in Cervix by Organism specific culture",
          "userSelected": true
        } ]
      },
      "subject": {
        "reference": "Patient/3d16a3a5-a2e7-49f8-8335-1b908a646ff4"
      },
      "effectivePeriod": {
        "start": "2024-10-31T08:16:00.000+00:00",
        "end": "2024-10-31T08:17:00.000+00:00"
      },
      "issued": "2024-10-31T08:16:00.000+00:00",
      "valueQuantity": {
        "value": 22
      }
    }
  }, {
    "fullUrl": "https://madie.cms.gov/Coverage/3e80553b-a130-43b1-a9c6-77342c75c9fa",
    "resource": {
      "resourceType": "Coverage",
      "id": "3e80553b-a130-43b1-a9c6-77342c75c9fa",
      "meta": {
        "profile": [ "http://hl7.org/fhir/us/qicore/StructureDefinition/qicore-coverage" ]
      },
      "status": "active",
      "subscriberId": "123456",
      "beneficiary": {
        "reference": "Patient/3d16a3a5-a2e7-49f8-8335-1b908a646ff4"
      },
      "relationship": {
        "coding": [ {
          "system": "http://terminology.hl7.org/CodeSystem/subscriber-relationship",
          "code": "self",
          "display": "Self"
        } ]
      },
      "payor": [ {
        "reference": "Organization/cf418e03-41aa-496f-bdec-23b96515d00d"
      } ]
    }
  }, {
    "fullUrl": "https://madie.cms.gov/Organization/cf418e03-41aa-496f-bdec-23b96515d00d",
    "resource": {
      "resourceType": "Organization",
      "id": "cf418e03-41aa-496f-bdec-23b96515d00d",
      "meta": {
        "profile": [ "http://hl7.org/fhir/us/qicore/StructureDefinition/qicore-organization" ]
      },
      "identifier": [ {
        "use": "temp",
        "system": "urn:oid:2.16.840.1.113883.4.4",
        "value": "21-3259825"
      } ],
      "active": true,
      "type": [ {
        "coding": [ {
          "system": "http://terminology.hl7.org/CodeSystem/organization-type",
          "code": "pay",
          "display": "Payer"
        } ]
      } ],
      "name": "Blue Cross Blue Shield of Texas",
      "telecom": [ {
        "system": "phone",
        "value": "(+1) 972-766-6900"
      } ],
      "address": [ {
        "use": "billing",
        "type": "postal",
        "line": [ "P.O. Box 660044" ],
        "city": "Dallas",
        "state": "TX",
        "postalCode": "75266-0044",
        "country": "USA"
      } ]
    }
  }, {
    "fullUrl": "https://madie.cms.gov/Practitioner/fc4be429-630c-49d4-8309-2d24202f73e0",
    "resource": {
      "resourceType": "Practitioner",
      "id": "fc4be429-630c-49d4-8309-2d24202f73e0",
      "meta": {
        "profile": [ "http://hl7.org/fhir/us/qicore/StructureDefinition/qicore-practitioner" ]
      },
      "identifier": [ {
        "system": "http://hl7.org/fhir/sid/us-npi",
        "value": "1689411712"
      } ],
      "name": [ {
        "family": "Evil",
        "prefix": [ "Dr" ]
      } ]
    }
  }, {
    "fullUrl": "https://madie.cms.gov/MeasureReport/4aaac9c9-e26e-4b23-bfcb-eaf70e0fbbfa",
    "resource": {
      "resourceType": "MeasureReport",
      "id": "4aaac9c9-e26e-4b23-bfcb-eaf70e0fbbfa",
      "meta": {
        "profile": [ "http://hl7.org/fhir/us/cqfmeasures/StructureDefinition/test-case-cqfm" ]
      },
      "contained": [ {
        "resourceType": "Parameters",
        "id": "2a9ecec9-b16d-466e-84f2-3e0e90300be8-parameters",
        "parameter": [ {
          "name": "subject",
          "valueString": "3d16a3a5-a2e7-49f8-8335-1b908a646ff4"
        } ]
      } ],
      "extension": [ {
        "url": "http://hl7.org/fhir/StructureDefinition/cqf-inputParameters",
        "valueReference": {
          "reference": "#2a9ecec9-b16d-466e-84f2-3e0e90300be8-parameters"
        }
      }, {
        "url": "http://hl7.org/fhir/us/cqfmeasures/StructureDefinition/cqfm-testCaseDescription",
        "valueMarkdown": "Patient is over 13 years old with an encounter - 3 STI screen before MP, 0 STI screen during MP"
      } ],
      "modifierExtension": [ {
        "url": "http://hl7.org/fhir/us/cqfmeasures/StructureDefinition/cqfm-isTestCase",
        "valueBoolean": true
      } ],
      "status": "complete",
      "type": "individual",
      "measure": "https://madie.cms.gov/Measure/CMS1188FHIRHIVSTITesting",
      "period": {
        "start": "2026-01-01",
        "end": "2026-12-31"
      },
      "group": [ {
        "id": "Group_1",
        "population": [ {
          "id": "InitialPopulation_1",
          "code": {
            "coding": [ {
              "system": "http://terminology.hl7.org/CodeSystem/measure-population",
              "code": "initial-population",
              "display": "Initial Population"
            } ]
          },
          "count": 1
        }, {
          "id": "Denominator_1",
          "code": {
            "coding": [ {
              "system": "http://terminology.hl7.org/CodeSystem/measure-population",
              "code": "denominator",
              "display": "Denominator"
            } ]
          },
          "count": 1
        }, {
          "id": "Numerator_1",
          "code": {
            "coding": [ {
              "system": "http://terminology.hl7.org/CodeSystem/measure-population",
              "code": "numerator",
              "display": "Numerator"
            } ]
          },
          "count": 0
        } ],
        "measureScore": {
          "value": 1.0
        }
      } ],
      "evaluatedResource": [ {
        "reference": "Patient/3d16a3a5-a2e7-49f8-8335-1b908a646ff4"
      }, {
        "reference": "Condition/eea109d1-e9a6-4acb-9e10-feeb4c012a47"
      }, {
        "reference": "Condition/1cb26629-6ece-4ec7-807a-9db3f16c5691"
      }, {
        "reference": "Encounter/601143f9-bf33-4fea-b76e-6aa623892c1d"
      }, {
        "reference": "Observation/0ec88899-2bd4-4928-92b5-31f45071ddbc"
      }, {
        "reference": "Observation/a71a428b-936c-43e4-b897-24b793dd6cd2"
      }, {
        "reference": "Observation/39861437-6bee-4620-85b0-6add99d565b4"
      }, {
        "reference": "Coverage/3e80553b-a130-43b1-a9c6-77342c75c9fa"
      }, {
        "reference": "Organization/cf418e03-41aa-496f-bdec-23b96515d00d"
      }, {
        "reference": "Practitioner/fc4be429-630c-49d4-8309-2d24202f73e0"
      } ]
    }
  } ]
}