{
  "resourceType": "Bundle",
  "id": "6419de119c0269a68225bb45",
  "type": "transaction",
  "entry": [ {
    "fullUrl": "https://madie.cms.gov/Patient/00845eb5-a7ef-4edd-a566-813ed3ca749a",
    "resource": {
      "resourceType": "Patient",
      "id": "00845eb5-a7ef-4edd-a566-813ed3ca749a",
      "meta": {
        "profile": [ "http://hl7.org/fhir/us/qicore/StructureDefinition/qicore-patient" ]
      },
      "extension": [ {
        "url": "http://hl7.org/fhir/us/core/StructureDefinition/us-core-race",
        "extension": [ {
          "url": "ombCategory",
          "valueCoding": {
            "system": "urn:oid:2.16.840.1.113883.6.238",
            "code": "2076-8",
            "display": "Native Hawaiian or Other Pacific Islander",
            "userSelected": true
          }
        }, {
          "url": "text",
          "valueString": "Native Hawaiian or Other Pacific Islander"
        } ]
      }, {
        "url": "http://hl7.org/fhir/us/core/StructureDefinition/us-core-ethnicity",
        "extension": [ {
          "url": "ombCategory",
          "valueCoding": {
            "system": "urn:oid:2.16.840.1.113883.6.238",
            "code": "2186-5",
            "display": "Not Hispanic or Latino",
            "userSelected": true
          }
        }, {
          "url": "text",
          "valueString": "Not Hispanic or Latino"
        } ]
      }, {
        "url": "http://hl7.org/fhir/us/core/StructureDefinition/us-core-sex",
        "valueCode": "248152002"
      } ],
      "identifier": [ {
        "type": {
          "coding": [ {
            "system": "http://terminology.hl7.org/CodeSystem/v2-0203",
            "code": "MR"
          } ]
        },
        "system": "https://bonnie-fhir.healthit.gov/",
        "value": "6419de119c0269a68225bb45"
      } ],
      "name": [ {
        "family": "DenExcl4Fail",
        "given": [ "DxStartsDuringEDNoEnd" ]
      } ],
      "gender": "female",
      "birthDate": "1985-12-02"
    },
    "request": {
      "method": "PUT",
      "url": "Patient/00845eb5-a7ef-4edd-a566-813ed3ca749a"
    }
  }, {
    "fullUrl": "https://madie.cms.gov/Encounter/eeff48b2-48d0-407a-aee5-517f92204e0b",
    "resource": {
      "resourceType": "Encounter",
      "id": "eeff48b2-48d0-407a-aee5-517f92204e0b",
      "meta": {
        "profile": [ "http://hl7.org/fhir/us/qicore/StructureDefinition/qicore-encounter" ]
      },
      "status": "finished",
      "class": {
        "system": "http://terminology.hl7.org/CodeSystem/v3-ActCode",
        "code": "EMER",
        "display": "emergency",
        "userSelected": true
      },
      "type": [ {
        "coding": [ {
          "system": "http://snomed.info/sct",
          "version": "2020-09",
          "code": "4525004",
          "display": "Emergency department patient visit (procedure)",
          "userSelected": true
        } ]
      } ],
      "subject": {
        "reference": "Patient/00845eb5-a7ef-4edd-a566-813ed3ca749a"
      },
      "period": {
        "start": "2026-10-09T08:05:00.000+00:00",
        "end": "2026-10-10T07:15:00.000+00:00"
      },
      "reasonCode": [ {
        "coding": [ {
          "system": "http://snomed.info/sct",
          "version": "2020-09",
          "code": "703253007",
          "display": "Acute ST segment elevation myocardial infarction of inferior wall involving right ventricle (disorder)",
          "userSelected": true
        } ]
      } ]
    },
    "request": {
      "method": "PUT",
      "url": "Encounter/eeff48b2-48d0-407a-aee5-517f92204e0b"
    }
  }, {
    "fullUrl": "https://madie.cms.gov/Condition/db454638-f38e-4312-a587-97d9a70e5f5c",
    "resource": {
      "resourceType": "Condition",
      "id": "db454638-f38e-4312-a587-97d9a70e5f5c",
      "meta": {
        "profile": [ "http://hl7.org/fhir/us/qicore/StructureDefinition/qicore-condition-problems-health-concerns" ]
      },
      "clinicalStatus": {
        "coding": [ {
          "system": "http://terminology.hl7.org/CodeSystem/condition-clinical",
          "code": "active",
          "display": "active",
          "userSelected": true
        } ]
      },
      "verificationStatus": {
        "coding": [ {
          "system": "http://terminology.hl7.org/CodeSystem/condition-ver-status",
          "code": "confirmed",
          "display": "Confirmed",
          "userSelected": true
        } ]
      },
      "category": [ {
        "coding": [ {
          "system": "http://terminology.hl7.org/CodeSystem/condition-category",
          "code": "problem-list-item",
          "display": "Problem List Item",
          "userSelected": true
        } ]
      } ],
      "code": {
        "coding": [ {
          "system": "http://snomed.info/sct",
          "version": "2020-09",
          "code": "401303003",
          "display": "Acute ST segment elevation myocardial infarction (disorder)",
          "userSelected": true
        } ]
      },
      "subject": {
        "reference": "Patient/00845eb5-a7ef-4edd-a566-813ed3ca749a"
      },
      "onsetDateTime": "2026-10-09T08:30:00.000+00:00"
    },
    "request": {
      "method": "PUT",
      "url": "Condition/db454638-f38e-4312-a587-97d9a70e5f5c"
    }
  }, {
    "fullUrl": "https://madie.cms.gov/Condition/f373edc5-896d-4b18-ad50-9b04daf48bb4",
    "resource": {
      "resourceType": "Condition",
      "id": "f373edc5-896d-4b18-ad50-9b04daf48bb4",
      "meta": {
        "profile": [ "http://hl7.org/fhir/us/qicore/StructureDefinition/qicore-condition-problems-health-concerns" ]
      },
      "clinicalStatus": {
        "coding": [ {
          "system": "http://terminology.hl7.org/CodeSystem/condition-clinical",
          "code": "active",
          "display": "Active",
          "userSelected": true
        } ]
      },
      "verificationStatus": {
        "coding": [ {
          "system": "http://terminology.hl7.org/CodeSystem/condition-ver-status",
          "code": "confirmed",
          "display": "Confirmed",
          "userSelected": true
        } ]
      },
      "category": [ {
        "coding": [ {
          "system": "http://terminology.hl7.org/CodeSystem/condition-category",
          "code": "problem-list-item",
          "display": "Problem List Item",
          "userSelected": true
        } ]
      } ],
      "code": {
        "coding": [ {
          "system": "http://snomed.info/sct",
          "version": "2020-09",
          "code": "295108008",
          "display": "Allergy to streptokinase (finding)",
          "userSelected": true
        } ]
      },
      "subject": {
        "reference": "Patient/00845eb5-a7ef-4edd-a566-813ed3ca749a"
      },
      "onsetDateTime": "2026-10-09T10:00:00.000+00:00"
    },
    "request": {
      "method": "PUT",
      "url": "Condition/f373edc5-896d-4b18-ad50-9b04daf48bb4"
    }
  }, {
    "fullUrl": "https://madie.cms.gov/Coverage/b2986348-a715-40b6-9bf5-57687034b10b",
    "resource": {
      "resourceType": "Coverage",
      "id": "b2986348-a715-40b6-9bf5-57687034b10b",
      "meta": {
        "profile": [ "http://hl7.org/fhir/us/qicore/StructureDefinition/qicore-coverage" ]
      },
      "identifier": [ {
        "type": {
          "coding": [ {
            "system": "http://terminology.hl7.org/CodeSystem/v2-0203",
            "code": "MB"
          } ]
        }
      } ],
      "status": "active",
      "beneficiary": {
        "reference": "Patient/00845eb5-a7ef-4edd-a566-813ed3ca749a"
      },
      "relationship": {
        "coding": [ {
          "system": "http://terminology.hl7.org/CodeSystem/subscriber-relationship",
          "code": "self"
        } ]
      },
      "payor": [ {
        "reference": "Organization/34a0aa4f-5860-4793-82d3-90e5ebb07efe"
      } ]
    },
    "request": {
      "method": "PUT",
      "url": "Coverage/b2986348-a715-40b6-9bf5-57687034b10b"
    }
  }, {
    "fullUrl": "https://madie.cms.gov/Organization/34a0aa4f-5860-4793-82d3-90e5ebb07efe",
    "resource": {
      "resourceType": "Organization",
      "id": "34a0aa4f-5860-4793-82d3-90e5ebb07efe",
      "meta": {
        "profile": [ "http://hl7.org/fhir/us/qicore/StructureDefinition/qicore-organization" ]
      },
      "identifier": [ {
        "use": "temp",
        "system": "urn:oid:2.16.840.1.113883.4.4",
        "value": "21-3259825"
      } ],
      "active": true,
      "type": [ {
        "coding": [ {
          "system": "http://terminology.hl7.org/CodeSystem/organization-type",
          "code": "pay",
          "display": "Payer"
        } ]
      } ],
      "name": "Blue Cross Blue Shield of Texas",
      "telecom": [ {
        "system": "phone",
        "value": "(+1) 972-766-6900"
      } ],
      "address": [ {
        "use": "billing",
        "type": "postal",
        "line": [ "P.O. Box 660044" ],
        "city": "Dallas",
        "state": "TX",
        "postalCode": "75266-0044",
        "country": "USA"
      } ]
    },
    "request": {
      "method": "PUT",
      "url": "Organization/34a0aa4f-5860-4793-82d3-90e5ebb07efe"
    }
  }, {
    "fullUrl": "https://madie.cms.gov/Practitioner/da712c29-5970-4905-a42c-4f414e81930d",
    "resource": {
      "resourceType": "Practitioner",
      "id": "da712c29-5970-4905-a42c-4f414e81930d",
      "meta": {
        "profile": [ "http://hl7.org/fhir/us/qicore/StructureDefinition/qicore-practitioner" ]
      },
      "identifier": [ {
        "system": "http://hl7.org/fhir/sid/us-npi",
        "value": "9999999896"
      } ],
      "name": [ {
        "family": "Evil",
        "prefix": [ "Dr" ]
      } ]
    },
    "request": {
      "method": "PUT",
      "url": "Practitioner/da712c29-5970-4905-a42c-4f414e81930d"
    }
  }, {
    "fullUrl": "https://madie.cms.gov/MeasureReport/b6604b29-9d0e-4005-91f0-281116e4a60b",
    "resource": {
      "resourceType": "MeasureReport",
      "id": "b6604b29-9d0e-4005-91f0-281116e4a60b",
      "meta": {
        "profile": [ "http://hl7.org/fhir/us/cqfmeasures/StructureDefinition/test-case-cqfm" ]
      },
      "contained": [ {
        "resourceType": "Parameters",
        "id": "bba4922c-f117-454c-a5cf-30e166811bf7-parameters",
        "parameter": [ {
          "name": "subject",
          "valueString": "00845eb5-a7ef-4edd-a566-813ed3ca749a"
        } ]
      } ],
      "extension": [ {
        "url": "http://hl7.org/fhir/StructureDefinition/cqf-inputParameters",
        "valueReference": {
          "reference": "#bba4922c-f117-454c-a5cf-30e166811bf7-parameters"
        }
      }, {
        "url": "http://hl7.org/fhir/us/cqfmeasures/StructureDefinition/cqfm-testCaseDescription",
        "valueMarkdown": "Patient has allergy to thrombolytics (exclusion dx) starts during ED and no end"
      } ],
      "modifierExtension": [ {
        "url": "http://hl7.org/fhir/us/cqfmeasures/StructureDefinition/cqfm-isTestCase",
        "valueBoolean": true
      } ],
      "status": "complete",
      "type": "individual",
      "measure": "https://madie.cms.gov/Measure/CMS996FHIRAptTxforSTEMI",
      "period": {
        "start": "2026-01-01",
        "end": "2026-12-31"
      },
      "group": [ {
        "id": "Group_1",
        "population": [ {
          "id": "InitialPopulation_1",
          "code": {
            "coding": [ {
              "system": "http://terminology.hl7.org/CodeSystem/measure-population",
              "code": "initial-population",
              "display": "Initial Population"
            } ]
          },
          "count": 1
        }, {
          "id": "Denominator_1",
          "code": {
            "coding": [ {
              "system": "http://terminology.hl7.org/CodeSystem/measure-population",
              "code": "denominator",
              "display": "Denominator"
            } ]
          },
          "count": 1
        }, {
          "id": "DenominatorExclusion_1",
          "code": {
            "coding": [ {
              "system": "http://terminology.hl7.org/CodeSystem/measure-population",
              "code": "denominator-exclusion",
              "display": "Denominator Exclusion"
            } ]
          },
          "count": 0
        }, {
          "id": "Numerator_1",
          "code": {
            "coding": [ {
              "system": "http://terminology.hl7.org/CodeSystem/measure-population",
              "code": "numerator",
              "display": "Numerator"
            } ]
          },
          "count": 0
        }, {
          "id": "DenominatorException_1",
          "code": {
            "coding": [ {
              "system": "http://terminology.hl7.org/CodeSystem/measure-population",
              "code": "denominator-exception",
              "display": "Denominator Exception"
            } ]
          },
          "count": 0
        } ],
        "measureScore": {
          "value": 0.0
        }
      } ],
      "evaluatedResource": [ {
        "reference": "Patient/00845eb5-a7ef-4edd-a566-813ed3ca749a"
      }, {
        "reference": "Encounter/eeff48b2-48d0-407a-aee5-517f92204e0b"
      }, {
        "reference": "Condition/db454638-f38e-4312-a587-97d9a70e5f5c"
      }, {
        "reference": "Condition/f373edc5-896d-4b18-ad50-9b04daf48bb4"
      }, {
        "reference": "Coverage/b2986348-a715-40b6-9bf5-57687034b10b"
      }, {
        "reference": "Organization/34a0aa4f-5860-4793-82d3-90e5ebb07efe"
      }, {
        "reference": "Practitioner/da712c29-5970-4905-a42c-4f414e81930d"
      } ]
    },
    "request": {
      "method": "PUT",
      "url": "MeasureReport/b6604b29-9d0e-4005-91f0-281116e4a60b"
    }
  } ]
}