{
  "resourceType": "Bundle",
  "id": "62bb3859e8081f5ef5e199f5",
  "type": "collection",
  "entry": [ {
    "fullUrl": "https://madie.cms.gov/Patient/4d648e0d-3d8c-4089-af65-ddcf3642b735",
    "resource": {
      "resourceType": "Patient",
      "id": "4d648e0d-3d8c-4089-af65-ddcf3642b735",
      "meta": {
        "profile": [ "http://hl7.org/fhir/us/qicore/StructureDefinition/qicore-patient" ]
      },
      "extension": [ {
        "url": "http://hl7.org/fhir/us/core/StructureDefinition/us-core-race",
        "extension": [ {
          "url": "ombCategory",
          "valueCoding": {
            "system": "urn:oid:2.16.840.1.113883.6.238",
            "code": "1002-5",
            "display": "American Indian or Alaska Native",
            "userSelected": true
          }
        }, {
          "url": "text",
          "valueString": "American Indian or Alaska Native"
        } ]
      }, {
        "url": "http://hl7.org/fhir/us/core/StructureDefinition/us-core-ethnicity",
        "extension": [ {
          "url": "ombCategory",
          "valueCoding": {
            "system": "urn:oid:2.16.840.1.113883.6.238",
            "code": "2135-2",
            "display": "Hispanic or Latino",
            "userSelected": true
          }
        }, {
          "url": "text",
          "valueString": "Hispanic or Latino"
        } ]
      } ],
      "identifier": [ {
        "type": {
          "coding": [ {
            "system": "http://terminology.hl7.org/CodeSystem/v2-0203",
            "code": "MR"
          } ]
        },
        "system": "https://bonnie-fhir.healthit.gov/",
        "value": "62bb3859e8081f5ef5e199f5"
      } ],
      "name": [ {
        "family": "IPPFail",
        "given": [ "EncounterInMPNotDone" ]
      } ],
      "gender": "male",
      "birthDate": "1962-07-19"
    }
  }, {
    "fullUrl": "https://madie.cms.gov/Encounter/88ba309c-5eb1-413b-acd1-3ec630a4f818",
    "resource": {
      "resourceType": "Encounter",
      "id": "88ba309c-5eb1-413b-acd1-3ec630a4f818",
      "meta": {
        "profile": [ "http://hl7.org/fhir/us/qicore/StructureDefinition/qicore-encounter" ]
      },
      "status": "finished",
      "class": {
        "system": "http://terminology.hl7.org/CodeSystem/v3-ActCode",
        "code": "AMB",
        "display": "ambulatory"
      },
      "type": [ {
        "coding": [ {
          "system": "http://snomed.info/sct",
          "version": "http://snomed.info/sct/731000124108/version/20240401",
          "code": "185463005",
          "display": "Visit out of hours (procedure)",
          "userSelected": true
        } ]
      } ],
      "subject": {
        "reference": "Patient/4d648e0d-3d8c-4089-af65-ddcf3642b735"
      },
      "period": {
        "start": "2026-11-29T08:00:00.000+00:00",
        "end": "2026-11-29T08:15:00.000+00:00"
      }
    }
  }, {
    "fullUrl": "https://madie.cms.gov/Condition/d263ab0f-f5c5-4ead-bbe5-0717f199d80b",
    "resource": {
      "resourceType": "Condition",
      "id": "d263ab0f-f5c5-4ead-bbe5-0717f199d80b",
      "meta": {
        "profile": [ "http://hl7.org/fhir/us/qicore/StructureDefinition/qicore-condition-problems-health-concerns" ]
      },
      "clinicalStatus": {
        "coding": [ {
          "system": "http://terminology.hl7.org/CodeSystem/condition-clinical",
          "code": "active",
          "display": "Active",
          "userSelected": true
        } ]
      },
      "verificationStatus": {
        "coding": [ {
          "system": "http://terminology.hl7.org/CodeSystem/condition-ver-status",
          "code": "confirmed",
          "display": "Confirmed",
          "userSelected": true
        } ]
      },
      "category": [ {
        "coding": [ {
          "system": "http://terminology.hl7.org/CodeSystem/condition-category",
          "code": "problem-list-item",
          "display": "Problem List Item"
        } ]
      } ],
      "code": {
        "coding": [ {
          "system": "http://snomed.info/sct",
          "version": "http://snomed.info/sct/731000124108/version/20250301",
          "code": "254900004",
          "display": "Carcinoma of prostate (disorder)",
          "userSelected": true
        } ]
      },
      "subject": {
        "reference": "Patient/4d648e0d-3d8c-4089-af65-ddcf3642b735"
      },
      "onsetPeriod": {
        "start": "2025-11-25T08:00:00.000+00:00"
      }
    }
  }, {
    "fullUrl": "https://madie.cms.gov/Observation/6459f9f6-0de7-4c0d-8db5-b76d36c27dd2",
    "resource": {
      "resourceType": "Observation",
      "id": "6459f9f6-0de7-4c0d-8db5-b76d36c27dd2",
      "meta": {
        "profile": [ "http://hl7.org/fhir/us/qicore/StructureDefinition/qicore-observation-clinical-result" ]
      },
      "status": "final",
      "category": [ {
        "coding": [ {
          "system": "http://terminology.hl7.org/CodeSystem/observation-category",
          "code": "imaging",
          "display": "Imaging"
        } ]
      }, {
        "coding": [ {
          "system": "http://terminology.hl7.org/CodeSystem/observation-category",
          "code": "survey"
        } ]
      } ],
      "code": {
        "coding": [ {
          "system": "http://loinc.org",
          "version": "2.76",
          "code": "38265-5",
          "display": "DXA Radius and Ulna [T-score] Bone density"
        } ]
      },
      "subject": {
        "reference": "http://GoodHealthcare.com/fhir/Patient/46464646"
      },
      "effectivePeriod": {
        "start": "2025-11-25T10:00:00.000+00:00"
      },
      "dataAbsentReason": {
        "coding": [ {
          "system": "http://terminology.hl7.org/CodeSystem/data-absent-reason",
          "code": "unknown",
          "display": "Unknown"
        } ]
      }
    }
  }, {
    "fullUrl": "https://madie.cms.gov/MedicationRequest/a4e4b4a8-9d45-4efb-ac42-deb73965ae6e",
    "resource": {
      "resourceType": "MedicationRequest",
      "id": "a4e4b4a8-9d45-4efb-ac42-deb73965ae6e",
      "meta": {
        "profile": [ "http://hl7.org/fhir/us/qicore/StructureDefinition/qicore-medicationrequest" ]
      },
      "status": "active",
      "intent": "order",
      "medicationCodeableConcept": {
        "coding": [ {
          "system": "http://www.nlm.nih.gov/research/umls/rxnorm",
          "version": "06052023",
          "code": "752886",
          "display": "Leuprolide Acetate 120 MG/ML [Eligard 45]",
          "userSelected": true
        } ]
      },
      "subject": {
        "reference": "Patient/4d648e0d-3d8c-4089-af65-ddcf3642b735"
      },
      "authoredOn": "2025-11-25T08:00:00.000+00:00",
      "requester": {
        "reference": "http://myGoodHealthcare.com/fhir/Practitioner/646346"
      },
      "dosageInstruction": [ {
        "timing": {
          "repeat": {
            "boundsPeriod": {
              "start": "2025-11-25T08:00:00.000+00:00"
            }
          }
        }
      } ]
    }
  }, {
    "fullUrl": "https://madie.cms.gov/ServiceRequest/b7b0b85d-b67e-4ae1-8483-7199a700833d",
    "resource": {
      "resourceType": "ServiceRequest",
      "id": "b7b0b85d-b67e-4ae1-8483-7199a700833d",
      "meta": {
        "profile": [ "http://hl7.org/fhir/us/qicore/StructureDefinition/qicore-servicerequest" ]
      },
      "status": "active",
      "intent": "order",
      "code": {
        "coding": [ {
          "system": "http://snomed.info/sct",
          "version": "http://snomed.info/sct/731000124108/version/20250301",
          "code": "456381000124102",
          "display": "Injection of leuprolide acetate for twelve month period (regime/therapy)",
          "userSelected": true
        } ]
      },
      "subject": {
        "reference": "Patient/4d648e0d-3d8c-4089-af65-ddcf3642b735"
      },
      "authoredOn": "2027-11-25T08:00:00.000+00:00"
    }
  }, {
    "fullUrl": "https://madie.cms.gov/MeasureReport/25ed8d2d-3228-4706-b92a-8ae43983f2b5",
    "resource": {
      "resourceType": "MeasureReport",
      "id": "25ed8d2d-3228-4706-b92a-8ae43983f2b5",
      "meta": {
        "profile": [ "http://hl7.org/fhir/us/cqfmeasures/StructureDefinition/test-case-cqfm" ]
      },
      "contained": [ {
        "resourceType": "Parameters",
        "id": "857bc3a3-fe75-4549-bddf-348c54148ca8-parameters",
        "parameter": [ {
          "name": "subject",
          "valueString": "4d648e0d-3d8c-4089-af65-ddcf3642b735"
        } ]
      } ],
      "extension": [ {
        "url": "http://hl7.org/fhir/StructureDefinition/cqf-inputParameters",
        "valueReference": {
          "reference": "#857bc3a3-fe75-4549-bddf-348c54148ca8-parameters"
        }
      }, {
        "url": "http://hl7.org/fhir/us/cqfmeasures/StructureDefinition/cqfm-testCaseDescription",
        "valueMarkdown": "Dx of Prostate Cancer, ADT is not null, but qualifying encounter(s) was not done  in MP. Fails IPP Criteria"
      } ],
      "modifierExtension": [ {
        "url": "http://hl7.org/fhir/us/cqfmeasures/StructureDefinition/cqfm-isTestCase",
        "valueBoolean": true
      } ],
      "status": "complete",
      "type": "individual",
      "measure": "https://madie.cms.gov/Measure/CMS645FHIRBoneDensityPCADTherapy",
      "period": {
        "start": "2026-01-01",
        "end": "2026-12-31"
      },
      "group": [ {
        "id": "Group_1",
        "population": [ {
          "id": "InitialPopulation_1",
          "code": {
            "coding": [ {
              "system": "http://terminology.hl7.org/CodeSystem/measure-population",
              "code": "initial-population",
              "display": "Initial Population"
            } ]
          },
          "count": 0
        }, {
          "id": "Denominator_1",
          "code": {
            "coding": [ {
              "system": "http://terminology.hl7.org/CodeSystem/measure-population",
              "code": "denominator",
              "display": "Denominator"
            } ]
          },
          "count": 0
        }, {
          "id": "Numerator_1",
          "code": {
            "coding": [ {
              "system": "http://terminology.hl7.org/CodeSystem/measure-population",
              "code": "numerator",
              "display": "Numerator"
            } ]
          },
          "count": 0
        }, {
          "id": "DenominatorException_1",
          "code": {
            "coding": [ {
              "system": "http://terminology.hl7.org/CodeSystem/measure-population",
              "code": "denominator-exception",
              "display": "Denominator Exception"
            } ]
          },
          "count": 0
        } ],
        "measureScore": {
          "value": 1.0
        }
      } ],
      "evaluatedResource": [ {
        "reference": "Patient/4d648e0d-3d8c-4089-af65-ddcf3642b735"
      }, {
        "reference": "Encounter/88ba309c-5eb1-413b-acd1-3ec630a4f818"
      }, {
        "reference": "Condition/d263ab0f-f5c5-4ead-bbe5-0717f199d80b"
      }, {
        "reference": "Observation/6459f9f6-0de7-4c0d-8db5-b76d36c27dd2"
      }, {
        "reference": "MedicationRequest/a4e4b4a8-9d45-4efb-ac42-deb73965ae6e"
      }, {
        "reference": "ServiceRequest/b7b0b85d-b67e-4ae1-8483-7199a700833d"
      } ]
    }
  } ]
}