{
  "resourceType": "Bundle",
  "id": "125a80a15a88p70123c4567o",
  "type": "transaction",
  "entry": [ {
    "fullUrl": "https://madie.cms.gov/Patient/d051e3f4-0d8a-43d1-850f-e7a4a15762ff",
    "resource": {
      "resourceType": "Patient",
      "id": "d051e3f4-0d8a-43d1-850f-e7a4a15762ff",
      "meta": {
        "profile": [ "http://hl7.org/fhir/us/qicore/StructureDefinition/qicore-patient" ]
      },
      "extension": [ {
        "url": "http://hl7.org/fhir/us/core/StructureDefinition/us-core-race",
        "extension": [ {
          "url": "ombCategory",
          "valueCoding": {
            "system": "urn:oid:2.16.840.1.113883.6.238",
            "code": "2028-9",
            "display": "Asian",
            "userSelected": true
          }
        }, {
          "url": "text",
          "valueString": "Asian"
        } ]
      }, {
        "url": "http://hl7.org/fhir/us/core/StructureDefinition/us-core-ethnicity",
        "extension": [ {
          "url": "ombCategory",
          "valueCoding": {
            "system": "urn:oid:2.16.840.1.113883.6.238",
            "code": "2186-5",
            "display": "Not Hispanic or Latino",
            "userSelected": true
          }
        }, {
          "url": "text",
          "valueString": "Not Hispanic or Latino"
        } ]
      } ],
      "identifier": [ {
        "system": "http://hospital.smarthealthit.org",
        "value": "999999999"
      } ],
      "name": [ {
        "family": "NUMERPass",
        "given": [ "OpioidAdminInORandOutsideOR" ]
      } ],
      "gender": "male",
      "birthDate": "1989-02-15"
    },
    "request": {
      "method": "PUT",
      "url": "Patient/d051e3f4-0d8a-43d1-850f-e7a4a15762ff"
    }
  }, {
    "fullUrl": "https://madie.cms.gov/Encounter/61bc5f11-dfe9-4995-b4e5-fe80195305c7",
    "resource": {
      "resourceType": "Encounter",
      "id": "61bc5f11-dfe9-4995-b4e5-fe80195305c7",
      "meta": {
        "profile": [ "http://hl7.org/fhir/us/qicore/StructureDefinition/qicore-encounter" ]
      },
      "status": "finished",
      "class": {
        "system": "http://terminology.hl7.org/CodeSystem/v3-ActCode",
        "code": "IMP",
        "display": "inpatient encounter"
      },
      "type": [ {
        "coding": [ {
          "system": "http://snomed.info/sct",
          "code": "183452005"
        } ]
      } ],
      "subject": {
        "reference": "Patient/d051e3f4-0d8a-43d1-850f-e7a4a15762ff"
      },
      "period": {
        "start": "2026-07-11T08:00:00.000+00:00",
        "end": "2026-07-16T08:15:00.000+00:00"
      },
      "location": [ {
        "location": {
          "reference": "Location/7da2d210-f0ac-4544-8e58-c2444d5e2a8c"
        },
        "period": {
          "start": "2026-07-11T09:00:00.000+00:00",
          "end": "2026-07-11T10:15:00.000+00:00"
        }
      } ]
    },
    "request": {
      "method": "PUT",
      "url": "Encounter/61bc5f11-dfe9-4995-b4e5-fe80195305c7"
    }
  }, {
    "fullUrl": "https://madie.cms.gov/Location/7da2d210-f0ac-4544-8e58-c2444d5e2a8c",
    "resource": {
      "resourceType": "Location",
      "id": "7da2d210-f0ac-4544-8e58-c2444d5e2a8c",
      "meta": {
        "profile": [ "http://hl7.org/fhir/us/qicore/StructureDefinition/qicore-location" ]
      },
      "identifier": [ {
        "use": "usual",
        "system": "http://exampleoflocation.com",
        "value": "B1-S.F2"
      } ],
      "name": "Medical Surgical East, first floor",
      "type": [ {
        "coding": [ {
          "system": "https://www.cdc.gov/nhsn/cdaportal/terminology/codesystem/hsloc.html",
          "code": "1096-7",
          "display": "Operating Room/Suite"
        } ]
      } ]
    },
    "request": {
      "method": "PUT",
      "url": "Location/7da2d210-f0ac-4544-8e58-c2444d5e2a8c"
    }
  }, {
    "fullUrl": "https://madie.cms.gov/MedicationAdministration/f7db6132-a045-4e2d-b6a5-304fb292c6a1",
    "resource": {
      "resourceType": "MedicationAdministration",
      "id": "f7db6132-a045-4e2d-b6a5-304fb292c6a1",
      "meta": {
        "profile": [ "http://hl7.org/fhir/us/qicore/StructureDefinition/qicore-medicationadministration" ]
      },
      "status": "completed",
      "medicationCodeableConcept": {
        "coding": [ {
          "system": "http://www.nlm.nih.gov/research/umls/rxnorm",
          "code": "1010600",
          "display": "Opioids, All"
        } ]
      },
      "subject": {
        "reference": "Patient/d051e3f4-0d8a-43d1-850f-e7a4a15762ff"
      },
      "effectivePeriod": {
        "start": "2026-07-11T09:00:00.000+00:00",
        "end": "2026-07-11T09:15:00.000+00:00"
      }
    },
    "request": {
      "method": "PUT",
      "url": "MedicationAdministration/f7db6132-a045-4e2d-b6a5-304fb292c6a1"
    }
  }, {
    "fullUrl": "https://madie.cms.gov/MedicationAdministration/0d8b250e-a7e4-4c31-9110-910fc4c14110",
    "resource": {
      "resourceType": "MedicationAdministration",
      "id": "0d8b250e-a7e4-4c31-9110-910fc4c14110",
      "meta": {
        "profile": [ "http://hl7.org/fhir/us/qicore/StructureDefinition/qicore-medicationadministration" ]
      },
      "status": "completed",
      "medicationCodeableConcept": {
        "coding": [ {
          "system": "http://www.nlm.nih.gov/research/umls/rxnorm",
          "code": "2589612",
          "display": "Opioid Antagonist"
        } ]
      },
      "subject": {
        "reference": "Patient/d051e3f4-0d8a-43d1-850f-e7a4a15762ff"
      },
      "effectiveDateTime": "2026-07-11T14:00:00.000+00:00",
      "dosage": {
        "route": {
          "coding": [ {
            "system": "http://snomed.info/sct",
            "code": "34206005",
            "display": "Subcutaneous route"
          } ]
        }
      }
    },
    "request": {
      "method": "PUT",
      "url": "MedicationAdministration/0d8b250e-a7e4-4c31-9110-910fc4c14110"
    }
  }, {
    "fullUrl": "https://madie.cms.gov/MedicationAdministration/dfa954a7-b634-4049-861f-bbf045d9eaac",
    "resource": {
      "resourceType": "MedicationAdministration",
      "id": "dfa954a7-b634-4049-861f-bbf045d9eaac",
      "meta": {
        "profile": [ "http://hl7.org/fhir/us/qicore/StructureDefinition/qicore-medicationadministration" ]
      },
      "status": "completed",
      "medicationCodeableConcept": {
        "coding": [ {
          "system": "http://www.nlm.nih.gov/research/umls/rxnorm",
          "code": "1010600",
          "display": "Opioids, All"
        } ]
      },
      "subject": {
        "reference": "Patient/d051e3f4-0d8a-43d1-850f-e7a4a15762ff"
      },
      "effectiveDateTime": "2026-07-11T13:00:00.000+00:00"
    },
    "request": {
      "method": "PUT",
      "url": "MedicationAdministration/dfa954a7-b634-4049-861f-bbf045d9eaac"
    }
  }, {
    "fullUrl": "https://madie.cms.gov/Coverage/90657bf4-d875-4e3d-a36a-31ab07f51d57",
    "resource": {
      "resourceType": "Coverage",
      "id": "90657bf4-d875-4e3d-a36a-31ab07f51d57",
      "meta": {
        "profile": [ "http://hl7.org/fhir/us/qicore/StructureDefinition/qicore-coverage" ]
      },
      "status": "active",
      "subscriberId": "523435",
      "beneficiary": {
        "reference": "Patient/d051e3f4-0d8a-43d1-850f-e7a4a15762ff"
      },
      "relationship": {
        "coding": [ {
          "system": "http://terminology.hl7.org/CodeSystem/subscriber-relationship",
          "code": "self"
        } ]
      },
      "payor": [ {
        "reference": "Organization/afbfa2cb-c2cb-48ea-b0b2-b8be4ac2c44f"
      } ]
    },
    "request": {
      "method": "PUT",
      "url": "Coverage/90657bf4-d875-4e3d-a36a-31ab07f51d57"
    }
  }, {
    "fullUrl": "https://madie.cms.gov/Organization/afbfa2cb-c2cb-48ea-b0b2-b8be4ac2c44f",
    "resource": {
      "resourceType": "Organization",
      "id": "afbfa2cb-c2cb-48ea-b0b2-b8be4ac2c44f",
      "meta": {
        "profile": [ "http://hl7.org/fhir/us/qicore/StructureDefinition/qicore-organization" ]
      },
      "identifier": [ {
        "use": "temp",
        "system": "urn:oid:2.16.840.1.113883.4.4",
        "value": "21-3259825"
      } ],
      "active": true,
      "type": [ {
        "coding": [ {
          "system": "http://terminology.hl7.org/CodeSystem/organization-type",
          "code": "pay",
          "display": "Payer"
        } ]
      } ],
      "name": "Blue Cross Blue Shield of Texas",
      "telecom": [ {
        "system": "phone",
        "value": "(+1) 972-766-6900"
      } ],
      "address": [ {
        "use": "billing",
        "type": "postal",
        "line": [ "P.O. Box 660044" ],
        "city": "Dallas",
        "state": "TX",
        "postalCode": "75266-0044",
        "country": "USA"
      } ]
    },
    "request": {
      "method": "PUT",
      "url": "Organization/afbfa2cb-c2cb-48ea-b0b2-b8be4ac2c44f"
    }
  }, {
    "fullUrl": "https://madie.cms.gov/MeasureReport/6b4f4ad8-731c-43fa-af97-f127e7545999",
    "resource": {
      "resourceType": "MeasureReport",
      "id": "6b4f4ad8-731c-43fa-af97-f127e7545999",
      "meta": {
        "profile": [ "http://hl7.org/fhir/us/cqfmeasures/StructureDefinition/test-case-cqfm" ]
      },
      "contained": [ {
        "resourceType": "Parameters",
        "id": "4590753a-decc-48f6-83b0-1c2cb6f8daf8-parameters",
        "parameter": [ {
          "name": "subject",
          "valueString": "d051e3f4-0d8a-43d1-850f-e7a4a15762ff"
        } ]
      } ],
      "extension": [ {
        "url": "http://hl7.org/fhir/StructureDefinition/cqf-inputParameters",
        "valueReference": {
          "reference": "#4590753a-decc-48f6-83b0-1c2cb6f8daf8-parameters"
        }
      }, {
        "url": "http://hl7.org/fhir/us/cqfmeasures/StructureDefinition/cqfm-testCaseDescription",
        "valueMarkdown": "Encounter-1 7/11 - 7/16, in OR 7/11 0900 - 1015, MedAdmin-1 7/11 Opioid in OR location at 0900, MedAdmin-2 7/11 Antagonist at 1400, MedAdmin-3 7/11 2nd Opioid at 1300"
      } ],
      "modifierExtension": [ {
        "url": "http://hl7.org/fhir/us/cqfmeasures/StructureDefinition/cqfm-isTestCase",
        "valueBoolean": true
      } ],
      "status": "complete",
      "type": "individual",
      "measure": "https://madie.cms.gov/Measure/CMS819FHIRHHORAE",
      "period": {
        "start": "2026-01-01",
        "end": "2026-12-31"
      },
      "group": [ {
        "id": "Group_1",
        "population": [ {
          "id": "InitialPopulation_1",
          "code": {
            "coding": [ {
              "system": "http://terminology.hl7.org/CodeSystem/measure-population",
              "code": "initial-population",
              "display": "Initial Population"
            } ]
          },
          "count": 1
        }, {
          "id": "Denominator_1",
          "code": {
            "coding": [ {
              "system": "http://terminology.hl7.org/CodeSystem/measure-population",
              "code": "denominator",
              "display": "Denominator"
            } ]
          },
          "count": 1
        }, {
          "id": "Numerator_1",
          "code": {
            "coding": [ {
              "system": "http://terminology.hl7.org/CodeSystem/measure-population",
              "code": "numerator",
              "display": "Numerator"
            } ]
          },
          "count": 1
        } ],
        "measureScore": {
          "value": 0.0
        }
      } ],
      "evaluatedResource": [ {
        "reference": "Patient/d051e3f4-0d8a-43d1-850f-e7a4a15762ff"
      }, {
        "reference": "Encounter/61bc5f11-dfe9-4995-b4e5-fe80195305c7"
      }, {
        "reference": "Location/7da2d210-f0ac-4544-8e58-c2444d5e2a8c"
      }, {
        "reference": "MedicationAdministration/f7db6132-a045-4e2d-b6a5-304fb292c6a1"
      }, {
        "reference": "MedicationAdministration/0d8b250e-a7e4-4c31-9110-910fc4c14110"
      }, {
        "reference": "MedicationAdministration/dfa954a7-b634-4049-861f-bbf045d9eaac"
      }, {
        "reference": "Coverage/90657bf4-d875-4e3d-a36a-31ab07f51d57"
      }, {
        "reference": "Organization/afbfa2cb-c2cb-48ea-b0b2-b8be4ac2c44f"
      } ]
    },
    "request": {
      "method": "PUT",
      "url": "MeasureReport/6b4f4ad8-731c-43fa-af97-f127e7545999"
    }
  } ]
}