{
  "resourceType": "Bundle",
  "id": "62fd0bb085b0356a7c28532d",
  "type": "collection",
  "entry": [ {
    "fullUrl": "https://madie.cms.gov/Patient/019de843-7347-4a25-ad9e-2a4ca3a84054",
    "resource": {
      "resourceType": "Patient",
      "id": "019de843-7347-4a25-ad9e-2a4ca3a84054",
      "meta": {
        "profile": [ "http://hl7.org/fhir/us/qicore/StructureDefinition/qicore-patient" ]
      },
      "extension": [ {
        "url": "http://hl7.org/fhir/us/core/StructureDefinition/us-core-race",
        "extension": [ {
          "url": "ombCategory",
          "valueCoding": {
            "system": "urn:oid:2.16.840.1.113883.6.238",
            "code": "2028-9",
            "display": "Asian",
            "userSelected": true
          }
        }, {
          "url": "text",
          "valueString": "Asian"
        } ]
      }, {
        "url": "http://hl7.org/fhir/us/core/StructureDefinition/us-core-ethnicity",
        "extension": [ {
          "url": "ombCategory",
          "valueCoding": {
            "system": "urn:oid:2.16.840.1.113883.6.238",
            "code": "2186-5",
            "display": "Not Hispanic or Latino",
            "userSelected": true
          }
        }, {
          "url": "text",
          "valueString": "Not Hispanic or Latino"
        } ]
      } ],
      "identifier": [ {
        "type": {
          "coding": [ {
            "system": "http://terminology.hl7.org/CodeSystem/v2-0203",
            "code": "MR"
          } ]
        },
        "system": "https://bonnie-fhir.healthit.gov/",
        "value": "62fd0bb085b0356a7c28532d"
      } ],
      "name": [ {
        "family": "DenomFail",
        "given": [ "FirstTxFailedMultipleTxDuringMP" ]
      } ],
      "gender": "male",
      "birthDate": "1980-12-31"
    }
  }, {
    "fullUrl": "https://madie.cms.gov/Condition/8d74bfb2-3302-4c93-8a22-92634622c94b",
    "resource": {
      "resourceType": "Condition",
      "id": "8d74bfb2-3302-4c93-8a22-92634622c94b",
      "meta": {
        "profile": [ "http://hl7.org/fhir/us/qicore/StructureDefinition/qicore-condition-problems-health-concerns" ]
      },
      "clinicalStatus": {
        "coding": [ {
          "system": "http://terminology.hl7.org/CodeSystem/condition-clinical",
          "code": "active",
          "display": "active",
          "userSelected": true
        } ]
      },
      "category": [ {
        "coding": [ {
          "system": "http://terminology.hl7.org/CodeSystem/condition-category",
          "code": "problem-list-item",
          "display": "Problem List Item"
        }, {
          "system": "http://snomed.info/sct",
          "code": "439401001",
          "display": "Diagnosis"
        } ]
      } ],
      "code": {
        "coding": [ {
          "system": "http://snomed.info/sct",
          "code": "254900004",
          "display": "Carcinoma of prostate (disorder)",
          "userSelected": true
        } ]
      },
      "subject": {
        "reference": "Patient/019de843-7347-4a25-ad9e-2a4ca3a84054"
      },
      "onsetPeriod": {
        "start": "2021-06-14T08:00:00.000+00:00"
      }
    }
  }, {
    "fullUrl": "https://madie.cms.gov/Procedure/6dfc30db-00f3-460b-b29a-8d436264a9ab",
    "resource": {
      "resourceType": "Procedure",
      "id": "6dfc30db-00f3-460b-b29a-8d436264a9ab",
      "meta": {
        "profile": [ "http://hl7.org/fhir/us/qicore/StructureDefinition/qicore-procedure" ]
      },
      "extension": [ {
        "url": "http://hl7.org/fhir/us/qicore/StructureDefinition/qicore-recorded",
        "valueDateTime": "2024-02-01T09:00:00.000+00:00"
      } ],
      "status": "on-hold",
      "code": {
        "coding": [ {
          "system": "http://snomed.info/sct",
          "code": "38915000",
          "display": "Radionuclide therapy for gland ablation (procedure)",
          "userSelected": true
        } ]
      },
      "subject": {
        "reference": "Patient/019de843-7347-4a25-ad9e-2a4ca3a84054"
      },
      "performedDateTime": "2026-01-31T08:00:00.000+00:00"
    }
  }, {
    "fullUrl": "https://madie.cms.gov/Procedure/80572cfa-72af-4b2d-96be-6682ff159f7a",
    "resource": {
      "resourceType": "Procedure",
      "id": "80572cfa-72af-4b2d-96be-6682ff159f7a",
      "meta": {
        "profile": [ "http://hl7.org/fhir/us/qicore/StructureDefinition/qicore-procedure" ]
      },
      "extension": [ {
        "url": "http://hl7.org/fhir/us/qicore/StructureDefinition/qicore-recorded",
        "valueDateTime": "2024-02-01T09:00:00.000+00:00"
      } ],
      "status": "completed",
      "code": {
        "coding": [ {
          "system": "http://snomed.info/sct",
          "code": "38915000",
          "display": "Radionuclide therapy for gland ablation (procedure)",
          "userSelected": true
        } ]
      },
      "subject": {
        "reference": "Patient/019de843-7347-4a25-ad9e-2a4ca3a84054"
      },
      "performedDateTime": "2026-03-31T08:00:00.000+00:00"
    }
  }, {
    "fullUrl": "https://madie.cms.gov/Procedure/4641af96-239e-47e3-8783-f8901b65ba8b",
    "resource": {
      "resourceType": "Procedure",
      "id": "4641af96-239e-47e3-8783-f8901b65ba8b",
      "meta": {
        "profile": [ "http://hl7.org/fhir/us/qicore/StructureDefinition/qicore-procedure" ]
      },
      "extension": [ {
        "url": "http://hl7.org/fhir/us/qicore/StructureDefinition/qicore-recorded",
        "valueDateTime": "2024-02-01T09:00:00.000+00:00"
      } ],
      "status": "completed",
      "code": {
        "coding": [ {
          "system": "http://snomed.info/sct",
          "code": "38915000",
          "display": "Radionuclide therapy for gland ablation (procedure)",
          "userSelected": true
        } ]
      },
      "subject": {
        "reference": "Patient/019de843-7347-4a25-ad9e-2a4ca3a84054"
      },
      "performedDateTime": "2026-12-31T08:00:00.000+00:00"
    }
  }, {
    "fullUrl": "https://madie.cms.gov/Observation/3fb3157c-92c4-4928-80e4-bf0a58769987",
    "resource": {
      "resourceType": "Observation",
      "id": "3fb3157c-92c4-4928-80e4-bf0a58769987",
      "meta": {
        "profile": [ "http://hl7.org/fhir/us/qicore/StructureDefinition/qicore-observation-lab" ]
      },
      "status": "final",
      "category": [ {
        "coding": [ {
          "system": "http://terminology.hl7.org/CodeSystem/observation-category",
          "code": "laboratory",
          "display": "Laboratory"
        } ]
      } ],
      "code": {
        "coding": [ {
          "system": "http://loinc.org",
          "version": "2.72",
          "code": "10508-0",
          "display": "Prostate specific Ag [Presence] in Tissue by Immune stain",
          "userSelected": true
        } ]
      },
      "subject": {
        "reference": "Patient/019de843-7347-4a25-ad9e-2a4ca3a84054"
      },
      "issued": "2026-04-22T08:00:00.000+00:00",
      "valueQuantity": {
        "value": 11.0,
        "system": "http://unitsofmeasure.org",
        "code": "ng/mL"
      }
    }
  }, {
    "fullUrl": "https://madie.cms.gov/Observation/3fc5d466-eb3e-4689-bbfd-fff74d6932ce",
    "resource": {
      "resourceType": "Observation",
      "id": "3fc5d466-eb3e-4689-bbfd-fff74d6932ce",
      "meta": {
        "profile": [ "http://hl7.org/fhir/us/qicore/StructureDefinition/qicore-observation-clinical-result" ]
      },
      "status": "final",
      "category": [ {
        "coding": [ {
          "system": "http://terminology.hl7.org/CodeSystem/observation-category",
          "code": "procedure",
          "display": "Procedure"
        } ]
      } ],
      "code": {
        "coding": [ {
          "system": "http://loinc.org",
          "code": "35266-6",
          "display": "Gleason score in Specimen Qualitative",
          "userSelected": true
        } ]
      },
      "subject": {
        "reference": "Patient/019de843-7347-4a25-ad9e-2a4ca3a84054"
      },
      "effectiveDateTime": "2026-01-02T08:00:00.000+00:00",
      "valueInteger": 5
    }
  }, {
    "fullUrl": "https://madie.cms.gov/Observation/c728031a-0b3b-42a8-975d-3d2643156895",
    "resource": {
      "resourceType": "Observation",
      "id": "c728031a-0b3b-42a8-975d-3d2643156895",
      "meta": {
        "profile": [ "http://hl7.org/fhir/us/qicore/StructureDefinition/qicore-observation-clinical-result" ]
      },
      "status": "final",
      "category": [ {
        "coding": [ {
          "system": "http://terminology.hl7.org/CodeSystem/observation-category",
          "code": "procedure",
          "display": "Procedure"
        } ]
      } ],
      "code": {
        "coding": [ {
          "system": "http://snomed.info/sct",
          "code": "254292007",
          "display": "Tumor staging (tumor staging)",
          "userSelected": true
        } ]
      },
      "subject": {
        "reference": "Patient/019de843-7347-4a25-ad9e-2a4ca3a84054"
      },
      "effectiveDateTime": "2026-04-26T08:00:00.000+00:00",
      "valueCodeableConcept": {
        "coding": [ {
          "system": "http://snomed.info/sct",
          "code": "1228931008",
          "display": "American Joint Committee on Cancer cT2a (qualifier value)",
          "userSelected": true
        } ]
      }
    }
  }, {
    "fullUrl": "https://madie.cms.gov/Coverage/a4c912cf-af6c-4b6c-a68b-ece5a5f9fb6c",
    "resource": {
      "resourceType": "Coverage",
      "id": "a4c912cf-af6c-4b6c-a68b-ece5a5f9fb6c",
      "meta": {
        "profile": [ "http://hl7.org/fhir/us/qicore/StructureDefinition/qicore-coverage" ]
      },
      "status": "active",
      "subscriberId": "123456789",
      "beneficiary": {
        "reference": "Patient/019de843-7347-4a25-ad9e-2a4ca3a84054"
      },
      "relationship": {
        "coding": [ {
          "system": "http://terminology.hl7.org/CodeSystem/subscriber-relationship",
          "code": "self",
          "display": "Self",
          "userSelected": true
        } ]
      },
      "payor": [ {
        "reference": "Organization/f7b2aa96-bac8-40b1-a4b6-9cfa5aaae4c2"
      } ]
    }
  }, {
    "fullUrl": "https://madie.cms.gov/Organization/f7b2aa96-bac8-40b1-a4b6-9cfa5aaae4c2",
    "resource": {
      "resourceType": "Organization",
      "id": "f7b2aa96-bac8-40b1-a4b6-9cfa5aaae4c2",
      "meta": {
        "profile": [ "http://hl7.org/fhir/us/qicore/StructureDefinition/qicore-organization" ]
      },
      "identifier": [ {
        "use": "temp",
        "system": "urn:oid:2.16.840.1.113883.4.4",
        "value": "21-3259825"
      } ],
      "active": true,
      "type": [ {
        "coding": [ {
          "system": "http://terminology.hl7.org/CodeSystem/organization-type",
          "code": "pay",
          "display": "Payer"
        } ]
      } ],
      "name": "Blue Cross Blue Shield of Texas",
      "telecom": [ {
        "system": "phone",
        "value": "(+1) 972-766-6900"
      } ],
      "address": [ {
        "use": "billing",
        "type": "postal",
        "line": [ "P.O. Box 660044" ],
        "city": "Dallas",
        "state": "TX",
        "postalCode": "75266-0044",
        "country": "USA"
      } ]
    }
  }, {
    "fullUrl": "https://madie.cms.gov/Practitioner/71ec4914-e487-423a-af2c-b4bc808247d9",
    "resource": {
      "resourceType": "Practitioner",
      "id": "71ec4914-e487-423a-af2c-b4bc808247d9",
      "meta": {
        "profile": [ "http://hl7.org/fhir/us/qicore/StructureDefinition/qicore-practitioner" ]
      },
      "identifier": [ {
        "system": "http://hl7.org/fhir/sid/us-npi",
        "value": "1234567893"
      } ],
      "name": [ {
        "family": "Evil",
        "prefix": [ "Dr" ]
      } ]
    }
  }, {
    "fullUrl": "https://madie.cms.gov/MeasureReport/fa8c3021-89d7-4758-9633-4faad2d17905",
    "resource": {
      "resourceType": "MeasureReport",
      "id": "fa8c3021-89d7-4758-9633-4faad2d17905",
      "meta": {
        "profile": [ "http://hl7.org/fhir/us/cqfmeasures/StructureDefinition/test-case-cqfm" ]
      },
      "contained": [ {
        "resourceType": "Parameters",
        "id": "137e82d8-2143-4d74-93f8-c57cab9df4c8-parameters",
        "parameter": [ {
          "name": "subject",
          "valueString": "019de843-7347-4a25-ad9e-2a4ca3a84054"
        } ]
      } ],
      "extension": [ {
        "url": "http://hl7.org/fhir/StructureDefinition/cqf-inputParameters",
        "valueReference": {
          "reference": "#137e82d8-2143-4d74-93f8-c57cab9df4c8-parameters"
        }
      }, {
        "url": "http://hl7.org/fhir/us/cqfmeasures/StructureDefinition/cqfm-testCaseDescription",
        "valueMarkdown": "Multiple treatments in MP.  1st of 3 treatments on hold (not completed).  "
      } ],
      "modifierExtension": [ {
        "url": "http://hl7.org/fhir/us/cqfmeasures/StructureDefinition/cqfm-isTestCase",
        "valueBoolean": true
      } ],
      "status": "complete",
      "type": "individual",
      "measure": "https://madie.cms.gov/Measure/CMS129FHIRProstCaBoneScanUse",
      "period": {
        "start": "2026-01-01",
        "end": "2026-12-31"
      },
      "group": [ {
        "id": "Group_1",
        "population": [ {
          "id": "InitialPopulation_1",
          "code": {
            "coding": [ {
              "system": "http://terminology.hl7.org/CodeSystem/measure-population",
              "code": "initial-population",
              "display": "Initial Population"
            } ]
          },
          "count": 1
        }, {
          "id": "Denominator_1",
          "code": {
            "coding": [ {
              "system": "http://terminology.hl7.org/CodeSystem/measure-population",
              "code": "denominator",
              "display": "Denominator"
            } ]
          },
          "count": 0
        }, {
          "id": "Numerator_1",
          "code": {
            "coding": [ {
              "system": "http://terminology.hl7.org/CodeSystem/measure-population",
              "code": "numerator",
              "display": "Numerator"
            } ]
          },
          "count": 0
        }, {
          "id": "DenominatorException_1",
          "code": {
            "coding": [ {
              "system": "http://terminology.hl7.org/CodeSystem/measure-population",
              "code": "denominator-exception",
              "display": "Denominator Exception"
            } ]
          },
          "count": 0
        } ],
        "measureScore": {
          "value": 1.0
        }
      } ],
      "evaluatedResource": [ {
        "reference": "Patient/019de843-7347-4a25-ad9e-2a4ca3a84054"
      }, {
        "reference": "Condition/8d74bfb2-3302-4c93-8a22-92634622c94b"
      }, {
        "reference": "Procedure/6dfc30db-00f3-460b-b29a-8d436264a9ab"
      }, {
        "reference": "Procedure/80572cfa-72af-4b2d-96be-6682ff159f7a"
      }, {
        "reference": "Procedure/4641af96-239e-47e3-8783-f8901b65ba8b"
      }, {
        "reference": "Observation/3fb3157c-92c4-4928-80e4-bf0a58769987"
      }, {
        "reference": "Observation/3fc5d466-eb3e-4689-bbfd-fff74d6932ce"
      }, {
        "reference": "Observation/c728031a-0b3b-42a8-975d-3d2643156895"
      }, {
        "reference": "Coverage/a4c912cf-af6c-4b6c-a68b-ece5a5f9fb6c"
      }, {
        "reference": "Organization/f7b2aa96-bac8-40b1-a4b6-9cfa5aaae4c2"
      }, {
        "reference": "Practitioner/71ec4914-e487-423a-af2c-b4bc808247d9"
      } ]
    }
  } ]
}