{
  "resourceType": "Bundle",
  "id": "tests-NUMERPass-TwoEncountersOneNumerator-bundle",
  "type": "transaction",
  "entry": [ {
    "fullUrl": "https://madie.cms.gov/MedicationAdministration/35ffc7f5-577e-4402-9977-5a72a517bc27",
    "resource": {
      "resourceType": "MedicationAdministration",
      "id": "35ffc7f5-577e-4402-9977-5a72a517bc27",
      "meta": {
        "profile": [ "http://hl7.org/fhir/us/qicore/StructureDefinition/qicore-medicationadministration" ]
      },
      "status": "completed",
      "medicationCodeableConcept": {
        "coding": [ {
          "system": "http://www.nlm.nih.gov/research/umls/rxnorm",
          "code": "1010600",
          "display": "Opioids, All"
        } ]
      },
      "subject": {
        "reference": "Patient/31b40acc-ca5f-4d1d-bd83-4b1a14eb822e"
      },
      "effectivePeriod": {
        "start": "2026-07-12T09:00:00.000+00:00",
        "end": "2026-07-13T09:00:00.000+00:00"
      }
    },
    "request": {
      "method": "PUT",
      "url": "MedicationAdministration/35ffc7f5-577e-4402-9977-5a72a517bc27"
    }
  }, {
    "fullUrl": "https://madie.cms.gov/MedicationAdministration/596cf96f-f010-4d61-850f-9472eae2c3a8",
    "resource": {
      "resourceType": "MedicationAdministration",
      "id": "596cf96f-f010-4d61-850f-9472eae2c3a8",
      "meta": {
        "profile": [ "http://hl7.org/fhir/us/qicore/StructureDefinition/qicore-medicationadministration" ]
      },
      "status": "completed",
      "medicationCodeableConcept": {
        "coding": [ {
          "system": "http://www.nlm.nih.gov/research/umls/rxnorm",
          "code": "1010600",
          "display": "Opioids"
        } ]
      },
      "subject": {
        "reference": "Patient/31b40acc-ca5f-4d1d-bd83-4b1a14eb822e"
      },
      "effectivePeriod": {
        "start": "2026-10-31T08:00:00.000+00:00",
        "end": "2026-10-31T08:15:00.000+00:00"
      }
    },
    "request": {
      "method": "PUT",
      "url": "MedicationAdministration/596cf96f-f010-4d61-850f-9472eae2c3a8"
    }
  }, {
    "fullUrl": "https://madie.cms.gov/MedicationAdministration/4f4eb854-d8d0-4184-a618-b8be0d561f4a",
    "resource": {
      "resourceType": "MedicationAdministration",
      "id": "4f4eb854-d8d0-4184-a618-b8be0d561f4a",
      "meta": {
        "profile": [ "http://hl7.org/fhir/us/qicore/StructureDefinition/qicore-medicationadministration" ]
      },
      "status": "completed",
      "medicationCodeableConcept": {
        "coding": [ {
          "system": "http://www.nlm.nih.gov/research/umls/rxnorm",
          "code": "1725059",
          "display": "Naloxone (opioid antagonist)"
        } ]
      },
      "subject": {
        "reference": "Patient/31b40acc-ca5f-4d1d-bd83-4b1a14eb822e"
      },
      "effectiveDateTime": "2026-07-13T09:05:00.000+00:00",
      "dosage": {
        "route": {
          "coding": [ {
            "system": "http://snomed.info/sct",
            "code": "47625008",
            "display": "Subcutaneous route"
          } ]
        }
      }
    },
    "request": {
      "method": "PUT",
      "url": "MedicationAdministration/4f4eb854-d8d0-4184-a618-b8be0d561f4a"
    }
  }, {
    "fullUrl": "https://madie.cms.gov/Encounter/de36ea3b-fe15-4411-81e3-18cd1df1cb9b",
    "resource": {
      "resourceType": "Encounter",
      "id": "de36ea3b-fe15-4411-81e3-18cd1df1cb9b",
      "meta": {
        "profile": [ "http://hl7.org/fhir/us/qicore/StructureDefinition/qicore-encounter" ]
      },
      "status": "finished",
      "class": {
        "system": "http://terminology.hl7.org/CodeSystem/v3-ActCode",
        "code": "IMP",
        "display": "inpatient encounter"
      },
      "type": [ {
        "coding": [ {
          "system": "http://snomed.info/sct",
          "code": "183452005",
          "display": "Inpatient encounter"
        } ]
      } ],
      "subject": {
        "reference": "Patient/31b40acc-ca5f-4d1d-bd83-4b1a14eb822e"
      },
      "period": {
        "start": "2026-10-30T08:00:00.000+00:00",
        "end": "2026-11-09T08:15:00.000+00:00"
      }
    },
    "request": {
      "method": "PUT",
      "url": "Encounter/de36ea3b-fe15-4411-81e3-18cd1df1cb9b"
    }
  }, {
    "fullUrl": "https://madie.cms.gov/Encounter/de36ea3b-fe15-4411-81e3-18cd1df1cb9b",
    "resource": {
      "resourceType": "Encounter",
      "id": "de36ea3b-fe15-4411-81e3-18cd1df1cb9b",
      "meta": {
        "profile": [ "http://hl7.org/fhir/us/qicore/StructureDefinition/qicore-encounter" ]
      },
      "status": "finished",
      "class": {
        "system": "http://terminology.hl7.org/CodeSystem/v3-ActCode",
        "code": "IMP",
        "display": "inpatient encounter"
      },
      "type": [ {
        "coding": [ {
          "system": "http://snomed.info/sct",
          "code": "183452005",
          "display": "Inpatient encounter"
        } ]
      } ],
      "subject": {
        "reference": "Patient/31b40acc-ca5f-4d1d-bd83-4b1a14eb822e"
      },
      "period": {
        "start": "2026-07-11T08:00:00.000+00:00",
        "end": "2026-07-14T08:15:00.000+00:00"
      }
    },
    "request": {
      "method": "PUT",
      "url": "Encounter/de36ea3b-fe15-4411-81e3-18cd1df1cb9b"
    }
  }, {
    "fullUrl": "https://madie.cms.gov/Patient/31b40acc-ca5f-4d1d-bd83-4b1a14eb822e",
    "resource": {
      "resourceType": "Patient",
      "id": "31b40acc-ca5f-4d1d-bd83-4b1a14eb822e",
      "meta": {
        "profile": [ "http://hl7.org/fhir/us/qicore/StructureDefinition/qicore-patient" ]
      },
      "extension": [ {
        "url": "http://hl7.org/fhir/us/core/StructureDefinition/us-core-race",
        "extension": [ {
          "url": "ombCategory",
          "valueCoding": {
            "system": "urn:oid:2.16.840.1.113883.6.238",
            "code": "2106-3",
            "display": "White"
          }
        }, {
          "url": "text",
          "valueString": "White"
        } ]
      }, {
        "url": "http://hl7.org/fhir/us/core/StructureDefinition/us-core-ethnicity",
        "extension": [ {
          "url": "ombCategory",
          "valueCoding": {
            "system": "urn:oid:2.16.840.1.113883.6.238",
            "code": "2135-2",
            "display": "Hispanic or Latino"
          }
        }, {
          "url": "text",
          "valueString": "Hispanic or Latino"
        } ]
      }, {
        "url": "http://hl7.org/fhir/us/core/StructureDefinition/us-core-sex",
        "valueCode": "248153007"
      } ],
      "identifier": [ {
        "system": "http://hospital.smarthealthit.org",
        "value": "999999999"
      } ],
      "name": [ {
        "family": "Example",
        "given": [ "Patient" ]
      } ],
      "gender": "female",
      "birthDate": "1956-01-01"
    },
    "request": {
      "method": "PUT",
      "url": "Patient/31b40acc-ca5f-4d1d-bd83-4b1a14eb822e"
    }
  }, {
    "fullUrl": "https://madie.cms.gov/MeasureReport/c93e2b69-18fd-425e-8c71-b52eb967eda0",
    "resource": {
      "resourceType": "MeasureReport",
      "id": "c93e2b69-18fd-425e-8c71-b52eb967eda0",
      "meta": {
        "profile": [ "http://hl7.org/fhir/us/cqfmeasures/StructureDefinition/test-case-cqfm" ]
      },
      "contained": [ {
        "resourceType": "Parameters",
        "id": "1966c46b-69c9-4ae3-83bf-6087037f4187-parameters",
        "parameter": [ {
          "name": "subject",
          "valueString": "31b40acc-ca5f-4d1d-bd83-4b1a14eb822e"
        } ]
      } ],
      "extension": [ {
        "url": "http://hl7.org/fhir/StructureDefinition/cqf-inputParameters",
        "valueReference": {
          "reference": "#1966c46b-69c9-4ae3-83bf-6087037f4187-parameters"
        }
      }, {
        "url": "http://hl7.org/fhir/us/cqfmeasures/StructureDefinition/cqfm-testCaseDescription",
        "valueMarkdown": "Two separate encounters. Only one meets Numerator. 2nd encounter had opioid but no antagonist."
      } ],
      "modifierExtension": [ {
        "url": "http://hl7.org/fhir/us/cqfmeasures/StructureDefinition/cqfm-isTestCase",
        "valueBoolean": true
      } ],
      "status": "complete",
      "type": "individual",
      "measure": "https://madie.cms.gov/Measure/CMS819FHIRHHORAE",
      "period": {
        "start": "2026-01-01",
        "end": "2026-12-31"
      },
      "group": [ {
        "id": "Group_1",
        "population": [ {
          "id": "InitialPopulation_1",
          "code": {
            "coding": [ {
              "system": "http://terminology.hl7.org/CodeSystem/measure-population",
              "code": "initial-population",
              "display": "Initial Population"
            } ]
          },
          "count": 2
        }, {
          "id": "Denominator_1",
          "code": {
            "coding": [ {
              "system": "http://terminology.hl7.org/CodeSystem/measure-population",
              "code": "denominator",
              "display": "Denominator"
            } ]
          },
          "count": 2
        }, {
          "id": "Numerator_1",
          "code": {
            "coding": [ {
              "system": "http://terminology.hl7.org/CodeSystem/measure-population",
              "code": "numerator",
              "display": "Numerator"
            } ]
          },
          "count": 1
        } ],
        "measureScore": {
          "value": 0.0
        }
      } ],
      "evaluatedResource": [ {
        "reference": "MedicationAdministration/35ffc7f5-577e-4402-9977-5a72a517bc27"
      }, {
        "reference": "MedicationAdministration/596cf96f-f010-4d61-850f-9472eae2c3a8"
      }, {
        "reference": "MedicationAdministration/4f4eb854-d8d0-4184-a618-b8be0d561f4a"
      }, {
        "reference": "Encounter/de36ea3b-fe15-4411-81e3-18cd1df1cb9b"
      }, {
        "reference": "Encounter/de36ea3b-fe15-4411-81e3-18cd1df1cb9b"
      }, {
        "reference": "Patient/31b40acc-ca5f-4d1d-bd83-4b1a14eb822e"
      } ]
    },
    "request": {
      "method": "PUT",
      "url": "MeasureReport/c93e2b69-18fd-425e-8c71-b52eb967eda0"
    }
  } ]
}