{
  "resourceType": "Bundle",
  "id": "63487c2e0968f8012254017d",
  "type": "transaction",
  "entry": [ {
    "fullUrl": "https://madie.cms.gov/Patient/d66f6c59-6a3f-4e15-b39d-74c91cb12a02",
    "resource": {
      "resourceType": "Patient",
      "id": "d66f6c59-6a3f-4e15-b39d-74c91cb12a02",
      "meta": {
        "profile": [ "http://hl7.org/fhir/us/qicore/StructureDefinition/qicore-patient" ]
      },
      "text": {
        "status": "generated",
        "div": "<div xmlns=\"http://www.w3.org/1999/xhtml\"><div class=\"hapiHeaderText\">AssessTimeOfDelivRelvDateTimeAfterDelivEnc<b>DENOMFail</b></div><table class=\"hapiPropertyTable\"><tbody><tr><td>Identifier</td><td>b1148e48a87a22456174205c8541090787eeef6a1972002ada41ee86a84e67fb</td></tr><tr><td>Date of birth</td><td><span>14 February 1985</span></td></tr></tbody></table></div>"
      },
      "extension": [ {
        "url": "http://hl7.org/fhir/us/core/StructureDefinition/us-core-race",
        "extension": [ {
          "url": "ombCategory",
          "valueCoding": {
            "system": "urn:oid:2.16.840.1.113883.6.238",
            "code": "1002-5",
            "display": "American Indian or Alaska Native",
            "userSelected": true
          }
        }, {
          "url": "text",
          "valueString": "American Indian or Alaska Native"
        } ]
      }, {
        "url": "http://hl7.org/fhir/us/core/StructureDefinition/us-core-ethnicity",
        "extension": [ {
          "url": "ombCategory",
          "valueCoding": {
            "system": "urn:oid:2.16.840.1.113883.6.238",
            "code": "2135-2",
            "display": "Hispanic or Latino",
            "userSelected": true
          }
        }, {
          "url": "text",
          "valueString": "Hispanic or Latino"
        } ]
      } ],
      "identifier": [ {
        "type": {
          "coding": [ {
            "system": "http://terminology.hl7.org/CodeSystem/v2-0203",
            "code": "MR"
          } ]
        },
        "system": "https://bonnie-fhir.healthit.gov/",
        "value": "63487c2e0968f8012254017d"
      } ],
      "active": true,
      "name": [ {
        "use": "usual",
        "family": "DENOMFail",
        "given": [ "AssessTimeOfDelivRelvDateTimeAfterDelivEnc" ]
      } ],
      "gender": "female",
      "birthDate": "1998-02-14"
    },
    "request": {
      "method": "PUT",
      "url": "Patient/d66f6c59-6a3f-4e15-b39d-74c91cb12a02"
    }
  }, {
    "fullUrl": "https://madie.cms.gov/Observation/45ad67b1-cda0-48a4-9c75-067a308bb3e9",
    "resource": {
      "resourceType": "Observation",
      "id": "45ad67b1-cda0-48a4-9c75-067a308bb3e9",
      "meta": {
        "profile": [ "http://hl7.org/fhir/us/qicore/StructureDefinition/qicore-simple-observation" ]
      },
      "status": "final",
      "category": [ {
        "coding": [ {
          "system": "http://terminology.hl7.org/CodeSystem/observation-category",
          "code": "exam",
          "display": "exam",
          "userSelected": true
        } ]
      } ],
      "code": {
        "coding": [ {
          "system": "http://loinc.org",
          "code": "11996-6"
        } ]
      },
      "subject": {
        "reference": "Patient/d66f6c59-6a3f-4e15-b39d-74c91cb12a02"
      },
      "effectiveDateTime": "2026-06-08T08:00:00.000+00:00",
      "valueInteger": 1
    },
    "request": {
      "method": "PUT",
      "url": "Observation/45ad67b1-cda0-48a4-9c75-067a308bb3e9"
    }
  }, {
    "fullUrl": "https://madie.cms.gov/Observation/6031d76f-66d1-432a-8181-06e0412e1f9d",
    "resource": {
      "resourceType": "Observation",
      "id": "6031d76f-66d1-432a-8181-06e0412e1f9d",
      "meta": {
        "profile": [ "http://hl7.org/fhir/us/qicore/StructureDefinition/qicore-simple-observation" ]
      },
      "status": "final",
      "category": [ {
        "coding": [ {
          "system": "http://terminology.hl7.org/CodeSystem/observation-category",
          "code": "exam",
          "display": "exam",
          "userSelected": true
        } ]
      } ],
      "code": {
        "coding": [ {
          "system": "http://loinc.org",
          "code": "11884-4"
        } ]
      },
      "subject": {
        "reference": "Patient/d66f6c59-6a3f-4e15-b39d-74c91cb12a02"
      },
      "effectiveDateTime": "2026-06-08T09:15:00.000+00:00",
      "valueQuantity": {
        "value": 38,
        "system": "http://unitsofmeasure.org",
        "code": "wk"
      }
    },
    "request": {
      "method": "PUT",
      "url": "Observation/6031d76f-66d1-432a-8181-06e0412e1f9d"
    }
  }, {
    "fullUrl": "https://madie.cms.gov/Observation/d1e485a7-fc11-4080-9313-8e076e29ad43",
    "resource": {
      "resourceType": "Observation",
      "id": "d1e485a7-fc11-4080-9313-8e076e29ad43",
      "meta": {
        "profile": [ "http://hl7.org/fhir/us/qicore/StructureDefinition/qicore-simple-observation" ]
      },
      "status": "final",
      "category": [ {
        "coding": [ {
          "system": "http://terminology.hl7.org/CodeSystem/observation-category",
          "code": "exam",
          "display": "exam",
          "userSelected": true
        } ]
      } ],
      "code": {
        "coding": [ {
          "system": "http://loinc.org",
          "code": "93857-1"
        } ]
      },
      "subject": {
        "reference": "Patient/d66f6c59-6a3f-4e15-b39d-74c91cb12a02"
      },
      "effectiveDateTime": "2026-06-10T08:16:00.000+00:00",
      "valueDateTime": "2026-06-10T08:16:00.000+00:00"
    },
    "request": {
      "method": "PUT",
      "url": "Observation/d1e485a7-fc11-4080-9313-8e076e29ad43"
    }
  }, {
    "fullUrl": "https://madie.cms.gov/Encounter/a3edda95-47ff-49ef-8d19-e583e9b22571",
    "resource": {
      "resourceType": "Encounter",
      "id": "a3edda95-47ff-49ef-8d19-e583e9b22571",
      "meta": {
        "profile": [ "http://hl7.org/fhir/us/qicore/StructureDefinition/qicore-encounter" ]
      },
      "status": "finished",
      "class": {
        "system": "http://terminology.hl7.org/CodeSystem/v3-ActCode",
        "code": "IMP",
        "display": "inpatient encounter"
      },
      "type": [ {
        "coding": [ {
          "system": "http://snomed.info/sct",
          "code": "183452005"
        } ]
      } ],
      "subject": {
        "reference": "Patient/d66f6c59-6a3f-4e15-b39d-74c91cb12a02"
      },
      "period": {
        "start": "2026-06-08T08:00:00.000+00:00",
        "end": "2026-06-10T08:15:00.000+00:00"
      },
      "length": {
        "value": 2,
        "unit": "days"
      },
      "reasonReference": [ {
        "reference": "Condition/be454efa-5c64-4f23-a28a-33570ce5250c"
      } ]
    },
    "request": {
      "method": "PUT",
      "url": "Encounter/a3edda95-47ff-49ef-8d19-e583e9b22571"
    }
  }, {
    "fullUrl": "https://madie.cms.gov/Procedure/d8f4465f-f977-4c66-b3e6-16c048beda5c",
    "resource": {
      "resourceType": "Procedure",
      "id": "d8f4465f-f977-4c66-b3e6-16c048beda5c",
      "meta": {
        "profile": [ "http://hl7.org/fhir/us/qicore/StructureDefinition/qicore-procedure" ]
      },
      "extension": [ {
        "url": "http://hl7.org/fhir/us/qicore/StructureDefinition/qicore-recorded",
        "valueDateTime": "2014-04-05T13:35:00.000+00:00"
      } ],
      "status": "completed",
      "code": {
        "coding": [ {
          "system": "http://www.cms.gov/Medicare/Coding/ICD10",
          "code": "10D00Z0"
        }, {
          "system": "http://www.icd10data.com/icd10pcs",
          "code": "10D00Z0",
          "userSelected": true
        } ]
      },
      "subject": {
        "reference": "Patient/d66f6c59-6a3f-4e15-b39d-74c91cb12a02"
      },
      "performedPeriod": {
        "start": "2026-06-08T08:00:00.000+00:00",
        "end": "2026-06-08T09:15:00.000+00:00"
      }
    },
    "request": {
      "method": "PUT",
      "url": "Procedure/d8f4465f-f977-4c66-b3e6-16c048beda5c"
    }
  }, {
    "fullUrl": "https://madie.cms.gov/Condition/be454efa-5c64-4f23-a28a-33570ce5250c",
    "resource": {
      "resourceType": "Condition",
      "id": "be454efa-5c64-4f23-a28a-33570ce5250c",
      "meta": {
        "profile": [ "http://hl7.org/fhir/us/qicore/StructureDefinition/qicore-condition-encounter-diagnosis" ]
      },
      "category": [ {
        "coding": [ {
          "system": "http://terminology.hl7.org/CodeSystem/condition-category",
          "code": "encounter-diagnosis",
          "display": "Encounter Diagnosis"
        } ]
      } ],
      "code": {
        "coding": [ {
          "system": "http://snomed.info/sct",
          "version": "2022-09",
          "code": "169826009",
          "display": "Single live birth from singleton pregnancy (finding)",
          "userSelected": true
        } ]
      },
      "subject": {
        "reference": "Patient/d66f6c59-6a3f-4e15-b39d-74c91cb12a02"
      },
      "encounter": {
        "reference": "Encounter/a3edda95-47ff-49ef-8d19-e583e9b22571"
      },
      "recordedDate": "2026-10-21T08:00:00.000+00:00"
    },
    "request": {
      "method": "PUT",
      "url": "Condition/be454efa-5c64-4f23-a28a-33570ce5250c"
    }
  }, {
    "fullUrl": "https://madie.cms.gov/Coverage/4ac9bd17-266e-4da1-a4de-afd19099f5a4",
    "resource": {
      "resourceType": "Coverage",
      "id": "4ac9bd17-266e-4da1-a4de-afd19099f5a4",
      "meta": {
        "profile": [ "http://hl7.org/fhir/us/qicore/StructureDefinition/qicore-coverage" ]
      },
      "status": "active",
      "subscriberId": "523435",
      "beneficiary": {
        "reference": "Patient/d66f6c59-6a3f-4e15-b39d-74c91cb12a02"
      },
      "relationship": {
        "coding": [ {
          "system": "http://terminology.hl7.org/CodeSystem/subscriber-relationship",
          "code": "self"
        } ]
      },
      "payor": [ {
        "reference": "Organization/0925e072-b982-4043-946b-42811e7303c1"
      } ]
    },
    "request": {
      "method": "PUT",
      "url": "Coverage/4ac9bd17-266e-4da1-a4de-afd19099f5a4"
    }
  }, {
    "fullUrl": "https://madie.cms.gov/Organization/0925e072-b982-4043-946b-42811e7303c1",
    "resource": {
      "resourceType": "Organization",
      "id": "0925e072-b982-4043-946b-42811e7303c1",
      "meta": {
        "profile": [ "http://hl7.org/fhir/us/qicore/StructureDefinition/qicore-organization" ]
      },
      "identifier": [ {
        "use": "temp",
        "system": "urn:oid:2.16.840.1.113883.4.4",
        "value": "21-3259825"
      } ],
      "active": true,
      "type": [ {
        "coding": [ {
          "system": "http://terminology.hl7.org/CodeSystem/organization-type",
          "code": "pay",
          "display": "Payer"
        } ]
      } ],
      "name": "Blue Cross Blue Shield of Texas",
      "telecom": [ {
        "system": "phone",
        "value": "(+1) 972-766-6900"
      } ],
      "address": [ {
        "use": "billing",
        "type": "postal",
        "line": [ "P.O. Box 660044" ],
        "city": "Dallas",
        "state": "TX",
        "postalCode": "75266-0044",
        "country": "USA"
      } ]
    },
    "request": {
      "method": "PUT",
      "url": "Organization/0925e072-b982-4043-946b-42811e7303c1"
    }
  }, {
    "fullUrl": "https://madie.cms.gov/Practitioner/218d083b-bad7-4d58-b0d2-4710448f995e",
    "resource": {
      "resourceType": "Practitioner",
      "id": "218d083b-bad7-4d58-b0d2-4710448f995e",
      "meta": {
        "profile": [ "http://hl7.org/fhir/us/qicore/StructureDefinition/qicore-practitioner" ]
      },
      "identifier": [ {
        "system": "http://hl7.org/fhir/sid/us-npi",
        "value": "1234567890"
      } ],
      "name": [ {
        "family": "Evil",
        "prefix": [ "Dr" ]
      } ]
    },
    "request": {
      "method": "PUT",
      "url": "Practitioner/218d083b-bad7-4d58-b0d2-4710448f995e"
    }
  }, {
    "fullUrl": "https://madie.cms.gov/MeasureReport/79e07733-706b-4861-be0c-3fd727ae0e0f",
    "resource": {
      "resourceType": "MeasureReport",
      "id": "79e07733-706b-4861-be0c-3fd727ae0e0f",
      "meta": {
        "profile": [ "http://hl7.org/fhir/us/cqfmeasures/StructureDefinition/test-case-cqfm" ]
      },
      "contained": [ {
        "resourceType": "Parameters",
        "id": "3efd0a48-93eb-4766-b1a7-b84d7dea3fb4-parameters",
        "parameter": [ {
          "name": "subject",
          "valueString": "d66f6c59-6a3f-4e15-b39d-74c91cb12a02"
        } ]
      } ],
      "extension": [ {
        "url": "http://hl7.org/fhir/StructureDefinition/cqf-inputParameters",
        "valueReference": {
          "reference": "#3efd0a48-93eb-4766-b1a7-b84d7dea3fb4-parameters"
        }
      }, {
        "url": "http://hl7.org/fhir/us/cqfmeasures/StructureDefinition/cqfm-testCaseDescription",
        "valueMarkdown": "Passes: IP, Pt is 27 years of age,  encounter dx of delivery of singleton, gravida, EGA @ 38 weeks, AssessTimeOfDeliv Relevant DateTime After DelivEnc.  Tests \"TimeOfDelivery.relevantDatetime during DeliveryEncounters.relevantPeriod\".\n"
      } ],
      "modifierExtension": [ {
        "url": "http://hl7.org/fhir/us/cqfmeasures/StructureDefinition/cqfm-isTestCase",
        "valueBoolean": true
      } ],
      "status": "complete",
      "type": "individual",
      "measure": "https://madie.cms.gov/Measure/CMS0334FHIRPCCesareanBirth",
      "period": {
        "start": "2026-01-01",
        "end": "2026-12-31"
      },
      "group": [ {
        "id": "Group_1",
        "population": [ {
          "id": "InitialPopulation_1",
          "code": {
            "coding": [ {
              "system": "http://terminology.hl7.org/CodeSystem/measure-population",
              "code": "initial-population",
              "display": "Initial Population"
            } ]
          },
          "count": 1
        }, {
          "id": "Denominator_1",
          "code": {
            "coding": [ {
              "system": "http://terminology.hl7.org/CodeSystem/measure-population",
              "code": "denominator",
              "display": "Denominator"
            } ]
          },
          "count": 0
        }, {
          "id": "DenominatorExclusion_1",
          "code": {
            "coding": [ {
              "system": "http://terminology.hl7.org/CodeSystem/measure-population",
              "code": "denominator-exclusion",
              "display": "Denominator Exclusion"
            } ]
          },
          "count": 0
        }, {
          "id": "Numerator_1",
          "code": {
            "coding": [ {
              "system": "http://terminology.hl7.org/CodeSystem/measure-population",
              "code": "numerator",
              "display": "Numerator"
            } ]
          },
          "count": 0
        } ],
        "measureScore": {
          "value": 0.0
        }
      } ],
      "evaluatedResource": [ {
        "reference": "Patient/d66f6c59-6a3f-4e15-b39d-74c91cb12a02"
      }, {
        "reference": "Observation/45ad67b1-cda0-48a4-9c75-067a308bb3e9"
      }, {
        "reference": "Observation/6031d76f-66d1-432a-8181-06e0412e1f9d"
      }, {
        "reference": "Observation/d1e485a7-fc11-4080-9313-8e076e29ad43"
      }, {
        "reference": "Encounter/a3edda95-47ff-49ef-8d19-e583e9b22571"
      }, {
        "reference": "Procedure/d8f4465f-f977-4c66-b3e6-16c048beda5c"
      }, {
        "reference": "Condition/be454efa-5c64-4f23-a28a-33570ce5250c"
      }, {
        "reference": "Coverage/4ac9bd17-266e-4da1-a4de-afd19099f5a4"
      }, {
        "reference": "Organization/0925e072-b982-4043-946b-42811e7303c1"
      }, {
        "reference": "Practitioner/218d083b-bad7-4d58-b0d2-4710448f995e"
      } ]
    },
    "request": {
      "method": "PUT",
      "url": "MeasureReport/79e07733-706b-4861-be0c-3fd727ae0e0f"
    }
  } ]
}