{
  "resourceType": "Bundle",
  "id": "62aa5cf9c4be4c506d4a5344",
  "type": "collection",
  "entry": [ {
    "fullUrl": "https://madie.cms.gov/Patient/09e4ff5a-fe3b-4c89-a36e-68f64c7e489c",
    "resource": {
      "resourceType": "Patient",
      "id": "09e4ff5a-fe3b-4c89-a36e-68f64c7e489c",
      "meta": {
        "profile": [ "http://hl7.org/fhir/us/qicore/StructureDefinition/qicore-patient" ]
      },
      "extension": [ {
        "url": "http://hl7.org/fhir/us/core/StructureDefinition/us-core-race",
        "extension": [ {
          "url": "ombCategory",
          "valueCoding": {
            "system": "urn:oid:2.16.840.1.113883.6.238",
            "code": "2028-9",
            "display": "Asian",
            "userSelected": true
          }
        }, {
          "url": "text",
          "valueString": "Asian"
        } ]
      }, {
        "url": "http://hl7.org/fhir/us/core/StructureDefinition/us-core-ethnicity",
        "extension": [ {
          "url": "ombCategory",
          "valueCoding": {
            "system": "urn:oid:2.16.840.1.113883.6.238",
            "code": "2186-5",
            "display": "Not Hispanic or Latino",
            "userSelected": true
          }
        }, {
          "url": "text",
          "valueString": "Not Hispanic or Latino"
        } ]
      } ],
      "identifier": [ {
        "type": {
          "coding": [ {
            "system": "http://terminology.hl7.org/CodeSystem/v2-0203",
            "code": "MR"
          } ]
        },
        "system": "https://bonnie-fhir.healthit.gov/",
        "value": "62aa5cf9c4be4c506d4a5344"
      } ],
      "name": [ {
        "family": "DENEXPass",
        "given": [ "PalliativeCareProcedure" ]
      } ],
      "gender": "female",
      "birthDate": "2001-01-01"
    }
  }, {
    "fullUrl": "https://madie.cms.gov/Encounter/a66d279e-2878-494a-adc3-cc0d2b4a0ba7",
    "resource": {
      "resourceType": "Encounter",
      "id": "a66d279e-2878-494a-adc3-cc0d2b4a0ba7",
      "meta": {
        "profile": [ "http://hl7.org/fhir/us/qicore/StructureDefinition/qicore-encounter" ]
      },
      "status": "finished",
      "class": {
        "system": "http://terminology.hl7.org/CodeSystem/v3-ActCode",
        "code": "AMB",
        "display": "ambulatory"
      },
      "type": [ {
        "coding": [ {
          "system": "http://snomed.info/sct",
          "code": "10197000",
          "display": "Psychiatric interview and evaluation (procedure)",
          "userSelected": true
        } ]
      } ],
      "subject": {
        "reference": "Patient/09e4ff5a-fe3b-4c89-a36e-68f64c7e489c"
      },
      "period": {
        "start": "2026-01-01T08:00:00.000+00:00",
        "end": "2026-01-01T08:15:00.000+00:00"
      }
    }
  }, {
    "fullUrl": "https://madie.cms.gov/Procedure/0da930e5-4ae2-4961-af12-741668a51e3c",
    "resource": {
      "resourceType": "Procedure",
      "id": "0da930e5-4ae2-4961-af12-741668a51e3c",
      "meta": {
        "profile": [ "http://hl7.org/fhir/us/qicore/StructureDefinition/qicore-procedure" ]
      },
      "extension": [ {
        "url": "http://hl7.org/fhir/us/qicore/StructureDefinition/qicore-recorded",
        "valueDateTime": "2026-01-01T08:05:00.000+00:00"
      } ],
      "status": "completed",
      "code": {
        "coding": [ {
          "system": "http://snomed.info/sct",
          "code": "103735009",
          "display": "Palliative care (regime/therapy)",
          "userSelected": true
        } ]
      },
      "subject": {
        "reference": "Patient/09e4ff5a-fe3b-4c89-a36e-68f64c7e489c"
      },
      "performedDateTime": "2026-01-01T08:00:00.000+00:00"
    }
  }, {
    "fullUrl": "https://madie.cms.gov/Coverage/4c249977-3ab4-4063-80c5-431b457d88b7",
    "resource": {
      "resourceType": "Coverage",
      "id": "4c249977-3ab4-4063-80c5-431b457d88b7",
      "meta": {
        "profile": [ "http://hl7.org/fhir/us/qicore/StructureDefinition/qicore-coverage" ]
      },
      "status": "active",
      "subscriberId": "123456",
      "beneficiary": {
        "reference": "Patient/09e4ff5a-fe3b-4c89-a36e-68f64c7e489c"
      },
      "relationship": {
        "coding": [ {
          "system": "http://terminology.hl7.org/CodeSystem/subscriber-relationship",
          "code": "self",
          "display": "Self",
          "userSelected": true
        } ]
      },
      "payor": [ {
        "reference": "Organization/bbc747a0-c6ef-45fe-b537-55d5591deca8"
      } ]
    }
  }, {
    "fullUrl": "https://madie.cms.gov/Organization/bbc747a0-c6ef-45fe-b537-55d5591deca8",
    "resource": {
      "resourceType": "Organization",
      "id": "bbc747a0-c6ef-45fe-b537-55d5591deca8",
      "meta": {
        "profile": [ "http://hl7.org/fhir/us/qicore/StructureDefinition/qicore-organization" ]
      },
      "identifier": [ {
        "use": "temp",
        "system": "urn:oid:2.16.840.1.113883.4.4",
        "value": "21-3259825"
      } ],
      "active": true,
      "type": [ {
        "coding": [ {
          "system": "http://terminology.hl7.org/CodeSystem/organization-type",
          "code": "pay",
          "display": "Payer"
        } ]
      } ],
      "name": "Blue Cross Blue Shield of Texas",
      "telecom": [ {
        "system": "phone",
        "value": "(+1) 972-766-6900"
      } ],
      "address": [ {
        "use": "billing",
        "type": "postal",
        "line": [ "P.O. Box 660044" ],
        "city": "Dallas",
        "state": "TX",
        "postalCode": "75266-0044",
        "country": "USA"
      } ]
    }
  }, {
    "fullUrl": "https://madie.cms.gov/Practitioner/d35fab37-9968-4c52-94c3-79778d331ddc",
    "resource": {
      "resourceType": "Practitioner",
      "id": "d35fab37-9968-4c52-94c3-79778d331ddc",
      "meta": {
        "profile": [ "http://hl7.org/fhir/us/qicore/StructureDefinition/qicore-practitioner" ]
      },
      "identifier": [ {
        "system": "http://hl7.org/fhir/sid/us-npi",
        "value": "1234567893"
      } ],
      "name": [ {
        "family": "Evil",
        "prefix": [ "Dr" ]
      } ]
    }
  }, {
    "fullUrl": "https://madie.cms.gov/MeasureReport/2170ac3f-1253-4fe4-b62e-a859b14250bb",
    "resource": {
      "resourceType": "MeasureReport",
      "id": "2170ac3f-1253-4fe4-b62e-a859b14250bb",
      "meta": {
        "profile": [ "http://hl7.org/fhir/us/cqfmeasures/StructureDefinition/test-case-cqfm" ]
      },
      "contained": [ {
        "resourceType": "Parameters",
        "id": "2c255c0a-bc90-4ccb-b0e9-224e1342b5d0-parameters",
        "parameter": [ {
          "name": "subject",
          "valueString": "09e4ff5a-fe3b-4c89-a36e-68f64c7e489c"
        } ]
      } ],
      "extension": [ {
        "url": "http://hl7.org/fhir/StructureDefinition/cqf-inputParameters",
        "valueReference": {
          "reference": "#2c255c0a-bc90-4ccb-b0e9-224e1342b5d0-parameters"
        }
      }, {
        "url": "http://hl7.org/fhir/us/cqfmeasures/StructureDefinition/cqfm-testCaseDescription",
        "valueMarkdown": "Enc first day of MP patient has palliative care"
      } ],
      "modifierExtension": [ {
        "url": "http://hl7.org/fhir/us/cqfmeasures/StructureDefinition/cqfm-isTestCase",
        "valueBoolean": true
      } ],
      "status": "complete",
      "type": "individual",
      "measure": "https://madie.cms.gov/Measure/CMS69FHIRPCSBMIScreenAndFollowUp",
      "period": {
        "start": "2026-01-01",
        "end": "2026-12-31"
      },
      "group": [ {
        "id": "Group_1",
        "population": [ {
          "id": "InitialPopulation_1",
          "code": {
            "coding": [ {
              "system": "http://terminology.hl7.org/CodeSystem/measure-population",
              "code": "initial-population",
              "display": "Initial Population"
            } ]
          },
          "count": 1
        }, {
          "id": "Denominator_1",
          "code": {
            "coding": [ {
              "system": "http://terminology.hl7.org/CodeSystem/measure-population",
              "code": "denominator",
              "display": "Denominator"
            } ]
          },
          "count": 1
        }, {
          "id": "DenominatorExclusion_1",
          "code": {
            "coding": [ {
              "system": "http://terminology.hl7.org/CodeSystem/measure-population",
              "code": "denominator-exclusion",
              "display": "Denominator Exclusion"
            } ]
          },
          "count": 1
        }, {
          "id": "Numerator_1",
          "code": {
            "coding": [ {
              "system": "http://terminology.hl7.org/CodeSystem/measure-population",
              "code": "numerator",
              "display": "Numerator"
            } ]
          },
          "count": 0
        }, {
          "id": "DenominatorException_1",
          "code": {
            "coding": [ {
              "system": "http://terminology.hl7.org/CodeSystem/measure-population",
              "code": "denominator-exception",
              "display": "Denominator Exception"
            } ]
          },
          "count": 0
        } ],
        "measureScore": {
          "value": 1.0
        }
      } ],
      "evaluatedResource": [ {
        "reference": "Patient/09e4ff5a-fe3b-4c89-a36e-68f64c7e489c"
      }, {
        "reference": "Encounter/a66d279e-2878-494a-adc3-cc0d2b4a0ba7"
      }, {
        "reference": "Procedure/0da930e5-4ae2-4961-af12-741668a51e3c"
      }, {
        "reference": "Coverage/4c249977-3ab4-4063-80c5-431b457d88b7"
      }, {
        "reference": "Organization/bbc747a0-c6ef-45fe-b537-55d5591deca8"
      }, {
        "reference": "Practitioner/d35fab37-9968-4c52-94c3-79778d331ddc"
      } ]
    }
  } ]
}