{
  "resourceType": "Bundle",
  "id": "649607f98111d47e2b91f021",
  "type": "collection",
  "entry": [ {
    "fullUrl": "https://madie.cms.gov/Patient/9947d6a4-aff5-49ab-8a01-c3c438a7faa2",
    "resource": {
      "resourceType": "Patient",
      "id": "9947d6a4-aff5-49ab-8a01-c3c438a7faa2",
      "meta": {
        "profile": [ "http://hl7.org/fhir/us/qicore/StructureDefinition/qicore-patient" ]
      },
      "extension": [ {
        "url": "http://hl7.org/fhir/us/core/StructureDefinition/us-core-race",
        "extension": [ {
          "url": "ombCategory",
          "valueCoding": {
            "system": "urn:oid:2.16.840.1.113883.6.238",
            "code": "2054-5",
            "display": "Black or African American",
            "userSelected": true
          }
        }, {
          "url": "text",
          "valueString": "Black or African American"
        } ]
      }, {
        "url": "http://hl7.org/fhir/us/core/StructureDefinition/us-core-ethnicity",
        "extension": [ {
          "url": "ombCategory",
          "valueCoding": {
            "system": "urn:oid:2.16.840.1.113883.6.238",
            "code": "2186-5",
            "display": "Not Hispanic or Latino",
            "userSelected": true
          }
        }, {
          "url": "text",
          "valueString": "Not Hispanic or Latino"
        } ]
      } ],
      "identifier": [ {
        "type": {
          "coding": [ {
            "system": "http://terminology.hl7.org/CodeSystem/v2-0203",
            "code": "MR"
          } ]
        },
        "system": "https://bonnie-fhir.healthit.gov/",
        "value": "649607f98111d47e2b91f021"
      } ],
      "name": [ {
        "family": "NumPass",
        "given": [ "AllLabTestsBeforeEncAndBooleanValue" ]
      } ],
      "gender": "female",
      "birthDate": "2001-02-04"
    }
  }, {
    "fullUrl": "https://madie.cms.gov/Condition/32ff0d8c-9081-4468-ae23-6eb69353f90e",
    "resource": {
      "resourceType": "Condition",
      "id": "32ff0d8c-9081-4468-ae23-6eb69353f90e",
      "meta": {
        "profile": [ "http://hl7.org/fhir/us/qicore/StructureDefinition/qicore-condition-problems-health-concerns" ]
      },
      "clinicalStatus": {
        "coding": [ {
          "system": "http://terminology.hl7.org/CodeSystem/condition-clinical",
          "code": "active",
          "display": "active",
          "userSelected": true
        } ]
      },
      "category": [ {
        "coding": [ {
          "system": "http://terminology.hl7.org/CodeSystem/condition-category",
          "code": "problem-list-item",
          "display": "Problem List Item"
        } ]
      } ],
      "code": {
        "coding": [ {
          "system": "http://hl7.org/fhir/sid/icd-9-cm",
          "version": "2013",
          "code": "042",
          "display": "Human immunodeficiency virus [HIV] disease",
          "userSelected": true
        }, {
          "system": "http://snomed.info/sct",
          "version": "http://snomed.info/sct/731000124108/version/20250301",
          "code": "165816005",
          "userSelected": true
        } ]
      },
      "subject": {
        "reference": "Patient/9947d6a4-aff5-49ab-8a01-c3c438a7faa2"
      },
      "onsetDateTime": "2018-09-28T08:00:00.000+00:00",
      "recordedDate": "2018-09-28T08:00:00.000+00:00"
    }
  }, {
    "fullUrl": "https://madie.cms.gov/Encounter/e8bb6b70-03f0-483c-818f-b355606ffe44",
    "resource": {
      "resourceType": "Encounter",
      "id": "e8bb6b70-03f0-483c-818f-b355606ffe44",
      "meta": {
        "profile": [ "http://hl7.org/fhir/us/qicore/StructureDefinition/qicore-encounter" ]
      },
      "status": "finished",
      "class": {
        "system": "http://terminology.hl7.org/CodeSystem/v3-ActCode",
        "code": "AMB",
        "display": "ambulatory"
      },
      "type": [ {
        "coding": [ {
          "system": "http://www.ama-assn.org/go/cpt",
          "version": "2023",
          "code": "99391",
          "display": "Periodic comprehensive preventive medicine reevaluation and management of an individual including an age and gender appropriate history, examination, counseling/anticipatory guidance/risk factor reduction interventions, and the ordering of laboratory/diagnostic procedures, established patient; infant (age younger than 1 year)",
          "userSelected": true
        } ]
      } ],
      "subject": {
        "reference": "Patient/9947d6a4-aff5-49ab-8a01-c3c438a7faa2"
      },
      "period": {
        "start": "2026-09-29T08:00:00.000+00:00",
        "end": "2026-09-29T08:30:00.000+00:00"
      }
    }
  }, {
    "fullUrl": "https://madie.cms.gov/Observation/9b897841-d3af-4499-86c6-8efbd70bd7db",
    "resource": {
      "resourceType": "Observation",
      "id": "9b897841-d3af-4499-86c6-8efbd70bd7db",
      "meta": {
        "profile": [ "http://hl7.org/fhir/us/qicore/StructureDefinition/qicore-observation-lab" ]
      },
      "status": "final",
      "category": [ {
        "coding": [ {
          "system": "http://terminology.hl7.org/CodeSystem/observation-category",
          "code": "laboratory",
          "display": "Laboratory"
        } ]
      }, {
        "coding": [ {
          "system": "http://terminology.hl7.org/CodeSystem/observation-category",
          "code": "survey"
        } ]
      } ],
      "code": {
        "coding": [ {
          "system": "http://loinc.org",
          "version": "2.73",
          "code": "14463-4",
          "display": "Chlamydia trachomatis [Presence] in Cervix by Organism specific culture",
          "userSelected": true
        } ]
      },
      "subject": {
        "reference": "Patient/9947d6a4-aff5-49ab-8a01-c3c438a7faa2"
      },
      "effectivePeriod": {
        "start": "2026-08-30T08:00:00.000+00:00",
        "end": "2026-08-30T08:16:00.000+00:00"
      },
      "issued": "2026-08-30T08:00:00.000+00:00",
      "valueQuantity": {
        "value": 16
      }
    }
  }, {
    "fullUrl": "https://madie.cms.gov/Observation/49ed57d9-b912-42e7-8e34-688b72139687",
    "resource": {
      "resourceType": "Observation",
      "id": "49ed57d9-b912-42e7-8e34-688b72139687",
      "meta": {
        "profile": [ "http://hl7.org/fhir/us/qicore/StructureDefinition/qicore-observation-lab" ]
      },
      "status": "final",
      "category": [ {
        "coding": [ {
          "system": "http://terminology.hl7.org/CodeSystem/observation-category",
          "code": "laboratory",
          "display": "Laboratory"
        } ]
      }, {
        "coding": [ {
          "system": "http://terminology.hl7.org/CodeSystem/observation-category",
          "code": "survey"
        } ]
      } ],
      "code": {
        "coding": [ {
          "system": "http://loinc.org",
          "version": "2.73",
          "code": "21415-5",
          "display": "Neisseria gonorrhoeae DNA [Presence] in Urethra by NAA with probe detection",
          "userSelected": true
        } ]
      },
      "subject": {
        "reference": "Patient/9947d6a4-aff5-49ab-8a01-c3c438a7faa2"
      },
      "effectivePeriod": {
        "start": "2026-08-30T08:00:00.000+00:00",
        "end": "2026-08-30T08:15:00.000+00:00"
      },
      "issued": "2026-08-30T08:00:00.000+00:00",
      "valueQuantity": {
        "value": 19
      }
    }
  }, {
    "fullUrl": "https://madie.cms.gov/Observation/1dd0caea-81c4-4691-8cca-dfde576277c3",
    "resource": {
      "resourceType": "Observation",
      "id": "1dd0caea-81c4-4691-8cca-dfde576277c3",
      "meta": {
        "profile": [ "http://hl7.org/fhir/us/qicore/StructureDefinition/qicore-observation-lab" ]
      },
      "status": "final",
      "category": [ {
        "coding": [ {
          "system": "http://terminology.hl7.org/CodeSystem/observation-category",
          "code": "laboratory",
          "display": "Laboratory"
        } ]
      }, {
        "coding": [ {
          "system": "http://terminology.hl7.org/CodeSystem/observation-category",
          "code": "survey"
        } ]
      } ],
      "code": {
        "coding": [ {
          "system": "http://loinc.org",
          "version": "2.73",
          "code": "11084-1",
          "display": "Reagin Ab [Titer] in Serum",
          "userSelected": true
        } ]
      },
      "subject": {
        "reference": "Patient/9947d6a4-aff5-49ab-8a01-c3c438a7faa2"
      },
      "effectivePeriod": {
        "start": "2026-08-30T08:00:00.000+00:00",
        "end": "2026-08-30T08:15:00.000+00:00"
      },
      "issued": "2026-08-30T08:00:00.000+00:00",
      "valueBoolean": true
    }
  }, {
    "fullUrl": "https://madie.cms.gov/Coverage/cce3a5e3-1572-49e4-af3a-39b3aa70a236",
    "resource": {
      "resourceType": "Coverage",
      "id": "cce3a5e3-1572-49e4-af3a-39b3aa70a236",
      "meta": {
        "profile": [ "http://hl7.org/fhir/us/qicore/StructureDefinition/qicore-coverage" ]
      },
      "status": "active",
      "subscriberId": "123456",
      "beneficiary": {
        "reference": "Patient/9947d6a4-aff5-49ab-8a01-c3c438a7faa2"
      },
      "relationship": {
        "coding": [ {
          "system": "http://terminology.hl7.org/CodeSystem/subscriber-relationship",
          "code": "self",
          "display": "Self"
        } ]
      },
      "payor": [ {
        "reference": "Organization/e2dcfbe3-c9ef-456f-bc6c-58b5f3e30325"
      } ]
    }
  }, {
    "fullUrl": "https://madie.cms.gov/Organization/e2dcfbe3-c9ef-456f-bc6c-58b5f3e30325",
    "resource": {
      "resourceType": "Organization",
      "id": "e2dcfbe3-c9ef-456f-bc6c-58b5f3e30325",
      "meta": {
        "profile": [ "http://hl7.org/fhir/us/qicore/StructureDefinition/qicore-organization" ]
      },
      "identifier": [ {
        "use": "temp",
        "system": "urn:oid:2.16.840.1.113883.4.4",
        "value": "21-3259825"
      } ],
      "active": true,
      "type": [ {
        "coding": [ {
          "system": "http://terminology.hl7.org/CodeSystem/organization-type",
          "code": "pay",
          "display": "Payer"
        } ]
      } ],
      "name": "Blue Cross Blue Shield of Texas",
      "telecom": [ {
        "system": "phone",
        "value": "(+1) 972-766-6900"
      } ],
      "address": [ {
        "use": "billing",
        "type": "postal",
        "line": [ "P.O. Box 660044" ],
        "city": "Dallas",
        "state": "TX",
        "postalCode": "75266-0044",
        "country": "USA"
      } ]
    }
  }, {
    "fullUrl": "https://madie.cms.gov/Practitioner/82875b14-d0eb-48d4-8790-4c724004c40b",
    "resource": {
      "resourceType": "Practitioner",
      "id": "82875b14-d0eb-48d4-8790-4c724004c40b",
      "meta": {
        "profile": [ "http://hl7.org/fhir/us/qicore/StructureDefinition/qicore-practitioner" ]
      },
      "identifier": [ {
        "system": "http://hl7.org/fhir/sid/us-npi",
        "value": "1689411712"
      } ],
      "name": [ {
        "family": "Evil",
        "prefix": [ "Dr" ]
      } ]
    }
  }, {
    "fullUrl": "https://madie.cms.gov/MeasureReport/0deb6c3b-b97f-42c2-aa5a-75bad812e0a2",
    "resource": {
      "resourceType": "MeasureReport",
      "id": "0deb6c3b-b97f-42c2-aa5a-75bad812e0a2",
      "meta": {
        "profile": [ "http://hl7.org/fhir/us/cqfmeasures/StructureDefinition/test-case-cqfm" ]
      },
      "contained": [ {
        "resourceType": "Parameters",
        "id": "677dc480-214c-4ec1-beee-280b59a526c5-parameters",
        "parameter": [ {
          "name": "subject",
          "valueString": "9947d6a4-aff5-49ab-8a01-c3c438a7faa2"
        } ]
      } ],
      "extension": [ {
        "url": "http://hl7.org/fhir/StructureDefinition/cqf-inputParameters",
        "valueReference": {
          "reference": "#677dc480-214c-4ec1-beee-280b59a526c5-parameters"
        }
      }, {
        "url": "http://hl7.org/fhir/us/cqfmeasures/StructureDefinition/cqfm-testCaseDescription",
        "valueMarkdown": "Patient is over 13 years old and has an encounter during the MP and has all three lab tests during the MP BEFORE  the encounter and lab result of Boolean Value true"
      } ],
      "modifierExtension": [ {
        "url": "http://hl7.org/fhir/us/cqfmeasures/StructureDefinition/cqfm-isTestCase",
        "valueBoolean": true
      } ],
      "status": "complete",
      "type": "individual",
      "measure": "https://madie.cms.gov/Measure/CMS1188FHIRHIVSTITesting",
      "period": {
        "start": "2026-01-01",
        "end": "2026-12-31"
      },
      "group": [ {
        "id": "Group_1",
        "population": [ {
          "id": "InitialPopulation_1",
          "code": {
            "coding": [ {
              "system": "http://terminology.hl7.org/CodeSystem/measure-population",
              "code": "initial-population",
              "display": "Initial Population"
            } ]
          },
          "count": 1
        }, {
          "id": "Denominator_1",
          "code": {
            "coding": [ {
              "system": "http://terminology.hl7.org/CodeSystem/measure-population",
              "code": "denominator",
              "display": "Denominator"
            } ]
          },
          "count": 1
        }, {
          "id": "Numerator_1",
          "code": {
            "coding": [ {
              "system": "http://terminology.hl7.org/CodeSystem/measure-population",
              "code": "numerator",
              "display": "Numerator"
            } ]
          },
          "count": 1
        } ],
        "measureScore": {
          "value": 1.0
        }
      } ],
      "evaluatedResource": [ {
        "reference": "Patient/9947d6a4-aff5-49ab-8a01-c3c438a7faa2"
      }, {
        "reference": "Condition/32ff0d8c-9081-4468-ae23-6eb69353f90e"
      }, {
        "reference": "Encounter/e8bb6b70-03f0-483c-818f-b355606ffe44"
      }, {
        "reference": "Observation/9b897841-d3af-4499-86c6-8efbd70bd7db"
      }, {
        "reference": "Observation/49ed57d9-b912-42e7-8e34-688b72139687"
      }, {
        "reference": "Observation/1dd0caea-81c4-4691-8cca-dfde576277c3"
      }, {
        "reference": "Coverage/cce3a5e3-1572-49e4-af3a-39b3aa70a236"
      }, {
        "reference": "Organization/e2dcfbe3-c9ef-456f-bc6c-58b5f3e30325"
      }, {
        "reference": "Practitioner/82875b14-d0eb-48d4-8790-4c724004c40b"
      } ]
    }
  } ]
}