{
  "resourceType": "Bundle",
  "id": "612e6f1b02c62a011f2f0ba0",
  "type": "transaction",
  "entry": [ {
    "fullUrl": "https://madie.cms.gov/Patient/04f44995-82bc-4579-b721-df49ac132735",
    "resource": {
      "resourceType": "Patient",
      "id": "04f44995-82bc-4579-b721-df49ac132735",
      "meta": {
        "profile": [ "http://hl7.org/fhir/us/qicore/StructureDefinition/qicore-patient" ]
      },
      "text": {
        "status": "generated",
        "div": "<div xmlns=\"http://www.w3.org/1999/xhtml\"><div class=\"hapiHeaderText\">ICUEnd1MinB4Enc <b>DENOMFAIL </b></div><table class=\"hapiPropertyTable\"><tbody><tr><td>Identifier</td><td>009b2b3795c87569355f211b9e8d5ef5</td></tr><tr><td>Date of birth</td><td><span>03 March 1974</span></td></tr></tbody></table></div>"
      },
      "extension": [ {
        "url": "http://hl7.org/fhir/us/core/StructureDefinition/us-core-race",
        "extension": [ {
          "url": "ombCategory",
          "valueCoding": {
            "system": "urn:oid:2.16.840.1.113883.6.238",
            "code": "1002-5",
            "display": "American Indian or Alaska Native",
            "userSelected": true
          }
        }, {
          "url": "text",
          "valueString": "American Indian or Alaska Native"
        } ]
      }, {
        "url": "http://hl7.org/fhir/us/core/StructureDefinition/us-core-ethnicity",
        "extension": [ {
          "url": "ombCategory",
          "valueCoding": {
            "system": "urn:oid:2.16.840.1.113883.6.238",
            "code": "2186-5",
            "display": "Not Hispanic or Latino",
            "userSelected": true
          }
        }, {
          "url": "text",
          "valueString": "Not Hispanic or Latino"
        } ]
      } ],
      "identifier": [ {
        "type": {
          "coding": [ {
            "system": "http://terminology.hl7.org/CodeSystem/v2-0203",
            "code": "MR"
          } ]
        },
        "system": "https://bonnie-fhir.healthit.gov/",
        "value": "612e6f1b02c62a011f2f0ba0"
      } ],
      "active": true,
      "name": [ {
        "use": "usual",
        "family": "DENOMFail",
        "given": [ "ICUEnd1MinB4Enc" ]
      } ],
      "gender": "female",
      "birthDate": "1975-03-03"
    },
    "request": {
      "method": "PUT",
      "url": "Patient/04f44995-82bc-4579-b721-df49ac132735"
    }
  }, {
    "fullUrl": "https://madie.cms.gov/Encounter/c7b7d3aa-f83f-4995-91d4-a77661d37de3",
    "resource": {
      "resourceType": "Encounter",
      "id": "c7b7d3aa-f83f-4995-91d4-a77661d37de3",
      "meta": {
        "profile": [ "http://hl7.org/fhir/us/qicore/StructureDefinition/qicore-encounter" ]
      },
      "status": "finished",
      "class": {
        "system": "http://terminology.hl7.org/CodeSystem/v3-ActCode",
        "code": "IMP",
        "display": "inpatient encounter"
      },
      "type": [ {
        "coding": [ {
          "system": "http://snomed.info/sct",
          "code": "8715000"
        } ]
      } ],
      "subject": {
        "reference": "Patient/04f44995-82bc-4579-b721-df49ac132735"
      },
      "period": {
        "start": "2026-12-01T01:05:00.000+00:00",
        "end": "2026-12-31T23:59:00.000+00:00"
      },
      "length": {
        "value": 30.0,
        "unit": "days"
      },
      "location": [ {
        "location": {
          "reference": "Location/intensive-care-unit-108a"
        },
        "period": {
          "start": "2026-11-30T08:00:00.000+00:00",
          "end": "2026-12-01T01:04:00.000+00:00"
        }
      } ]
    },
    "request": {
      "method": "PUT",
      "url": "Encounter/c7b7d3aa-f83f-4995-91d4-a77661d37de3"
    }
  }, {
    "fullUrl": "https://madie.cms.gov/Location/2b8f4f76-526f-4598-9be4-f2a602e231c6",
    "resource": {
      "resourceType": "Location",
      "id": "2b8f4f76-526f-4598-9be4-f2a602e231c6",
      "meta": {
        "profile": [ "http://hl7.org/fhir/us/qicore/StructureDefinition/qicore-location" ]
      },
      "identifier": [ {
        "use": "usual",
        "system": "http://exampleoflocation.com",
        "value": "B1-S.F2"
      } ],
      "name": "Medical Surgical East, first floor",
      "type": [ {
        "coding": [ {
          "system": "https://www.cdc.gov/nhsn/cdaportal/terminology/codesystem/hsloc.html",
          "code": "1025-6",
          "display": "Trauma Critical Care",
          "userSelected": true
        } ]
      } ]
    },
    "request": {
      "method": "PUT",
      "url": "Location/2b8f4f76-526f-4598-9be4-f2a602e231c6"
    }
  }, {
    "fullUrl": "https://madie.cms.gov/Coverage/4c56be1d-6d12-40a7-a937-1dce49f9b194",
    "resource": {
      "resourceType": "Coverage",
      "id": "4c56be1d-6d12-40a7-a937-1dce49f9b194",
      "status": "active",
      "beneficiary": {
        "reference": "Patient/04f44995-82bc-4579-b721-df49ac132735"
      },
      "period": {
        "start": "1975-03-03T08:00:00.000+00:00"
      },
      "payor": [ {
        "reference": "Organization/4ca764f6-73c0-4dce-bd81-7f3adb305a40"
      } ]
    },
    "request": {
      "method": "PUT",
      "url": "Coverage/4c56be1d-6d12-40a7-a937-1dce49f9b194"
    }
  }, {
    "fullUrl": "https://madie.cms.gov/Organization/4ca764f6-73c0-4dce-bd81-7f3adb305a40",
    "resource": {
      "resourceType": "Organization",
      "id": "4ca764f6-73c0-4dce-bd81-7f3adb305a40",
      "meta": {
        "profile": [ "http://hl7.org/fhir/us/qicore/StructureDefinition/qicore-organization" ]
      },
      "identifier": [ {
        "use": "temp",
        "system": "urn:oid:2.16.840.1.113883.4.4",
        "value": "21-3259825"
      } ],
      "active": true,
      "type": [ {
        "coding": [ {
          "system": "http://terminology.hl7.org/CodeSystem/organization-type",
          "code": "pay",
          "display": "Payer"
        } ]
      } ],
      "name": "Blue Cross Blue Shield of Texas",
      "telecom": [ {
        "system": "phone",
        "value": "(+1) 972-766-6900"
      } ],
      "address": [ {
        "use": "billing",
        "type": "postal",
        "line": [ "P.O. Box 660044" ],
        "city": "Dallas",
        "state": "TX",
        "postalCode": "75266-0044",
        "country": "USA"
      } ]
    },
    "request": {
      "method": "PUT",
      "url": "Organization/4ca764f6-73c0-4dce-bd81-7f3adb305a40"
    }
  }, {
    "fullUrl": "https://madie.cms.gov/Practitioner/5590c014-6d97-4f5e-a571-64cc0a860ce8",
    "resource": {
      "resourceType": "Practitioner",
      "id": "5590c014-6d97-4f5e-a571-64cc0a860ce8",
      "identifier": [ {
        "system": "http://hl7.org/fhir/sid/us-npi",
        "value": "123456"
      } ],
      "name": [ {
        "family": "Evil",
        "prefix": [ "Dr" ]
      } ]
    },
    "request": {
      "method": "PUT",
      "url": "Practitioner/5590c014-6d97-4f5e-a571-64cc0a860ce8"
    }
  }, {
    "fullUrl": "https://madie.cms.gov/MeasureReport/60e3c31d-029a-4501-b340-e23742158a78",
    "resource": {
      "resourceType": "MeasureReport",
      "id": "60e3c31d-029a-4501-b340-e23742158a78",
      "meta": {
        "profile": [ "http://hl7.org/fhir/us/cqfmeasures/StructureDefinition/test-case-cqfm" ]
      },
      "contained": [ {
        "resourceType": "Parameters",
        "id": "25cd9dea-b47b-4384-968c-61b33b779ecf-parameters",
        "parameter": [ {
          "name": "subject",
          "valueString": "04f44995-82bc-4579-b721-df49ac132735"
        } ]
      } ],
      "extension": [ {
        "url": "http://hl7.org/fhir/StructureDefinition/cqf-inputParameters",
        "valueReference": {
          "reference": "#25cd9dea-b47b-4384-968c-61b33b779ecf-parameters"
        }
      }, {
        "url": "http://hl7.org/fhir/us/cqfmeasures/StructureDefinition/cqfm-testCaseDescription",
        "valueMarkdown": "ICU.stop 1 min prior to Inp.start\n"
      } ],
      "modifierExtension": [ {
        "url": "http://hl7.org/fhir/us/cqfmeasures/StructureDefinition/cqfm-isTestCase",
        "valueBoolean": true
      } ],
      "status": "complete",
      "type": "individual",
      "measure": "https://madie.cms.gov/Measure/CMS190FHIRVTEProphylaxisICU",
      "period": {
        "start": "2026-01-01",
        "end": "2026-12-31"
      },
      "group": [ {
        "id": "Group_1",
        "population": [ {
          "id": "InitialPopulation_1",
          "code": {
            "coding": [ {
              "system": "http://terminology.hl7.org/CodeSystem/measure-population",
              "code": "initial-population",
              "display": "Initial Population"
            } ]
          },
          "count": 1
        }, {
          "id": "Denominator_1",
          "code": {
            "coding": [ {
              "system": "http://terminology.hl7.org/CodeSystem/measure-population",
              "code": "denominator",
              "display": "Denominator"
            } ]
          },
          "count": 0
        }, {
          "id": "DenominatorExclusion_1",
          "code": {
            "coding": [ {
              "system": "http://terminology.hl7.org/CodeSystem/measure-population",
              "code": "denominator-exclusion",
              "display": "Denominator Exclusion"
            } ]
          },
          "count": 0
        }, {
          "id": "Numerator_1",
          "code": {
            "coding": [ {
              "system": "http://terminology.hl7.org/CodeSystem/measure-population",
              "code": "numerator",
              "display": "Numerator"
            } ]
          },
          "count": 0
        }, {
          "id": "DenominatorException_1",
          "code": {
            "coding": [ {
              "system": "http://terminology.hl7.org/CodeSystem/measure-population",
              "code": "denominator-exception",
              "display": "Denominator Exception"
            } ]
          },
          "count": 0
        } ],
        "measureScore": {
          "value": 0.0
        }
      } ],
      "evaluatedResource": [ {
        "reference": "Patient/04f44995-82bc-4579-b721-df49ac132735"
      }, {
        "reference": "Encounter/c7b7d3aa-f83f-4995-91d4-a77661d37de3"
      }, {
        "reference": "Location/2b8f4f76-526f-4598-9be4-f2a602e231c6"
      }, {
        "reference": "Coverage/4c56be1d-6d12-40a7-a937-1dce49f9b194"
      }, {
        "reference": "Organization/4ca764f6-73c0-4dce-bd81-7f3adb305a40"
      }, {
        "reference": "Practitioner/5590c014-6d97-4f5e-a571-64cc0a860ce8"
      } ]
    },
    "request": {
      "method": "PUT",
      "url": "MeasureReport/60e3c31d-029a-4501-b340-e23742158a78"
    }
  } ]
}