{
  "resourceType": "Bundle",
  "id": "6464324343434346525657",
  "type": "collection",
  "entry": [ {
    "fullUrl": "https://madie.cms.gov/Patient/ffab1562-be09-428c-9e96-e30868867493",
    "resource": {
      "resourceType": "Patient",
      "id": "ffab1562-be09-428c-9e96-e30868867493",
      "meta": {
        "profile": [ "http://hl7.org/fhir/us/qicore/StructureDefinition/qicore-patient" ]
      },
      "extension": [ {
        "url": "http://hl7.org/fhir/us/core/StructureDefinition/us-core-race",
        "extension": [ {
          "url": "ombCategory",
          "valueCoding": {
            "system": "urn:oid:2.16.840.1.113883.6.238",
            "code": "1002-5",
            "display": "American Indian or Alaska Native"
          }
        }, {
          "url": "text",
          "valueString": "American Indian or Alaska Native"
        } ]
      }, {
        "url": "http://hl7.org/fhir/us/core/StructureDefinition/us-core-ethnicity",
        "extension": [ {
          "url": "ombCategory",
          "valueCoding": {
            "system": "urn:oid:2.16.840.1.113883.6.238",
            "code": "2186-5",
            "display": "Not Hispanic or Latino"
          }
        }, {
          "url": "text",
          "valueString": "Not Hispanic or Latino"
        } ]
      } ],
      "identifier": [ {
        "type": {
          "coding": [ {
            "system": "http://terminology.hl7.org/CodeSystem/v2-0203",
            "code": "MR"
          } ]
        },
        "system": "https://bonnie-fhir.healthit.gov/",
        "value": "576545341346746345"
      } ],
      "active": true,
      "name": [ {
        "use": "usual",
        "family": "DENEXCEPPop2Pass",
        "given": [ "ConsecHeartRatesLT50" ]
      } ],
      "gender": "male",
      "birthDate": "1958-05-30"
    }
  }, {
    "fullUrl": "https://madie.cms.gov/Encounter/2cdda3de-1fd4-4fdf-bf27-52c245711bd6",
    "resource": {
      "resourceType": "Encounter",
      "id": "2cdda3de-1fd4-4fdf-bf27-52c245711bd6",
      "meta": {
        "profile": [ "http://hl7.org/fhir/us/qicore/StructureDefinition/qicore-encounter" ]
      },
      "status": "finished",
      "class": {
        "system": "http://terminology.hl7.org/CodeSystem/v3-ActCode",
        "code": "AMB",
        "display": "ambulatory"
      },
      "type": [ {
        "coding": [ {
          "system": "http://snomed.info/sct",
          "version": "http://snomed.info/sct/731000124108/version/20250301",
          "code": "209099002",
          "display": "History and physical examination with management of domiciliary or rest home patient (procedure)"
        } ]
      } ],
      "subject": {
        "reference": "Patient/ffab1562-be09-428c-9e96-e30868867493"
      },
      "period": {
        "start": "2026-04-05T06:00:00.000Z",
        "end": "2026-04-05T07:00:00.000Z"
      }
    }
  }, {
    "fullUrl": "https://madie.cms.gov/Encounter/ed1a4b93-e437-4bb5-b578-f0738fe34329",
    "resource": {
      "resourceType": "Encounter",
      "id": "ed1a4b93-e437-4bb5-b578-f0738fe34329",
      "meta": {
        "profile": [ "http://hl7.org/fhir/us/qicore/StructureDefinition/qicore-encounter" ]
      },
      "status": "finished",
      "class": {
        "system": "http://terminology.hl7.org/CodeSystem/v3-ActCode",
        "code": "AMB",
        "display": "ambulatory"
      },
      "type": [ {
        "coding": [ {
          "system": "http://snomed.info/sct",
          "version": "http://snomed.info/sct/731000124108/version/20250301",
          "code": "209099002",
          "display": "History and physical examination with management of domiciliary or rest home patient (procedure)"
        } ]
      } ],
      "subject": {
        "reference": "Patient/ffab1562-be09-428c-9e96-e30868867493"
      },
      "period": {
        "start": "2026-07-08T09:00:00.000Z",
        "end": "2026-07-08T10:00:00.000Z"
      }
    }
  }, {
    "fullUrl": "https://madie.cms.gov/Condition/5ce5be90-b250-452f-960c-50b14f2600cf",
    "resource": {
      "resourceType": "Condition",
      "id": "5ce5be90-b250-452f-960c-50b14f2600cf",
      "meta": {
        "profile": [ "http://hl7.org/fhir/us/qicore/StructureDefinition/qicore-condition-problems-health-concerns" ]
      },
      "clinicalStatus": {
        "coding": [ {
          "system": "http://terminology.hl7.org/CodeSystem/condition-clinical",
          "code": "active",
          "display": "Active"
        } ]
      },
      "verificationStatus": {
        "coding": [ {
          "system": "http://terminology.hl7.org/CodeSystem/condition-ver-status",
          "code": "confirmed",
          "display": "Confirmed"
        } ]
      },
      "category": [ {
        "coding": [ {
          "system": "http://terminology.hl7.org/CodeSystem/condition-category",
          "code": "problem-list-item",
          "display": "Problem List Item"
        } ]
      } ],
      "code": {
        "coding": [ {
          "system": "http://hl7.org/fhir/sid/icd-10-cm",
          "version": "2024",
          "code": "I21.01"
        } ]
      },
      "subject": {
        "reference": "Patient/ffab1562-be09-428c-9e96-e30868867493"
      },
      "onsetPeriod": {
        "start": "2023-11-22T07:30:00.000Z",
        "end": "2023-11-22T08:30:00.000Z"
      }
    }
  }, {
    "fullUrl": "https://madie.cms.gov/Condition/1e1f277b-7cb2-4ff4-80dc-69cb71a1cb79",
    "resource": {
      "resourceType": "Condition",
      "id": "1e1f277b-7cb2-4ff4-80dc-69cb71a1cb79",
      "meta": {
        "profile": [ "http://hl7.org/fhir/us/qicore/StructureDefinition/qicore-condition-problems-health-concerns" ]
      },
      "clinicalStatus": {
        "coding": [ {
          "system": "http://terminology.hl7.org/CodeSystem/condition-clinical",
          "code": "active",
          "display": "Active"
        } ]
      },
      "verificationStatus": {
        "coding": [ {
          "system": "http://terminology.hl7.org/CodeSystem/condition-ver-status",
          "code": "confirmed"
        } ]
      },
      "category": [ {
        "coding": [ {
          "system": "http://terminology.hl7.org/CodeSystem/condition-category",
          "code": "problem-list-item",
          "display": "Problem List Item"
        } ]
      } ],
      "code": {
        "coding": [ {
          "system": "http://snomed.info/sct",
          "version": "http://snomed.info/sct/731000124108/version/20250301",
          "code": "10365005",
          "display": "Right main coronary artery thrombosis (disorder)"
        } ]
      },
      "subject": {
        "reference": "Patient/ffab1562-be09-428c-9e96-e30868867493"
      },
      "onsetPeriod": {
        "start": "2026-01-21T07:00:00.000Z"
      }
    }
  }, {
    "fullUrl": "https://madie.cms.gov/Observation/102ec985-eeed-4db6-b9d2-55abaef811b3",
    "resource": {
      "resourceType": "Observation",
      "id": "102ec985-eeed-4db6-b9d2-55abaef811b3",
      "meta": {
        "profile": [ "http://hl7.org/fhir/us/core/StructureDefinition/us-core-heart-rate" ]
      },
      "status": "final",
      "category": [ {
        "coding": [ {
          "system": "http://terminology.hl7.org/CodeSystem/observation-category",
          "code": "vital-signs",
          "display": "Vital Signs"
        } ]
      }, {
        "coding": [ {
          "system": "http://terminology.hl7.org/CodeSystem/observation-category",
          "code": "survey"
        } ]
      } ],
      "code": {
        "coding": [ {
          "system": "http://loinc.org",
          "version": "2.76",
          "code": "8867-4"
        } ]
      },
      "subject": {
        "reference": "Patient/ffab1562-be09-428c-9e96-e30868867493"
      },
      "effectiveDateTime": "2026-07-08T09:15:00.000Z",
      "valueQuantity": {
        "value": 45,
        "unit": "/min",
        "system": "http://unitsofmeasure.org",
        "code": "/min"
      }
    }
  }, {
    "fullUrl": "https://madie.cms.gov/Observation/c7f3acf8-bc2b-4730-9587-0939d03a7777",
    "resource": {
      "resourceType": "Observation",
      "id": "c7f3acf8-bc2b-4730-9587-0939d03a7777",
      "meta": {
        "profile": [ "http://hl7.org/fhir/us/core/StructureDefinition/us-core-heart-rate" ]
      },
      "status": "final",
      "category": [ {
        "coding": [ {
          "system": "http://terminology.hl7.org/CodeSystem/observation-category",
          "code": "vital-signs",
          "display": "Vital Signs"
        } ]
      }, {
        "coding": [ {
          "system": "http://terminology.hl7.org/CodeSystem/observation-category",
          "code": "survey"
        } ]
      } ],
      "code": {
        "coding": [ {
          "system": "http://loinc.org",
          "version": "2.76",
          "code": "8867-4"
        } ]
      },
      "subject": {
        "reference": "Patient/ffab1562-be09-428c-9e96-e30868867493"
      },
      "effectiveDateTime": "2026-07-08T09:30:00.000Z",
      "valueQuantity": {
        "value": 50,
        "unit": "/min",
        "system": "http://unitsofmeasure.org",
        "code": "/min"
      }
    }
  }, {
    "fullUrl": "https://madie.cms.gov/MeasureReport/e452db53-4343-4d81-ae7f-d5dc613d5f06",
    "resource": {
      "resourceType": "MeasureReport",
      "id": "e452db53-4343-4d81-ae7f-d5dc613d5f06",
      "meta": {
        "profile": [ "http://hl7.org/fhir/us/cqfmeasures/StructureDefinition/test-case-cqfm" ]
      },
      "contained": [ {
        "resourceType": "Parameters",
        "id": "88c67200-9a04-42a5-982f-0cc2c00a4104-parameters",
        "parameter": [ {
          "name": "subject",
          "valueString": "ffab1562-be09-428c-9e96-e30868867493"
        } ]
      } ],
      "extension": [ {
        "url": "http://hl7.org/fhir/StructureDefinition/cqf-inputParameters",
        "valueReference": {
          "reference": "#88c67200-9a04-42a5-982f-0cc2c00a4104-parameters"
        }
      }, {
        "url": "http://hl7.org/fhir/us/cqfmeasures/StructureDefinition/cqfm-testCaseDescription",
        "valueMarkdown": "Pt > 18, 2 visits in MP, MI onset > 2 yrs b4 MP, CAD onset during MP b4 1st visit, and 2 consecutive heart rate readings one above and one below 50"
      } ],
      "modifierExtension": [ {
        "url": "http://hl7.org/fhir/us/cqfmeasures/StructureDefinition/cqfm-isTestCase",
        "valueBoolean": true
      } ],
      "status": "complete",
      "type": "individual",
      "measure": "https://madie.cms.gov/Measure/CMS145FHIRCADBBlockerTPMIorLVSD",
      "period": {
        "start": "2026-01-01",
        "end": "2026-12-31"
      },
      "group": [ {
        "id": "Group_1",
        "population": [ {
          "id": "InitialPopulation_1",
          "code": {
            "coding": [ {
              "system": "http://terminology.hl7.org/CodeSystem/measure-population",
              "code": "initial-population",
              "display": "Initial Population"
            } ]
          },
          "count": 1
        }, {
          "id": "Denominator_1",
          "code": {
            "coding": [ {
              "system": "http://terminology.hl7.org/CodeSystem/measure-population",
              "code": "denominator",
              "display": "Denominator"
            } ]
          },
          "count": 0
        }, {
          "id": "Numerator_1",
          "code": {
            "coding": [ {
              "system": "http://terminology.hl7.org/CodeSystem/measure-population",
              "code": "numerator",
              "display": "Numerator"
            } ]
          },
          "count": 0
        }, {
          "id": "DenominatorException_1",
          "code": {
            "coding": [ {
              "system": "http://terminology.hl7.org/CodeSystem/measure-population",
              "code": "denominator-exception",
              "display": "Denominator Exception"
            } ]
          },
          "count": 0
        } ],
        "measureScore": {
          "value": 1.0
        }
      }, {
        "id": "Group_2",
        "population": [ {
          "id": "InitialPopulation_2",
          "code": {
            "coding": [ {
              "system": "http://terminology.hl7.org/CodeSystem/measure-population",
              "code": "initial-population",
              "display": "Initial Population"
            } ]
          },
          "count": 1
        }, {
          "id": "Denominator_2",
          "code": {
            "coding": [ {
              "system": "http://terminology.hl7.org/CodeSystem/measure-population",
              "code": "denominator",
              "display": "Denominator"
            } ]
          },
          "count": 1
        }, {
          "id": "Numerator_2",
          "code": {
            "coding": [ {
              "system": "http://terminology.hl7.org/CodeSystem/measure-population",
              "code": "numerator",
              "display": "Numerator"
            } ]
          },
          "count": 0
        }, {
          "id": "DenominatorException_2",
          "code": {
            "coding": [ {
              "system": "http://terminology.hl7.org/CodeSystem/measure-population",
              "code": "denominator-exception",
              "display": "Denominator Exception"
            } ]
          },
          "count": 0
        } ],
        "measureScore": {
          "value": 1.0
        }
      } ],
      "evaluatedResource": [ {
        "reference": "Patient/ffab1562-be09-428c-9e96-e30868867493"
      }, {
        "reference": "Encounter/2cdda3de-1fd4-4fdf-bf27-52c245711bd6"
      }, {
        "reference": "Encounter/ed1a4b93-e437-4bb5-b578-f0738fe34329"
      }, {
        "reference": "Condition/5ce5be90-b250-452f-960c-50b14f2600cf"
      }, {
        "reference": "Condition/1e1f277b-7cb2-4ff4-80dc-69cb71a1cb79"
      }, {
        "reference": "Observation/102ec985-eeed-4db6-b9d2-55abaef811b3"
      }, {
        "reference": "Observation/c7f3acf8-bc2b-4730-9587-0939d03a7777"
      } ]
    }
  } ]
}