{
  "resourceType": "Bundle",
  "id": "h1f044ef3e654daa9111",
  "type": "transaction",
  "entry": [ {
    "fullUrl": "https://madie.cms.gov/Patient/7edab122-3af3-4172-9231-7c1470ecc1e0",
    "resource": {
      "resourceType": "Patient",
      "id": "7edab122-3af3-4172-9231-7c1470ecc1e0",
      "meta": {
        "profile": [ "http://hl7.org/fhir/us/qicore/StructureDefinition/qicore-patient" ]
      },
      "extension": [ {
        "url": "http://hl7.org/fhir/us/core/StructureDefinition/us-core-race",
        "extension": [ {
          "url": "ombCategory",
          "valueCoding": {
            "system": "urn:oid:2.16.840.1.113883.6.238",
            "code": "2028-9",
            "display": "Asian",
            "userSelected": true
          }
        }, {
          "url": "text",
          "valueString": "Asian"
        } ]
      }, {
        "url": "http://hl7.org/fhir/us/core/StructureDefinition/us-core-ethnicity",
        "extension": [ {
          "url": "ombCategory",
          "valueCoding": {
            "system": "urn:oid:2.16.840.1.113883.6.238",
            "code": "2186-5",
            "display": "Not Hispanic or Latino",
            "userSelected": true
          }
        }, {
          "url": "text",
          "valueString": "Not Hispanic or Latino"
        } ]
      }, {
        "url": "http://hl7.org/fhir/us/core/StructureDefinition/us-core-sex",
        "valueCode": "248152002"
      } ],
      "identifier": [ {
        "type": {
          "coding": [ {
            "system": "http://terminology.hl7.org/CodeSystem/v2-0203",
            "code": "MR"
          } ]
        },
        "system": "https://bonnie-fhir.healthit.gov/",
        "value": "h1f044ef3e654daa9111"
      } ],
      "name": [ {
        "family": "DENEXCEP2PASS",
        "given": [ "PCIRefusalDuringED" ]
      } ],
      "gender": "female",
      "birthDate": "1979-11-16"
    },
    "request": {
      "method": "PUT",
      "url": "Patient/7edab122-3af3-4172-9231-7c1470ecc1e0"
    }
  }, {
    "fullUrl": "https://madie.cms.gov/Encounter/f173299d-43fc-474d-9002-6e0755922b20",
    "resource": {
      "resourceType": "Encounter",
      "id": "f173299d-43fc-474d-9002-6e0755922b20",
      "meta": {
        "profile": [ "http://hl7.org/fhir/us/qicore/StructureDefinition/qicore-encounter" ]
      },
      "status": "finished",
      "class": {
        "system": "http://terminology.hl7.org/CodeSystem/v3-ActCode",
        "code": "EMER",
        "display": "emergency",
        "userSelected": true
      },
      "type": [ {
        "coding": [ {
          "system": "http://snomed.info/sct",
          "version": "2020-09",
          "code": "4525004",
          "display": "Emergency department patient visit",
          "userSelected": true
        } ]
      } ],
      "subject": {
        "reference": "Patient/7edab122-3af3-4172-9231-7c1470ecc1e0"
      },
      "period": {
        "start": "2026-10-09T05:00:00.000+00:00",
        "end": "2026-10-13T17:00:00.000+00:00"
      },
      "reasonReference": [ {
        "reference": "Condition/50f5e287-6031-42ad-9b0f-57a9e786a7b5"
      } ]
    },
    "request": {
      "method": "PUT",
      "url": "Encounter/f173299d-43fc-474d-9002-6e0755922b20"
    }
  }, {
    "fullUrl": "https://madie.cms.gov/Condition/50f5e287-6031-42ad-9b0f-57a9e786a7b5",
    "resource": {
      "resourceType": "Condition",
      "id": "50f5e287-6031-42ad-9b0f-57a9e786a7b5",
      "meta": {
        "profile": [ "http://hl7.org/fhir/us/qicore/StructureDefinition/qicore-condition-encounter-diagnosis" ]
      },
      "clinicalStatus": {
        "coding": [ {
          "system": "http://terminology.hl7.org/CodeSystem/condition-clinical",
          "code": "active",
          "display": "Active",
          "userSelected": true
        } ]
      },
      "category": [ {
        "coding": [ {
          "system": "http://terminology.hl7.org/CodeSystem/condition-category",
          "code": "encounter-diagnosis",
          "display": "Encounter Diagnosis",
          "userSelected": true
        } ]
      } ],
      "code": {
        "coding": [ {
          "system": "http://hl7.org/fhir/sid/icd-10-cm",
          "code": "I21.21",
          "display": "ST elevation (STEMI) myocardial infarction involving left circumflex coronary artery",
          "userSelected": true
        } ]
      },
      "subject": {
        "reference": "Patient/7edab122-3af3-4172-9231-7c1470ecc1e0"
      },
      "encounter": {
        "reference": "Encounter/f173299d-43fc-474d-9002-6e0755922b20"
      },
      "onsetPeriod": {
        "start": "2026-10-09T05:00:00.000+00:00",
        "end": "2026-10-09T17:00:00.000+00:00"
      }
    },
    "request": {
      "method": "PUT",
      "url": "Condition/50f5e287-6031-42ad-9b0f-57a9e786a7b5"
    }
  }, {
    "fullUrl": "https://madie.cms.gov/Procedure/82b7b209-fbbd-4509-a1ca-0fda00696af3",
    "resource": {
      "resourceType": "Procedure",
      "id": "82b7b209-fbbd-4509-a1ca-0fda00696af3",
      "meta": {
        "profile": [ "http://hl7.org/fhir/us/qicore/StructureDefinition/qicore-procedurenotdone" ]
      },
      "extension": [ {
        "url": "http://hl7.org/fhir/us/qicore/StructureDefinition/qicore-recorded",
        "valueDateTime": "2026-10-09T09:36:00.000+00:00"
      } ],
      "status": "not-done",
      "statusReason": {
        "coding": [ {
          "system": "http://snomed.info/sct",
          "code": "443390004",
          "display": "Refused (qualifier value)",
          "userSelected": true
        } ]
      },
      "code": {
        "coding": [ {
          "system": "http://www.cms.gov/Medicare/Coding/ICD10",
          "code": "0270346",
          "display": "Dilation of Coronary Artery, One Artery, Bifurcation, with Drug-eluting Intraluminal Device, Percutaneous Approach",
          "userSelected": true
        } ]
      },
      "subject": {
        "reference": "Patient/7edab122-3af3-4172-9231-7c1470ecc1e0"
      },
      "_performedDateTime": {
        "extension": [ {
          "url": "http://hl7.org/fhir/StructureDefinition/data-absent-reason",
          "valueCode": "not-performed"
        } ]
      }
    },
    "request": {
      "method": "PUT",
      "url": "Procedure/82b7b209-fbbd-4509-a1ca-0fda00696af3"
    }
  }, {
    "fullUrl": "https://madie.cms.gov/MeasureReport/56cc367c-a676-4b4a-b40a-e3b47d702887",
    "resource": {
      "resourceType": "MeasureReport",
      "id": "56cc367c-a676-4b4a-b40a-e3b47d702887",
      "meta": {
        "profile": [ "http://hl7.org/fhir/us/cqfmeasures/StructureDefinition/test-case-cqfm" ]
      },
      "contained": [ {
        "resourceType": "Parameters",
        "id": "df19ecf1-8434-47cd-9e00-000dd0deb92c-parameters",
        "parameter": [ {
          "name": "subject",
          "valueString": "7edab122-3af3-4172-9231-7c1470ecc1e0"
        } ]
      } ],
      "extension": [ {
        "url": "http://hl7.org/fhir/StructureDefinition/cqf-inputParameters",
        "valueReference": {
          "reference": "#df19ecf1-8434-47cd-9e00-000dd0deb92c-parameters"
        }
      }, {
        "url": "http://hl7.org/fhir/us/cqfmeasures/StructureDefinition/cqfm-testCaseDescription",
        "valueMarkdown": "Patient has PCI in ED but refuses treatment during ED"
      } ],
      "modifierExtension": [ {
        "url": "http://hl7.org/fhir/us/cqfmeasures/StructureDefinition/cqfm-isTestCase",
        "valueBoolean": true
      } ],
      "status": "complete",
      "type": "individual",
      "measure": "https://madie.cms.gov/Measure/CMS996FHIRAptTxforSTEMI",
      "period": {
        "start": "2026-01-01",
        "end": "2026-12-31"
      },
      "group": [ {
        "id": "Group_1",
        "population": [ {
          "id": "InitialPopulation_1",
          "code": {
            "coding": [ {
              "system": "http://terminology.hl7.org/CodeSystem/measure-population",
              "code": "initial-population",
              "display": "Initial Population"
            } ]
          },
          "count": 1
        }, {
          "id": "Denominator_1",
          "code": {
            "coding": [ {
              "system": "http://terminology.hl7.org/CodeSystem/measure-population",
              "code": "denominator",
              "display": "Denominator"
            } ]
          },
          "count": 1
        }, {
          "id": "DenominatorExclusion_1",
          "code": {
            "coding": [ {
              "system": "http://terminology.hl7.org/CodeSystem/measure-population",
              "code": "denominator-exclusion",
              "display": "Denominator Exclusion"
            } ]
          },
          "count": 0
        }, {
          "id": "Numerator_1",
          "code": {
            "coding": [ {
              "system": "http://terminology.hl7.org/CodeSystem/measure-population",
              "code": "numerator",
              "display": "Numerator"
            } ]
          },
          "count": 0
        }, {
          "id": "DenominatorException_1",
          "code": {
            "coding": [ {
              "system": "http://terminology.hl7.org/CodeSystem/measure-population",
              "code": "denominator-exception",
              "display": "Denominator Exception"
            } ]
          },
          "count": 1
        } ],
        "measureScore": {
          "value": 0.0
        }
      } ],
      "evaluatedResource": [ {
        "reference": "Patient/7edab122-3af3-4172-9231-7c1470ecc1e0"
      }, {
        "reference": "Encounter/f173299d-43fc-474d-9002-6e0755922b20"
      }, {
        "reference": "Condition/50f5e287-6031-42ad-9b0f-57a9e786a7b5"
      }, {
        "reference": "Procedure/82b7b209-fbbd-4509-a1ca-0fda00696af3"
      } ]
    },
    "request": {
      "method": "PUT",
      "url": "MeasureReport/56cc367c-a676-4b4a-b40a-e3b47d702887"
    }
  } ]
}