{
  "resourceType": "Bundle",
  "id": "tests-HighRiskProcStartsBeforeEncounterStart",
  "type": "transaction",
  "entry": [ {
    "fullUrl": "https://madie.cms.gov/Patient/eedc0219-de6f-4e2c-88a8-c3547d7e72eb",
    "resource": {
      "resourceType": "Patient",
      "id": "eedc0219-de6f-4e2c-88a8-c3547d7e72eb",
      "meta": {
        "profile": [ "http://hl7.org/fhir/us/qicore/StructureDefinition/qicore-patient" ]
      },
      "extension": [ {
        "url": "http://hl7.org/fhir/us/core/StructureDefinition/us-core-race",
        "extension": [ {
          "url": "ombCategory",
          "valueCoding": {
            "system": "urn:oid:2.16.840.1.113883.6.238",
            "code": "2028-9",
            "display": "Asian"
          }
        }, {
          "url": "text",
          "valueString": "Asian"
        } ]
      }, {
        "url": "http://hl7.org/fhir/us/core/StructureDefinition/us-core-ethnicity",
        "extension": [ {
          "url": "ombCategory",
          "valueCoding": {
            "system": "urn:oid:2.16.840.1.113883.6.238",
            "code": "2186-5",
            "display": "Not Hispanic or Latino"
          }
        }, {
          "url": "text",
          "valueString": "Not Hispanic or Latino"
        } ]
      }, {
        "url": "http://hl7.org/fhir/us/core/StructureDefinition/us-core-sex",
        "valueCode": "248153007"
      } ],
      "identifier": [ {
        "system": "http://hospital.smarthealthit.org",
        "value": "999999999"
      } ],
      "name": [ {
        "family": "Example",
        "given": [ "Malee" ]
      } ],
      "gender": "male",
      "birthDate": "1975-01-01"
    },
    "request": {
      "method": "PUT",
      "url": "Patient/eedc0219-de6f-4e2c-88a8-c3547d7e72eb"
    }
  }, {
    "fullUrl": "https://madie.cms.gov/Encounter/1e70d0a0-1b2e-4e24-bd3d-6fccc182d61a",
    "resource": {
      "resourceType": "Encounter",
      "id": "1e70d0a0-1b2e-4e24-bd3d-6fccc182d61a",
      "meta": {
        "profile": [ "http://hl7.org/fhir/us/qicore/StructureDefinition/qicore-encounter" ]
      },
      "status": "finished",
      "class": {
        "system": "http://terminology.hl7.org/CodeSystem/v3-ActCode",
        "code": "EMER",
        "display": "emergency encounter"
      },
      "type": [ {
        "coding": [ {
          "system": "http://snomed.info/sct",
          "code": "4525004",
          "display": "Emergency Department Visit"
        } ]
      } ],
      "subject": {
        "reference": "Patient/eedc0219-de6f-4e2c-88a8-c3547d7e72eb"
      },
      "period": {
        "start": "2026-09-29T13:00:00.000+00:00",
        "end": "2026-09-30T01:00:00.000+00:00"
      }
    },
    "request": {
      "method": "PUT",
      "url": "Encounter/1e70d0a0-1b2e-4e24-bd3d-6fccc182d61a"
    }
  }, {
    "fullUrl": "https://madie.cms.gov/Observation/3ee7f166-a567-4489-b801-5e3590d2d941",
    "resource": {
      "resourceType": "Observation",
      "id": "3ee7f166-a567-4489-b801-5e3590d2d941",
      "meta": {
        "profile": [ "http://hl7.org/fhir/us/qicore/StructureDefinition/qicore-observation-lab" ]
      },
      "status": "final",
      "category": [ {
        "coding": [ {
          "system": "http://terminology.hl7.org/CodeSystem/observation-category",
          "code": "laboratory",
          "display": "Laboratory"
        } ]
      } ],
      "code": {
        "coding": [ {
          "system": "http://loinc.org",
          "version": "2.72",
          "code": "21232-4",
          "display": "Creatinine [Mass/volume] in Serum or Plasma"
        } ]
      },
      "subject": {
        "reference": "Patient/eedc0219-de6f-4e2c-88a8-c3547d7e72eb"
      },
      "effectiveDateTime": "2026-10-01T13:01:00.000+00:00",
      "valueQuantity": {
        "value": 0.9,
        "unit": "mg/dL",
        "system": "http://unitsofmeasure.org",
        "code": "mg/dL"
      }
    },
    "request": {
      "method": "PUT",
      "url": "Observation/3ee7f166-a567-4489-b801-5e3590d2d941"
    }
  }, {
    "fullUrl": "https://madie.cms.gov/Observation/6bebe146-67e1-4040-bdc4-c225c76f19b2",
    "resource": {
      "resourceType": "Observation",
      "id": "6bebe146-67e1-4040-bdc4-c225c76f19b2",
      "meta": {
        "profile": [ "http://hl7.org/fhir/us/qicore/StructureDefinition/qicore-observation-lab" ]
      },
      "status": "final",
      "category": [ {
        "coding": [ {
          "system": "http://terminology.hl7.org/CodeSystem/observation-category",
          "code": "laboratory",
          "display": "Laboratory"
        } ]
      } ],
      "code": {
        "coding": [ {
          "system": "http://loinc.org",
          "version": "2.72",
          "code": "21232-4",
          "display": "Creatinine [Mass/volume] in Serum or Plasma"
        } ]
      },
      "subject": {
        "reference": "Patient/eedc0219-de6f-4e2c-88a8-c3547d7e72eb"
      },
      "effectiveDateTime": "2026-10-01T12:00:00.000+00:00",
      "valueQuantity": {
        "value": 0.91,
        "unit": "mg/dL",
        "system": "http://unitsofmeasure.org",
        "code": "mg/dL"
      }
    },
    "request": {
      "method": "PUT",
      "url": "Observation/6bebe146-67e1-4040-bdc4-c225c76f19b2"
    }
  }, {
    "fullUrl": "https://madie.cms.gov/Observation/04dbeead-0870-446c-a42e-7fc816f6fc31",
    "resource": {
      "resourceType": "Observation",
      "id": "04dbeead-0870-446c-a42e-7fc816f6fc31",
      "meta": {
        "profile": [ "http://hl7.org/fhir/us/qicore/StructureDefinition/qicore-observation-lab" ]
      },
      "status": "final",
      "category": [ {
        "coding": [ {
          "system": "http://terminology.hl7.org/CodeSystem/observation-category",
          "code": "laboratory",
          "display": "Laboratory"
        } ]
      } ],
      "code": {
        "coding": [ {
          "system": "http://loinc.org",
          "version": "2.72",
          "code": "21232-4",
          "display": "Creatinine [Mass/volume] in Serum or Plasma"
        } ]
      },
      "subject": {
        "reference": "Patient/eedc0219-de6f-4e2c-88a8-c3547d7e72eb"
      },
      "effectiveDateTime": "2026-10-01T12:35:00.000+00:00",
      "valueQuantity": {
        "value": 0.91,
        "unit": "mg/dL",
        "system": "http://unitsofmeasure.org",
        "code": "mg/dL"
      }
    },
    "request": {
      "method": "PUT",
      "url": "Observation/04dbeead-0870-446c-a42e-7fc816f6fc31"
    }
  }, {
    "fullUrl": "https://madie.cms.gov/Encounter/14408eaa-a42a-4c9b-bdf9-f91a125ca6d8",
    "resource": {
      "resourceType": "Encounter",
      "id": "14408eaa-a42a-4c9b-bdf9-f91a125ca6d8",
      "meta": {
        "profile": [ "http://hl7.org/fhir/us/qicore/StructureDefinition/qicore-encounter" ]
      },
      "status": "finished",
      "class": {
        "system": "http://terminology.hl7.org/CodeSystem/v3-ActCode",
        "code": "IMP",
        "display": "inpatient encounter"
      },
      "type": [ {
        "coding": [ {
          "system": "http://snomed.info/sct",
          "code": "183452005",
          "display": "Emergency hospital admission (procedure)"
        } ]
      } ],
      "subject": {
        "reference": "Patient/eedc0219-de6f-4e2c-88a8-c3547d7e72eb"
      },
      "period": {
        "start": "2026-09-30T01:01:00.000+00:00",
        "end": "2026-10-04T01:00:00.000+00:00"
      }
    },
    "request": {
      "method": "PUT",
      "url": "Encounter/14408eaa-a42a-4c9b-bdf9-f91a125ca6d8"
    }
  }, {
    "fullUrl": "https://madie.cms.gov/Procedure/c96a968d-99e3-480a-a81d-973f28a78ecb",
    "resource": {
      "resourceType": "Procedure",
      "id": "c96a968d-99e3-480a-a81d-973f28a78ecb",
      "meta": {
        "profile": [ "http://hl7.org/fhir/us/qicore/StructureDefinition/qicore-procedure" ]
      },
      "status": "completed",
      "code": {
        "coding": [ {
          "system": "http://www.icd10data.com",
          "code": "02LW3DJ",
          "display": "High Risk Procedures for AKI"
        } ]
      },
      "subject": {
        "reference": "Patient/eedc0219-de6f-4e2c-88a8-c3547d7e72eb"
      },
      "performedPeriod": {
        "start": "2026-09-29T12:59:00.000+00:00",
        "end": "2026-09-30T01:00:00.000+00:00"
      }
    },
    "request": {
      "method": "PUT",
      "url": "Procedure/c96a968d-99e3-480a-a81d-973f28a78ecb"
    }
  }, {
    "fullUrl": "https://madie.cms.gov/MeasureReport/0435cab4-f138-4493-b6ce-f3924f26c3ec",
    "resource": {
      "resourceType": "MeasureReport",
      "id": "0435cab4-f138-4493-b6ce-f3924f26c3ec",
      "meta": {
        "profile": [ "http://hl7.org/fhir/us/cqfmeasures/StructureDefinition/test-case-cqfm" ]
      },
      "contained": [ {
        "resourceType": "Parameters",
        "id": "b585dc74-9e7b-4ba8-8480-115b7d7eb83d-parameters",
        "parameter": [ {
          "name": "subject",
          "valueString": "eedc0219-de6f-4e2c-88a8-c3547d7e72eb"
        } ]
      } ],
      "extension": [ {
        "url": "http://hl7.org/fhir/StructureDefinition/cqf-inputParameters",
        "valueReference": {
          "reference": "#b585dc74-9e7b-4ba8-8480-115b7d7eb83d-parameters"
        }
      }, {
        "url": "http://hl7.org/fhir/us/cqfmeasures/StructureDefinition/cqfm-testCaseDescription",
        "valueMarkdown": "IP Encounter with High Risk Procedure starts before ED and hospitalization start date/time. Must start during the encounter to meet the denominator exclusion, so fails.  "
      } ],
      "modifierExtension": [ {
        "url": "http://hl7.org/fhir/us/cqfmeasures/StructureDefinition/cqfm-isTestCase",
        "valueBoolean": true
      } ],
      "status": "complete",
      "type": "individual",
      "measure": "https://madie.cms.gov/Measure/CMS832FHIRHHAKI",
      "period": {
        "start": "2026-01-01",
        "end": "2026-12-31"
      },
      "group": [ {
        "id": "Group_1",
        "population": [ {
          "id": "InitialPopulation_1",
          "code": {
            "coding": [ {
              "system": "http://terminology.hl7.org/CodeSystem/measure-population",
              "code": "initial-population",
              "display": "Initial Population"
            } ]
          },
          "count": 1
        }, {
          "id": "Denominator_1",
          "code": {
            "coding": [ {
              "system": "http://terminology.hl7.org/CodeSystem/measure-population",
              "code": "denominator",
              "display": "Denominator"
            } ]
          },
          "count": 1
        }, {
          "id": "DenominatorExclusion_1",
          "code": {
            "coding": [ {
              "system": "http://terminology.hl7.org/CodeSystem/measure-population",
              "code": "denominator-exclusion",
              "display": "Denominator Exclusion"
            } ]
          },
          "count": 0
        }, {
          "id": "Numerator_1",
          "code": {
            "coding": [ {
              "system": "http://terminology.hl7.org/CodeSystem/measure-population",
              "code": "numerator",
              "display": "Numerator"
            } ]
          },
          "count": 0
        } ],
        "measureScore": {
          "value": 0.0
        }
      } ],
      "evaluatedResource": [ {
        "reference": "Patient/eedc0219-de6f-4e2c-88a8-c3547d7e72eb"
      }, {
        "reference": "Encounter/1e70d0a0-1b2e-4e24-bd3d-6fccc182d61a"
      }, {
        "reference": "Observation/3ee7f166-a567-4489-b801-5e3590d2d941"
      }, {
        "reference": "Observation/6bebe146-67e1-4040-bdc4-c225c76f19b2"
      }, {
        "reference": "Observation/04dbeead-0870-446c-a42e-7fc816f6fc31"
      }, {
        "reference": "Encounter/14408eaa-a42a-4c9b-bdf9-f91a125ca6d8"
      }, {
        "reference": "Procedure/c96a968d-99e3-480a-a81d-973f28a78ecb"
      } ]
    },
    "request": {
      "method": "PUT",
      "url": "MeasureReport/0435cab4-f138-4493-b6ce-f3924f26c3ec"
    }
  } ]
}