{
  "resourceType": "Bundle",
  "id": "63487c2f0968f801225401ad",
  "type": "transaction",
  "entry": [ {
    "fullUrl": "https://madie.cms.gov/Patient/e9c9f925-0076-4762-8392-e4d964caaedf",
    "resource": {
      "resourceType": "Patient",
      "id": "e9c9f925-0076-4762-8392-e4d964caaedf",
      "meta": {
        "profile": [ "http://hl7.org/fhir/us/qicore/StructureDefinition/qicore-patient" ]
      },
      "text": {
        "status": "generated",
        "div": "<div xmlns=\"http://www.w3.org/1999/xhtml\"><div class=\"hapiHeaderText\">AssessEDDRelDtTimeB4TimeOfDelivAndEncStart<b>DENPASS</b></div><table class=\"hapiPropertyTable\"><tbody><tr><td>Identifier</td><td>b00b06f67015bda652373741cca10f65466d828e3a674df9528f73ec417ce0bb</td></tr><tr><td>Date of birth</td><td><span>14 February 1985</span></td></tr></tbody></table></div>"
      },
      "extension": [ {
        "url": "http://hl7.org/fhir/us/core/StructureDefinition/us-core-race",
        "extension": [ {
          "url": "ombCategory",
          "valueCoding": {
            "system": "urn:oid:2.16.840.1.113883.6.238",
            "code": "1002-5",
            "display": "American Indian or Alaska Native",
            "userSelected": true
          }
        }, {
          "url": "text",
          "valueString": "American Indian or Alaska Native"
        } ]
      }, {
        "url": "http://hl7.org/fhir/us/core/StructureDefinition/us-core-ethnicity",
        "extension": [ {
          "url": "ombCategory",
          "valueCoding": {
            "system": "urn:oid:2.16.840.1.113883.6.238",
            "code": "2135-2",
            "display": "Hispanic or Latino",
            "userSelected": true
          }
        }, {
          "url": "text",
          "valueString": "Hispanic or Latino"
        } ]
      } ],
      "identifier": [ {
        "type": {
          "coding": [ {
            "system": "http://terminology.hl7.org/CodeSystem/v2-0203",
            "code": "MR"
          } ]
        },
        "system": "https://bonnie-fhir.healthit.gov/",
        "value": "63487c2f0968f801225401ad"
      } ],
      "active": true,
      "name": [ {
        "use": "usual",
        "family": "DENPass",
        "given": [ "AssessEDDRelDtTimeB4TimeOfDelivAndEncStart" ]
      } ],
      "gender": "female",
      "birthDate": "1998-02-14"
    },
    "request": {
      "method": "PUT",
      "url": "Patient/e9c9f925-0076-4762-8392-e4d964caaedf"
    }
  }, {
    "fullUrl": "https://madie.cms.gov/Observation/425b9d54-5cc3-4556-8ad4-ac6c699a126d",
    "resource": {
      "resourceType": "Observation",
      "id": "425b9d54-5cc3-4556-8ad4-ac6c699a126d",
      "meta": {
        "profile": [ "http://hl7.org/fhir/us/qicore/StructureDefinition/qicore-simple-observation" ]
      },
      "status": "final",
      "category": [ {
        "coding": [ {
          "system": "http://terminology.hl7.org/CodeSystem/observation-category",
          "code": "exam",
          "display": "exam",
          "userSelected": true
        } ]
      } ],
      "code": {
        "coding": [ {
          "system": "http://loinc.org",
          "code": "93857-1"
        } ]
      },
      "subject": {
        "reference": "Patient/e9c9f925-0076-4762-8392-e4d964caaedf"
      },
      "effectiveDateTime": "2026-01-15T08:00:00.000+00:00",
      "performer": [ {
        "reference": "Organization/example1",
        "display": "Hendricks Country Hospital"
      } ],
      "valueDateTime": "2026-01-15T08:00:00.000+00:00"
    },
    "request": {
      "method": "PUT",
      "url": "Observation/425b9d54-5cc3-4556-8ad4-ac6c699a126d"
    }
  }, {
    "fullUrl": "https://madie.cms.gov/Observation/ee44ef42-f123-473f-b4c9-7b42bbe18c1e",
    "resource": {
      "resourceType": "Observation",
      "id": "ee44ef42-f123-473f-b4c9-7b42bbe18c1e",
      "meta": {
        "profile": [ "http://hl7.org/fhir/us/qicore/StructureDefinition/qicore-simple-observation" ]
      },
      "status": "final",
      "category": [ {
        "coding": [ {
          "system": "http://terminology.hl7.org/CodeSystem/observation-category",
          "code": "exam",
          "display": "exam",
          "userSelected": true
        } ]
      } ],
      "code": {
        "coding": [ {
          "system": "http://loinc.org",
          "code": "11778-8"
        } ]
      },
      "subject": {
        "reference": "Patient/e9c9f925-0076-4762-8392-e4d964caaedf"
      },
      "effectiveDateTime": "2026-01-14T07:59:00.000+00:00",
      "performer": [ {
        "reference": "Organization/example1",
        "display": "Hendricks Country Hospital"
      } ],
      "valueDateTime": "2026-02-04T08:00:00.000+00:00"
    },
    "request": {
      "method": "PUT",
      "url": "Observation/ee44ef42-f123-473f-b4c9-7b42bbe18c1e"
    }
  }, {
    "fullUrl": "https://madie.cms.gov/Observation/b114f54b-0165-4f27-a9ae-adad76aa11c6",
    "resource": {
      "resourceType": "Observation",
      "id": "b114f54b-0165-4f27-a9ae-adad76aa11c6",
      "meta": {
        "profile": [ "http://hl7.org/fhir/us/qicore/StructureDefinition/qicore-simple-observation" ]
      },
      "status": "final",
      "category": [ {
        "coding": [ {
          "system": "http://terminology.hl7.org/CodeSystem/observation-category",
          "code": "exam",
          "display": "exam",
          "userSelected": true
        } ]
      } ],
      "code": {
        "coding": [ {
          "system": "http://loinc.org",
          "code": "11996-6"
        } ]
      },
      "subject": {
        "reference": "Patient/e9c9f925-0076-4762-8392-e4d964caaedf"
      },
      "effectiveDateTime": "2026-01-15T07:59:00.000+00:00",
      "performer": [ {
        "reference": "Organization/example1",
        "display": "Hendricks Country Hospital"
      } ],
      "valueInteger": 1
    },
    "request": {
      "method": "PUT",
      "url": "Observation/b114f54b-0165-4f27-a9ae-adad76aa11c6"
    }
  }, {
    "fullUrl": "https://madie.cms.gov/Encounter/53942bee-a150-4789-b2b6-446af3c7bd3d",
    "resource": {
      "resourceType": "Encounter",
      "id": "53942bee-a150-4789-b2b6-446af3c7bd3d",
      "meta": {
        "profile": [ "http://hl7.org/fhir/us/qicore/StructureDefinition/qicore-encounter" ]
      },
      "status": "finished",
      "class": {
        "system": "http://terminology.hl7.org/CodeSystem/v3-ActCode",
        "code": "IMP",
        "display": "inpatient encounter"
      },
      "type": [ {
        "coding": [ {
          "system": "http://snomed.info/sct",
          "code": "183452005"
        } ]
      } ],
      "subject": {
        "reference": "Patient/e9c9f925-0076-4762-8392-e4d964caaedf"
      },
      "period": {
        "start": "2026-01-15T08:00:00.000+00:00",
        "end": "2026-01-20T08:15:00.000+00:00"
      },
      "reasonCode": [ {
        "coding": [ {
          "system": "http://snomed.info/sct",
          "code": "169826009",
          "display": "Single live birth from singleton pregnancy (finding)"
        } ]
      } ]
    },
    "request": {
      "method": "PUT",
      "url": "Encounter/53942bee-a150-4789-b2b6-446af3c7bd3d"
    }
  }, {
    "fullUrl": "https://madie.cms.gov/Procedure/e15c78a3-ac94-43fc-8317-9792f5162f26",
    "resource": {
      "resourceType": "Procedure",
      "id": "e15c78a3-ac94-43fc-8317-9792f5162f26",
      "meta": {
        "profile": [ "http://hl7.org/fhir/us/qicore/StructureDefinition/qicore-procedure" ]
      },
      "extension": [ {
        "url": "http://hl7.org/fhir/us/qicore/StructureDefinition/qicore-recorded",
        "valueDateTime": "2014-04-05T13:35:00.000+00:00"
      } ],
      "status": "completed",
      "code": {
        "coding": [ {
          "system": "http://www.cms.gov/Medicare/Coding/ICD10",
          "code": "10D07Z3"
        } ]
      },
      "subject": {
        "reference": "Patient/e9c9f925-0076-4762-8392-e4d964caaedf"
      },
      "performedPeriod": {
        "start": "2026-01-15T08:10:00.000+00:00",
        "end": "2026-01-15T09:14:00.000+00:00"
      }
    },
    "request": {
      "method": "PUT",
      "url": "Procedure/e15c78a3-ac94-43fc-8317-9792f5162f26"
    }
  }, {
    "fullUrl": "https://madie.cms.gov/Condition/32e7ecd5-a645-489c-bfa5-550219049c44",
    "resource": {
      "resourceType": "Condition",
      "id": "32e7ecd5-a645-489c-bfa5-550219049c44",
      "meta": {
        "profile": [ "http://hl7.org/fhir/us/qicore/StructureDefinition/qicore-condition-encounter-diagnosis" ]
      },
      "category": [ {
        "coding": [ {
          "system": "http://terminology.hl7.org/CodeSystem/condition-category",
          "code": "encounter-diagnosis",
          "display": "Encounter Diagnosis"
        } ]
      } ],
      "code": {
        "coding": [ {
          "system": "http://snomed.info/sct",
          "version": "2022-09",
          "code": "169826009",
          "display": "Single live birth (finding)",
          "userSelected": true
        } ]
      },
      "subject": {
        "reference": "Patient/e9c9f925-0076-4762-8392-e4d964caaedf"
      },
      "encounter": {
        "reference": "Encounter/53942bee-a150-4789-b2b6-446af3c7bd3d"
      },
      "recordedDate": "2026-10-18T08:00:00.000+00:00"
    },
    "request": {
      "method": "PUT",
      "url": "Condition/32e7ecd5-a645-489c-bfa5-550219049c44"
    }
  }, {
    "fullUrl": "https://madie.cms.gov/Coverage/1cba9a1d-bb93-4c09-9e92-4bc369c392bc",
    "resource": {
      "resourceType": "Coverage",
      "id": "1cba9a1d-bb93-4c09-9e92-4bc369c392bc",
      "meta": {
        "profile": [ "http://hl7.org/fhir/us/qicore/StructureDefinition/qicore-coverage" ]
      },
      "status": "active",
      "beneficiary": {
        "reference": "Patient/e9c9f925-0076-4762-8392-e4d964caaedf"
      },
      "payor": [ {
        "reference": "Organization/f6a7327d-0756-4562-a1ad-3d5c7088ebcf"
      } ]
    },
    "request": {
      "method": "PUT",
      "url": "Coverage/1cba9a1d-bb93-4c09-9e92-4bc369c392bc"
    }
  }, {
    "fullUrl": "https://madie.cms.gov/Organization/f6a7327d-0756-4562-a1ad-3d5c7088ebcf",
    "resource": {
      "resourceType": "Organization",
      "id": "f6a7327d-0756-4562-a1ad-3d5c7088ebcf",
      "meta": {
        "profile": [ "http://hl7.org/fhir/us/qicore/StructureDefinition/qicore-organization" ]
      },
      "identifier": [ {
        "use": "temp",
        "system": "urn:oid:2.16.840.1.113883.4.4",
        "value": "21-3259825"
      } ],
      "active": true,
      "type": [ {
        "coding": [ {
          "system": "http://terminology.hl7.org/CodeSystem/organization-type",
          "code": "pay",
          "display": "Payer"
        } ]
      } ],
      "name": "Blue Cross Blue Shield of Texas",
      "telecom": [ {
        "system": "phone",
        "value": "(+1) 972-766-6900"
      } ],
      "address": [ {
        "use": "billing",
        "type": "postal",
        "line": [ "P.O. Box 660044" ],
        "city": "Dallas",
        "state": "TX",
        "postalCode": "75266-0044",
        "country": "USA"
      } ]
    },
    "request": {
      "method": "PUT",
      "url": "Organization/f6a7327d-0756-4562-a1ad-3d5c7088ebcf"
    }
  }, {
    "fullUrl": "https://madie.cms.gov/Practitioner/cffa70b8-77d4-44d5-ae24-ec80281f7507",
    "resource": {
      "resourceType": "Practitioner",
      "id": "cffa70b8-77d4-44d5-ae24-ec80281f7507",
      "meta": {
        "profile": [ "http://hl7.org/fhir/us/qicore/StructureDefinition/qicore-practitioner" ]
      },
      "identifier": [ {
        "system": "http://hl7.org/fhir/sid/us-npi",
        "value": "1234567890"
      } ],
      "name": [ {
        "family": "Evil",
        "prefix": [ "Dr" ]
      } ]
    },
    "request": {
      "method": "PUT",
      "url": "Practitioner/cffa70b8-77d4-44d5-ae24-ec80281f7507"
    }
  }, {
    "fullUrl": "https://madie.cms.gov/MeasureReport/0d8f2d9b-922a-4992-a6bd-9f6eb17bd1af",
    "resource": {
      "resourceType": "MeasureReport",
      "id": "0d8f2d9b-922a-4992-a6bd-9f6eb17bd1af",
      "meta": {
        "profile": [ "http://hl7.org/fhir/us/cqfmeasures/StructureDefinition/test-case-cqfm" ]
      },
      "contained": [ {
        "resourceType": "Parameters",
        "id": "5aaf31a0-73e9-458b-b23b-308e9acfeea1-parameters",
        "parameter": [ {
          "name": "subject",
          "valueString": "e9c9f925-0076-4762-8392-e4d964caaedf"
        } ]
      } ],
      "extension": [ {
        "url": "http://hl7.org/fhir/StructureDefinition/cqf-inputParameters",
        "valueReference": {
          "reference": "#5aaf31a0-73e9-458b-b23b-308e9acfeea1-parameters"
        }
      }, {
        "url": "http://hl7.org/fhir/us/cqfmeasures/StructureDefinition/cqfm-testCaseDescription",
        "valueMarkdown": "Passes: IP, Pass DENOM, Pt is 27 years of age,  encounter dx delivery of singleton, gravida=1authored less than 42 weeks prior to delivery, Delivery date Estimated Relevant DateTime before the Time of Delivery and before Enc Start DT\n"
      } ],
      "modifierExtension": [ {
        "url": "http://hl7.org/fhir/us/cqfmeasures/StructureDefinition/cqfm-isTestCase",
        "valueBoolean": true
      } ],
      "status": "complete",
      "type": "individual",
      "measure": "https://madie.cms.gov/Measure/CMS0334FHIRPCCesareanBirth",
      "period": {
        "start": "2026-01-01",
        "end": "2026-12-31"
      },
      "group": [ {
        "id": "Group_1",
        "population": [ {
          "id": "InitialPopulation_1",
          "code": {
            "coding": [ {
              "system": "http://terminology.hl7.org/CodeSystem/measure-population",
              "code": "initial-population",
              "display": "Initial Population"
            } ]
          },
          "count": 1
        }, {
          "id": "Denominator_1",
          "code": {
            "coding": [ {
              "system": "http://terminology.hl7.org/CodeSystem/measure-population",
              "code": "denominator",
              "display": "Denominator"
            } ]
          },
          "count": 1
        }, {
          "id": "DenominatorExclusion_1",
          "code": {
            "coding": [ {
              "system": "http://terminology.hl7.org/CodeSystem/measure-population",
              "code": "denominator-exclusion",
              "display": "Denominator Exclusion"
            } ]
          },
          "count": 0
        }, {
          "id": "Numerator_1",
          "code": {
            "coding": [ {
              "system": "http://terminology.hl7.org/CodeSystem/measure-population",
              "code": "numerator",
              "display": "Numerator"
            } ]
          },
          "count": 0
        } ],
        "measureScore": {
          "value": 0.0
        }
      } ],
      "evaluatedResource": [ {
        "reference": "Patient/e9c9f925-0076-4762-8392-e4d964caaedf"
      }, {
        "reference": "Observation/425b9d54-5cc3-4556-8ad4-ac6c699a126d"
      }, {
        "reference": "Observation/ee44ef42-f123-473f-b4c9-7b42bbe18c1e"
      }, {
        "reference": "Observation/b114f54b-0165-4f27-a9ae-adad76aa11c6"
      }, {
        "reference": "Encounter/53942bee-a150-4789-b2b6-446af3c7bd3d"
      }, {
        "reference": "Procedure/e15c78a3-ac94-43fc-8317-9792f5162f26"
      }, {
        "reference": "Condition/32e7ecd5-a645-489c-bfa5-550219049c44"
      }, {
        "reference": "Coverage/1cba9a1d-bb93-4c09-9e92-4bc369c392bc"
      }, {
        "reference": "Organization/f6a7327d-0756-4562-a1ad-3d5c7088ebcf"
      }, {
        "reference": "Practitioner/cffa70b8-77d4-44d5-ae24-ec80281f7507"
      } ]
    },
    "request": {
      "method": "PUT",
      "url": "MeasureReport/0d8f2d9b-922a-4992-a6bd-9f6eb17bd1af"
    }
  } ]
}