{
  "resourceType": "Bundle",
  "id": "6298e96c5c5f0f80c3806878",
  "type": "collection",
  "entry": [ {
    "fullUrl": "https://madie.cms.gov/Patient/597f0a09-29f9-4141-804a-56a1fca5352e",
    "resource": {
      "resourceType": "Patient",
      "id": "597f0a09-29f9-4141-804a-56a1fca5352e",
      "meta": {
        "profile": [ "http://hl7.org/fhir/us/qicore/StructureDefinition/qicore-patient" ]
      },
      "extension": [ {
        "url": "http://hl7.org/fhir/us/core/StructureDefinition/us-core-race",
        "extension": [ {
          "url": "ombCategory",
          "valueCoding": {
            "system": "urn:oid:2.16.840.1.113883.6.238",
            "code": "1002-5",
            "display": "American Indian or Alaska Native",
            "userSelected": true
          }
        }, {
          "url": "text",
          "valueString": "American Indian or Alaska Native"
        } ]
      }, {
        "url": "http://hl7.org/fhir/us/core/StructureDefinition/us-core-ethnicity",
        "extension": [ {
          "url": "ombCategory",
          "valueCoding": {
            "system": "urn:oid:2.16.840.1.113883.6.238",
            "code": "2135-2",
            "display": "Hispanic or Latino",
            "userSelected": true
          }
        }, {
          "url": "text",
          "valueString": "Hispanic or Latino"
        } ]
      } ],
      "identifier": [ {
        "type": {
          "coding": [ {
            "system": "http://terminology.hl7.org/CodeSystem/v2-0203",
            "code": "MR"
          } ]
        },
        "system": "https://bonnie-fhir.healthit.gov/",
        "value": "6298e96c5c5f0f80c3806878"
      } ],
      "name": [ {
        "family": "DENOMFail",
        "given": [ "LastStagingBefore1stTreamentNotValid" ]
      } ],
      "gender": "male",
      "birthDate": "1980-12-31"
    }
  }, {
    "fullUrl": "https://madie.cms.gov/Condition/96f43ac7-e19e-405d-8fbf-f4f814102c17",
    "resource": {
      "resourceType": "Condition",
      "id": "96f43ac7-e19e-405d-8fbf-f4f814102c17",
      "meta": {
        "profile": [ "http://hl7.org/fhir/us/qicore/StructureDefinition/qicore-condition-problems-health-concerns" ]
      },
      "clinicalStatus": {
        "coding": [ {
          "system": "http://terminology.hl7.org/CodeSystem/condition-clinical",
          "code": "active",
          "display": "active",
          "userSelected": true
        } ]
      },
      "category": [ {
        "coding": [ {
          "system": "http://terminology.hl7.org/CodeSystem/condition-category",
          "code": "problem-list-item",
          "display": "Problem List Item"
        }, {
          "system": "http://snomed.info/sct",
          "code": "439401001",
          "display": "Diagnosis"
        } ]
      } ],
      "code": {
        "coding": [ {
          "system": "http://snomed.info/sct",
          "code": "254900004",
          "display": "Carcinoma of prostate (disorder)",
          "userSelected": true
        } ]
      },
      "subject": {
        "reference": "Patient/597f0a09-29f9-4141-804a-56a1fca5352e"
      },
      "onsetPeriod": {
        "start": "2008-06-14T08:00:00.000+00:00"
      }
    }
  }, {
    "fullUrl": "https://madie.cms.gov/Procedure/82028071-4b3a-4ce9-9058-fd8a20a921ff",
    "resource": {
      "resourceType": "Procedure",
      "id": "82028071-4b3a-4ce9-9058-fd8a20a921ff",
      "meta": {
        "profile": [ "http://hl7.org/fhir/us/qicore/StructureDefinition/qicore-procedure" ]
      },
      "extension": [ {
        "url": "http://hl7.org/fhir/us/qicore/StructureDefinition/qicore-recorded",
        "valueDateTime": "2026-02-01T09:00:00.000+00:00"
      } ],
      "status": "completed",
      "code": {
        "coding": [ {
          "system": "http://snomed.info/sct",
          "code": "38915000",
          "display": "Radionuclide therapy for gland ablation (procedure)",
          "userSelected": true
        } ]
      },
      "subject": {
        "reference": "Patient/597f0a09-29f9-4141-804a-56a1fca5352e"
      },
      "performedDateTime": "2026-08-25T08:00:00.000+00:00"
    }
  }, {
    "fullUrl": "https://madie.cms.gov/Observation/20b48c07-fff2-4d50-85bc-5d0eda5475e0",
    "resource": {
      "resourceType": "Observation",
      "id": "20b48c07-fff2-4d50-85bc-5d0eda5475e0",
      "meta": {
        "profile": [ "http://hl7.org/fhir/us/qicore/StructureDefinition/qicore-observation-lab" ]
      },
      "status": "final",
      "category": [ {
        "coding": [ {
          "system": "http://terminology.hl7.org/CodeSystem/observation-category",
          "code": "laboratory",
          "display": "Laboratory"
        } ]
      } ],
      "code": {
        "coding": [ {
          "system": "http://loinc.org",
          "version": "2.72",
          "code": "10508-0",
          "display": "Prostate specific Ag [Presence] in Tissue by Immune stain",
          "userSelected": true
        } ]
      },
      "subject": {
        "reference": "Patient/597f0a09-29f9-4141-804a-56a1fca5352e"
      },
      "effectiveDateTime": "2026-04-24T08:00:00.000+00:00",
      "valueQuantity": {
        "value": 8.0,
        "system": "http://unitsofmeasure.org",
        "code": "ng/mL"
      }
    }
  }, {
    "fullUrl": "https://madie.cms.gov/Observation/aa0929d6-3fd7-468e-870a-794541827354",
    "resource": {
      "resourceType": "Observation",
      "id": "aa0929d6-3fd7-468e-870a-794541827354",
      "meta": {
        "profile": [ "http://hl7.org/fhir/us/qicore/StructureDefinition/qicore-observation-clinical-result" ]
      },
      "status": "final",
      "category": [ {
        "coding": [ {
          "system": "http://terminology.hl7.org/CodeSystem/observation-category",
          "code": "procedure",
          "display": "Procedure"
        } ]
      } ],
      "code": {
        "coding": [ {
          "system": "http://loinc.org",
          "code": "35266-6",
          "display": "Gleason score in Specimen Qualitative",
          "userSelected": true
        } ]
      },
      "subject": {
        "reference": "Patient/597f0a09-29f9-4141-804a-56a1fca5352e"
      },
      "effectiveDateTime": "2026-01-02T08:00:00.000+00:00",
      "valueInteger": 5
    }
  }, {
    "fullUrl": "https://madie.cms.gov/Observation/b3487b4d-5831-4934-80d8-6f715246a0b0",
    "resource": {
      "resourceType": "Observation",
      "id": "b3487b4d-5831-4934-80d8-6f715246a0b0",
      "meta": {
        "profile": [ "http://hl7.org/fhir/us/qicore/StructureDefinition/qicore-observation-clinical-result" ]
      },
      "status": "final",
      "category": [ {
        "coding": [ {
          "system": "http://terminology.hl7.org/CodeSystem/observation-category",
          "code": "procedure",
          "display": "Procedure"
        } ]
      } ],
      "code": {
        "coding": [ {
          "system": "http://snomed.info/sct",
          "code": "254292007",
          "display": "Tumor staging (tumor staging)",
          "userSelected": true
        } ]
      },
      "subject": {
        "reference": "Patient/597f0a09-29f9-4141-804a-56a1fca5352e"
      },
      "effectiveDateTime": "2026-04-26T08:00:00.000+00:00",
      "valueCodeableConcept": {
        "coding": [ {
          "system": "http://snomed.info/sct",
          "code": "1228931008",
          "display": "American Joint Committee on Cancer cT2a (qualifier value)",
          "userSelected": true
        } ]
      }
    }
  }, {
    "fullUrl": "https://madie.cms.gov/Observation/ad5c719d-7904-4823-b310-412489b82966",
    "resource": {
      "resourceType": "Observation",
      "id": "ad5c719d-7904-4823-b310-412489b82966",
      "meta": {
        "profile": [ "http://hl7.org/fhir/us/qicore/StructureDefinition/qicore-observation-clinical-result" ]
      },
      "status": "final",
      "category": [ {
        "coding": [ {
          "system": "http://terminology.hl7.org/CodeSystem/observation-category",
          "code": "procedure",
          "display": "Procedure"
        } ]
      } ],
      "code": {
        "coding": [ {
          "system": "http://snomed.info/sct",
          "code": "254292007",
          "display": "Tumor staging (tumor staging)",
          "userSelected": true
        } ]
      },
      "subject": {
        "reference": "Patient/597f0a09-29f9-4141-804a-56a1fca5352e"
      },
      "effectiveDateTime": "2026-06-26T08:00:00.000+00:00",
      "valueCodeableConcept": {
        "coding": [ {
          "system": "http://snomed.info/sct",
          "code": "1228892002",
          "display": "American Joint Committee on Cancer cT1a (qualifier value)",
          "userSelected": true
        } ]
      }
    }
  }, {
    "fullUrl": "https://madie.cms.gov/Observation/c3fbcb61-c353-4916-bc58-d375582b91c6",
    "resource": {
      "resourceType": "Observation",
      "id": "c3fbcb61-c353-4916-bc58-d375582b91c6",
      "meta": {
        "profile": [ "http://hl7.org/fhir/us/qicore/StructureDefinition/qicore-observation-clinical-result" ]
      },
      "status": "final",
      "category": [ {
        "coding": [ {
          "system": "http://terminology.hl7.org/CodeSystem/observation-category",
          "code": "procedure",
          "display": "Procedure"
        } ]
      } ],
      "code": {
        "coding": [ {
          "system": "http://snomed.info/sct",
          "code": "254292007",
          "display": "Tumor staging (tumor staging)",
          "userSelected": true
        } ]
      },
      "subject": {
        "reference": "Patient/597f0a09-29f9-4141-804a-56a1fca5352e"
      },
      "effectiveDateTime": "2026-08-24T08:00:00.000+00:00",
      "valueCodeableConcept": {
        "coding": [ {
          "system": "http://snomed.info/sct",
          "code": "254292007",
          "display": "Tumor staging (tumor staging)",
          "userSelected": true
        } ]
      }
    }
  }, {
    "fullUrl": "https://madie.cms.gov/Observation/ffcc273c-92eb-4871-ab14-dbfe2932aca3",
    "resource": {
      "resourceType": "Observation",
      "id": "ffcc273c-92eb-4871-ab14-dbfe2932aca3",
      "meta": {
        "profile": [ "http://hl7.org/fhir/us/qicore/StructureDefinition/qicore-observation-clinical-result" ]
      },
      "status": "final",
      "category": [ {
        "coding": [ {
          "system": "http://terminology.hl7.org/CodeSystem/observation-category",
          "code": "procedure",
          "display": "Procedure"
        } ]
      } ],
      "code": {
        "coding": [ {
          "system": "http://loinc.org",
          "version": "2.72",
          "code": "25031-6",
          "display": "NM Bone Views",
          "userSelected": true
        } ]
      },
      "subject": {
        "reference": "Patient/597f0a09-29f9-4141-804a-56a1fca5352e"
      },
      "effectiveDateTime": "2026-08-17T08:00:00.000+00:00",
      "issued": "2026-08-17T08:00:00.000+00:00",
      "valueString": "Normal results found"
    }
  }, {
    "fullUrl": "https://madie.cms.gov/Coverage/3e521ac2-2ad3-4690-b5a8-7b59a804d57d",
    "resource": {
      "resourceType": "Coverage",
      "id": "3e521ac2-2ad3-4690-b5a8-7b59a804d57d",
      "meta": {
        "profile": [ "http://hl7.org/fhir/us/qicore/StructureDefinition/qicore-coverage" ]
      },
      "status": "active",
      "subscriberId": "123456789",
      "beneficiary": {
        "reference": "Patient/597f0a09-29f9-4141-804a-56a1fca5352e"
      },
      "relationship": {
        "coding": [ {
          "system": "http://terminology.hl7.org/CodeSystem/subscriber-relationship",
          "code": "self",
          "display": "Self",
          "userSelected": true
        } ]
      },
      "payor": [ {
        "reference": "Organization/4ec9f6c6-dfc4-47dc-90ed-d4d3c04388b7"
      } ]
    }
  }, {
    "fullUrl": "https://madie.cms.gov/Organization/4ec9f6c6-dfc4-47dc-90ed-d4d3c04388b7",
    "resource": {
      "resourceType": "Organization",
      "id": "4ec9f6c6-dfc4-47dc-90ed-d4d3c04388b7",
      "meta": {
        "profile": [ "http://hl7.org/fhir/us/qicore/StructureDefinition/qicore-organization" ]
      },
      "identifier": [ {
        "use": "temp",
        "system": "urn:oid:2.16.840.1.113883.4.4",
        "value": "21-3259825"
      } ],
      "active": true,
      "type": [ {
        "coding": [ {
          "system": "http://terminology.hl7.org/CodeSystem/organization-type",
          "code": "pay",
          "display": "Payer"
        } ]
      } ],
      "name": "Blue Cross Blue Shield of Texas",
      "telecom": [ {
        "system": "phone",
        "value": "(+1) 972-766-6900"
      } ],
      "address": [ {
        "use": "billing",
        "type": "postal",
        "line": [ "P.O. Box 660044" ],
        "city": "Dallas",
        "state": "TX",
        "postalCode": "75266-0044",
        "country": "USA"
      } ]
    }
  }, {
    "fullUrl": "https://madie.cms.gov/Practitioner/685b0358-397f-4055-99da-0e2aebaa329c",
    "resource": {
      "resourceType": "Practitioner",
      "id": "685b0358-397f-4055-99da-0e2aebaa329c",
      "meta": {
        "profile": [ "http://hl7.org/fhir/us/qicore/StructureDefinition/qicore-practitioner" ]
      },
      "identifier": [ {
        "system": "http://hl7.org/fhir/sid/us-npi",
        "value": "1234567893"
      } ],
      "name": [ {
        "family": "Evil",
        "prefix": [ "Dr" ]
      } ]
    }
  }, {
    "fullUrl": "https://madie.cms.gov/MeasureReport/f4c92e34-dc6f-4857-be41-1c3bc0436b35",
    "resource": {
      "resourceType": "MeasureReport",
      "id": "f4c92e34-dc6f-4857-be41-1c3bc0436b35",
      "meta": {
        "profile": [ "http://hl7.org/fhir/us/cqfmeasures/StructureDefinition/test-case-cqfm" ]
      },
      "contained": [ {
        "resourceType": "Parameters",
        "id": "60c14529-a997-42d8-a2fd-8892a7f0c3ae-parameters",
        "parameter": [ {
          "name": "subject",
          "valueString": "597f0a09-29f9-4141-804a-56a1fca5352e"
        } ]
      } ],
      "extension": [ {
        "url": "http://hl7.org/fhir/StructureDefinition/cqf-inputParameters",
        "valueReference": {
          "reference": "#60c14529-a997-42d8-a2fd-8892a7f0c3ae-parameters"
        }
      }, {
        "url": "http://hl7.org/fhir/us/cqfmeasures/StructureDefinition/cqfm-testCaseDescription",
        "valueMarkdown": "3 of 3 staging: 4/26- T2A,  6/26-T1A (passes logic), 8/24- None); Tx 8/25; PSA = 8; Gleason = 5; last that occurs before 1st treatment has invalid staging. "
      } ],
      "modifierExtension": [ {
        "url": "http://hl7.org/fhir/us/cqfmeasures/StructureDefinition/cqfm-isTestCase",
        "valueBoolean": true
      } ],
      "status": "complete",
      "type": "individual",
      "measure": "https://madie.cms.gov/Measure/CMS129FHIRProstCaBoneScanUse",
      "period": {
        "start": "2026-01-01",
        "end": "2026-12-31"
      },
      "group": [ {
        "id": "Group_1",
        "population": [ {
          "id": "InitialPopulation_1",
          "code": {
            "coding": [ {
              "system": "http://terminology.hl7.org/CodeSystem/measure-population",
              "code": "initial-population",
              "display": "Initial Population"
            } ]
          },
          "count": 1
        }, {
          "id": "Denominator_1",
          "code": {
            "coding": [ {
              "system": "http://terminology.hl7.org/CodeSystem/measure-population",
              "code": "denominator",
              "display": "Denominator"
            } ]
          },
          "count": 0
        }, {
          "id": "Numerator_1",
          "code": {
            "coding": [ {
              "system": "http://terminology.hl7.org/CodeSystem/measure-population",
              "code": "numerator",
              "display": "Numerator"
            } ]
          },
          "count": 0
        }, {
          "id": "DenominatorException_1",
          "code": {
            "coding": [ {
              "system": "http://terminology.hl7.org/CodeSystem/measure-population",
              "code": "denominator-exception",
              "display": "Denominator Exception"
            } ]
          },
          "count": 0
        } ],
        "measureScore": {
          "value": 1.0
        }
      } ],
      "evaluatedResource": [ {
        "reference": "Patient/597f0a09-29f9-4141-804a-56a1fca5352e"
      }, {
        "reference": "Condition/96f43ac7-e19e-405d-8fbf-f4f814102c17"
      }, {
        "reference": "Procedure/82028071-4b3a-4ce9-9058-fd8a20a921ff"
      }, {
        "reference": "Observation/20b48c07-fff2-4d50-85bc-5d0eda5475e0"
      }, {
        "reference": "Observation/aa0929d6-3fd7-468e-870a-794541827354"
      }, {
        "reference": "Observation/b3487b4d-5831-4934-80d8-6f715246a0b0"
      }, {
        "reference": "Observation/ad5c719d-7904-4823-b310-412489b82966"
      }, {
        "reference": "Observation/c3fbcb61-c353-4916-bc58-d375582b91c6"
      }, {
        "reference": "Observation/ffcc273c-92eb-4871-ab14-dbfe2932aca3"
      }, {
        "reference": "Coverage/3e521ac2-2ad3-4690-b5a8-7b59a804d57d"
      }, {
        "reference": "Organization/4ec9f6c6-dfc4-47dc-90ed-d4d3c04388b7"
      }, {
        "reference": "Practitioner/685b0358-397f-4055-99da-0e2aebaa329c"
      } ]
    }
  } ]
}