{
  "resourceType": "Bundle",
  "id": "612e6b8402c62a011f2ee1d9",
  "type": "transaction",
  "entry": [ {
    "fullUrl": "https://madie.cms.gov/Patient/8e2cfc29-0925-45b9-857f-b9ee9b9fa248",
    "resource": {
      "resourceType": "Patient",
      "id": "8e2cfc29-0925-45b9-857f-b9ee9b9fa248",
      "meta": {
        "profile": [ "http://hl7.org/fhir/us/qicore/StructureDefinition/qicore-patient" ]
      },
      "text": {
        "status": "generated",
        "div": "<div xmlns=\"http://www.w3.org/1999/xhtml\"><div class=\"hapiHeaderText\">MedRsnMAWarfDAIPCDrgEDGT1hrSameDayAdm <b>NUMERPASS </b></div><table class=\"hapiPropertyTable\"><tbody><tr><td>Identifier</td><td>d5661b6a7ac7a6b9f13847d23af8475a</td></tr><tr><td>Date of birth</td><td><span>02 January 1974</span></td></tr></tbody></table></div>"
      },
      "extension": [ {
        "url": "http://hl7.org/fhir/us/core/StructureDefinition/us-core-race",
        "extension": [ {
          "url": "ombCategory",
          "valueCoding": {
            "system": "urn:oid:2.16.840.1.113883.6.238",
            "code": "1002-5",
            "display": "American Indian or Alaska Native",
            "userSelected": true
          }
        }, {
          "url": "text",
          "valueString": "American Indian or Alaska Native"
        } ]
      }, {
        "url": "http://hl7.org/fhir/us/core/StructureDefinition/us-core-ethnicity",
        "extension": [ {
          "url": "ombCategory",
          "valueCoding": {
            "system": "urn:oid:2.16.840.1.113883.6.238",
            "code": "2135-2",
            "display": "Hispanic or Latino",
            "userSelected": true
          }
        }, {
          "url": "text",
          "valueString": "Hispanic or Latino"
        } ]
      } ],
      "identifier": [ {
        "type": {
          "coding": [ {
            "system": "http://terminology.hl7.org/CodeSystem/v2-0203",
            "code": "MR"
          } ]
        },
        "system": "https://bonnie-fhir.healthit.gov/",
        "value": "612e6b8402c62a011f2ee1d9"
      } ],
      "active": true,
      "name": [ {
        "use": "usual",
        "family": "NUMERPass",
        "given": [ "MedRsnMAWarfDAIPCDrgEDGT1hrSameDayAdm" ]
      } ],
      "gender": "male",
      "birthDate": "1975-01-02"
    },
    "request": {
      "method": "PUT",
      "url": "Patient/8e2cfc29-0925-45b9-857f-b9ee9b9fa248"
    }
  }, {
    "fullUrl": "https://madie.cms.gov/Encounter/1b86638d-9194-4c67-b721-40bb84e465f4",
    "resource": {
      "resourceType": "Encounter",
      "id": "1b86638d-9194-4c67-b721-40bb84e465f4",
      "meta": {
        "profile": [ "http://hl7.org/fhir/us/qicore/StructureDefinition/qicore-encounter" ]
      },
      "status": "finished",
      "class": {
        "system": "http://terminology.hl7.org/CodeSystem/v3-ActCode",
        "code": "EMER",
        "display": "emergency"
      },
      "type": [ {
        "coding": [ {
          "system": "http://snomed.info/sct",
          "code": "4525004"
        } ]
      } ],
      "subject": {
        "reference": "Patient/8e2cfc29-0925-45b9-857f-b9ee9b9fa248"
      },
      "period": {
        "start": "2026-10-31T04:00:00.000+00:00",
        "end": "2026-11-01T07:15:00.000+00:00"
      },
      "length": {
        "value": 1,
        "unit": "days"
      }
    },
    "request": {
      "method": "PUT",
      "url": "Encounter/1b86638d-9194-4c67-b721-40bb84e465f4"
    }
  }, {
    "fullUrl": "https://madie.cms.gov/Encounter/5543b8e9-9fa1-401b-8302-382f50d5790f",
    "resource": {
      "resourceType": "Encounter",
      "id": "5543b8e9-9fa1-401b-8302-382f50d5790f",
      "meta": {
        "profile": [ "http://hl7.org/fhir/us/qicore/StructureDefinition/qicore-encounter" ]
      },
      "status": "finished",
      "class": {
        "system": "http://terminology.hl7.org/CodeSystem/v3-ActCode",
        "code": "IMP",
        "display": "inpatient encounter"
      },
      "type": [ {
        "coding": [ {
          "system": "http://snomed.info/sct",
          "code": "8715000"
        } ]
      } ],
      "subject": {
        "reference": "Patient/8e2cfc29-0925-45b9-857f-b9ee9b9fa248"
      },
      "period": {
        "start": "2026-11-01T10:00:00.000+00:00",
        "end": "2026-11-04T05:00:00.000+00:00"
      },
      "length": {
        "value": 25,
        "unit": "days"
      }
    },
    "request": {
      "method": "PUT",
      "url": "Encounter/5543b8e9-9fa1-401b-8302-382f50d5790f"
    }
  }, {
    "fullUrl": "https://madie.cms.gov/Coverage/6f81f5f1-5385-49fb-8c73-7a0453477191",
    "resource": {
      "resourceType": "Coverage",
      "id": "6f81f5f1-5385-49fb-8c73-7a0453477191",
      "status": "active",
      "beneficiary": {
        "reference": "Patient/8e2cfc29-0925-45b9-857f-b9ee9b9fa248"
      },
      "period": {
        "start": "1975-01-02T08:00:00.000+00:00"
      },
      "payor": [ {
        "reference": "Organization/878f9e23-d220-4649-8dd1-4cd0bfec0cce"
      } ]
    },
    "request": {
      "method": "PUT",
      "url": "Coverage/6f81f5f1-5385-49fb-8c73-7a0453477191"
    }
  }, {
    "fullUrl": "https://madie.cms.gov/Procedure/53f66762-0e57-4836-91c7-ab95ccf1c405",
    "resource": {
      "resourceType": "Procedure",
      "id": "53f66762-0e57-4836-91c7-ab95ccf1c405",
      "meta": {
        "profile": [ "http://hl7.org/fhir/us/qicore/StructureDefinition/qicore-procedurenotdone" ]
      },
      "extension": [ {
        "url": "http://hl7.org/fhir/us/qicore/StructureDefinition/qicore-recorded",
        "valueDateTime": "2026-11-01T10:35:00.000+00:00"
      } ],
      "status": "not-done",
      "statusReason": {
        "coding": [ {
          "system": "http://snomed.info/sct",
          "code": "183932001",
          "display": "Procedure contraindicated (situation)",
          "userSelected": true
        } ]
      },
      "code": {
        "coding": [ {
          "system": "http://snomed.info/sct",
          "code": "443448006",
          "display": "Application of intermittent pneumatic compression device (procedure)",
          "userSelected": true
        } ]
      },
      "subject": {
        "reference": "Patient/8e2cfc29-0925-45b9-857f-b9ee9b9fa248"
      },
      "_performedDateTime": {
        "extension": [ {
          "url": "http://hl7.org/fhir/StructureDefinition/data-absent-reason",
          "valueCode": "not-performed"
        } ]
      }
    },
    "request": {
      "method": "PUT",
      "url": "Procedure/53f66762-0e57-4836-91c7-ab95ccf1c405"
    }
  }, {
    "fullUrl": "https://madie.cms.gov/MedicationAdministration/da578d44-4c36-47dd-8610-db6d650c9481",
    "resource": {
      "resourceType": "MedicationAdministration",
      "id": "da578d44-4c36-47dd-8610-db6d650c9481",
      "meta": {
        "profile": [ "http://hl7.org/fhir/us/qicore/StructureDefinition/qicore-medicationadministrationnotdone" ]
      },
      "extension": [ {
        "url": "http://hl7.org/fhir/us/qicore/StructureDefinition/qicore-recorded",
        "valueDateTime": "2026-11-01T06:00:00.000+00:00"
      } ],
      "status": "not-done",
      "statusReason": [ {
        "coding": [ {
          "system": "http://snomed.info/sct",
          "code": "183932001",
          "display": "Procedure contraindicated (situation)",
          "userSelected": true
        } ]
      } ],
      "medicationCodeableConcept": {
        "coding": [ {
          "system": "http://www.nlm.nih.gov/research/umls/rxnorm",
          "code": "855288"
        } ]
      },
      "subject": {
        "reference": "Patient/8e2cfc29-0925-45b9-857f-b9ee9b9fa248"
      },
      "effectivePeriod": {
        "start": "2026-11-01T07:00:00.000+00:00"
      }
    },
    "request": {
      "method": "PUT",
      "url": "MedicationAdministration/da578d44-4c36-47dd-8610-db6d650c9481"
    }
  }, {
    "fullUrl": "https://madie.cms.gov/Organization/878f9e23-d220-4649-8dd1-4cd0bfec0cce",
    "resource": {
      "resourceType": "Organization",
      "id": "878f9e23-d220-4649-8dd1-4cd0bfec0cce",
      "meta": {
        "profile": [ "http://hl7.org/fhir/us/qicore/StructureDefinition/qicore-organization" ]
      },
      "identifier": [ {
        "use": "temp",
        "system": "urn:oid:2.16.840.1.113883.4.4",
        "value": "21-3259825"
      } ],
      "active": true,
      "type": [ {
        "coding": [ {
          "system": "http://terminology.hl7.org/CodeSystem/organization-type",
          "code": "pay",
          "display": "Payer"
        } ]
      } ],
      "name": "Blue Cross Blue Shield of Texas",
      "telecom": [ {
        "system": "phone",
        "value": "(+1) 972-766-6900"
      } ],
      "address": [ {
        "use": "billing",
        "type": "postal",
        "line": [ "P.O. Box 660044" ],
        "city": "Dallas",
        "state": "TX",
        "postalCode": "75266-0044",
        "country": "USA"
      } ]
    },
    "request": {
      "method": "PUT",
      "url": "Organization/878f9e23-d220-4649-8dd1-4cd0bfec0cce"
    }
  }, {
    "fullUrl": "https://madie.cms.gov/Practitioner/ee8d2171-9951-4b7a-b331-1ae83e90bb4b",
    "resource": {
      "resourceType": "Practitioner",
      "id": "ee8d2171-9951-4b7a-b331-1ae83e90bb4b",
      "identifier": [ {
        "system": "http://hl7.org/fhir/sid/us-npi",
        "value": "123456"
      } ],
      "name": [ {
        "family": "Evil",
        "prefix": [ "Dr" ]
      } ]
    },
    "request": {
      "method": "PUT",
      "url": "Practitioner/ee8d2171-9951-4b7a-b331-1ae83e90bb4b"
    }
  }, {
    "fullUrl": "https://madie.cms.gov/MeasureReport/b86669af-57ea-48d3-af7b-87c11d0e94b9",
    "resource": {
      "resourceType": "MeasureReport",
      "id": "b86669af-57ea-48d3-af7b-87c11d0e94b9",
      "meta": {
        "profile": [ "http://hl7.org/fhir/us/cqfmeasures/StructureDefinition/test-case-cqfm" ]
      },
      "contained": [ {
        "resourceType": "Parameters",
        "id": "6466dc8c-d4ab-419e-80d0-28678e2308d2-parameters",
        "parameter": [ {
          "name": "subject",
          "valueString": "8e2cfc29-0925-45b9-857f-b9ee9b9fa248"
        } ]
      } ],
      "extension": [ {
        "url": "http://hl7.org/fhir/StructureDefinition/cqf-inputParameters",
        "valueReference": {
          "reference": "#6466dc8c-d4ab-419e-80d0-28678e2308d2-parameters"
        }
      }, {
        "url": "http://hl7.org/fhir/us/cqfmeasures/StructureDefinition/cqfm-testCaseDescription",
        "valueMarkdown": "medical reasons for not receiving IPC devices and warfarin in ED but ED is 2 hour before Adm\n"
      } ],
      "modifierExtension": [ {
        "url": "http://hl7.org/fhir/us/cqfmeasures/StructureDefinition/cqfm-isTestCase",
        "valueBoolean": true
      } ],
      "status": "complete",
      "type": "individual",
      "measure": "https://madie.cms.gov/Measure/CMS108FHIRVTEProphylaxis",
      "period": {
        "start": "2026-01-01",
        "end": "2026-12-31"
      },
      "group": [ {
        "id": "Group_1",
        "population": [ {
          "id": "InitialPopulation_1",
          "code": {
            "coding": [ {
              "system": "http://terminology.hl7.org/CodeSystem/measure-population",
              "code": "initial-population",
              "display": "Initial Population"
            } ]
          },
          "count": 1
        }, {
          "id": "Denominator_1",
          "code": {
            "coding": [ {
              "system": "http://terminology.hl7.org/CodeSystem/measure-population",
              "code": "denominator",
              "display": "Denominator"
            } ]
          },
          "count": 1
        }, {
          "id": "DenominatorExclusion_1",
          "code": {
            "coding": [ {
              "system": "http://terminology.hl7.org/CodeSystem/measure-population",
              "code": "denominator-exclusion",
              "display": "Denominator Exclusion"
            } ]
          },
          "count": 0
        }, {
          "id": "Numerator_1",
          "code": {
            "coding": [ {
              "system": "http://terminology.hl7.org/CodeSystem/measure-population",
              "code": "numerator",
              "display": "Numerator"
            } ]
          },
          "count": 1
        } ],
        "measureScore": {
          "value": 0.0
        }
      } ],
      "evaluatedResource": [ {
        "reference": "Patient/8e2cfc29-0925-45b9-857f-b9ee9b9fa248"
      }, {
        "reference": "Encounter/1b86638d-9194-4c67-b721-40bb84e465f4"
      }, {
        "reference": "Encounter/5543b8e9-9fa1-401b-8302-382f50d5790f"
      }, {
        "reference": "Coverage/6f81f5f1-5385-49fb-8c73-7a0453477191"
      }, {
        "reference": "Procedure/53f66762-0e57-4836-91c7-ab95ccf1c405"
      }, {
        "reference": "MedicationAdministration/da578d44-4c36-47dd-8610-db6d650c9481"
      }, {
        "reference": "Organization/878f9e23-d220-4649-8dd1-4cd0bfec0cce"
      }, {
        "reference": "Practitioner/ee8d2171-9951-4b7a-b331-1ae83e90bb4b"
      } ]
    },
    "request": {
      "method": "PUT",
      "url": "MeasureReport/b86669af-57ea-48d3-af7b-87c11d0e94b9"
    }
  } ]
}