{
  "resourceType": "Bundle",
  "id": "661476b015ed5841a5547ebf",
  "type": "transaction",
  "entry": [ {
    "fullUrl": "https://madie.cms.gov/Patient/9b5e4d84-366b-4082-8409-b7e18e0a3c45",
    "resource": {
      "resourceType": "Patient",
      "id": "9b5e4d84-366b-4082-8409-b7e18e0a3c45",
      "meta": {
        "profile": [ "http://hl7.org/fhir/us/qicore/StructureDefinition/qicore-patient" ]
      },
      "extension": [ {
        "url": "http://hl7.org/fhir/us/core/StructureDefinition/us-core-race",
        "extension": [ {
          "url": "ombCategory",
          "valueCoding": {
            "system": "urn:oid:2.16.840.1.113883.6.238",
            "code": "1002-5",
            "display": "American Indian or Alaska Native",
            "userSelected": true
          }
        }, {
          "url": "text",
          "valueString": "American Indian or Alaska Native"
        } ]
      }, {
        "url": "http://hl7.org/fhir/us/core/StructureDefinition/us-core-ethnicity",
        "extension": [ {
          "url": "ombCategory",
          "valueCoding": {
            "system": "urn:oid:2.16.840.1.113883.6.238",
            "code": "2135-2",
            "display": "Hispanic or Latino",
            "userSelected": true
          }
        }, {
          "url": "text",
          "valueString": "Hispanic or Latino"
        } ]
      }, {
        "url": "http://hl7.org/fhir/us/core/StructureDefinition/us-core-sex",
        "valueCode": "248153007"
      } ],
      "identifier": [ {
        "type": {
          "coding": [ {
            "system": "http://terminology.hl7.org/CodeSystem/v2-0203",
            "code": "MR"
          } ]
        },
        "system": "https://bonnie-fhir.healthit.gov/",
        "value": "661476b015ed5841a5547ebf"
      } ],
      "name": [ {
        "family": "NUMERStrat4Pass",
        "given": [ "Boarded241MinOrderAdmit" ]
      } ],
      "gender": "male",
      "birthDate": "2008-01-01"
    },
    "request": {
      "method": "PUT",
      "url": "Patient/9b5e4d84-366b-4082-8409-b7e18e0a3c45"
    }
  }, {
    "fullUrl": "https://madie.cms.gov/Encounter/ca87c718-1420-479c-94eb-c5402cbd26bf",
    "resource": {
      "resourceType": "Encounter",
      "id": "ca87c718-1420-479c-94eb-c5402cbd26bf",
      "meta": {
        "profile": [ "http://hl7.org/fhir/us/qicore/StructureDefinition/qicore-encounter" ]
      },
      "status": "finished",
      "class": {
        "system": "http://terminology.hl7.org/CodeSystem/v3-ActCode",
        "code": "EMER",
        "display": "emergency department"
      },
      "type": [ {
        "coding": [ {
          "system": "http://snomed.info/sct",
          "version": "2023-09",
          "code": "4525004",
          "display": "Emergency department patient visit (procedure)",
          "userSelected": true
        } ]
      } ],
      "subject": {
        "reference": "Patient/9b5e4d84-366b-4082-8409-b7e18e0a3c45"
      },
      "period": {
        "start": "2027-05-01T19:58:00.000+00:00",
        "end": "2027-05-01T23:59:00.000+00:00"
      },
      "diagnosis": [ {
        "condition": {
          "reference": "Condition/88569b5a-cda9-41ac-810e-6d8b5dcc3618"
        },
        "use": {
          "coding": [ {
            "system": "http://terminology.hl7.org/CodeSystem/diagnosis-role",
            "code": "billing"
          } ]
        },
        "rank": 1
      } ],
      "location": [ {
        "location": {
          "reference": "Location/7c614b08-5262-4ae4-8a6e-8f80dd6204cd"
        },
        "period": {
          "start": "2027-05-01T19:58:00.000+00:00",
          "end": "2027-05-01T23:59:00.000+00:00"
        }
      } ]
    },
    "request": {
      "method": "PUT",
      "url": "Encounter/ca87c718-1420-479c-94eb-c5402cbd26bf"
    }
  }, {
    "fullUrl": "https://madie.cms.gov/ServiceRequest/a8643374-607f-4cb2-b5a6-c18f982509a7",
    "resource": {
      "resourceType": "ServiceRequest",
      "id": "a8643374-607f-4cb2-b5a6-c18f982509a7",
      "meta": {
        "profile": [ "http://hl7.org/fhir/us/qicore/StructureDefinition/qicore-servicerequest" ]
      },
      "status": "active",
      "intent": "order",
      "code": {
        "coding": [ {
          "system": "http://snomed.info/sct",
          "version": "2023-09",
          "code": "19951005",
          "display": "Hospital admission, emergency, from emergency room, medical nature (procedure)",
          "userSelected": true
        } ]
      },
      "subject": {
        "reference": "Patient/9b5e4d84-366b-4082-8409-b7e18e0a3c45"
      },
      "authoredOn": "2027-05-01T19:58:00.000+00:00"
    },
    "request": {
      "method": "PUT",
      "url": "ServiceRequest/a8643374-607f-4cb2-b5a6-c18f982509a7"
    }
  }, {
    "fullUrl": "https://madie.cms.gov/Location/7c614b08-5262-4ae4-8a6e-8f80dd6204cd",
    "resource": {
      "resourceType": "Location",
      "id": "7c614b08-5262-4ae4-8a6e-8f80dd6204cd",
      "meta": {
        "profile": [ "http://hl7.org/fhir/us/qicore/StructureDefinition/qicore-location" ]
      },
      "identifier": [ {
        "use": "usual",
        "system": "http://exampleoflocation.com",
        "value": "B1-S.F2"
      } ],
      "name": "Medical Surgical East, first floor",
      "type": [ {
        "coding": [ {
          "system": "https://www.cdc.gov/nhsn/cdaportal/terminology/codesystem/hsloc.html",
          "version": "2022",
          "code": "1108-0",
          "display": "Emergency Department",
          "userSelected": true
        } ]
      } ]
    },
    "request": {
      "method": "PUT",
      "url": "Location/7c614b08-5262-4ae4-8a6e-8f80dd6204cd"
    }
  }, {
    "fullUrl": "https://madie.cms.gov/Coverage/7c3ed5da-b77b-49ac-bcf7-8deec42c9b54",
    "resource": {
      "resourceType": "Coverage",
      "id": "7c3ed5da-b77b-49ac-bcf7-8deec42c9b54",
      "meta": {
        "profile": [ "http://hl7.org/fhir/us/qicore/StructureDefinition/qicore-coverage" ]
      },
      "identifier": [ {
        "type": {
          "coding": [ {
            "system": "http://terminology.hl7.org/CodeSystem/v2-0203",
            "code": "MB"
          } ]
        }
      } ],
      "status": "active",
      "beneficiary": {
        "reference": "Patient/9b5e4d84-366b-4082-8409-b7e18e0a3c45"
      },
      "relationship": {
        "coding": [ {
          "system": "http://terminology.hl7.org/CodeSystem/subscriber-relationship",
          "code": "self"
        } ]
      },
      "payor": [ {
        "reference": "Organization/ef55c82f-3681-4937-9d22-ad307160e4c1"
      } ]
    },
    "request": {
      "method": "PUT",
      "url": "Coverage/7c3ed5da-b77b-49ac-bcf7-8deec42c9b54"
    }
  }, {
    "fullUrl": "https://madie.cms.gov/Condition/88569b5a-cda9-41ac-810e-6d8b5dcc3618",
    "resource": {
      "resourceType": "Condition",
      "id": "88569b5a-cda9-41ac-810e-6d8b5dcc3618",
      "meta": {
        "profile": [ "http://hl7.org/fhir/us/qicore/StructureDefinition/qicore-condition-encounter-diagnosis" ]
      },
      "category": [ {
        "coding": [ {
          "system": "http://terminology.hl7.org/CodeSystem/condition-category",
          "code": "encounter-diagnosis",
          "display": "Encounter Diagnosis"
        } ]
      } ],
      "code": {
        "coding": [ {
          "system": "http://snomed.info/sct",
          "version": "2023-09",
          "code": "10349009",
          "display": "Multi-infarct dementia with delirium (disorder)",
          "userSelected": true
        } ]
      },
      "subject": {
        "reference": "Patient/9b5e4d84-366b-4082-8409-b7e18e0a3c45"
      },
      "recordedDate": "2027-04-09T08:00:00.000+00:00"
    },
    "request": {
      "method": "PUT",
      "url": "Condition/88569b5a-cda9-41ac-810e-6d8b5dcc3618"
    }
  }, {
    "fullUrl": "https://madie.cms.gov/Encounter/1219d843-1dc6-4294-8aab-9e6956fbfbef",
    "resource": {
      "resourceType": "Encounter",
      "id": "1219d843-1dc6-4294-8aab-9e6956fbfbef",
      "meta": {
        "profile": [ "http://hl7.org/fhir/us/qicore/StructureDefinition/qicore-encounter" ]
      },
      "status": "finished",
      "class": {
        "system": "http://terminology.hl7.org/CodeSystem/v3-ActCode",
        "code": "IMP",
        "display": "inpatient"
      },
      "type": [ {
        "coding": [ {
          "system": "http://snomed.info/sct",
          "version": "2023-09",
          "code": "8715000",
          "display": "Hospital admission, elective (procedure)",
          "userSelected": true
        } ]
      } ],
      "subject": {
        "reference": "Patient/9b5e4d84-366b-4082-8409-b7e18e0a3c45"
      },
      "period": {
        "start": "2027-05-01T23:59:00.000+00:00",
        "end": "2027-05-03T08:00:00.000+00:00"
      }
    },
    "request": {
      "method": "PUT",
      "url": "Encounter/1219d843-1dc6-4294-8aab-9e6956fbfbef"
    }
  }, {
    "fullUrl": "https://madie.cms.gov/claim/ClaimBehavior-NotSubsAbuse",
    "resource": {
      "resourceType": "Claim",
      "id": "ClaimBehavior-NotSubsAbuse",
      "meta": {
        "profile": [ "http://hl7.org/fhir/us/qicore/StructureDefinition/qicore-claim" ]
      },
      "status": "active",
      "type": {
        "coding": [ {
          "system": "http://terminology.hl7.org/CodeSystem/claim-type",
          "code": "institutional"
        } ]
      },
      "use": "claim",
      "patient": {
        "reference": "Patient/9b5e4d84-366b-4082-8409-b7e18e0a3c45"
      },
      "created": "2027-05-01",
      "provider": {
        "reference": "Practitioner/1faa9f78-412d-4dbf-b9e8-43fb05555e36"
      },
      "priority": {
        "coding": [ {
          "system": "http://terminology.hl7.org/CodeSystem/processpriority",
          "code": "normal"
        } ]
      },
      "diagnosis": [ {
        "sequence": 1,
        "diagnosisReference": {
          "reference": "Condition/88569b5a-cda9-41ac-810e-6d8b5dcc3618"
        },
        "type": [ {
          "coding": [ {
            "system": "http://terminology.hl7.org/CodeSystem/ex-diagnosistype",
            "code": "principal"
          } ]
        } ]
      } ],
      "insurance": [ {
        "sequence": 1,
        "focal": true,
        "coverage": {
          "reference": "Coverage/7c3ed5da-b77b-49ac-bcf7-8deec42c9b54"
        }
      } ],
      "item": [ {
        "sequence": 1,
        "diagnosisSequence": [ 1 ],
        "productOrService": {
          "coding": [ {
            "system": "http://terminology.hl7.org/CodeSystem/ex-USCLS",
            "code": "99555"
          } ]
        },
        "encounter": [ {
          "reference": "Encounter/ca87c718-1420-479c-94eb-c5402cbd26bf"
        } ]
      } ]
    },
    "request": {
      "method": "PUT",
      "url": "Claim/ClaimBehavior-NotSubsAbuse"
    }
  }, {
    "fullUrl": "https://madie.cms.gov/Organization/ef55c82f-3681-4937-9d22-ad307160e4c1",
    "resource": {
      "resourceType": "Organization",
      "id": "ef55c82f-3681-4937-9d22-ad307160e4c1",
      "meta": {
        "profile": [ "http://hl7.org/fhir/us/qicore/StructureDefinition/qicore-organization" ]
      },
      "identifier": [ {
        "use": "temp",
        "system": "urn:oid:2.16.840.1.113883.4.4",
        "value": "21-3259825"
      } ],
      "active": true,
      "type": [ {
        "coding": [ {
          "system": "http://terminology.hl7.org/CodeSystem/organization-type",
          "code": "pay",
          "display": "Payer"
        } ]
      } ],
      "name": "Blue Cross Blue Shield of Texas",
      "telecom": [ {
        "system": "phone",
        "value": "(+1) 972-766-6900"
      } ],
      "address": [ {
        "use": "billing",
        "type": "postal",
        "line": [ "P.O. Box 660044" ],
        "city": "Dallas",
        "state": "TX",
        "postalCode": "75266-0044",
        "country": "USA"
      } ]
    },
    "request": {
      "method": "PUT",
      "url": "Organization/ef55c82f-3681-4937-9d22-ad307160e4c1"
    }
  }, {
    "fullUrl": "https://madie.cms.gov/Practitioner/1faa9f78-412d-4dbf-b9e8-43fb05555e36",
    "resource": {
      "resourceType": "Practitioner",
      "id": "1faa9f78-412d-4dbf-b9e8-43fb05555e36",
      "meta": {
        "profile": [ "http://hl7.org/fhir/us/qicore/StructureDefinition/qicore-practitioner" ]
      },
      "identifier": [ {
        "system": "http://hl7.org/fhir/sid/us-npi",
        "value": "9999999896"
      } ],
      "name": [ {
        "family": "Evil",
        "prefix": [ "Dr" ]
      } ]
    },
    "request": {
      "method": "PUT",
      "url": "Practitioner/1faa9f78-412d-4dbf-b9e8-43fb05555e36"
    }
  }, {
    "fullUrl": "https://madie.cms.gov/MeasureReport/0f685fc5-daa1-4a8a-bc1f-b3677e7c0482",
    "resource": {
      "resourceType": "MeasureReport",
      "id": "0f685fc5-daa1-4a8a-bc1f-b3677e7c0482",
      "meta": {
        "profile": [ "http://hl7.org/fhir/us/cqfmeasures/StructureDefinition/test-case-cqfm" ]
      },
      "contained": [ {
        "resourceType": "Parameters",
        "id": "cc663c24-4d89-4332-9e5a-4559c7e348da-parameters",
        "parameter": [ {
          "name": "subject",
          "valueString": "9b5e4d84-366b-4082-8409-b7e18e0a3c45"
        } ]
      } ],
      "extension": [ {
        "url": "http://hl7.org/fhir/StructureDefinition/cqf-inputParameters",
        "valueReference": {
          "reference": "#cc663c24-4d89-4332-9e5a-4559c7e348da-parameters"
        }
      }, {
        "url": "http://hl7.org/fhir/us/cqfmeasures/StructureDefinition/cqfm-testCaseDescription",
        "valueMarkdown": "Adult, age 18, ED enc, order to admit, boarded 241 minutes (time from decision to admit to departure) , mental illness"
      } ],
      "modifierExtension": [ {
        "url": "http://hl7.org/fhir/us/cqfmeasures/StructureDefinition/cqfm-isTestCase",
        "valueBoolean": true
      } ],
      "status": "complete",
      "type": "individual",
      "measure": "https://madie.cms.gov/Measure/CMS1244FHIRECATHOQR",
      "period": {
        "start": "2027-01-01",
        "end": "2027-12-31"
      },
      "group": [ {
        "id": "Group_1",
        "population": [ {
          "id": "InitialPopulation_1",
          "code": {
            "coding": [ {
              "system": "http://terminology.hl7.org/CodeSystem/measure-population",
              "code": "initial-population",
              "display": "Initial Population"
            } ]
          },
          "count": 1
        }, {
          "id": "Denominator_1",
          "code": {
            "coding": [ {
              "system": "http://terminology.hl7.org/CodeSystem/measure-population",
              "code": "denominator",
              "display": "Denominator"
            } ]
          },
          "count": 1
        }, {
          "id": "Numerator_1",
          "code": {
            "coding": [ {
              "system": "http://terminology.hl7.org/CodeSystem/measure-population",
              "code": "numerator",
              "display": "Numerator"
            } ]
          },
          "count": 1
        } ],
        "measureScore": {
          "value": 0.0
        },
        "stratifier": [ {
          "id": "Stratification_1_1",
          "code": [ {
            "text": "Strata-1"
          } ],
          "stratum": [ {
            "value": {
              "text": "Strata-1"
            },
            "population": [ {
              "id": "InitialPopulation_1",
              "code": {
                "coding": [ {
                  "system": "http://terminology.hl7.org/CodeSystem/measure-population",
                  "code": "initial-population",
                  "display": "Initial Population"
                } ]
              },
              "count": 0
            }, {
              "id": "Denominator_1",
              "code": {
                "coding": [ {
                  "system": "http://terminology.hl7.org/CodeSystem/measure-population",
                  "code": "denominator",
                  "display": "Denominator"
                } ]
              },
              "count": 0
            }, {
              "id": "Numerator_1",
              "code": {
                "coding": [ {
                  "system": "http://terminology.hl7.org/CodeSystem/measure-population",
                  "code": "numerator",
                  "display": "Numerator"
                } ]
              },
              "count": 0
            } ]
          } ]
        }, {
          "id": "Stratification_1_2",
          "code": [ {
            "text": "Strata-2"
          } ],
          "stratum": [ {
            "value": {
              "text": "Strata-2"
            },
            "population": [ {
              "id": "InitialPopulation_1",
              "code": {
                "coding": [ {
                  "system": "http://terminology.hl7.org/CodeSystem/measure-population",
                  "code": "initial-population",
                  "display": "Initial Population"
                } ]
              },
              "count": 0
            }, {
              "id": "Denominator_1",
              "code": {
                "coding": [ {
                  "system": "http://terminology.hl7.org/CodeSystem/measure-population",
                  "code": "denominator",
                  "display": "Denominator"
                } ]
              },
              "count": 0
            }, {
              "id": "Numerator_1",
              "code": {
                "coding": [ {
                  "system": "http://terminology.hl7.org/CodeSystem/measure-population",
                  "code": "numerator",
                  "display": "Numerator"
                } ]
              },
              "count": 0
            } ]
          } ]
        }, {
          "id": "Stratification_1_3",
          "code": [ {
            "text": "Strata-3"
          } ],
          "stratum": [ {
            "value": {
              "text": "Strata-3"
            },
            "population": [ {
              "id": "InitialPopulation_1",
              "code": {
                "coding": [ {
                  "system": "http://terminology.hl7.org/CodeSystem/measure-population",
                  "code": "initial-population",
                  "display": "Initial Population"
                } ]
              },
              "count": 0
            }, {
              "id": "Denominator_1",
              "code": {
                "coding": [ {
                  "system": "http://terminology.hl7.org/CodeSystem/measure-population",
                  "code": "denominator",
                  "display": "Denominator"
                } ]
              },
              "count": 0
            }, {
              "id": "Numerator_1",
              "code": {
                "coding": [ {
                  "system": "http://terminology.hl7.org/CodeSystem/measure-population",
                  "code": "numerator",
                  "display": "Numerator"
                } ]
              },
              "count": 0
            } ]
          } ]
        }, {
          "id": "Stratification_1_4",
          "code": [ {
            "text": "Strata-4"
          } ],
          "stratum": [ {
            "value": {
              "text": "Strata-4"
            },
            "population": [ {
              "id": "InitialPopulation_1",
              "code": {
                "coding": [ {
                  "system": "http://terminology.hl7.org/CodeSystem/measure-population",
                  "code": "initial-population",
                  "display": "Initial Population"
                } ]
              },
              "count": 1
            }, {
              "id": "Denominator_1",
              "code": {
                "coding": [ {
                  "system": "http://terminology.hl7.org/CodeSystem/measure-population",
                  "code": "denominator",
                  "display": "Denominator"
                } ]
              },
              "count": 1
            }, {
              "id": "Numerator_1",
              "code": {
                "coding": [ {
                  "system": "http://terminology.hl7.org/CodeSystem/measure-population",
                  "code": "numerator",
                  "display": "Numerator"
                } ]
              },
              "count": 1
            } ]
          } ]
        } ]
      } ],
      "evaluatedResource": [ {
        "reference": "Patient/9b5e4d84-366b-4082-8409-b7e18e0a3c45"
      }, {
        "reference": "Encounter/ca87c718-1420-479c-94eb-c5402cbd26bf"
      }, {
        "reference": "ServiceRequest/a8643374-607f-4cb2-b5a6-c18f982509a7"
      }, {
        "reference": "Location/7c614b08-5262-4ae4-8a6e-8f80dd6204cd"
      }, {
        "reference": "Coverage/7c3ed5da-b77b-49ac-bcf7-8deec42c9b54"
      }, {
        "reference": "Condition/88569b5a-cda9-41ac-810e-6d8b5dcc3618"
      }, {
        "reference": "Encounter/1219d843-1dc6-4294-8aab-9e6956fbfbef"
      }, {
        "reference": "Claim/ClaimBehavior-NotSubsAbuse"
      }, {
        "reference": "Organization/ef55c82f-3681-4937-9d22-ad307160e4c1"
      }, {
        "reference": "Practitioner/1faa9f78-412d-4dbf-b9e8-43fb05555e36"
      } ]
    },
    "request": {
      "method": "PUT",
      "url": "MeasureReport/0f685fc5-daa1-4a8a-bc1f-b3677e7c0482"
    }
  } ]
}