{
  "resourceType": "Bundle",
  "id": "62c880ec0111a60120dc21fe",
  "type": "transaction",
  "entry": [ {
    "fullUrl": "https://madie.cms.gov/Patient/08690d2a-e82c-473f-a8c2-9fd5dc6747de",
    "resource": {
      "resourceType": "Patient",
      "id": "08690d2a-e82c-473f-a8c2-9fd5dc6747de",
      "meta": {
        "profile": [ "http://hl7.org/fhir/us/qicore/StructureDefinition/qicore-patient" ]
      },
      "text": {
        "status": "generated",
        "div": "<div xmlns=\"http://www.w3.org/1999/xhtml\"><div class=\"hapiHeaderText\">RadTxPriorMP<b>IPPFailPop2</b></div><table class=\"hapiPropertyTable\"><tbody><tr><td>Identifier</td><td>b33c60649a2b978e9742d8438641a97c</td></tr><tr><td>Date of birth</td><td><span>20 November 1947</span></td></tr></tbody></table></div>"
      },
      "extension": [ {
        "url": "http://hl7.org/fhir/us/core/StructureDefinition/us-core-race",
        "extension": [ {
          "url": "ombCategory",
          "valueCoding": {
            "system": "urn:oid:2.16.840.1.113883.6.238",
            "code": "1002-5",
            "display": "American Indian or Alaska Native",
            "userSelected": true
          }
        }, {
          "url": "text",
          "valueString": "American Indian or Alaska Native"
        } ]
      }, {
        "url": "http://hl7.org/fhir/us/core/StructureDefinition/us-core-ethnicity",
        "extension": [ {
          "url": "ombCategory",
          "valueCoding": {
            "system": "urn:oid:2.16.840.1.113883.6.238",
            "code": "2135-2",
            "display": "Hispanic or Latino",
            "userSelected": true
          }
        }, {
          "url": "text",
          "valueString": "Hispanic or Latino"
        } ]
      } ],
      "identifier": [ {
        "type": {
          "coding": [ {
            "system": "http://terminology.hl7.org/CodeSystem/v2-0203",
            "code": "MR"
          } ]
        },
        "system": "https://bonnie-fhir.healthit.gov/",
        "value": "62c880ec0111a60120dc21fe"
      } ],
      "active": true,
      "name": [ {
        "use": "usual",
        "family": "IPPFailPop2",
        "given": [ "RadTxPriorMP" ]
      } ],
      "gender": "male",
      "birthDate": "1948-11-20"
    },
    "request": {
      "method": "PUT",
      "url": "Patient/08690d2a-e82c-473f-a8c2-9fd5dc6747de"
    }
  }, {
    "fullUrl": "https://madie.cms.gov/Condition/af6f4b07-dd10-4d52-86da-73749d4f0a5e",
    "resource": {
      "resourceType": "Condition",
      "id": "af6f4b07-dd10-4d52-86da-73749d4f0a5e",
      "meta": {
        "profile": [ "http://hl7.org/fhir/us/qicore/StructureDefinition/qicore-condition" ]
      },
      "clinicalStatus": {
        "coding": [ {
          "system": "http://terminology.hl7.org/CodeSystem/condition-clinical",
          "code": "remission",
          "display": "remission",
          "userSelected": true
        } ]
      },
      "verificationStatus": {
        "coding": [ {
          "system": "http://terminology.hl7.org/CodeSystem/condition-ver-status",
          "code": "confirmed",
          "display": "Confirmed"
        } ]
      },
      "category": [ {
        "coding": [ {
          "system": "http://terminology.hl7.org/CodeSystem/condition-category",
          "code": "problem-list-item",
          "display": "Problem List Item"
        } ]
      } ],
      "code": {
        "coding": [ {
          "system": "http://hl7.org/fhir/sid/icd-10-cm",
          "code": "C50.929"
        } ]
      },
      "subject": {
        "reference": "Patient/08690d2a-e82c-473f-a8c2-9fd5dc6747de"
      },
      "onsetDateTime": "2024-12-29T14:00:00.000+00:00",
      "abatementDateTime": "2026-10-31T12:30:00.000+00:00"
    },
    "request": {
      "method": "PUT",
      "url": "Condition/af6f4b07-dd10-4d52-86da-73749d4f0a5e"
    }
  }, {
    "fullUrl": "https://madie.cms.gov/Coverage/845892ba-28eb-487b-bb4c-a7a57ae7e936",
    "resource": {
      "resourceType": "Coverage",
      "id": "845892ba-28eb-487b-bb4c-a7a57ae7e936",
      "meta": {
        "profile": [ "http://hl7.org/fhir/us/qicore/StructureDefinition/qicore-coverage" ]
      },
      "status": "active",
      "beneficiary": {
        "reference": "Patient/08690d2a-e82c-473f-a8c2-9fd5dc6747de"
      },
      "period": {
        "start": "1948-11-20T08:00:00.000+00:00"
      },
      "payor": [ {
        "reference": "Organization/36515cf6-e6a5-4ad4-a518-61969dd9cbe2"
      } ]
    },
    "request": {
      "method": "PUT",
      "url": "Coverage/845892ba-28eb-487b-bb4c-a7a57ae7e936"
    }
  }, {
    "fullUrl": "https://madie.cms.gov/Encounter/ff59f0eb-9cd3-43b8-bf52-d61f5ebb34f1",
    "resource": {
      "resourceType": "Encounter",
      "id": "ff59f0eb-9cd3-43b8-bf52-d61f5ebb34f1",
      "meta": {
        "profile": [ "http://hl7.org/fhir/us/qicore/StructureDefinition/qicore-encounter" ]
      },
      "status": "finished",
      "class": {
        "system": "http://terminology.hl7.org/CodeSystem/v3-ActCode",
        "code": "AMB",
        "display": "ambulatory",
        "userSelected": true
      },
      "type": [ {
        "coding": [ {
          "system": "http://www.ama-assn.org/go/cpt",
          "code": "77431"
        } ]
      } ],
      "subject": {
        "reference": "Patient/08690d2a-e82c-473f-a8c2-9fd5dc6747de"
      },
      "period": {
        "start": "2024-12-29T14:00:00.000+00:00",
        "end": "2024-12-29T14:00:00.000+00:00"
      }
    },
    "request": {
      "method": "PUT",
      "url": "Encounter/ff59f0eb-9cd3-43b8-bf52-d61f5ebb34f1"
    }
  }, {
    "fullUrl": "https://madie.cms.gov/Organization/36515cf6-e6a5-4ad4-a518-61969dd9cbe2",
    "resource": {
      "resourceType": "Organization",
      "id": "36515cf6-e6a5-4ad4-a518-61969dd9cbe2",
      "meta": {
        "profile": [ "http://hl7.org/fhir/us/qicore/StructureDefinition/qicore-organization" ]
      },
      "identifier": [ {
        "use": "temp",
        "system": "urn:oid:2.16.840.1.113883.4.4",
        "value": "21-3259825"
      } ],
      "active": true,
      "type": [ {
        "coding": [ {
          "system": "http://terminology.hl7.org/CodeSystem/organization-type",
          "code": "pay",
          "display": "Payer"
        } ]
      } ],
      "name": "Blue Cross Blue Shield of Texas",
      "telecom": [ {
        "system": "phone",
        "value": "(+1) 972-766-6900"
      } ],
      "address": [ {
        "use": "billing",
        "type": "postal",
        "line": [ "P.O. Box 660044" ],
        "city": "Dallas",
        "state": "TX",
        "postalCode": "75266-0044",
        "country": "USA"
      } ]
    },
    "request": {
      "method": "PUT",
      "url": "Organization/36515cf6-e6a5-4ad4-a518-61969dd9cbe2"
    }
  }, {
    "fullUrl": "https://madie.cms.gov/Practitioner/999bb022-4038-4175-b2be-37ceaa2b2b5b",
    "resource": {
      "resourceType": "Practitioner",
      "id": "999bb022-4038-4175-b2be-37ceaa2b2b5b",
      "meta": {
        "profile": [ "http://hl7.org/fhir/us/qicore/StructureDefinition/qicore-practitioner" ]
      },
      "identifier": [ {
        "system": "http://hl7.org/fhir/sid/us-npi",
        "value": "123456"
      } ],
      "name": [ {
        "family": "Evil",
        "prefix": [ "Dr" ]
      } ]
    },
    "request": {
      "method": "PUT",
      "url": "Practitioner/999bb022-4038-4175-b2be-37ceaa2b2b5b"
    }
  }, {
    "fullUrl": "https://madie.cms.gov/MeasureReport/1a3a1f4b-3e25-4d18-8c8e-0b37b1d5d880",
    "resource": {
      "resourceType": "MeasureReport",
      "id": "1a3a1f4b-3e25-4d18-8c8e-0b37b1d5d880",
      "meta": {
        "profile": [ "http://hl7.org/fhir/us/cqfmeasures/StructureDefinition/test-case-cqfm" ]
      },
      "contained": [ {
        "resourceType": "Parameters",
        "id": "3e6eba31-dfa7-4562-a710-7b12f54864a6-parameters",
        "parameter": [ {
          "name": "subject",
          "valueString": "08690d2a-e82c-473f-a8c2-9fd5dc6747de"
        } ]
      } ],
      "extension": [ {
        "url": "http://hl7.org/fhir/StructureDefinition/cqf-inputParameters",
        "valueReference": {
          "reference": "#3e6eba31-dfa7-4562-a710-7b12f54864a6-parameters"
        }
      }, {
        "url": "http://hl7.org/fhir/us/cqfmeasures/StructureDefinition/cqfm-testCaseDescription",
        "valueMarkdown": "Patient with cancer diagnosis that overlaps radiation treatment management, but radiation treatment management occurs before the measurement period.\n"
      } ],
      "modifierExtension": [ {
        "url": "http://hl7.org/fhir/us/cqfmeasures/StructureDefinition/cqfm-isTestCase",
        "valueBoolean": true
      } ],
      "status": "complete",
      "type": "individual",
      "measure": "https://madie.cms.gov/Measure/CMS157FHIRPainIntensityQuantified",
      "period": {
        "start": "2026-01-01",
        "end": "2026-12-31"
      },
      "group": [ {
        "id": "Group_1",
        "population": [ {
          "id": "InitialPopulation_1",
          "code": {
            "coding": [ {
              "system": "http://terminology.hl7.org/CodeSystem/measure-population",
              "code": "initial-population",
              "display": "Initial Population"
            } ]
          },
          "count": 0
        }, {
          "id": "Denominator_1",
          "code": {
            "coding": [ {
              "system": "http://terminology.hl7.org/CodeSystem/measure-population",
              "code": "denominator",
              "display": "Denominator"
            } ]
          },
          "count": 0
        }, {
          "id": "Numerator_1",
          "code": {
            "coding": [ {
              "system": "http://terminology.hl7.org/CodeSystem/measure-population",
              "code": "numerator",
              "display": "Numerator"
            } ]
          },
          "count": 0
        } ],
        "measureScore": {
          "value": 0.0
        }
      }, {
        "id": "Group_2",
        "population": [ {
          "id": "InitialPopulation_2",
          "code": {
            "coding": [ {
              "system": "http://terminology.hl7.org/CodeSystem/measure-population",
              "code": "initial-population",
              "display": "Initial Population"
            } ]
          },
          "count": 0
        }, {
          "id": "Denominator_2",
          "code": {
            "coding": [ {
              "system": "http://terminology.hl7.org/CodeSystem/measure-population",
              "code": "denominator",
              "display": "Denominator"
            } ]
          },
          "count": 0
        }, {
          "id": "Numerator_2",
          "code": {
            "coding": [ {
              "system": "http://terminology.hl7.org/CodeSystem/measure-population",
              "code": "numerator",
              "display": "Numerator"
            } ]
          },
          "count": 0
        } ],
        "measureScore": {
          "value": 0.0
        }
      } ],
      "evaluatedResource": [ {
        "reference": "Patient/08690d2a-e82c-473f-a8c2-9fd5dc6747de"
      }, {
        "reference": "Condition/af6f4b07-dd10-4d52-86da-73749d4f0a5e"
      }, {
        "reference": "Coverage/845892ba-28eb-487b-bb4c-a7a57ae7e936"
      }, {
        "reference": "Encounter/ff59f0eb-9cd3-43b8-bf52-d61f5ebb34f1"
      }, {
        "reference": "Organization/36515cf6-e6a5-4ad4-a518-61969dd9cbe2"
      }, {
        "reference": "Practitioner/999bb022-4038-4175-b2be-37ceaa2b2b5b"
      } ]
    },
    "request": {
      "method": "PUT",
      "url": "MeasureReport/1a3a1f4b-3e25-4d18-8c8e-0b37b1d5d880"
    }
  } ]
}