{
  "resourceType": "Bundle",
  "id": "612e6f5502c62a011f2f174b",
  "type": "transaction",
  "entry": [ {
    "fullUrl": "https://madie.cms.gov/Patient/57e2d87e-3b5e-4433-ab6d-6dca03878253",
    "resource": {
      "resourceType": "Patient",
      "id": "57e2d87e-3b5e-4433-ab6d-6dca03878253",
      "meta": {
        "profile": [ "http://hl7.org/fhir/us/qicore/StructureDefinition/qicore-patient" ]
      },
      "text": {
        "status": "generated",
        "div": "<div xmlns=\"http://www.w3.org/1999/xhtml\"><div class=\"hapiHeaderText\">RiskAssesOnICUStartAfterAnes <b>NUMERPASS </b></div><table class=\"hapiPropertyTable\"><tbody><tr><td>Identifier</td><td>94254b89a0f145332771ce19c2500535</td></tr><tr><td>Date of birth</td><td><span>03 March 1974</span></td></tr></tbody></table></div>"
      },
      "extension": [ {
        "url": "http://hl7.org/fhir/us/core/StructureDefinition/us-core-race",
        "extension": [ {
          "url": "ombCategory",
          "valueCoding": {
            "system": "urn:oid:2.16.840.1.113883.6.238",
            "code": "1002-5",
            "display": "American Indian or Alaska Native",
            "userSelected": true
          }
        }, {
          "url": "text",
          "valueString": "American Indian or Alaska Native"
        } ]
      }, {
        "url": "http://hl7.org/fhir/us/core/StructureDefinition/us-core-ethnicity",
        "extension": [ {
          "url": "ombCategory",
          "valueCoding": {
            "system": "urn:oid:2.16.840.1.113883.6.238",
            "code": "2135-2",
            "display": "Hispanic or Latino",
            "userSelected": true
          }
        }, {
          "url": "text",
          "valueString": "Hispanic or Latino"
        } ]
      } ],
      "identifier": [ {
        "type": {
          "coding": [ {
            "system": "http://terminology.hl7.org/CodeSystem/v2-0203",
            "code": "MR"
          } ]
        },
        "system": "https://bonnie-fhir.healthit.gov/",
        "value": "612e6f5502c62a011f2f174b"
      } ],
      "active": true,
      "name": [ {
        "use": "usual",
        "family": "NUMERPass",
        "given": [ "RiskAssesOnICUStartAfterAnes" ]
      } ],
      "gender": "female",
      "birthDate": "1975-03-03"
    },
    "request": {
      "method": "PUT",
      "url": "Patient/57e2d87e-3b5e-4433-ab6d-6dca03878253"
    }
  }, {
    "fullUrl": "https://madie.cms.gov/Encounter/5b09af95-3042-47c1-9f7b-2a631332df11",
    "resource": {
      "resourceType": "Encounter",
      "id": "5b09af95-3042-47c1-9f7b-2a631332df11",
      "meta": {
        "profile": [ "http://hl7.org/fhir/us/qicore/StructureDefinition/qicore-encounter" ]
      },
      "status": "finished",
      "class": {
        "system": "http://terminology.hl7.org/CodeSystem/v3-ActCode",
        "code": "IMP",
        "display": "inpatient encounter"
      },
      "type": [ {
        "coding": [ {
          "system": "http://snomed.info/sct",
          "code": "8715000"
        } ]
      } ],
      "subject": {
        "reference": "Patient/57e2d87e-3b5e-4433-ab6d-6dca03878253"
      },
      "period": {
        "start": "2026-12-04T08:00:00.000+00:00",
        "end": "2026-12-30T08:15:00.000+00:00"
      },
      "length": {
        "value": 26,
        "unit": "days"
      },
      "location": [ {
        "location": {
          "reference": "Location/f9cbf748-4840-4cf9-9bb7-1ba8e6f1fbdb"
        },
        "period": {
          "start": "2026-12-06T08:00:00.000+00:00",
          "end": "2026-12-08T08:15:00.000+00:00"
        }
      } ]
    },
    "request": {
      "method": "PUT",
      "url": "Encounter/5b09af95-3042-47c1-9f7b-2a631332df11"
    }
  }, {
    "fullUrl": "https://madie.cms.gov/Observation/79c2c8df-b1b9-4ec2-aec7-6db426b4a0b8",
    "resource": {
      "resourceType": "Observation",
      "id": "79c2c8df-b1b9-4ec2-aec7-6db426b4a0b8",
      "meta": {
        "profile": [ "http://hl7.org/fhir/us/qicore/StructureDefinition/qicore-simple-observation" ]
      },
      "status": "final",
      "category": [ {
        "coding": [ {
          "system": "http://terminology.hl7.org/CodeSystem/observation-category",
          "code": "exam",
          "display": "exam"
        } ]
      } ],
      "code": {
        "coding": [ {
          "system": "http://loinc.org",
          "code": "72136-5"
        } ]
      },
      "subject": {
        "reference": "Patient/57e2d87e-3b5e-4433-ab6d-6dca03878253"
      },
      "effectiveDateTime": "2026-12-06T08:00:00.000+00:00",
      "valueCodeableConcept": {
        "coding": [ {
          "system": "http://snomed.info/sct",
          "code": "260362008",
          "display": "Low Risk"
        } ]
      }
    },
    "request": {
      "method": "PUT",
      "url": "Observation/79c2c8df-b1b9-4ec2-aec7-6db426b4a0b8"
    }
  }, {
    "fullUrl": "https://madie.cms.gov/Coverage/7b77e9a8-f2c9-4398-9c3a-d75f8abb1ae6",
    "resource": {
      "resourceType": "Coverage",
      "id": "7b77e9a8-f2c9-4398-9c3a-d75f8abb1ae6",
      "status": "active",
      "beneficiary": {
        "reference": "Patient/57e2d87e-3b5e-4433-ab6d-6dca03878253"
      },
      "period": {
        "start": "1975-03-03T08:00:00.000+00:00"
      },
      "payor": [ {
        "reference": "Organization/14f1772f-97c5-44ed-b1f2-5a7fa94d744d"
      } ]
    },
    "request": {
      "method": "PUT",
      "url": "Coverage/7b77e9a8-f2c9-4398-9c3a-d75f8abb1ae6"
    }
  }, {
    "fullUrl": "https://madie.cms.gov/Procedure/16d02e41-6810-4aae-aa24-22dc3e22f6da",
    "resource": {
      "resourceType": "Procedure",
      "id": "16d02e41-6810-4aae-aa24-22dc3e22f6da",
      "meta": {
        "profile": [ "http://hl7.org/fhir/us/qicore/StructureDefinition/qicore-procedure" ]
      },
      "extension": [ {
        "url": "http://hl7.org/fhir/us/qicore/StructureDefinition/qicore-recorded",
        "valueDateTime": "2013-12-06T13:35:00.000+00:00"
      } ],
      "status": "completed",
      "code": {
        "coding": [ {
          "system": "http://www.icd10data.com/icd10pcs",
          "code": "3E030FZ"
        }, {
          "system": "http://snomed.info/sct",
          "code": "18946005"
        } ]
      },
      "subject": {
        "reference": "Patient/57e2d87e-3b5e-4433-ab6d-6dca03878253"
      },
      "performedPeriod": {
        "start": "2026-12-06T05:00:00.000+00:00",
        "end": "2026-12-06T05:15:00.000+00:00"
      }
    },
    "request": {
      "method": "PUT",
      "url": "Procedure/16d02e41-6810-4aae-aa24-22dc3e22f6da"
    }
  }, {
    "fullUrl": "https://madie.cms.gov/Location/f9cbf748-4840-4cf9-9bb7-1ba8e6f1fbdb",
    "resource": {
      "resourceType": "Location",
      "id": "f9cbf748-4840-4cf9-9bb7-1ba8e6f1fbdb",
      "meta": {
        "profile": [ "http://hl7.org/fhir/us/qicore/StructureDefinition/qicore-location" ]
      },
      "identifier": [ {
        "use": "usual",
        "system": "http://exampleoflocation.com",
        "value": "B1-S.F2"
      } ],
      "name": "Medical Surgical East, first floor",
      "type": [ {
        "coding": [ {
          "system": "https://www.cdc.gov/nhsn/cdaportal/terminology/codesystem/hsloc.html",
          "code": "1025-6",
          "display": "Trauma Critical Care",
          "userSelected": true
        } ]
      } ]
    },
    "request": {
      "method": "PUT",
      "url": "Location/f9cbf748-4840-4cf9-9bb7-1ba8e6f1fbdb"
    }
  }, {
    "fullUrl": "https://madie.cms.gov/Organization/14f1772f-97c5-44ed-b1f2-5a7fa94d744d",
    "resource": {
      "resourceType": "Organization",
      "id": "14f1772f-97c5-44ed-b1f2-5a7fa94d744d",
      "meta": {
        "profile": [ "http://hl7.org/fhir/us/qicore/StructureDefinition/qicore-organization" ]
      },
      "identifier": [ {
        "use": "temp",
        "system": "urn:oid:2.16.840.1.113883.4.4",
        "value": "21-3259825"
      } ],
      "active": true,
      "type": [ {
        "coding": [ {
          "system": "http://terminology.hl7.org/CodeSystem/organization-type",
          "code": "pay",
          "display": "Payer"
        } ]
      } ],
      "name": "Blue Cross Blue Shield of Texas",
      "telecom": [ {
        "system": "phone",
        "value": "(+1) 972-766-6900"
      } ],
      "address": [ {
        "use": "billing",
        "type": "postal",
        "line": [ "P.O. Box 660044" ],
        "city": "Dallas",
        "state": "TX",
        "postalCode": "75266-0044",
        "country": "USA"
      } ]
    },
    "request": {
      "method": "PUT",
      "url": "Organization/14f1772f-97c5-44ed-b1f2-5a7fa94d744d"
    }
  }, {
    "fullUrl": "https://madie.cms.gov/Practitioner/a0285f15-9943-46ac-bb44-4674bbe21ae4",
    "resource": {
      "resourceType": "Practitioner",
      "id": "a0285f15-9943-46ac-bb44-4674bbe21ae4",
      "identifier": [ {
        "system": "http://hl7.org/fhir/sid/us-npi",
        "value": "123456"
      } ],
      "name": [ {
        "family": "Evil",
        "prefix": [ "Dr" ]
      } ]
    },
    "request": {
      "method": "PUT",
      "url": "Practitioner/a0285f15-9943-46ac-bb44-4674bbe21ae4"
    }
  }, {
    "fullUrl": "https://madie.cms.gov/MeasureReport/3259a690-f8ef-4d83-9207-e344716ef9ff",
    "resource": {
      "resourceType": "MeasureReport",
      "id": "3259a690-f8ef-4d83-9207-e344716ef9ff",
      "meta": {
        "profile": [ "http://hl7.org/fhir/us/cqfmeasures/StructureDefinition/test-case-cqfm" ]
      },
      "contained": [ {
        "resourceType": "Parameters",
        "id": "a611510d-58d9-4bba-be10-881f2d336e38-parameters",
        "parameter": [ {
          "name": "subject",
          "valueString": "57e2d87e-3b5e-4433-ab6d-6dca03878253"
        } ]
      } ],
      "extension": [ {
        "url": "http://hl7.org/fhir/StructureDefinition/cqf-inputParameters",
        "valueReference": {
          "reference": "#a611510d-58d9-4bba-be10-881f2d336e38-parameters"
        }
      }, {
        "url": "http://hl7.org/fhir/us/cqfmeasures/StructureDefinition/cqfm-testCaseDescription",
        "valueMarkdown": "vte risk assessment with low risk result concurrent with start of ICU admission and after neuraxial anesthesia\n"
      } ],
      "modifierExtension": [ {
        "url": "http://hl7.org/fhir/us/cqfmeasures/StructureDefinition/cqfm-isTestCase",
        "valueBoolean": true
      } ],
      "status": "complete",
      "type": "individual",
      "measure": "https://madie.cms.gov/Measure/CMS190FHIRVTEProphylaxisICU",
      "period": {
        "start": "2026-01-01",
        "end": "2026-12-31"
      },
      "group": [ {
        "id": "Group_1",
        "population": [ {
          "id": "InitialPopulation_1",
          "code": {
            "coding": [ {
              "system": "http://terminology.hl7.org/CodeSystem/measure-population",
              "code": "initial-population",
              "display": "Initial Population"
            } ]
          },
          "count": 1
        }, {
          "id": "Denominator_1",
          "code": {
            "coding": [ {
              "system": "http://terminology.hl7.org/CodeSystem/measure-population",
              "code": "denominator",
              "display": "Denominator"
            } ]
          },
          "count": 1
        }, {
          "id": "DenominatorExclusion_1",
          "code": {
            "coding": [ {
              "system": "http://terminology.hl7.org/CodeSystem/measure-population",
              "code": "denominator-exclusion",
              "display": "Denominator Exclusion"
            } ]
          },
          "count": 0
        }, {
          "id": "Numerator_1",
          "code": {
            "coding": [ {
              "system": "http://terminology.hl7.org/CodeSystem/measure-population",
              "code": "numerator",
              "display": "Numerator"
            } ]
          },
          "count": 1
        }, {
          "id": "DenominatorException_1",
          "code": {
            "coding": [ {
              "system": "http://terminology.hl7.org/CodeSystem/measure-population",
              "code": "denominator-exception",
              "display": "Denominator Exception"
            } ]
          },
          "count": 0
        } ],
        "measureScore": {
          "value": 0.0
        }
      } ],
      "evaluatedResource": [ {
        "reference": "Patient/57e2d87e-3b5e-4433-ab6d-6dca03878253"
      }, {
        "reference": "Encounter/5b09af95-3042-47c1-9f7b-2a631332df11"
      }, {
        "reference": "Observation/79c2c8df-b1b9-4ec2-aec7-6db426b4a0b8"
      }, {
        "reference": "Coverage/7b77e9a8-f2c9-4398-9c3a-d75f8abb1ae6"
      }, {
        "reference": "Procedure/16d02e41-6810-4aae-aa24-22dc3e22f6da"
      }, {
        "reference": "Location/f9cbf748-4840-4cf9-9bb7-1ba8e6f1fbdb"
      }, {
        "reference": "Organization/14f1772f-97c5-44ed-b1f2-5a7fa94d744d"
      }, {
        "reference": "Practitioner/a0285f15-9943-46ac-bb44-4674bbe21ae4"
      } ]
    },
    "request": {
      "method": "PUT",
      "url": "MeasureReport/3259a690-f8ef-4d83-9207-e344716ef9ff"
    }
  } ]
}