{
  "resourceType": "Bundle",
  "id": "612e6a5f02c62a011f2e9d9d",
  "type": "transaction",
  "entry": [ {
    "fullUrl": "https://madie.cms.gov/Patient/a97b19dd-82f7-4b7b-960b-3c8b1101caeb",
    "resource": {
      "resourceType": "Patient",
      "id": "a97b19dd-82f7-4b7b-960b-3c8b1101caeb",
      "meta": {
        "profile": [ "http://hl7.org/fhir/us/qicore/StructureDefinition/qicore-patient" ]
      },
      "text": {
        "status": "generated",
        "div": "<div xmlns=\"http://www.w3.org/1999/xhtml\"><div class=\"hapiHeaderText\">VTE_RiskAssess_DayOfAnes <b>NUMERPASS </b></div><table class=\"hapiPropertyTable\"><tbody><tr><td>Identifier</td><td>c54dbc364ce913dfe300bd0f00b65409</td></tr><tr><td>Date of birth</td><td><span>02 January 1974</span></td></tr></tbody></table></div>"
      },
      "extension": [ {
        "url": "http://hl7.org/fhir/us/core/StructureDefinition/us-core-race",
        "extension": [ {
          "url": "ombCategory",
          "valueCoding": {
            "system": "urn:oid:2.16.840.1.113883.6.238",
            "code": "1002-5",
            "display": "American Indian or Alaska Native",
            "userSelected": true
          }
        }, {
          "url": "text",
          "valueString": "American Indian or Alaska Native"
        } ]
      }, {
        "url": "http://hl7.org/fhir/us/core/StructureDefinition/us-core-ethnicity",
        "extension": [ {
          "url": "ombCategory",
          "valueCoding": {
            "system": "urn:oid:2.16.840.1.113883.6.238",
            "code": "2135-2",
            "display": "Hispanic or Latino",
            "userSelected": true
          }
        }, {
          "url": "text",
          "valueString": "Hispanic or Latino"
        } ]
      } ],
      "identifier": [ {
        "type": {
          "coding": [ {
            "system": "http://terminology.hl7.org/CodeSystem/v2-0203",
            "code": "MR"
          } ]
        },
        "system": "https://bonnie-fhir.healthit.gov/",
        "value": "612e6a5f02c62a011f2e9d9d"
      } ],
      "active": true,
      "name": [ {
        "use": "usual",
        "family": "NUMERPass",
        "given": [ "VTERiskAssessDayOfAnes" ]
      } ],
      "gender": "male",
      "birthDate": "1975-01-02"
    },
    "request": {
      "method": "PUT",
      "url": "Patient/a97b19dd-82f7-4b7b-960b-3c8b1101caeb"
    }
  }, {
    "fullUrl": "https://madie.cms.gov/Encounter/9bebf799-8f3f-4961-910f-b813628b8b97",
    "resource": {
      "resourceType": "Encounter",
      "id": "9bebf799-8f3f-4961-910f-b813628b8b97",
      "meta": {
        "profile": [ "http://hl7.org/fhir/us/qicore/StructureDefinition/qicore-encounter" ]
      },
      "status": "finished",
      "class": {
        "system": "http://terminology.hl7.org/CodeSystem/v3-ActCode",
        "code": "IMP",
        "display": "inpatient encounter"
      },
      "type": [ {
        "coding": [ {
          "system": "http://snomed.info/sct",
          "code": "8715000"
        } ]
      } ],
      "subject": {
        "reference": "Patient/a97b19dd-82f7-4b7b-960b-3c8b1101caeb"
      },
      "period": {
        "start": "2026-11-01T08:00:00.000+00:00",
        "end": "2026-11-26T08:15:00.000+00:00"
      },
      "length": {
        "value": 25,
        "unit": "days"
      }
    },
    "request": {
      "method": "PUT",
      "url": "Encounter/9bebf799-8f3f-4961-910f-b813628b8b97"
    }
  }, {
    "fullUrl": "https://madie.cms.gov/Observation/2f77ed4b-9e6e-4863-86c1-2ddf1b38dedb",
    "resource": {
      "resourceType": "Observation",
      "id": "2f77ed4b-9e6e-4863-86c1-2ddf1b38dedb",
      "meta": {
        "profile": [ "http://hl7.org/fhir/us/qicore/StructureDefinition/qicore-simple-observation" ]
      },
      "status": "corrected",
      "category": [ {
        "coding": [ {
          "system": "http://terminology.hl7.org/CodeSystem/observation-category",
          "code": "exam",
          "display": "exam"
        } ]
      } ],
      "code": {
        "coding": [ {
          "system": "http://loinc.org",
          "code": "72136-5"
        } ]
      },
      "subject": {
        "reference": "Patient/a97b19dd-82f7-4b7b-960b-3c8b1101caeb"
      },
      "effectivePeriod": {
        "start": "2026-11-02T11:00:00.000+00:00",
        "end": "2026-11-02T11:05:00.000+00:00"
      },
      "valueCodeableConcept": {
        "coding": [ {
          "system": "http://snomed.info/sct",
          "code": "260362008",
          "display": "Low Risk"
        } ]
      }
    },
    "request": {
      "method": "PUT",
      "url": "Observation/2f77ed4b-9e6e-4863-86c1-2ddf1b38dedb"
    }
  }, {
    "fullUrl": "https://madie.cms.gov/Coverage/7c68cf9a-ec3b-4935-be2a-44383600d174",
    "resource": {
      "resourceType": "Coverage",
      "id": "7c68cf9a-ec3b-4935-be2a-44383600d174",
      "status": "active",
      "beneficiary": {
        "reference": "Patient/a97b19dd-82f7-4b7b-960b-3c8b1101caeb"
      },
      "period": {
        "start": "1975-01-02T08:00:00.000+00:00"
      },
      "payor": [ {
        "reference": "Organization/3a6ad839-bd74-4028-afda-692327583c03"
      } ]
    },
    "request": {
      "method": "PUT",
      "url": "Coverage/7c68cf9a-ec3b-4935-be2a-44383600d174"
    }
  }, {
    "fullUrl": "https://madie.cms.gov/Procedure/0314cdce-6348-4fcc-af5b-a2b4d5faee19",
    "resource": {
      "resourceType": "Procedure",
      "id": "0314cdce-6348-4fcc-af5b-a2b4d5faee19",
      "meta": {
        "profile": [ "http://hl7.org/fhir/us/qicore/StructureDefinition/qicore-procedure" ]
      },
      "extension": [ {
        "url": "http://hl7.org/fhir/us/qicore/StructureDefinition/qicore-recorded",
        "valueDateTime": "2026-11-02T13:35:00.000+00:00"
      } ],
      "status": "completed",
      "code": {
        "coding": [ {
          "system": "http://www.icd10data.com/icd10pcs",
          "code": "3E030FZ"
        }, {
          "system": "http://snomed.info/sct",
          "code": "18946005"
        } ]
      },
      "subject": {
        "reference": "Patient/a97b19dd-82f7-4b7b-960b-3c8b1101caeb"
      },
      "performedPeriod": {
        "start": "2026-11-02T09:00:00.000+00:00",
        "end": "2026-11-02T09:15:00.000+00:00"
      }
    },
    "request": {
      "method": "PUT",
      "url": "Procedure/0314cdce-6348-4fcc-af5b-a2b4d5faee19"
    }
  }, {
    "fullUrl": "https://madie.cms.gov/Organization/3a6ad839-bd74-4028-afda-692327583c03",
    "resource": {
      "resourceType": "Organization",
      "id": "3a6ad839-bd74-4028-afda-692327583c03",
      "meta": {
        "profile": [ "http://hl7.org/fhir/us/qicore/StructureDefinition/qicore-organization" ]
      },
      "identifier": [ {
        "use": "temp",
        "system": "urn:oid:2.16.840.1.113883.4.4",
        "value": "21-3259825"
      } ],
      "active": true,
      "type": [ {
        "coding": [ {
          "system": "http://terminology.hl7.org/CodeSystem/organization-type",
          "code": "pay",
          "display": "Payer"
        } ]
      } ],
      "name": "Blue Cross Blue Shield of Texas",
      "telecom": [ {
        "system": "phone",
        "value": "(+1) 972-766-6900"
      } ],
      "address": [ {
        "use": "billing",
        "type": "postal",
        "line": [ "P.O. Box 660044" ],
        "city": "Dallas",
        "state": "TX",
        "postalCode": "75266-0044",
        "country": "USA"
      } ]
    },
    "request": {
      "method": "PUT",
      "url": "Organization/3a6ad839-bd74-4028-afda-692327583c03"
    }
  }, {
    "fullUrl": "https://madie.cms.gov/Practitioner/1f5d99a5-1ee6-4bde-979e-298e33f7d7a7",
    "resource": {
      "resourceType": "Practitioner",
      "id": "1f5d99a5-1ee6-4bde-979e-298e33f7d7a7",
      "identifier": [ {
        "system": "http://hl7.org/fhir/sid/us-npi",
        "value": "123456"
      } ],
      "name": [ {
        "family": "Evil",
        "prefix": [ "Dr" ]
      } ]
    },
    "request": {
      "method": "PUT",
      "url": "Practitioner/1f5d99a5-1ee6-4bde-979e-298e33f7d7a7"
    }
  }, {
    "fullUrl": "https://madie.cms.gov/MeasureReport/5e5a3b3c-8a92-459a-93ba-c50ff99bf94e",
    "resource": {
      "resourceType": "MeasureReport",
      "id": "5e5a3b3c-8a92-459a-93ba-c50ff99bf94e",
      "meta": {
        "profile": [ "http://hl7.org/fhir/us/cqfmeasures/StructureDefinition/test-case-cqfm" ]
      },
      "contained": [ {
        "resourceType": "Parameters",
        "id": "3cbd0538-4a69-431c-a3fe-c4690589feb7-parameters",
        "parameter": [ {
          "name": "subject",
          "valueString": "a97b19dd-82f7-4b7b-960b-3c8b1101caeb"
        } ]
      } ],
      "extension": [ {
        "url": "http://hl7.org/fhir/StructureDefinition/cqf-inputParameters",
        "valueReference": {
          "reference": "#3cbd0538-4a69-431c-a3fe-c4690589feb7-parameters"
        }
      }, {
        "url": "http://hl7.org/fhir/us/cqfmeasures/StructureDefinition/cqfm-testCaseDescription",
        "valueMarkdown": "risk assessment done on the day of end of anesthesia, result is low risk. Risk Assessment uses effectivePeriod\n"
      } ],
      "modifierExtension": [ {
        "url": "http://hl7.org/fhir/us/cqfmeasures/StructureDefinition/cqfm-isTestCase",
        "valueBoolean": true
      } ],
      "status": "complete",
      "type": "individual",
      "measure": "https://madie.cms.gov/Measure/CMS108FHIRVTEProphylaxis",
      "period": {
        "start": "2026-01-01",
        "end": "2026-12-31"
      },
      "group": [ {
        "id": "Group_1",
        "population": [ {
          "id": "InitialPopulation_1",
          "code": {
            "coding": [ {
              "system": "http://terminology.hl7.org/CodeSystem/measure-population",
              "code": "initial-population",
              "display": "Initial Population"
            } ]
          },
          "count": 1
        }, {
          "id": "Denominator_1",
          "code": {
            "coding": [ {
              "system": "http://terminology.hl7.org/CodeSystem/measure-population",
              "code": "denominator",
              "display": "Denominator"
            } ]
          },
          "count": 1
        }, {
          "id": "DenominatorExclusion_1",
          "code": {
            "coding": [ {
              "system": "http://terminology.hl7.org/CodeSystem/measure-population",
              "code": "denominator-exclusion",
              "display": "Denominator Exclusion"
            } ]
          },
          "count": 0
        }, {
          "id": "Numerator_1",
          "code": {
            "coding": [ {
              "system": "http://terminology.hl7.org/CodeSystem/measure-population",
              "code": "numerator",
              "display": "Numerator"
            } ]
          },
          "count": 1
        } ],
        "measureScore": {
          "value": 0.0
        }
      } ],
      "evaluatedResource": [ {
        "reference": "Patient/a97b19dd-82f7-4b7b-960b-3c8b1101caeb"
      }, {
        "reference": "Encounter/9bebf799-8f3f-4961-910f-b813628b8b97"
      }, {
        "reference": "Observation/2f77ed4b-9e6e-4863-86c1-2ddf1b38dedb"
      }, {
        "reference": "Coverage/7c68cf9a-ec3b-4935-be2a-44383600d174"
      }, {
        "reference": "Procedure/0314cdce-6348-4fcc-af5b-a2b4d5faee19"
      }, {
        "reference": "Organization/3a6ad839-bd74-4028-afda-692327583c03"
      }, {
        "reference": "Practitioner/1f5d99a5-1ee6-4bde-979e-298e33f7d7a7"
      } ]
    },
    "request": {
      "method": "PUT",
      "url": "MeasureReport/5e5a3b3c-8a92-459a-93ba-c50ff99bf94e"
    }
  } ]
}