{
  "resourceType": "Bundle",
  "id": "Patient-10-DENEXPass-FrailtyDeviceUsed",
  "type": "transaction",
  "entry": [ {
    "fullUrl": "https://madie.cms.gov/Patient/cade5021-b1bf-43e9-a0a4-659c05b386d0",
    "resource": {
      "resourceType": "Patient",
      "id": "cade5021-b1bf-43e9-a0a4-659c05b386d0",
      "meta": {
        "profile": [ "http://hl7.org/fhir/us/qicore/StructureDefinition/qicore-patient" ]
      },
      "extension": [ {
        "url": "http://hl7.org/fhir/us/core/StructureDefinition/us-core-race",
        "extension": [ {
          "url": "ombCategory",
          "valueCoding": {
            "system": "urn:oid:2.16.840.1.113883.6.238",
            "code": "2028-9",
            "display": "Asian"
          }
        }, {
          "url": "text",
          "valueString": "Asian"
        } ]
      }, {
        "url": "http://hl7.org/fhir/us/core/StructureDefinition/us-core-ethnicity",
        "extension": [ {
          "url": "ombCategory",
          "valueCoding": {
            "system": "urn:oid:2.16.840.1.113883.6.238",
            "code": "2135-2",
            "display": "Hispanic or Latino"
          }
        }, {
          "url": "text",
          "valueString": "Hispanic or Latino"
        } ]
      } ],
      "identifier": [ {
        "system": "http://hospital.smarthealthit.org",
        "value": "999999995"
      } ],
      "name": [ {
        "family": "Bertha",
        "given": [ "Betty" ]
      } ],
      "gender": "female",
      "birthDate": "1958-12-31"
    },
    "request": {
      "method": "PUT",
      "url": "Patient/cade5021-b1bf-43e9-a0a4-659c05b386d0"
    }
  }, {
    "fullUrl": "https://madie.cms.gov/Encounter/3ed83917-b775-42db-88d5-44294f2090e3",
    "resource": {
      "resourceType": "Encounter",
      "id": "3ed83917-b775-42db-88d5-44294f2090e3",
      "meta": {
        "profile": [ "http://hl7.org/fhir/us/qicore/StructureDefinition/qicore-encounter" ]
      },
      "status": "finished",
      "class": {
        "system": "http://terminology.hl7.org/CodeSystem/v3-ActCode",
        "code": "AMB",
        "display": "ambulatory"
      },
      "type": [ {
        "coding": [ {
          "system": "http://snomed.info/sct",
          "code": "185460008",
          "display": "Home visit request by patient (procedure)"
        } ]
      } ],
      "subject": {
        "reference": "Patient/cade5021-b1bf-43e9-a0a4-659c05b386d0"
      },
      "period": {
        "start": "2026-01-01T00:00:00.000+00:00",
        "end": "2026-01-01T00:15:00.000+00:00"
      }
    },
    "request": {
      "method": "PUT",
      "url": "Encounter/3ed83917-b775-42db-88d5-44294f2090e3"
    }
  }, {
    "fullUrl": "https://madie.cms.gov/Condition/33c2b302-83a0-479c-8fa3-5a3197f2a7b2",
    "resource": {
      "resourceType": "Condition",
      "id": "33c2b302-83a0-479c-8fa3-5a3197f2a7b2",
      "meta": {
        "profile": [ "http://hl7.org/fhir/us/qicore/StructureDefinition/qicore-condition-encounter-diagnosis" ]
      },
      "clinicalStatus": {
        "coding": [ {
          "system": "http://terminology.hl7.org/CodeSystem/condition-clinical",
          "code": "active"
        } ]
      },
      "category": [ {
        "coding": [ {
          "system": "http://terminology.hl7.org/CodeSystem/condition-category",
          "code": "encounter-diagnosis",
          "display": "Encounter Diagnosis"
        } ]
      } ],
      "code": {
        "coding": [ {
          "system": "http://snomed.info/sct",
          "code": "102781000119107",
          "display": "Sensory neuropathy due to type 1 diabetes mellitus (disorder)"
        } ]
      },
      "subject": {
        "reference": "Patient/cade5021-b1bf-43e9-a0a4-659c05b386d0"
      },
      "onsetDateTime": "2026-01-01T23:59:00.000+00:00"
    },
    "request": {
      "method": "PUT",
      "url": "Condition/33c2b302-83a0-479c-8fa3-5a3197f2a7b2"
    }
  }, {
    "fullUrl": "https://madie.cms.gov/MedicationRequest/ffbaf703-46df-4f7a-9184-2f639bb6658c",
    "resource": {
      "resourceType": "MedicationRequest",
      "id": "ffbaf703-46df-4f7a-9184-2f639bb6658c",
      "meta": {
        "profile": [ "http://hl7.org/fhir/us/qicore/StructureDefinition/qicore-medicationrequest" ]
      },
      "status": "active",
      "intent": "order",
      "doNotPerform": false,
      "medicationCodeableConcept": {
        "coding": [ {
          "system": "http://www.nlm.nih.gov/research/umls/rxnorm",
          "code": "312836",
          "display": "rivastigmine 6 MG Oral Capsule"
        } ]
      },
      "subject": {
        "reference": "Patient/cade5021-b1bf-43e9-a0a4-659c05b386d0"
      },
      "authoredOn": "2026-01-01T00:00:00.000+00:00",
      "requester": {
        "reference": "Practitioner/example"
      },
      "dispenseRequest": {
        "expectedSupplyDuration": {
          "value": 90,
          "system": "http://unitsofmeasure.org",
          "code": "days"
        }
      }
    },
    "request": {
      "method": "PUT",
      "url": "MedicationRequest/ffbaf703-46df-4f7a-9184-2f639bb6658c"
    }
  }, {
    "fullUrl": "https://madie.cms.gov/Observation/c43ed5ce-609e-40fe-abcc-8c3e2489a574",
    "resource": {
      "resourceType": "Observation",
      "id": "c43ed5ce-609e-40fe-abcc-8c3e2489a574",
      "meta": {
        "profile": [ "http://hl7.org/fhir/us/qicore/StructureDefinition/qicore-observation-screening-assessment" ]
      },
      "status": "final",
      "category": [ {
        "coding": [ {
          "system": "http://terminology.hl7.org/CodeSystem/observation-category",
          "code": "survey"
        } ]
      } ],
      "code": {
        "coding": [ {
          "system": "http://loinc.org",
          "code": "98181-1",
          "display": "Medical equipment used"
        } ]
      },
      "subject": {
        "reference": "Patient/cade5021-b1bf-43e9-a0a4-659c05b386d0"
      },
      "effectivePeriod": {
        "start": "2026-01-01T00:00:00.000+00:00",
        "end": "2026-01-01T01:00:00.000+00:00"
      },
      "valueCodeableConcept": {
        "coding": [ {
          "system": "http://snomed.info/sct",
          "code": "262177002",
          "display": "Static oxygen cylinder (physical object)"
        } ]
      }
    },
    "request": {
      "method": "PUT",
      "url": "Observation/c43ed5ce-609e-40fe-abcc-8c3e2489a574"
    }
  }, {
    "fullUrl": "https://madie.cms.gov/MeasureReport/373f8db2-50fb-450e-8e83-c2b1ef94aa93",
    "resource": {
      "resourceType": "MeasureReport",
      "id": "373f8db2-50fb-450e-8e83-c2b1ef94aa93",
      "meta": {
        "profile": [ "http://hl7.org/fhir/us/cqfmeasures/StructureDefinition/test-case-cqfm" ]
      },
      "contained": [ {
        "resourceType": "Parameters",
        "id": "db2b1a27-a34b-4380-955d-b53ee974f8a2-parameters",
        "parameter": [ {
          "name": "subject",
          "valueString": "cade5021-b1bf-43e9-a0a4-659c05b386d0"
        } ]
      } ],
      "extension": [ {
        "url": "http://hl7.org/fhir/StructureDefinition/cqf-inputParameters",
        "valueReference": {
          "reference": "#db2b1a27-a34b-4380-955d-b53ee974f8a2-parameters"
        }
      }, {
        "url": "http://hl7.org/fhir/us/cqfmeasures/StructureDefinition/cqfm-testCaseDescription",
        "valueMarkdown": "Frailty device used"
      } ],
      "modifierExtension": [ {
        "url": "http://hl7.org/fhir/us/cqfmeasures/StructureDefinition/cqfm-isTestCase",
        "valueBoolean": true
      } ],
      "status": "complete",
      "type": "individual",
      "measure": "https://madie.cms.gov/Measure/CMS122FHIRDiabetesAssessGT9Pct",
      "period": {
        "start": "2026-01-01",
        "end": "2026-12-31"
      },
      "group": [ {
        "id": "Group_1",
        "population": [ {
          "id": "InitialPopulation_1",
          "code": {
            "coding": [ {
              "system": "http://terminology.hl7.org/CodeSystem/measure-population",
              "code": "initial-population",
              "display": "Initial Population"
            } ]
          },
          "count": 1
        }, {
          "id": "Denominator_1",
          "code": {
            "coding": [ {
              "system": "http://terminology.hl7.org/CodeSystem/measure-population",
              "code": "denominator",
              "display": "Denominator"
            } ]
          },
          "count": 1
        }, {
          "id": "DenominatorExclusion_1",
          "code": {
            "coding": [ {
              "system": "http://terminology.hl7.org/CodeSystem/measure-population",
              "code": "denominator-exclusion",
              "display": "Denominator Exclusion"
            } ]
          },
          "count": 1
        }, {
          "id": "Numerator_1",
          "code": {
            "coding": [ {
              "system": "http://terminology.hl7.org/CodeSystem/measure-population",
              "code": "numerator",
              "display": "Numerator"
            } ]
          },
          "count": 0
        } ],
        "measureScore": {
          "value": 1.0
        }
      } ],
      "evaluatedResource": [ {
        "reference": "Patient/cade5021-b1bf-43e9-a0a4-659c05b386d0"
      }, {
        "reference": "Encounter/3ed83917-b775-42db-88d5-44294f2090e3"
      }, {
        "reference": "Condition/33c2b302-83a0-479c-8fa3-5a3197f2a7b2"
      }, {
        "reference": "MedicationRequest/ffbaf703-46df-4f7a-9184-2f639bb6658c"
      }, {
        "reference": "Observation/c43ed5ce-609e-40fe-abcc-8c3e2489a574"
      } ]
    },
    "request": {
      "method": "PUT",
      "url": "MeasureReport/373f8db2-50fb-450e-8e83-c2b1ef94aa93"
    }
  } ]
}