{
  "resourceType": "Bundle",
  "id": "63487c300968f801225401c3",
  "type": "transaction",
  "entry": [ {
    "fullUrl": "https://madie.cms.gov/Patient/93ddb758-3a75-4626-a50b-1e2b51ed4250",
    "resource": {
      "resourceType": "Patient",
      "id": "93ddb758-3a75-4626-a50b-1e2b51ed4250",
      "meta": {
        "profile": [ "http://hl7.org/fhir/us/qicore/StructureDefinition/qicore-patient" ]
      },
      "text": {
        "status": "generated",
        "div": "<div xmlns=\"http://www.w3.org/1999/xhtml\"><div class=\"hapiHeaderText\">AssessG1P1PreTerm1Term1<b>DENPASS</b></div><table class=\"hapiPropertyTable\"><tbody><tr><td>Identifier</td><td>919742ce7259ec7b9de1654b5e814cf859dc5253e7d4839ac3b7c6fbe1734140</td></tr><tr><td>Date of birth</td><td><span>14 February 1985</span></td></tr></tbody></table></div>"
      },
      "extension": [ {
        "url": "http://hl7.org/fhir/us/core/StructureDefinition/us-core-race",
        "extension": [ {
          "url": "ombCategory",
          "valueCoding": {
            "system": "urn:oid:2.16.840.1.113883.6.238",
            "code": "1002-5",
            "display": "American Indian or Alaska Native",
            "userSelected": true
          }
        }, {
          "url": "text",
          "valueString": "American Indian or Alaska Native"
        } ]
      }, {
        "url": "http://hl7.org/fhir/us/core/StructureDefinition/us-core-ethnicity",
        "extension": [ {
          "url": "ombCategory",
          "valueCoding": {
            "system": "urn:oid:2.16.840.1.113883.6.238",
            "code": "2135-2",
            "display": "Hispanic or Latino",
            "userSelected": true
          }
        }, {
          "url": "text",
          "valueString": "Hispanic or Latino"
        } ]
      } ],
      "identifier": [ {
        "type": {
          "coding": [ {
            "system": "http://terminology.hl7.org/CodeSystem/v2-0203",
            "code": "MR"
          } ]
        },
        "system": "https://bonnie-fhir.healthit.gov/",
        "value": "63487c300968f801225401c3"
      } ],
      "active": true,
      "name": [ {
        "use": "usual",
        "family": "DENPass",
        "given": [ "AssessG1P1PreTerm1Term1" ]
      } ],
      "gender": "female",
      "birthDate": "1998-02-14"
    },
    "request": {
      "method": "PUT",
      "url": "Patient/93ddb758-3a75-4626-a50b-1e2b51ed4250"
    }
  }, {
    "fullUrl": "https://madie.cms.gov/Observation/f11971a4-5b05-48d3-9a6c-23ebaff35518",
    "resource": {
      "resourceType": "Observation",
      "id": "f11971a4-5b05-48d3-9a6c-23ebaff35518",
      "meta": {
        "profile": [ "http://hl7.org/fhir/us/qicore/StructureDefinition/qicore-simple-observation" ]
      },
      "status": "final",
      "category": [ {
        "coding": [ {
          "system": "http://terminology.hl7.org/CodeSystem/observation-category",
          "code": "exam",
          "display": "exam",
          "userSelected": true
        } ]
      } ],
      "code": {
        "coding": [ {
          "system": "http://loinc.org",
          "code": "11884-4"
        } ]
      },
      "subject": {
        "reference": "Patient/93ddb758-3a75-4626-a50b-1e2b51ed4250"
      },
      "effectiveDateTime": "2026-06-08T09:15:00.000+00:00",
      "performer": [ {
        "reference": "Organization/example1",
        "display": "Hendricks Country Hospital"
      } ],
      "valueQuantity": {
        "value": 38,
        "system": "http://unitsofmeasure.org",
        "code": "wk"
      }
    },
    "request": {
      "method": "PUT",
      "url": "Observation/f11971a4-5b05-48d3-9a6c-23ebaff35518"
    }
  }, {
    "fullUrl": "https://madie.cms.gov/Observation/734b5ddd-3ae6-48a6-b340-74c981e21718",
    "resource": {
      "resourceType": "Observation",
      "id": "734b5ddd-3ae6-48a6-b340-74c981e21718",
      "meta": {
        "profile": [ "http://hl7.org/fhir/us/qicore/StructureDefinition/qicore-simple-observation" ]
      },
      "status": "final",
      "category": [ {
        "coding": [ {
          "system": "http://terminology.hl7.org/CodeSystem/observation-category",
          "code": "exam",
          "display": "exam",
          "userSelected": true
        } ]
      } ],
      "code": {
        "coding": [ {
          "system": "http://loinc.org",
          "code": "11996-6"
        } ]
      },
      "subject": {
        "reference": "Patient/93ddb758-3a75-4626-a50b-1e2b51ed4250"
      },
      "effectiveDateTime": "2026-06-08T19:59:00.000+00:00",
      "performer": [ {
        "reference": "Organization/example1",
        "display": "Hendricks Country Hospital"
      } ],
      "valueInteger": 1
    },
    "request": {
      "method": "PUT",
      "url": "Observation/734b5ddd-3ae6-48a6-b340-74c981e21718"
    }
  }, {
    "fullUrl": "https://madie.cms.gov/Observation/7890f381-2b3c-4c31-8736-b24b259c8384",
    "resource": {
      "resourceType": "Observation",
      "id": "7890f381-2b3c-4c31-8736-b24b259c8384",
      "meta": {
        "profile": [ "http://hl7.org/fhir/us/qicore/StructureDefinition/qicore-simple-observation" ]
      },
      "status": "final",
      "category": [ {
        "coding": [ {
          "system": "http://terminology.hl7.org/CodeSystem/observation-category",
          "code": "exam",
          "display": "exam",
          "userSelected": true
        } ]
      } ],
      "code": {
        "coding": [ {
          "system": "http://loinc.org",
          "code": "93857-1"
        } ]
      },
      "subject": {
        "reference": "Patient/93ddb758-3a75-4626-a50b-1e2b51ed4250"
      },
      "effectiveDateTime": "2026-06-08T20:00:00.000+00:00",
      "performer": [ {
        "reference": "Organization/example1",
        "display": "Hendricks Country Hospital"
      } ],
      "valueDateTime": "2026-06-08T20:00:00.000+00:00"
    },
    "request": {
      "method": "PUT",
      "url": "Observation/7890f381-2b3c-4c31-8736-b24b259c8384"
    }
  }, {
    "fullUrl": "https://madie.cms.gov/Observation/2a70e4c2-886a-4c0d-b977-648f922efbc0",
    "resource": {
      "resourceType": "Observation",
      "id": "2a70e4c2-886a-4c0d-b977-648f922efbc0",
      "meta": {
        "profile": [ "http://hl7.org/fhir/us/qicore/StructureDefinition/qicore-simple-observation" ]
      },
      "status": "final",
      "category": [ {
        "coding": [ {
          "system": "http://terminology.hl7.org/CodeSystem/observation-category",
          "code": "exam",
          "display": "exam",
          "userSelected": true
        } ]
      } ],
      "code": {
        "coding": [ {
          "system": "http://loinc.org",
          "code": "11977-6"
        } ]
      },
      "subject": {
        "reference": "Patient/93ddb758-3a75-4626-a50b-1e2b51ed4250"
      },
      "effectiveDateTime": "2026-06-08T19:59:00.000+00:00",
      "performer": [ {
        "reference": "Organization/example1",
        "display": "Hendricks Country Hospital"
      } ],
      "valueInteger": 1
    },
    "request": {
      "method": "PUT",
      "url": "Observation/2a70e4c2-886a-4c0d-b977-648f922efbc0"
    }
  }, {
    "fullUrl": "https://madie.cms.gov/Observation/bcf50af8-bf0b-49ff-a1b9-e435bcfdcbe2",
    "resource": {
      "resourceType": "Observation",
      "id": "bcf50af8-bf0b-49ff-a1b9-e435bcfdcbe2",
      "meta": {
        "profile": [ "http://hl7.org/fhir/us/qicore/StructureDefinition/qicore-simple-observation" ]
      },
      "status": "final",
      "category": [ {
        "coding": [ {
          "system": "http://terminology.hl7.org/CodeSystem/observation-category",
          "code": "exam",
          "display": "exam",
          "userSelected": true
        } ]
      } ],
      "code": {
        "coding": [ {
          "system": "http://loinc.org",
          "code": "11637-6"
        } ]
      },
      "subject": {
        "reference": "Patient/93ddb758-3a75-4626-a50b-1e2b51ed4250"
      },
      "effectiveDateTime": "2026-06-08T19:59:00.000+00:00",
      "performer": [ {
        "reference": "Organization/example1",
        "display": "Hendricks Country Hospital"
      } ],
      "valueInteger": 1
    },
    "request": {
      "method": "PUT",
      "url": "Observation/bcf50af8-bf0b-49ff-a1b9-e435bcfdcbe2"
    }
  }, {
    "fullUrl": "https://madie.cms.gov/Observation/14a4c20e-95b4-47b0-a766-9ef9f391d946",
    "resource": {
      "resourceType": "Observation",
      "id": "14a4c20e-95b4-47b0-a766-9ef9f391d946",
      "meta": {
        "profile": [ "http://hl7.org/fhir/us/qicore/StructureDefinition/qicore-simple-observation" ]
      },
      "status": "final",
      "category": [ {
        "coding": [ {
          "system": "http://terminology.hl7.org/CodeSystem/observation-category",
          "code": "exam",
          "display": "exam",
          "userSelected": true
        } ]
      } ],
      "code": {
        "coding": [ {
          "system": "http://loinc.org",
          "code": "11639-2"
        } ]
      },
      "subject": {
        "reference": "Patient/93ddb758-3a75-4626-a50b-1e2b51ed4250"
      },
      "effectiveDateTime": "2026-06-08T19:59:00.000+00:00",
      "performer": [ {
        "reference": "Organization/example1",
        "display": "Hendricks Country Hospital"
      } ],
      "valueInteger": 1
    },
    "request": {
      "method": "PUT",
      "url": "Observation/14a4c20e-95b4-47b0-a766-9ef9f391d946"
    }
  }, {
    "fullUrl": "https://madie.cms.gov/Encounter/39731303-17fc-471f-8d84-51479eb41ea0",
    "resource": {
      "resourceType": "Encounter",
      "id": "39731303-17fc-471f-8d84-51479eb41ea0",
      "meta": {
        "profile": [ "http://hl7.org/fhir/us/qicore/StructureDefinition/qicore-encounter" ]
      },
      "status": "finished",
      "class": {
        "system": "http://terminology.hl7.org/CodeSystem/v3-ActCode",
        "code": "IMP",
        "display": "inpatient encounter"
      },
      "type": [ {
        "coding": [ {
          "system": "http://snomed.info/sct",
          "code": "183452005"
        } ]
      } ],
      "subject": {
        "reference": "Patient/93ddb758-3a75-4626-a50b-1e2b51ed4250"
      },
      "period": {
        "start": "2026-06-08T08:00:00.000+00:00",
        "end": "2026-06-10T08:15:00.000+00:00"
      },
      "length": {
        "value": 2,
        "unit": "days"
      },
      "reasonReference": [ {
        "reference": "Condition/4474a9d7-eda4-4271-9580-c3be02b18c0c"
      } ]
    },
    "request": {
      "method": "PUT",
      "url": "Encounter/39731303-17fc-471f-8d84-51479eb41ea0"
    }
  }, {
    "fullUrl": "https://madie.cms.gov/Procedure/729bf103-9189-4201-bad6-b6d3200ee2d4",
    "resource": {
      "resourceType": "Procedure",
      "id": "729bf103-9189-4201-bad6-b6d3200ee2d4",
      "meta": {
        "profile": [ "http://hl7.org/fhir/us/qicore/StructureDefinition/qicore-procedure" ]
      },
      "extension": [ {
        "url": "http://hl7.org/fhir/us/qicore/StructureDefinition/qicore-recorded",
        "valueDateTime": "2014-04-05T13:35:00.000+00:00"
      } ],
      "status": "completed",
      "code": {
        "coding": [ {
          "system": "http://www.cms.gov/Medicare/Coding/ICD10",
          "code": "10D07Z3"
        }, {
          "system": "http://www.icd10data.com/icd10pcs",
          "code": "10D07Z3",
          "userSelected": true
        } ]
      },
      "subject": {
        "reference": "Patient/93ddb758-3a75-4626-a50b-1e2b51ed4250"
      },
      "performedPeriod": {
        "start": "2026-06-08T08:10:00.000+00:00",
        "end": "2026-06-08T09:14:00.000+00:00"
      }
    },
    "request": {
      "method": "PUT",
      "url": "Procedure/729bf103-9189-4201-bad6-b6d3200ee2d4"
    }
  }, {
    "fullUrl": "https://madie.cms.gov/Condition/4474a9d7-eda4-4271-9580-c3be02b18c0c",
    "resource": {
      "resourceType": "Condition",
      "id": "4474a9d7-eda4-4271-9580-c3be02b18c0c",
      "meta": {
        "profile": [ "http://hl7.org/fhir/us/qicore/StructureDefinition/qicore-condition-encounter-diagnosis" ]
      },
      "category": [ {
        "coding": [ {
          "system": "http://terminology.hl7.org/CodeSystem/condition-category",
          "code": "encounter-diagnosis",
          "display": "Encounter Diagnosis"
        } ]
      } ],
      "code": {
        "coding": [ {
          "system": "http://snomed.info/sct",
          "version": "2022-09",
          "code": "169826009",
          "display": "Single live birth (finding)",
          "userSelected": true
        } ]
      },
      "subject": {
        "reference": "Patient/93ddb758-3a75-4626-a50b-1e2b51ed4250"
      },
      "encounter": {
        "reference": "Encounter/39731303-17fc-471f-8d84-51479eb41ea0"
      },
      "recordedDate": "2026-10-18T08:00:00.000+00:00"
    },
    "request": {
      "method": "PUT",
      "url": "Condition/4474a9d7-eda4-4271-9580-c3be02b18c0c"
    }
  }, {
    "fullUrl": "https://madie.cms.gov/Coverage/71add807-a9cf-47b6-8bb8-846d9465108b",
    "resource": {
      "resourceType": "Coverage",
      "id": "71add807-a9cf-47b6-8bb8-846d9465108b",
      "meta": {
        "profile": [ "http://hl7.org/fhir/us/qicore/StructureDefinition/qicore-coverage" ]
      },
      "status": "active",
      "subscriberId": "523435",
      "beneficiary": {
        "reference": "Patient/93ddb758-3a75-4626-a50b-1e2b51ed4250"
      },
      "relationship": {
        "coding": [ {
          "system": "http://terminology.hl7.org/CodeSystem/subscriber-relationship",
          "code": "self"
        } ]
      },
      "payor": [ {
        "reference": "Organization/d63977ff-3207-4e63-a58d-6a66e40acf9c"
      } ]
    },
    "request": {
      "method": "PUT",
      "url": "Coverage/71add807-a9cf-47b6-8bb8-846d9465108b"
    }
  }, {
    "fullUrl": "https://madie.cms.gov/Organization/d63977ff-3207-4e63-a58d-6a66e40acf9c",
    "resource": {
      "resourceType": "Organization",
      "id": "d63977ff-3207-4e63-a58d-6a66e40acf9c",
      "meta": {
        "profile": [ "http://hl7.org/fhir/us/qicore/StructureDefinition/qicore-organization" ]
      },
      "identifier": [ {
        "use": "temp",
        "system": "urn:oid:2.16.840.1.113883.4.4",
        "value": "21-3259825"
      } ],
      "active": true,
      "type": [ {
        "coding": [ {
          "system": "http://terminology.hl7.org/CodeSystem/organization-type",
          "code": "pay",
          "display": "Payer"
        } ]
      } ],
      "name": "Blue Cross Blue Shield of Texas",
      "telecom": [ {
        "system": "phone",
        "value": "(+1) 972-766-6900"
      } ],
      "address": [ {
        "use": "billing",
        "type": "postal",
        "line": [ "P.O. Box 660044" ],
        "city": "Dallas",
        "state": "TX",
        "postalCode": "75266-0044",
        "country": "USA"
      } ]
    },
    "request": {
      "method": "PUT",
      "url": "Organization/d63977ff-3207-4e63-a58d-6a66e40acf9c"
    }
  }, {
    "fullUrl": "https://madie.cms.gov/Practitioner/4bb1c19f-52c6-4ab5-adf3-5ad7c7a8c47c",
    "resource": {
      "resourceType": "Practitioner",
      "id": "4bb1c19f-52c6-4ab5-adf3-5ad7c7a8c47c",
      "meta": {
        "profile": [ "http://hl7.org/fhir/us/qicore/StructureDefinition/qicore-practitioner" ]
      },
      "identifier": [ {
        "system": "http://hl7.org/fhir/sid/us-npi",
        "value": "1234567890"
      } ],
      "name": [ {
        "family": "Evil",
        "prefix": [ "Dr" ]
      } ]
    },
    "request": {
      "method": "PUT",
      "url": "Practitioner/4bb1c19f-52c6-4ab5-adf3-5ad7c7a8c47c"
    }
  }, {
    "fullUrl": "https://madie.cms.gov/MeasureReport/034d9260-54e0-40bd-9dbc-070a17e160d1",
    "resource": {
      "resourceType": "MeasureReport",
      "id": "034d9260-54e0-40bd-9dbc-070a17e160d1",
      "meta": {
        "profile": [ "http://hl7.org/fhir/us/cqfmeasures/StructureDefinition/test-case-cqfm" ]
      },
      "contained": [ {
        "resourceType": "Parameters",
        "id": "e36a81f5-a05c-4884-a525-4526aa7690e7-parameters",
        "parameter": [ {
          "name": "subject",
          "valueString": "93ddb758-3a75-4626-a50b-1e2b51ed4250"
        } ]
      } ],
      "extension": [ {
        "url": "http://hl7.org/fhir/StructureDefinition/cqf-inputParameters",
        "valueReference": {
          "reference": "#e36a81f5-a05c-4884-a525-4526aa7690e7-parameters"
        }
      }, {
        "url": "http://hl7.org/fhir/us/cqfmeasures/StructureDefinition/cqfm-testCaseDescription",
        "valueMarkdown": "Passes: IP, Pt is 27 years of age,  encounter dx delivery of singleton, gravida = 1, parity =1, Preterm = 1, Term = 1\n"
      } ],
      "modifierExtension": [ {
        "url": "http://hl7.org/fhir/us/cqfmeasures/StructureDefinition/cqfm-isTestCase",
        "valueBoolean": true
      } ],
      "status": "complete",
      "type": "individual",
      "measure": "https://madie.cms.gov/Measure/CMS0334FHIRPCCesareanBirth",
      "period": {
        "start": "2026-01-01",
        "end": "2026-12-31"
      },
      "group": [ {
        "id": "Group_1",
        "population": [ {
          "id": "InitialPopulation_1",
          "code": {
            "coding": [ {
              "system": "http://terminology.hl7.org/CodeSystem/measure-population",
              "code": "initial-population",
              "display": "Initial Population"
            } ]
          },
          "count": 1
        }, {
          "id": "Denominator_1",
          "code": {
            "coding": [ {
              "system": "http://terminology.hl7.org/CodeSystem/measure-population",
              "code": "denominator",
              "display": "Denominator"
            } ]
          },
          "count": 1
        }, {
          "id": "DenominatorExclusion_1",
          "code": {
            "coding": [ {
              "system": "http://terminology.hl7.org/CodeSystem/measure-population",
              "code": "denominator-exclusion",
              "display": "Denominator Exclusion"
            } ]
          },
          "count": 0
        }, {
          "id": "Numerator_1",
          "code": {
            "coding": [ {
              "system": "http://terminology.hl7.org/CodeSystem/measure-population",
              "code": "numerator",
              "display": "Numerator"
            } ]
          },
          "count": 0
        } ],
        "measureScore": {
          "value": 0.0
        }
      } ],
      "evaluatedResource": [ {
        "reference": "Patient/93ddb758-3a75-4626-a50b-1e2b51ed4250"
      }, {
        "reference": "Observation/f11971a4-5b05-48d3-9a6c-23ebaff35518"
      }, {
        "reference": "Observation/734b5ddd-3ae6-48a6-b340-74c981e21718"
      }, {
        "reference": "Observation/7890f381-2b3c-4c31-8736-b24b259c8384"
      }, {
        "reference": "Observation/2a70e4c2-886a-4c0d-b977-648f922efbc0"
      }, {
        "reference": "Observation/bcf50af8-bf0b-49ff-a1b9-e435bcfdcbe2"
      }, {
        "reference": "Observation/14a4c20e-95b4-47b0-a766-9ef9f391d946"
      }, {
        "reference": "Encounter/39731303-17fc-471f-8d84-51479eb41ea0"
      }, {
        "reference": "Procedure/729bf103-9189-4201-bad6-b6d3200ee2d4"
      }, {
        "reference": "Condition/4474a9d7-eda4-4271-9580-c3be02b18c0c"
      }, {
        "reference": "Coverage/71add807-a9cf-47b6-8bb8-846d9465108b"
      }, {
        "reference": "Organization/d63977ff-3207-4e63-a58d-6a66e40acf9c"
      }, {
        "reference": "Practitioner/4bb1c19f-52c6-4ab5-adf3-5ad7c7a8c47c"
      } ]
    },
    "request": {
      "method": "PUT",
      "url": "MeasureReport/034d9260-54e0-40bd-9dbc-070a17e160d1"
    }
  } ]
}