{
  "resourceType": "Bundle",
  "id": "63487c2e0968f8012254016a",
  "type": "transaction",
  "entry": [ {
    "fullUrl": "https://madie.cms.gov/Patient/9f006931-e0fe-43f3-9c93-373908837912",
    "resource": {
      "resourceType": "Patient",
      "id": "9f006931-e0fe-43f3-9c93-373908837912",
      "meta": {
        "profile": [ "http://hl7.org/fhir/us/qicore/StructureDefinition/qicore-patient" ]
      },
      "text": {
        "status": "generated",
        "div": "<div xmlns=\"http://www.w3.org/1999/xhtml\"><div class=\"hapiHeaderText\">AssessG1<b>DENPASS</b></div><table class=\"hapiPropertyTable\"><tbody><tr><td>Identifier</td><td>b00b06f67015bda652373741cca10f65466d828e3a674df9528f73ec417ce0bb</td></tr><tr><td>Date of birth</td><td><span>14 February 1985</span></td></tr></tbody></table></div>"
      },
      "extension": [ {
        "url": "http://hl7.org/fhir/us/core/StructureDefinition/us-core-race",
        "extension": [ {
          "url": "ombCategory",
          "valueCoding": {
            "system": "urn:oid:2.16.840.1.113883.6.238",
            "code": "1002-5",
            "display": "American Indian or Alaska Native",
            "userSelected": true
          }
        }, {
          "url": "text",
          "valueString": "American Indian or Alaska Native"
        } ]
      }, {
        "url": "http://hl7.org/fhir/us/core/StructureDefinition/us-core-ethnicity",
        "extension": [ {
          "url": "ombCategory",
          "valueCoding": {
            "system": "urn:oid:2.16.840.1.113883.6.238",
            "code": "2135-2",
            "display": "Hispanic or Latino",
            "userSelected": true
          }
        }, {
          "url": "text",
          "valueString": "Hispanic or Latino"
        } ]
      } ],
      "identifier": [ {
        "type": {
          "coding": [ {
            "system": "http://terminology.hl7.org/CodeSystem/v2-0203",
            "code": "MR"
          } ]
        },
        "system": "https://bonnie-fhir.healthit.gov/",
        "value": "63487c2e0968f8012254016a"
      } ],
      "active": true,
      "name": [ {
        "use": "usual",
        "family": "DENPass",
        "given": [ "AssessG1" ]
      } ],
      "gender": "female",
      "birthDate": "1998-02-14"
    },
    "request": {
      "method": "PUT",
      "url": "Patient/9f006931-e0fe-43f3-9c93-373908837912"
    }
  }, {
    "fullUrl": "https://madie.cms.gov/Observation/58e4bbe9-76e6-4166-a817-cf0f05b6b24e",
    "resource": {
      "resourceType": "Observation",
      "id": "58e4bbe9-76e6-4166-a817-cf0f05b6b24e",
      "meta": {
        "profile": [ "http://hl7.org/fhir/us/qicore/StructureDefinition/qicore-simple-observation" ]
      },
      "status": "final",
      "category": [ {
        "coding": [ {
          "system": "http://terminology.hl7.org/CodeSystem/observation-category",
          "code": "exam",
          "display": "exam",
          "userSelected": true
        } ]
      } ],
      "code": {
        "coding": [ {
          "system": "http://loinc.org",
          "code": "11996-6"
        } ]
      },
      "subject": {
        "reference": "Patient/9f006931-e0fe-43f3-9c93-373908837912"
      },
      "effectiveDateTime": "2025-10-19T08:10:00.000+00:00",
      "performer": [ {
        "reference": "Organization/example1",
        "display": "Hendricks Country Hospital"
      } ],
      "valueInteger": 1
    },
    "request": {
      "method": "PUT",
      "url": "Observation/58e4bbe9-76e6-4166-a817-cf0f05b6b24e"
    }
  }, {
    "fullUrl": "https://madie.cms.gov/Observation/63b867df-a782-4d77-b9e9-4792c7754107",
    "resource": {
      "resourceType": "Observation",
      "id": "63b867df-a782-4d77-b9e9-4792c7754107",
      "meta": {
        "profile": [ "http://hl7.org/fhir/us/qicore/StructureDefinition/qicore-simple-observation" ]
      },
      "status": "final",
      "category": [ {
        "coding": [ {
          "system": "http://terminology.hl7.org/CodeSystem/observation-category",
          "code": "exam",
          "display": "exam",
          "userSelected": true
        } ]
      } ],
      "code": {
        "coding": [ {
          "system": "http://loinc.org",
          "code": "11884-4"
        } ]
      },
      "subject": {
        "reference": "Patient/9f006931-e0fe-43f3-9c93-373908837912"
      },
      "effectiveDateTime": "2026-06-08T09:15:00.000+00:00",
      "performer": [ {
        "reference": "Organization/example1",
        "display": "Hendricks Country Hospital"
      } ],
      "valueQuantity": {
        "value": 38,
        "unit": "weeks"
      }
    },
    "request": {
      "method": "PUT",
      "url": "Observation/63b867df-a782-4d77-b9e9-4792c7754107"
    }
  }, {
    "fullUrl": "https://madie.cms.gov/Observation/aea8b575-e029-4086-93a0-abf48bcd9acf",
    "resource": {
      "resourceType": "Observation",
      "id": "aea8b575-e029-4086-93a0-abf48bcd9acf",
      "meta": {
        "profile": [ "http://hl7.org/fhir/us/qicore/StructureDefinition/qicore-simple-observation" ]
      },
      "status": "final",
      "category": [ {
        "coding": [ {
          "system": "http://terminology.hl7.org/CodeSystem/observation-category",
          "code": "exam",
          "display": "exam",
          "userSelected": true
        } ]
      } ],
      "code": {
        "coding": [ {
          "system": "http://loinc.org",
          "code": "93857-1"
        } ]
      },
      "subject": {
        "reference": "Patient/9f006931-e0fe-43f3-9c93-373908837912"
      },
      "effectiveDateTime": "2026-06-08T20:00:00.000+00:00",
      "performer": [ {
        "reference": "Organization/example1",
        "display": "Hendricks Country Hospital"
      } ],
      "valueDateTime": "2026-06-08T20:00:00.000+00:00"
    },
    "request": {
      "method": "PUT",
      "url": "Observation/aea8b575-e029-4086-93a0-abf48bcd9acf"
    }
  }, {
    "fullUrl": "https://madie.cms.gov/Encounter/aa1686d2-e755-4431-9312-0ce722ac35d0",
    "resource": {
      "resourceType": "Encounter",
      "id": "aa1686d2-e755-4431-9312-0ce722ac35d0",
      "meta": {
        "profile": [ "http://hl7.org/fhir/us/qicore/StructureDefinition/qicore-encounter" ]
      },
      "status": "finished",
      "class": {
        "system": "http://terminology.hl7.org/CodeSystem/v3-ActCode",
        "code": "IMP",
        "display": "inpatient encounter"
      },
      "type": [ {
        "coding": [ {
          "system": "http://snomed.info/sct",
          "code": "183452005"
        } ]
      } ],
      "subject": {
        "reference": "Patient/9f006931-e0fe-43f3-9c93-373908837912"
      },
      "period": {
        "start": "2026-06-08T08:00:00.000+00:00",
        "end": "2026-06-10T08:15:00.000+00:00"
      },
      "reasonReference": [ {
        "reference": "Condition/112211fe-ff28-4264-81c7-6ffa6b21a378"
      } ]
    },
    "request": {
      "method": "PUT",
      "url": "Encounter/aa1686d2-e755-4431-9312-0ce722ac35d0"
    }
  }, {
    "fullUrl": "https://madie.cms.gov/Procedure/06b014f9-c5ae-4775-80bf-3a9e4b3c845b",
    "resource": {
      "resourceType": "Procedure",
      "id": "06b014f9-c5ae-4775-80bf-3a9e4b3c845b",
      "meta": {
        "profile": [ "http://hl7.org/fhir/us/qicore/StructureDefinition/qicore-procedure" ]
      },
      "extension": [ {
        "url": "http://hl7.org/fhir/us/qicore/StructureDefinition/qicore-recorded",
        "valueDateTime": "2014-04-05T13:35:00.000+00:00"
      } ],
      "status": "completed",
      "code": {
        "coding": [ {
          "system": "http://www.cms.gov/Medicare/Coding/ICD10",
          "code": "10D07Z3"
        } ]
      },
      "subject": {
        "reference": "Patient/9f006931-e0fe-43f3-9c93-373908837912"
      },
      "performedPeriod": {
        "start": "2026-06-08T08:10:00.000+00:00",
        "end": "2026-06-08T09:14:00.000+00:00"
      }
    },
    "request": {
      "method": "PUT",
      "url": "Procedure/06b014f9-c5ae-4775-80bf-3a9e4b3c845b"
    }
  }, {
    "fullUrl": "https://madie.cms.gov/Condition/112211fe-ff28-4264-81c7-6ffa6b21a378",
    "resource": {
      "resourceType": "Condition",
      "id": "112211fe-ff28-4264-81c7-6ffa6b21a378",
      "meta": {
        "profile": [ "http://hl7.org/fhir/us/qicore/StructureDefinition/qicore-condition-encounter-diagnosis" ]
      },
      "category": [ {
        "coding": [ {
          "system": "http://terminology.hl7.org/CodeSystem/condition-category",
          "code": "encounter-diagnosis",
          "display": "Encounter Diagnosis"
        } ]
      } ],
      "code": {
        "coding": [ {
          "system": "http://snomed.info/sct",
          "version": "2022-09",
          "code": "169826009",
          "display": "Single live birth (finding)",
          "userSelected": true
        } ]
      },
      "subject": {
        "reference": "Patient/9f006931-e0fe-43f3-9c93-373908837912"
      },
      "encounter": {
        "reference": "Encounter/aa1686d2-e755-4431-9312-0ce722ac35d0"
      },
      "recordedDate": "2026-10-14T08:00:00.000+00:00"
    },
    "request": {
      "method": "PUT",
      "url": "Condition/112211fe-ff28-4264-81c7-6ffa6b21a378"
    }
  }, {
    "fullUrl": "https://madie.cms.gov/Coverage/cd285fa7-db62-4227-83d8-e5573a739e7b",
    "resource": {
      "resourceType": "Coverage",
      "id": "cd285fa7-db62-4227-83d8-e5573a739e7b",
      "meta": {
        "profile": [ "http://hl7.org/fhir/us/qicore/StructureDefinition/qicore-coverage" ]
      },
      "status": "active",
      "subscriberId": "523435",
      "beneficiary": {
        "reference": "Patient/9f006931-e0fe-43f3-9c93-373908837912"
      },
      "relationship": {
        "coding": [ {
          "system": "http://terminology.hl7.org/CodeSystem/subscriber-relationship",
          "code": "self"
        } ]
      },
      "payor": [ {
        "reference": "Organization/9d8e50d0-bac3-4d21-9994-4f1e8f914c30"
      } ]
    },
    "request": {
      "method": "PUT",
      "url": "Coverage/cd285fa7-db62-4227-83d8-e5573a739e7b"
    }
  }, {
    "fullUrl": "https://madie.cms.gov/Organization/9d8e50d0-bac3-4d21-9994-4f1e8f914c30",
    "resource": {
      "resourceType": "Organization",
      "id": "9d8e50d0-bac3-4d21-9994-4f1e8f914c30",
      "meta": {
        "profile": [ "http://hl7.org/fhir/us/qicore/StructureDefinition/qicore-organization" ]
      },
      "identifier": [ {
        "use": "temp",
        "system": "urn:oid:2.16.840.1.113883.4.4",
        "value": "21-3259825"
      } ],
      "active": true,
      "type": [ {
        "coding": [ {
          "system": "http://terminology.hl7.org/CodeSystem/organization-type",
          "code": "pay",
          "display": "Payer"
        } ]
      } ],
      "name": "Blue Cross Blue Shield of Texas",
      "telecom": [ {
        "system": "phone",
        "value": "(+1) 972-766-6900"
      } ],
      "address": [ {
        "use": "billing",
        "type": "postal",
        "line": [ "P.O. Box 660044" ],
        "city": "Dallas",
        "state": "TX",
        "postalCode": "75266-0044",
        "country": "USA"
      } ]
    },
    "request": {
      "method": "PUT",
      "url": "Organization/9d8e50d0-bac3-4d21-9994-4f1e8f914c30"
    }
  }, {
    "fullUrl": "https://madie.cms.gov/Practitioner/1bd4b2e0-f189-42f3-bd33-d7a6ace27d93",
    "resource": {
      "resourceType": "Practitioner",
      "id": "1bd4b2e0-f189-42f3-bd33-d7a6ace27d93",
      "meta": {
        "profile": [ "http://hl7.org/fhir/us/qicore/StructureDefinition/qicore-practitioner" ]
      },
      "identifier": [ {
        "system": "http://hl7.org/fhir/sid/us-npi",
        "value": "1234567890"
      } ],
      "name": [ {
        "family": "Evil",
        "prefix": [ "Dr" ]
      } ]
    },
    "request": {
      "method": "PUT",
      "url": "Practitioner/1bd4b2e0-f189-42f3-bd33-d7a6ace27d93"
    }
  }, {
    "fullUrl": "https://madie.cms.gov/Condition/bb3ab773-b85a-4c8f-b83b-84264e9fb1bd",
    "resource": {
      "resourceType": "Condition",
      "id": "bb3ab773-b85a-4c8f-b83b-84264e9fb1bd",
      "meta": {
        "profile": [ "http://hl7.org/fhir/us/qicore/StructureDefinition/qicore-condition" ]
      },
      "category": [ {
        "coding": [ {
          "system": "http://terminology.hl7.org/CodeSystem/condition-category",
          "code": "encounter-diagnosis",
          "display": "Encounter Diagnosis"
        } ]
      } ],
      "code": {
        "coding": [ {
          "system": "http://snomed.info/sct",
          "code": "169826009",
          "display": "Single live birth (finding)"
        } ]
      },
      "subject": {
        "reference": "Patient/9f006931-e0fe-43f3-9c93-373908837912"
      }
    },
    "request": {
      "method": "PUT",
      "url": "Condition/bb3ab773-b85a-4c8f-b83b-84264e9fb1bd"
    }
  }, {
    "fullUrl": "https://madie.cms.gov/MeasureReport/b8508fcc-cc19-47e4-b147-8bb53e1469d3",
    "resource": {
      "resourceType": "MeasureReport",
      "id": "b8508fcc-cc19-47e4-b147-8bb53e1469d3",
      "meta": {
        "profile": [ "http://hl7.org/fhir/us/cqfmeasures/StructureDefinition/test-case-cqfm" ]
      },
      "contained": [ {
        "resourceType": "Parameters",
        "id": "7bf6627d-0f64-4747-8451-2df3d6ea71b5-parameters",
        "parameter": [ {
          "name": "subject",
          "valueString": "9f006931-e0fe-43f3-9c93-373908837912"
        } ]
      } ],
      "extension": [ {
        "url": "http://hl7.org/fhir/StructureDefinition/cqf-inputParameters",
        "valueReference": {
          "reference": "#7bf6627d-0f64-4747-8451-2df3d6ea71b5-parameters"
        }
      }, {
        "url": "http://hl7.org/fhir/us/cqfmeasures/StructureDefinition/cqfm-testCaseDescription",
        "valueMarkdown": "Passes: IP, Pt is 27 years of age,  encounter dx delivery of singleton, gravida=1 rel date/time less than 42 weeks prior to delivery, EGA @ 38 weeks\n"
      } ],
      "modifierExtension": [ {
        "url": "http://hl7.org/fhir/us/cqfmeasures/StructureDefinition/cqfm-isTestCase",
        "valueBoolean": true
      } ],
      "status": "complete",
      "type": "individual",
      "measure": "https://madie.cms.gov/Measure/CMS0334FHIRPCCesareanBirth",
      "period": {
        "start": "2026-01-01",
        "end": "2026-12-31"
      },
      "group": [ {
        "id": "Group_1",
        "population": [ {
          "id": "InitialPopulation_1",
          "code": {
            "coding": [ {
              "system": "http://terminology.hl7.org/CodeSystem/measure-population",
              "code": "initial-population",
              "display": "Initial Population"
            } ]
          },
          "count": 1
        }, {
          "id": "Denominator_1",
          "code": {
            "coding": [ {
              "system": "http://terminology.hl7.org/CodeSystem/measure-population",
              "code": "denominator",
              "display": "Denominator"
            } ]
          },
          "count": 1
        }, {
          "id": "DenominatorExclusion_1",
          "code": {
            "coding": [ {
              "system": "http://terminology.hl7.org/CodeSystem/measure-population",
              "code": "denominator-exclusion",
              "display": "Denominator Exclusion"
            } ]
          },
          "count": 0
        }, {
          "id": "Numerator_1",
          "code": {
            "coding": [ {
              "system": "http://terminology.hl7.org/CodeSystem/measure-population",
              "code": "numerator",
              "display": "Numerator"
            } ]
          },
          "count": 0
        } ],
        "measureScore": {
          "value": 0.0
        }
      } ],
      "evaluatedResource": [ {
        "reference": "Patient/9f006931-e0fe-43f3-9c93-373908837912"
      }, {
        "reference": "Observation/58e4bbe9-76e6-4166-a817-cf0f05b6b24e"
      }, {
        "reference": "Observation/63b867df-a782-4d77-b9e9-4792c7754107"
      }, {
        "reference": "Observation/aea8b575-e029-4086-93a0-abf48bcd9acf"
      }, {
        "reference": "Encounter/aa1686d2-e755-4431-9312-0ce722ac35d0"
      }, {
        "reference": "Procedure/06b014f9-c5ae-4775-80bf-3a9e4b3c845b"
      }, {
        "reference": "Condition/112211fe-ff28-4264-81c7-6ffa6b21a378"
      }, {
        "reference": "Coverage/cd285fa7-db62-4227-83d8-e5573a739e7b"
      }, {
        "reference": "Organization/9d8e50d0-bac3-4d21-9994-4f1e8f914c30"
      }, {
        "reference": "Practitioner/1bd4b2e0-f189-42f3-bd33-d7a6ace27d93"
      }, {
        "reference": "Condition/bb3ab773-b85a-4c8f-b83b-84264e9fb1bd"
      } ]
    },
    "request": {
      "method": "PUT",
      "url": "MeasureReport/b8508fcc-cc19-47e4-b147-8bb53e1469d3"
    }
  } ]
}