{
  "resourceType": "Bundle",
  "id": "62c880ec0111a60120dc2207",
  "type": "transaction",
  "entry": [ {
    "fullUrl": "https://madie.cms.gov/Patient/6c1a8557-73be-4026-9ec6-f0699bfcbfda",
    "resource": {
      "resourceType": "Patient",
      "id": "6c1a8557-73be-4026-9ec6-f0699bfcbfda",
      "meta": {
        "profile": [ "http://hl7.org/fhir/us/qicore/StructureDefinition/qicore-patient" ]
      },
      "text": {
        "status": "generated",
        "div": "<div xmlns=\"http://www.w3.org/1999/xhtml\"><div class=\"hapiHeaderText\">CancerDxStartsAfterEncAndChemo<b>IPPFailPop1</b></div><table class=\"hapiPropertyTable\"><tbody><tr><td>Identifier</td><td>972778dfe42618990e47340420092399</td></tr><tr><td>Date of birth</td><td><span>17 August 1951</span></td></tr></tbody></table></div>"
      },
      "extension": [ {
        "url": "http://hl7.org/fhir/us/core/StructureDefinition/us-core-race",
        "extension": [ {
          "url": "ombCategory",
          "valueCoding": {
            "system": "urn:oid:2.16.840.1.113883.6.238",
            "code": "2054-5",
            "display": "Black or African American",
            "userSelected": true
          }
        }, {
          "url": "text",
          "valueString": "Black or African American"
        } ]
      }, {
        "url": "http://hl7.org/fhir/us/core/StructureDefinition/us-core-ethnicity",
        "extension": [ {
          "url": "ombCategory",
          "valueCoding": {
            "system": "urn:oid:2.16.840.1.113883.6.238",
            "code": "2186-5",
            "display": "Not Hispanic or Latino",
            "userSelected": true
          }
        }, {
          "url": "text",
          "valueString": "Not Hispanic or Latino"
        } ]
      } ],
      "identifier": [ {
        "type": {
          "coding": [ {
            "system": "http://terminology.hl7.org/CodeSystem/v2-0203",
            "code": "MR"
          } ]
        },
        "system": "https://bonnie-fhir.healthit.gov/",
        "value": "62c880ec0111a60120dc2207"
      } ],
      "active": true,
      "name": [ {
        "use": "usual",
        "family": "IPPFailPop1",
        "given": [ "CancerDxStartsAfterEncAndChemo" ]
      } ],
      "gender": "female",
      "birthDate": "1952-08-17"
    },
    "request": {
      "method": "PUT",
      "url": "Patient/6c1a8557-73be-4026-9ec6-f0699bfcbfda"
    }
  }, {
    "fullUrl": "https://madie.cms.gov/Condition/712c2efa-4383-42c8-acfa-a1134cf4986f",
    "resource": {
      "resourceType": "Condition",
      "id": "712c2efa-4383-42c8-acfa-a1134cf4986f",
      "meta": {
        "profile": [ "http://hl7.org/fhir/us/qicore/StructureDefinition/qicore-condition" ]
      },
      "clinicalStatus": {
        "coding": [ {
          "system": "http://terminology.hl7.org/CodeSystem/condition-clinical",
          "code": "active",
          "display": "active"
        } ]
      },
      "verificationStatus": {
        "coding": [ {
          "system": "http://terminology.hl7.org/CodeSystem/condition-ver-status",
          "code": "confirmed",
          "display": "Confirmed"
        } ]
      },
      "category": [ {
        "coding": [ {
          "system": "http://terminology.hl7.org/CodeSystem/condition-category",
          "code": "problem-list-item",
          "display": "Problem List Item"
        } ]
      } ],
      "code": {
        "coding": [ {
          "system": "http://hl7.org/fhir/sid/icd-10-cm",
          "code": "C00.0"
        } ]
      },
      "subject": {
        "reference": "Patient/6c1a8557-73be-4026-9ec6-f0699bfcbfda"
      },
      "onsetDateTime": "2026-11-24T08:00:00.000+00:00"
    },
    "request": {
      "method": "PUT",
      "url": "Condition/712c2efa-4383-42c8-acfa-a1134cf4986f"
    }
  }, {
    "fullUrl": "https://madie.cms.gov/Encounter/88eb62e9-78bd-449b-a230-e80b53e1c6ae",
    "resource": {
      "resourceType": "Encounter",
      "id": "88eb62e9-78bd-449b-a230-e80b53e1c6ae",
      "meta": {
        "profile": [ "http://hl7.org/fhir/us/qicore/StructureDefinition/qicore-encounter" ]
      },
      "status": "finished",
      "class": {
        "system": "http://terminology.hl7.org/CodeSystem/v3-ActCode",
        "code": "AMB",
        "display": "ambulatory",
        "userSelected": true
      },
      "type": [ {
        "coding": [ {
          "system": "http://www.ama-assn.org/go/cpt",
          "code": "99213"
        } ]
      } ],
      "subject": {
        "reference": "Patient/6c1a8557-73be-4026-9ec6-f0699bfcbfda"
      },
      "period": {
        "start": "2026-05-25T14:20:00.000+00:00",
        "end": "2026-05-25T14:20:00.000+00:00"
      }
    },
    "request": {
      "method": "PUT",
      "url": "Encounter/88eb62e9-78bd-449b-a230-e80b53e1c6ae"
    }
  }, {
    "fullUrl": "https://madie.cms.gov/Coverage/7ab673e9-a5ce-40a5-970d-7b6f12a4bf95",
    "resource": {
      "resourceType": "Coverage",
      "id": "7ab673e9-a5ce-40a5-970d-7b6f12a4bf95",
      "meta": {
        "profile": [ "http://hl7.org/fhir/us/qicore/StructureDefinition/qicore-coverage" ]
      },
      "status": "active",
      "beneficiary": {
        "reference": "Patient/6c1a8557-73be-4026-9ec6-f0699bfcbfda"
      },
      "period": {
        "start": "1952-08-17T08:00:00.000+00:00"
      },
      "payor": [ {
        "reference": "Organization/a4e143ec-a08b-407e-bba0-81ae180b3be7"
      } ]
    },
    "request": {
      "method": "PUT",
      "url": "Coverage/7ab673e9-a5ce-40a5-970d-7b6f12a4bf95"
    }
  }, {
    "fullUrl": "https://madie.cms.gov/Procedure/54b7d218-e1cf-4ded-a928-b3c4082e403c",
    "resource": {
      "resourceType": "Procedure",
      "id": "54b7d218-e1cf-4ded-a928-b3c4082e403c",
      "meta": {
        "profile": [ "http://hl7.org/fhir/us/qicore/StructureDefinition/qicore-procedure" ]
      },
      "extension": [ {
        "url": "http://hl7.org/fhir/us/qicore/StructureDefinition/qicore-recorded",
        "valueDateTime": "2026-04-20T11:35:00.000+00:00"
      } ],
      "status": "completed",
      "code": {
        "coding": [ {
          "system": "http://snomed.info/sct",
          "code": "169396008"
        } ]
      },
      "subject": {
        "reference": "Patient/6c1a8557-73be-4026-9ec6-f0699bfcbfda"
      },
      "performedPeriod": {
        "start": "2026-04-20T11:00:00.000+00:00",
        "end": "2026-04-20T11:00:00.000+00:00"
      }
    },
    "request": {
      "method": "PUT",
      "url": "Procedure/54b7d218-e1cf-4ded-a928-b3c4082e403c"
    }
  }, {
    "fullUrl": "https://madie.cms.gov/Procedure/e42a549b-40d0-4d2f-aabe-9b0432a94574",
    "resource": {
      "resourceType": "Procedure",
      "id": "e42a549b-40d0-4d2f-aabe-9b0432a94574",
      "meta": {
        "profile": [ "http://hl7.org/fhir/us/qicore/StructureDefinition/qicore-procedure" ]
      },
      "extension": [ {
        "url": "http://hl7.org/fhir/us/qicore/StructureDefinition/qicore-recorded",
        "valueDateTime": "2026-06-10T14:50:00.000+00:00"
      } ],
      "status": "completed",
      "code": {
        "coding": [ {
          "system": "http://snomed.info/sct",
          "code": "169396008"
        } ]
      },
      "subject": {
        "reference": "Patient/6c1a8557-73be-4026-9ec6-f0699bfcbfda"
      },
      "performedPeriod": {
        "start": "2026-06-10T14:45:00.000+00:00",
        "end": "2026-06-10T14:45:00.000+00:00"
      }
    },
    "request": {
      "method": "PUT",
      "url": "Procedure/e42a549b-40d0-4d2f-aabe-9b0432a94574"
    }
  }, {
    "fullUrl": "https://madie.cms.gov/Organization/a4e143ec-a08b-407e-bba0-81ae180b3be7",
    "resource": {
      "resourceType": "Organization",
      "id": "a4e143ec-a08b-407e-bba0-81ae180b3be7",
      "meta": {
        "profile": [ "http://hl7.org/fhir/us/qicore/StructureDefinition/qicore-organization" ]
      },
      "identifier": [ {
        "use": "temp",
        "system": "urn:oid:2.16.840.1.113883.4.4",
        "value": "21-3259825"
      } ],
      "active": true,
      "type": [ {
        "coding": [ {
          "system": "http://terminology.hl7.org/CodeSystem/organization-type",
          "code": "pay",
          "display": "Payer"
        } ]
      } ],
      "name": "Blue Cross Blue Shield of Texas",
      "telecom": [ {
        "system": "phone",
        "value": "(+1) 972-766-6900"
      } ],
      "address": [ {
        "use": "billing",
        "type": "postal",
        "line": [ "P.O. Box 660044" ],
        "city": "Dallas",
        "state": "TX",
        "postalCode": "75266-0044",
        "country": "USA"
      } ]
    },
    "request": {
      "method": "PUT",
      "url": "Organization/a4e143ec-a08b-407e-bba0-81ae180b3be7"
    }
  }, {
    "fullUrl": "https://madie.cms.gov/Practitioner/72bc9555-940d-41a4-ba9f-9088af024af7",
    "resource": {
      "resourceType": "Practitioner",
      "id": "72bc9555-940d-41a4-ba9f-9088af024af7",
      "meta": {
        "profile": [ "http://hl7.org/fhir/us/qicore/StructureDefinition/qicore-practitioner" ]
      },
      "identifier": [ {
        "system": "http://hl7.org/fhir/sid/us-npi",
        "value": "123456"
      } ],
      "name": [ {
        "family": "Evil",
        "prefix": [ "Dr" ]
      } ]
    },
    "request": {
      "method": "PUT",
      "url": "Practitioner/72bc9555-940d-41a4-ba9f-9088af024af7"
    }
  }, {
    "fullUrl": "https://madie.cms.gov/MeasureReport/b5dab9f4-59b6-4171-ae8c-c8f35de414be",
    "resource": {
      "resourceType": "MeasureReport",
      "id": "b5dab9f4-59b6-4171-ae8c-c8f35de414be",
      "meta": {
        "profile": [ "http://hl7.org/fhir/us/cqfmeasures/StructureDefinition/test-case-cqfm" ]
      },
      "contained": [ {
        "resourceType": "Parameters",
        "id": "8e3e1460-9b4e-4ffd-9a22-c5fd979633f5-parameters",
        "parameter": [ {
          "name": "subject",
          "valueString": "6c1a8557-73be-4026-9ec6-f0699bfcbfda"
        } ]
      } ],
      "extension": [ {
        "url": "http://hl7.org/fhir/StructureDefinition/cqf-inputParameters",
        "valueReference": {
          "reference": "#8e3e1460-9b4e-4ffd-9a22-c5fd979633f5-parameters"
        }
      }, {
        "url": "http://hl7.org/fhir/us/cqfmeasures/StructureDefinition/cqfm-testCaseDescription",
        "valueMarkdown": "Patient with cancer diagnosis that starts after office visit and chemotherapy. \n"
      } ],
      "modifierExtension": [ {
        "url": "http://hl7.org/fhir/us/cqfmeasures/StructureDefinition/cqfm-isTestCase",
        "valueBoolean": true
      } ],
      "status": "complete",
      "type": "individual",
      "measure": "https://madie.cms.gov/Measure/CMS157FHIRPainIntensityQuantified",
      "period": {
        "start": "2026-01-01",
        "end": "2026-12-31"
      },
      "group": [ {
        "id": "Group_1",
        "population": [ {
          "id": "InitialPopulation_1",
          "code": {
            "coding": [ {
              "system": "http://terminology.hl7.org/CodeSystem/measure-population",
              "code": "initial-population",
              "display": "Initial Population"
            } ]
          },
          "count": 0
        }, {
          "id": "Denominator_1",
          "code": {
            "coding": [ {
              "system": "http://terminology.hl7.org/CodeSystem/measure-population",
              "code": "denominator",
              "display": "Denominator"
            } ]
          },
          "count": 0
        }, {
          "id": "Numerator_1",
          "code": {
            "coding": [ {
              "system": "http://terminology.hl7.org/CodeSystem/measure-population",
              "code": "numerator",
              "display": "Numerator"
            } ]
          },
          "count": 0
        } ],
        "measureScore": {
          "value": 0.0
        }
      }, {
        "id": "Group_2",
        "population": [ {
          "id": "InitialPopulation_2",
          "code": {
            "coding": [ {
              "system": "http://terminology.hl7.org/CodeSystem/measure-population",
              "code": "initial-population",
              "display": "Initial Population"
            } ]
          },
          "count": 0
        }, {
          "id": "Denominator_2",
          "code": {
            "coding": [ {
              "system": "http://terminology.hl7.org/CodeSystem/measure-population",
              "code": "denominator",
              "display": "Denominator"
            } ]
          },
          "count": 0
        }, {
          "id": "Numerator_2",
          "code": {
            "coding": [ {
              "system": "http://terminology.hl7.org/CodeSystem/measure-population",
              "code": "numerator",
              "display": "Numerator"
            } ]
          },
          "count": 0
        } ],
        "measureScore": {
          "value": 0.0
        }
      } ],
      "evaluatedResource": [ {
        "reference": "Patient/6c1a8557-73be-4026-9ec6-f0699bfcbfda"
      }, {
        "reference": "Condition/712c2efa-4383-42c8-acfa-a1134cf4986f"
      }, {
        "reference": "Encounter/88eb62e9-78bd-449b-a230-e80b53e1c6ae"
      }, {
        "reference": "Coverage/7ab673e9-a5ce-40a5-970d-7b6f12a4bf95"
      }, {
        "reference": "Procedure/54b7d218-e1cf-4ded-a928-b3c4082e403c"
      }, {
        "reference": "Procedure/e42a549b-40d0-4d2f-aabe-9b0432a94574"
      }, {
        "reference": "Organization/a4e143ec-a08b-407e-bba0-81ae180b3be7"
      }, {
        "reference": "Practitioner/72bc9555-940d-41a4-ba9f-9088af024af7"
      } ]
    },
    "request": {
      "method": "PUT",
      "url": "MeasureReport/b5dab9f4-59b6-4171-ae8c-c8f35de414be"
    }
  } ]
}