{
  "resourceType": "Bundle",
  "id": "62c880ec0111a60120dc21f3",
  "type": "transaction",
  "entry": [ {
    "fullUrl": "https://madie.cms.gov/Patient/4863aa47-2ca6-4c00-9e8a-1f14942bbba0",
    "resource": {
      "resourceType": "Patient",
      "id": "4863aa47-2ca6-4c00-9e8a-1f14942bbba0",
      "meta": {
        "profile": [ "http://hl7.org/fhir/us/qicore/StructureDefinition/qicore-patient" ]
      },
      "text": {
        "status": "generated",
        "div": "<div xmlns=\"http://www.w3.org/1999/xhtml\"><div class=\"hapiHeaderText\">CancerDxEndsPriorRadTx<b>IPPFailPop2</b></div><table class=\"hapiPropertyTable\"><tbody><tr><td>Identifier</td><td>16cc91af81a242d253c1d030f1cd5773</td></tr><tr><td>Date of birth</td><td><span>21 December 1936</span></td></tr></tbody></table></div>"
      },
      "extension": [ {
        "url": "http://hl7.org/fhir/us/core/StructureDefinition/us-core-race",
        "extension": [ {
          "url": "ombCategory",
          "valueCoding": {
            "system": "urn:oid:2.16.840.1.113883.6.238",
            "code": "1002-5",
            "display": "American Indian or Alaska Native",
            "userSelected": true
          }
        }, {
          "url": "text",
          "valueString": "American Indian or Alaska Native"
        } ]
      }, {
        "url": "http://hl7.org/fhir/us/core/StructureDefinition/us-core-ethnicity",
        "extension": [ {
          "url": "ombCategory",
          "valueCoding": {
            "system": "urn:oid:2.16.840.1.113883.6.238",
            "code": "2135-2",
            "display": "Hispanic or Latino",
            "userSelected": true
          }
        }, {
          "url": "text",
          "valueString": "Hispanic or Latino"
        } ]
      } ],
      "identifier": [ {
        "type": {
          "coding": [ {
            "system": "http://terminology.hl7.org/CodeSystem/v2-0203",
            "code": "MR"
          } ]
        },
        "system": "https://bonnie-fhir.healthit.gov/",
        "value": "62c880ec0111a60120dc21f3"
      } ],
      "active": true,
      "name": [ {
        "use": "usual",
        "family": "IPPFailPop2",
        "given": [ "CancerDxEndsPriorRadTx" ]
      } ],
      "gender": "male",
      "birthDate": "1937-12-21"
    },
    "request": {
      "method": "PUT",
      "url": "Patient/4863aa47-2ca6-4c00-9e8a-1f14942bbba0"
    }
  }, {
    "fullUrl": "https://madie.cms.gov/Condition/dab350ef-6825-48f2-b903-00282dee5abd",
    "resource": {
      "resourceType": "Condition",
      "id": "dab350ef-6825-48f2-b903-00282dee5abd",
      "meta": {
        "profile": [ "http://hl7.org/fhir/us/qicore/StructureDefinition/qicore-condition" ]
      },
      "clinicalStatus": {
        "coding": [ {
          "system": "http://terminology.hl7.org/CodeSystem/condition-clinical",
          "code": "inactive",
          "display": "inactive",
          "userSelected": true
        } ]
      },
      "verificationStatus": {
        "coding": [ {
          "system": "http://terminology.hl7.org/CodeSystem/condition-ver-status",
          "code": "confirmed",
          "display": "Confirmed"
        } ]
      },
      "category": [ {
        "coding": [ {
          "system": "http://terminology.hl7.org/CodeSystem/condition-category",
          "code": "problem-list-item",
          "display": "Problem List Item"
        } ]
      } ],
      "code": {
        "coding": [ {
          "system": "http://hl7.org/fhir/sid/icd-10-cm",
          "code": "C34.01"
        } ]
      },
      "subject": {
        "reference": "Patient/4863aa47-2ca6-4c00-9e8a-1f14942bbba0"
      },
      "onsetDateTime": "2024-02-28T11:00:00.000+00:00",
      "abatementDateTime": "2026-02-15T11:30:00.000+00:00"
    },
    "request": {
      "method": "PUT",
      "url": "Condition/dab350ef-6825-48f2-b903-00282dee5abd"
    }
  }, {
    "fullUrl": "https://madie.cms.gov/Coverage/2fa0cf9b-d830-4c58-89f7-4b0265532b21",
    "resource": {
      "resourceType": "Coverage",
      "id": "2fa0cf9b-d830-4c58-89f7-4b0265532b21",
      "meta": {
        "profile": [ "http://hl7.org/fhir/us/qicore/StructureDefinition/qicore-coverage" ]
      },
      "status": "active",
      "beneficiary": {
        "reference": "Patient/4863aa47-2ca6-4c00-9e8a-1f14942bbba0"
      },
      "period": {
        "start": "1937-12-21T01:00:00.000+00:00"
      },
      "payor": [ {
        "reference": "Organization/630f2f81-8b39-40f1-a94d-971575952a2a"
      } ]
    },
    "request": {
      "method": "PUT",
      "url": "Coverage/2fa0cf9b-d830-4c58-89f7-4b0265532b21"
    }
  }, {
    "fullUrl": "https://madie.cms.gov/Encounter/80e7a726-45d2-4c6e-9aeb-eae29d12c8c0",
    "resource": {
      "resourceType": "Encounter",
      "id": "80e7a726-45d2-4c6e-9aeb-eae29d12c8c0",
      "meta": {
        "profile": [ "http://hl7.org/fhir/us/qicore/StructureDefinition/qicore-encounter" ]
      },
      "status": "finished",
      "class": {
        "system": "http://terminology.hl7.org/CodeSystem/v3-ActCode",
        "code": "AMB",
        "display": "ambulatory",
        "userSelected": true
      },
      "type": [ {
        "coding": [ {
          "system": "http://www.ama-assn.org/go/cpt",
          "version": "2023",
          "code": "77431",
          "userSelected": true
        } ]
      } ],
      "subject": {
        "reference": "Patient/4863aa47-2ca6-4c00-9e8a-1f14942bbba0"
      },
      "period": {
        "start": "2026-10-01T14:45:00.000+00:00",
        "end": "2026-10-01T14:45:00.000+00:00"
      }
    },
    "request": {
      "method": "PUT",
      "url": "Encounter/80e7a726-45d2-4c6e-9aeb-eae29d12c8c0"
    }
  }, {
    "fullUrl": "https://madie.cms.gov/Organization/630f2f81-8b39-40f1-a94d-971575952a2a",
    "resource": {
      "resourceType": "Organization",
      "id": "630f2f81-8b39-40f1-a94d-971575952a2a",
      "meta": {
        "profile": [ "http://hl7.org/fhir/us/qicore/StructureDefinition/qicore-organization" ]
      },
      "identifier": [ {
        "use": "temp",
        "system": "urn:oid:2.16.840.1.113883.4.4",
        "value": "21-3259825"
      } ],
      "active": true,
      "type": [ {
        "coding": [ {
          "system": "http://terminology.hl7.org/CodeSystem/organization-type",
          "code": "pay",
          "display": "Payer"
        } ]
      } ],
      "name": "Blue Cross Blue Shield of Texas",
      "telecom": [ {
        "system": "phone",
        "value": "(+1) 972-766-6900"
      } ],
      "address": [ {
        "use": "billing",
        "type": "postal",
        "line": [ "P.O. Box 660044" ],
        "city": "Dallas",
        "state": "TX",
        "postalCode": "75266-0044",
        "country": "USA"
      } ]
    },
    "request": {
      "method": "PUT",
      "url": "Organization/630f2f81-8b39-40f1-a94d-971575952a2a"
    }
  }, {
    "fullUrl": "https://madie.cms.gov/Practitioner/7798fede-4fd6-48b3-b8a9-97879192404e",
    "resource": {
      "resourceType": "Practitioner",
      "id": "7798fede-4fd6-48b3-b8a9-97879192404e",
      "meta": {
        "profile": [ "http://hl7.org/fhir/us/qicore/StructureDefinition/qicore-practitioner" ]
      },
      "identifier": [ {
        "system": "http://hl7.org/fhir/sid/us-npi",
        "value": "123456"
      } ],
      "name": [ {
        "family": "Evil",
        "prefix": [ "Dr" ]
      } ]
    },
    "request": {
      "method": "PUT",
      "url": "Practitioner/7798fede-4fd6-48b3-b8a9-97879192404e"
    }
  }, {
    "fullUrl": "https://madie.cms.gov/MeasureReport/46ebbb4e-a28c-48d8-82db-ea9f280a5f73",
    "resource": {
      "resourceType": "MeasureReport",
      "id": "46ebbb4e-a28c-48d8-82db-ea9f280a5f73",
      "meta": {
        "profile": [ "http://hl7.org/fhir/us/cqfmeasures/StructureDefinition/test-case-cqfm" ]
      },
      "contained": [ {
        "resourceType": "Parameters",
        "id": "3fa192ee-c1ad-4a7b-af1b-c0a6e3dcbbac-parameters",
        "parameter": [ {
          "name": "subject",
          "valueString": "4863aa47-2ca6-4c00-9e8a-1f14942bbba0"
        } ]
      } ],
      "extension": [ {
        "url": "http://hl7.org/fhir/StructureDefinition/cqf-inputParameters",
        "valueReference": {
          "reference": "#3fa192ee-c1ad-4a7b-af1b-c0a6e3dcbbac-parameters"
        }
      }, {
        "url": "http://hl7.org/fhir/us/cqfmeasures/StructureDefinition/cqfm-testCaseDescription",
        "valueMarkdown": "Patient with cancer diagnosis that ends before radiation treatment management.\n"
      } ],
      "modifierExtension": [ {
        "url": "http://hl7.org/fhir/us/cqfmeasures/StructureDefinition/cqfm-isTestCase",
        "valueBoolean": true
      } ],
      "status": "complete",
      "type": "individual",
      "measure": "https://madie.cms.gov/Measure/CMS157FHIRPainIntensityQuantified",
      "period": {
        "start": "2026-01-01",
        "end": "2026-12-31"
      },
      "group": [ {
        "id": "Group_1",
        "population": [ {
          "id": "InitialPopulation_1",
          "code": {
            "coding": [ {
              "system": "http://terminology.hl7.org/CodeSystem/measure-population",
              "code": "initial-population",
              "display": "Initial Population"
            } ]
          },
          "count": 0
        }, {
          "id": "Denominator_1",
          "code": {
            "coding": [ {
              "system": "http://terminology.hl7.org/CodeSystem/measure-population",
              "code": "denominator",
              "display": "Denominator"
            } ]
          },
          "count": 0
        }, {
          "id": "Numerator_1",
          "code": {
            "coding": [ {
              "system": "http://terminology.hl7.org/CodeSystem/measure-population",
              "code": "numerator",
              "display": "Numerator"
            } ]
          },
          "count": 0
        } ],
        "measureScore": {
          "value": 0.0
        }
      }, {
        "id": "Group_2",
        "population": [ {
          "id": "InitialPopulation_2",
          "code": {
            "coding": [ {
              "system": "http://terminology.hl7.org/CodeSystem/measure-population",
              "code": "initial-population",
              "display": "Initial Population"
            } ]
          },
          "count": 0
        }, {
          "id": "Denominator_2",
          "code": {
            "coding": [ {
              "system": "http://terminology.hl7.org/CodeSystem/measure-population",
              "code": "denominator",
              "display": "Denominator"
            } ]
          },
          "count": 0
        }, {
          "id": "Numerator_2",
          "code": {
            "coding": [ {
              "system": "http://terminology.hl7.org/CodeSystem/measure-population",
              "code": "numerator",
              "display": "Numerator"
            } ]
          },
          "count": 0
        } ],
        "measureScore": {
          "value": 0.0
        }
      } ],
      "evaluatedResource": [ {
        "reference": "Patient/4863aa47-2ca6-4c00-9e8a-1f14942bbba0"
      }, {
        "reference": "Condition/dab350ef-6825-48f2-b903-00282dee5abd"
      }, {
        "reference": "Coverage/2fa0cf9b-d830-4c58-89f7-4b0265532b21"
      }, {
        "reference": "Encounter/80e7a726-45d2-4c6e-9aeb-eae29d12c8c0"
      }, {
        "reference": "Organization/630f2f81-8b39-40f1-a94d-971575952a2a"
      }, {
        "reference": "Practitioner/7798fede-4fd6-48b3-b8a9-97879192404e"
      } ]
    },
    "request": {
      "method": "PUT",
      "url": "MeasureReport/46ebbb4e-a28c-48d8-82db-ea9f280a5f73"
    }
  } ]
}