{
  "resourceType": "Bundle",
  "id": "2EncounterNotAtriskThenAtrisk",
  "type": "transaction",
  "entry": [ {
    "fullUrl": "https://madie.cms.gov/Patient/08bd110c-dfda-403c-91cd-34dfc9f16dc8",
    "resource": {
      "resourceType": "Patient",
      "id": "08bd110c-dfda-403c-91cd-34dfc9f16dc8",
      "meta": {
        "profile": [ "http://hl7.org/fhir/us/qicore/StructureDefinition/qicore-patient" ]
      },
      "extension": [ {
        "url": "http://hl7.org/fhir/us/core/StructureDefinition/us-core-race",
        "extension": [ {
          "url": "ombCategory",
          "valueCoding": {
            "system": "urn:oid:2.16.840.1.113883.6.238",
            "code": "2106-3",
            "display": "White",
            "userSelected": true
          }
        }, {
          "url": "text",
          "valueString": "White"
        } ]
      }, {
        "url": "http://hl7.org/fhir/us/core/StructureDefinition/us-core-ethnicity",
        "extension": [ {
          "url": "ombCategory",
          "valueCoding": {
            "system": "urn:oid:2.16.840.1.113883.6.238",
            "code": "2186-5",
            "display": "Not Hispanic or Latino",
            "userSelected": true
          }
        }, {
          "url": "text",
          "valueString": "Not Hispanic or Latino"
        } ]
      }, {
        "url": "http://hl7.org/fhir/us/core/StructureDefinition/us-core-sex",
        "valueCode": "248153007"
      } ],
      "identifier": [ {
        "type": {
          "coding": [ {
            "system": "http://terminology.hl7.org/CodeSystem/v2-0203",
            "code": "MR"
          } ]
        },
        "system": "https://madie.cms.gov/",
        "value": "2EncounterNotAtriskThenAtrisk"
      } ],
      "active": true,
      "name": [ {
        "use": "usual",
        "text": "2EncounterNotAtriskThenAtrisk",
        "family": "MSROBSPass4",
        "given": [ "2EncounterNotAtriskThenAtriskMSROBSPass4" ]
      } ],
      "gender": "male",
      "birthDate": "1954-01-01",
      "address": [ {
        "text": "2EncounterNotAtriskThenAtrisk, Screened at risk then not at risk, ID=2EncounterNotAtriskThenAtrisk, DOB: 01 Jan 1954"
      } ]
    },
    "request": {
      "method": "PUT",
      "url": "Patient/08bd110c-dfda-403c-91cd-34dfc9f16dc8"
    }
  }, {
    "fullUrl": "https://madie.cms.gov/Encounter/56f3ca31-a664-4e2a-8a1d-28ae73e26c2c",
    "resource": {
      "resourceType": "Encounter",
      "id": "56f3ca31-a664-4e2a-8a1d-28ae73e26c2c",
      "meta": {
        "profile": [ "http://hl7.org/fhir/us/qicore/StructureDefinition/qicore-encounter" ]
      },
      "status": "finished",
      "class": {
        "system": "http://terminology.hl7.org/CodeSystem/v3-ActCode",
        "code": "IMP",
        "display": "inpatient encounter"
      },
      "type": [ {
        "coding": [ {
          "system": "http://snomed.info/sct",
          "code": "183452005"
        } ]
      } ],
      "subject": {
        "reference": "Patient/08bd110c-dfda-403c-91cd-34dfc9f16dc8"
      },
      "period": {
        "start": "2026-10-01T08:00:00.000+00:00",
        "end": "2026-10-07T08:15:00.000+00:00"
      },
      "reasonReference": [ {
        "reference": "Condition/569f68c8-77dc-405a-90bf-087a1ae4c87f"
      } ]
    },
    "request": {
      "method": "PUT",
      "url": "Encounter/56f3ca31-a664-4e2a-8a1d-28ae73e26c2c"
    }
  }, {
    "fullUrl": "https://madie.cms.gov/Condition/569f68c8-77dc-405a-90bf-087a1ae4c87f",
    "resource": {
      "resourceType": "Condition",
      "id": "569f68c8-77dc-405a-90bf-087a1ae4c87f",
      "meta": {
        "profile": [ "http://hl7.org/fhir/us/qicore/StructureDefinition/qicore-condition-problems-health-concerns" ]
      },
      "clinicalStatus": {
        "coding": [ {
          "system": "http://terminology.hl7.org/CodeSystem/condition-clinical",
          "code": "active",
          "display": "Active",
          "userSelected": true
        } ]
      },
      "verificationStatus": {
        "coding": [ {
          "system": "http://terminology.hl7.org/CodeSystem/condition-ver-status",
          "code": "confirmed",
          "display": "Confirmed",
          "userSelected": true
        } ]
      },
      "category": [ {
        "coding": [ {
          "system": "http://terminology.hl7.org/CodeSystem/condition-category",
          "code": "problem-list-item",
          "display": "Problem List Item",
          "userSelected": true
        } ]
      } ],
      "code": {
        "coding": [ {
          "system": "http://hl7.org/fhir/sid/icd-10-cm",
          "code": "O25.2",
          "display": "Malnutrition in childbirth",
          "userSelected": true
        } ]
      },
      "subject": {
        "reference": "Patient/08bd110c-dfda-403c-91cd-34dfc9f16dc8"
      },
      "onsetPeriod": {
        "start": "2026-10-01T08:00:00.000+00:00"
      },
      "recordedDate": "2026-10-01T11:00:00.000+00:00"
    },
    "request": {
      "method": "PUT",
      "url": "Condition/569f68c8-77dc-405a-90bf-087a1ae4c87f"
    }
  }, {
    "fullUrl": "https://madie.cms.gov/Observation/0fcf8f14-b140-42eb-9bb6-f7de5e3dabdf",
    "resource": {
      "resourceType": "Observation",
      "id": "0fcf8f14-b140-42eb-9bb6-f7de5e3dabdf",
      "meta": {
        "profile": [ "http://hl7.org/fhir/us/qicore/StructureDefinition/qicore-observation-screening-assessment" ]
      },
      "status": "final",
      "category": [ {
        "coding": [ {
          "system": "http://terminology.hl7.org/CodeSystem/observation-category",
          "code": "survey",
          "display": "Survey"
        } ]
      } ],
      "code": {
        "coding": [ {
          "system": "http://loinc.org",
          "code": "98967-3",
          "display": "Nutritional Risk Screening 2002 panel",
          "userSelected": true
        } ]
      },
      "subject": {
        "reference": "Patient/08bd110c-dfda-403c-91cd-34dfc9f16dc8"
      },
      "effectiveDateTime": "2026-10-01T09:00:00.000+00:00",
      "valueCodeableConcept": {
        "coding": [ {
          "system": "http://snomed.info/sct",
          "code": "129689002",
          "display": "At increased risk for nutritional problem (finding)",
          "userSelected": true
        } ]
      }
    },
    "request": {
      "method": "PUT",
      "url": "Observation/0fcf8f14-b140-42eb-9bb6-f7de5e3dabdf"
    }
  }, {
    "fullUrl": "https://madie.cms.gov/Observation/c9a61b11-f3d6-490d-bd9e-f149081f074d",
    "resource": {
      "resourceType": "Observation",
      "id": "c9a61b11-f3d6-490d-bd9e-f149081f074d",
      "meta": {
        "profile": [ "http://hl7.org/fhir/us/qicore/StructureDefinition/qicore-observation-screening-assessment" ]
      },
      "status": "final",
      "category": [ {
        "coding": [ {
          "system": "http://terminology.hl7.org/CodeSystem/observation-category",
          "code": "survey",
          "display": "Survey"
        } ]
      } ],
      "code": {
        "coding": [ {
          "system": "http://loinc.org",
          "code": "75282-4",
          "display": "Nutrition assessment panel",
          "userSelected": true
        } ]
      },
      "subject": {
        "reference": "Patient/08bd110c-dfda-403c-91cd-34dfc9f16dc8"
      },
      "effectiveDateTime": "2026-10-01T10:00:00.000+00:00",
      "valueCodeableConcept": {
        "coding": [ {
          "system": "http://snomed.info/sct",
          "code": "102636009",
          "display": "Chronic nutritional deficiency (finding)",
          "userSelected": true
        } ]
      }
    },
    "request": {
      "method": "PUT",
      "url": "Observation/c9a61b11-f3d6-490d-bd9e-f149081f074d"
    }
  }, {
    "fullUrl": "https://madie.cms.gov/Procedure/9df49cdf-c68b-4c26-98b4-18c2ebb1fada",
    "resource": {
      "resourceType": "Procedure",
      "id": "9df49cdf-c68b-4c26-98b4-18c2ebb1fada",
      "meta": {
        "profile": [ "http://hl7.org/fhir/us/qicore/StructureDefinition/qicore-procedure" ]
      },
      "extension": [ {
        "url": "http://hl7.org/fhir/us/qicore/StructureDefinition/qicore-recorded",
        "valueDateTime": "2026-10-02T11:30:00.000+00:00"
      } ],
      "status": "completed",
      "code": {
        "coding": [ {
          "system": "http://snomed.info/sct",
          "code": "386372009",
          "display": "Nutrition management (procedure)"
        } ],
        "text": "Nutrition management (procedure)"
      },
      "subject": {
        "reference": "Patient/08bd110c-dfda-403c-91cd-34dfc9f16dc8"
      },
      "encounter": {
        "reference": "Encounter/2EncounterNotAtriskThenAtriskMSROBSPass4"
      },
      "performedPeriod": {
        "start": "2026-10-01T11:30:00.000+00:00",
        "end": "2026-10-07T08:15:00.000+00:00"
      }
    },
    "request": {
      "method": "PUT",
      "url": "Procedure/9df49cdf-c68b-4c26-98b4-18c2ebb1fada"
    }
  }, {
    "fullUrl": "https://madie.cms.gov/Coverage/aa660db5-d3e9-418c-b5bb-9f56f95679a8",
    "resource": {
      "resourceType": "Coverage",
      "id": "aa660db5-d3e9-418c-b5bb-9f56f95679a8",
      "meta": {
        "profile": [ "http://hl7.org/fhir/us/qicore/StructureDefinition/qicore-coverage" ]
      },
      "status": "active",
      "type": {
        "coding": [ {
          "system": "https://nahdo.org/sopt",
          "version": "9.2",
          "code": "11",
          "display": "Medicare Managed Care (Includes Medicare Advantage Plans)"
        } ]
      },
      "subscriberId": "97531",
      "beneficiary": {
        "reference": "Patient/08bd110c-dfda-403c-91cd-34dfc9f16dc8"
      },
      "dependent": "0",
      "relationship": {
        "coding": [ {
          "system": "http://terminology.hl7.org/CodeSystem/subscriber-relationship",
          "code": "self"
        } ]
      },
      "period": {
        "start": "2024-10-01T00:00:00.000+00:00"
      },
      "payor": [ {
        "reference": "Organization/7e6b82c2-16fe-4b30-ac3e-afae38b6617d"
      } ]
    },
    "request": {
      "method": "PUT",
      "url": "Coverage/aa660db5-d3e9-418c-b5bb-9f56f95679a8"
    }
  }, {
    "fullUrl": "https://madie.cms.gov/Encounter/2ed50321-8cdb-4280-8b26-f59607ab6a55",
    "resource": {
      "resourceType": "Encounter",
      "id": "2ed50321-8cdb-4280-8b26-f59607ab6a55",
      "meta": {
        "profile": [ "http://hl7.org/fhir/us/qicore/StructureDefinition/qicore-encounter" ]
      },
      "status": "finished",
      "class": {
        "system": "http://terminology.hl7.org/CodeSystem/v3-ActCode",
        "code": "IMP",
        "display": "inpatient encounter"
      },
      "type": [ {
        "coding": [ {
          "system": "http://snomed.info/sct",
          "code": "183452005"
        } ]
      } ],
      "subject": {
        "reference": "Patient/08bd110c-dfda-403c-91cd-34dfc9f16dc8"
      },
      "period": {
        "start": "2026-08-01T08:00:00.000+00:00",
        "end": "2026-08-07T08:15:00.000+00:00"
      }
    },
    "request": {
      "method": "PUT",
      "url": "Encounter/2ed50321-8cdb-4280-8b26-f59607ab6a55"
    }
  }, {
    "fullUrl": "https://madie.cms.gov/Condition/83a9d51f-b1b8-4234-a9f3-184e93d902f0",
    "resource": {
      "resourceType": "Condition",
      "id": "83a9d51f-b1b8-4234-a9f3-184e93d902f0",
      "meta": {
        "profile": [ "http://hl7.org/fhir/us/qicore/StructureDefinition/qicore-condition-encounter-diagnosis" ]
      },
      "clinicalStatus": {
        "coding": [ {
          "system": "http://terminology.hl7.org/CodeSystem/condition-clinical",
          "code": "active",
          "display": "Active",
          "userSelected": true
        } ]
      },
      "verificationStatus": {
        "coding": [ {
          "system": "http://terminology.hl7.org/CodeSystem/condition-ver-status",
          "code": "confirmed",
          "display": "Confirmed",
          "userSelected": true
        } ]
      },
      "category": [ {
        "coding": [ {
          "system": "http://terminology.hl7.org/CodeSystem/condition-category",
          "code": "encounter-diagnosis",
          "display": "Encounter Diagnosis",
          "userSelected": true
        } ]
      } ],
      "code": {
        "coding": [ {
          "system": "http://snomed.info/sct",
          "code": "190606006",
          "display": "Moderate protein energy malnutrition (disorder)",
          "userSelected": true
        } ]
      },
      "subject": {
        "reference": "Patient/08bd110c-dfda-403c-91cd-34dfc9f16dc8"
      },
      "onsetPeriod": {
        "start": "2026-08-01T08:00:00.000+00:00"
      },
      "recordedDate": "2026-08-01T11:00:00.000+00:00"
    },
    "request": {
      "method": "PUT",
      "url": "Condition/83a9d51f-b1b8-4234-a9f3-184e93d902f0"
    }
  }, {
    "fullUrl": "https://madie.cms.gov/Observation/dc1b1938-ef84-4989-bf01-223626da7e77",
    "resource": {
      "resourceType": "Observation",
      "id": "dc1b1938-ef84-4989-bf01-223626da7e77",
      "meta": {
        "profile": [ "http://hl7.org/fhir/us/qicore/StructureDefinition/qicore-observation-screening-assessment" ]
      },
      "status": "final",
      "category": [ {
        "coding": [ {
          "system": "http://terminology.hl7.org/CodeSystem/observation-category",
          "code": "survey",
          "display": "Survey"
        } ]
      } ],
      "code": {
        "coding": [ {
          "system": "http://loinc.org",
          "code": "75282-4",
          "display": "Nutrition assessment panel",
          "userSelected": true
        } ]
      },
      "subject": {
        "reference": "Patient/08bd110c-dfda-403c-91cd-34dfc9f16dc8"
      },
      "effectiveDateTime": "2026-08-01T10:00:00.000+00:00",
      "valueCodeableConcept": {
        "coding": [ {
          "system": "http://snomed.info/sct",
          "code": "102636009",
          "display": "Chronic nutritional deficiency (finding)",
          "userSelected": true
        } ]
      }
    },
    "request": {
      "method": "PUT",
      "url": "Observation/dc1b1938-ef84-4989-bf01-223626da7e77"
    }
  }, {
    "fullUrl": "https://madie.cms.gov/Observation/5079fd4c-c3b8-4e58-8d04-c31348012062",
    "resource": {
      "resourceType": "Observation",
      "id": "5079fd4c-c3b8-4e58-8d04-c31348012062",
      "meta": {
        "profile": [ "http://hl7.org/fhir/us/qicore/StructureDefinition/qicore-observation-screening-assessment" ]
      },
      "status": "final",
      "category": [ {
        "coding": [ {
          "system": "http://terminology.hl7.org/CodeSystem/observation-category",
          "code": "survey",
          "display": "Survey"
        } ]
      } ],
      "code": {
        "coding": [ {
          "system": "http://loinc.org",
          "code": "98968-1",
          "display": "Initial screening NRS_2002",
          "userSelected": true
        } ]
      },
      "subject": {
        "reference": "Patient/08bd110c-dfda-403c-91cd-34dfc9f16dc8"
      },
      "effectiveDateTime": "2026-08-01T09:00:00.000+00:00",
      "valueCodeableConcept": {
        "coding": [ {
          "system": "http://loinc.org",
          "code": "LA33699-2",
          "display": "Not at risk for malnutrition",
          "userSelected": true
        } ]
      }
    },
    "request": {
      "method": "PUT",
      "url": "Observation/5079fd4c-c3b8-4e58-8d04-c31348012062"
    }
  }, {
    "fullUrl": "https://madie.cms.gov/Procedure/28961112-1b7a-4850-9701-830e9685ec13",
    "resource": {
      "resourceType": "Procedure",
      "id": "28961112-1b7a-4850-9701-830e9685ec13",
      "meta": {
        "profile": [ "http://hl7.org/fhir/us/qicore/StructureDefinition/qicore-procedure" ]
      },
      "extension": [ {
        "url": "http://hl7.org/fhir/us/qicore/StructureDefinition/qicore-recorded",
        "valueDateTime": "2026-02-02T11:30:00.000+00:00"
      } ],
      "status": "completed",
      "code": {
        "coding": [ {
          "system": "http://snomed.info/sct",
          "code": "386372009",
          "display": "Nutrition management (procedure)"
        } ],
        "text": "Nutrition management (procedure)"
      },
      "subject": {
        "reference": "Patient/08bd110c-dfda-403c-91cd-34dfc9f16dc8"
      },
      "encounter": {
        "reference": "Encounter/2EncounterNotAtriskThenAtriskMSROBSPass4"
      },
      "performedPeriod": {
        "start": "2026-08-01T11:30:00.000+00:00",
        "end": "2026-08-07T08:15:00.000+00:00"
      }
    },
    "request": {
      "method": "PUT",
      "url": "Procedure/28961112-1b7a-4850-9701-830e9685ec13"
    }
  }, {
    "fullUrl": "https://madie.cms.gov/Coverage/dc6d2a6e-22f2-43ab-aef8-4dc865ce0c3e",
    "resource": {
      "resourceType": "Coverage",
      "id": "dc6d2a6e-22f2-43ab-aef8-4dc865ce0c3e",
      "meta": {
        "profile": [ "http://hl7.org/fhir/us/qicore/StructureDefinition/qicore-coverage" ]
      },
      "status": "active",
      "type": {
        "coding": [ {
          "system": "https://nahdo.org/sopt",
          "version": "9.2",
          "code": "11",
          "display": "Medicare Managed Care (Includes Medicare Advantage Plans)"
        } ]
      },
      "subscriberId": "97531",
      "beneficiary": {
        "reference": "Patient/08bd110c-dfda-403c-91cd-34dfc9f16dc8"
      },
      "dependent": "0",
      "relationship": {
        "coding": [ {
          "system": "http://terminology.hl7.org/CodeSystem/subscriber-relationship",
          "code": "self"
        } ]
      },
      "period": {
        "start": "2024-10-01T00:00:00.000+00:00"
      },
      "payor": [ {
        "reference": "Organization/7e6b82c2-16fe-4b30-ac3e-afae38b6617d"
      } ]
    },
    "request": {
      "method": "PUT",
      "url": "Coverage/dc6d2a6e-22f2-43ab-aef8-4dc865ce0c3e"
    }
  }, {
    "fullUrl": "https://madie.cms.gov/Organization/7e6b82c2-16fe-4b30-ac3e-afae38b6617d",
    "resource": {
      "resourceType": "Organization",
      "id": "7e6b82c2-16fe-4b30-ac3e-afae38b6617d",
      "meta": {
        "profile": [ "http://hl7.org/fhir/us/qicore/StructureDefinition/qicore-organization" ]
      },
      "identifier": [ {
        "use": "temp",
        "system": "urn:oid:2.16.840.1.113883.4.4",
        "value": "21-3259825"
      } ],
      "active": true,
      "type": [ {
        "coding": [ {
          "system": "http://terminology.hl7.org/CodeSystem/organization-type",
          "code": "pay",
          "display": "Payer"
        } ]
      } ],
      "name": "Blue Cross Blue Shield of Texas",
      "telecom": [ {
        "system": "phone",
        "value": "(+1) 972-766-6900"
      } ],
      "address": [ {
        "use": "billing",
        "type": "postal",
        "line": [ "P.O. Box 660044" ],
        "city": "Dallas",
        "state": "TX",
        "postalCode": "75266-0044",
        "country": "USA"
      } ]
    },
    "request": {
      "method": "PUT",
      "url": "Organization/7e6b82c2-16fe-4b30-ac3e-afae38b6617d"
    }
  }, {
    "fullUrl": "https://madie.cms.gov/MeasureReport/73481ac4-4d8c-4211-a17b-7bb7a85713e4",
    "resource": {
      "resourceType": "MeasureReport",
      "id": "73481ac4-4d8c-4211-a17b-7bb7a85713e4",
      "meta": {
        "profile": [ "http://hl7.org/fhir/us/cqfmeasures/StructureDefinition/test-case-cqfm" ]
      },
      "contained": [ {
        "resourceType": "Parameters",
        "id": "5cd9745e-b718-4971-911e-75ccfd08b40d-parameters",
        "parameter": [ {
          "name": "subject",
          "valueString": "08bd110c-dfda-403c-91cd-34dfc9f16dc8"
        } ]
      } ],
      "extension": [ {
        "url": "http://hl7.org/fhir/StructureDefinition/cqf-inputParameters",
        "valueReference": {
          "reference": "#5cd9745e-b718-4971-911e-75ccfd08b40d-parameters"
        }
      }, {
        "url": "http://hl7.org/fhir/us/cqfmeasures/StructureDefinition/cqfm-testCaseDescription",
        "valueMarkdown": "2 encounters first screen at not risk, second screen at risk, no referrals"
      } ],
      "modifierExtension": [ {
        "url": "http://hl7.org/fhir/us/cqfmeasures/StructureDefinition/cqfm-isTestCase",
        "valueBoolean": true
      } ],
      "status": "complete",
      "type": "individual",
      "measure": "https://madie.cms.gov/Measure/CMS986FHIRMalnutritionScore",
      "period": {
        "start": "2026-01-01",
        "end": "2026-12-31"
      },
      "group": [ {
        "id": "Group_1",
        "population": [ {
          "id": "InitialPopulation_1",
          "code": {
            "coding": [ {
              "system": "http://terminology.hl7.org/CodeSystem/measure-population",
              "code": "initial-population",
              "display": "Initial Population"
            } ]
          },
          "count": 2
        }, {
          "id": "MeasurePopulation_1",
          "code": {
            "coding": [ {
              "system": "http://terminology.hl7.org/CodeSystem/measure-population",
              "code": "measure-population",
              "display": "Measure Population"
            } ]
          },
          "count": 2
        }, {
          "id": "MeasurePopulationExclusion_1",
          "code": {
            "coding": [ {
              "system": "http://terminology.hl7.org/CodeSystem/measure-population",
              "code": "measure-population-exclusion",
              "display": "Measure Population Exclusion"
            } ]
          },
          "count": 0
        }, {
          "id": "MeasureObservation_1_1",
          "code": {
            "coding": [ {
              "system": "http://terminology.hl7.org/CodeSystem/measure-population",
              "code": "measure-population-observation",
              "display": "Measure Population Observation"
            } ]
          },
          "count": 1
        }, {
          "id": "MeasureObservation_1_2",
          "code": {
            "coding": [ {
              "system": "http://terminology.hl7.org/CodeSystem/measure-population",
              "code": "measure-population-observation",
              "display": "Measure Population Observation"
            } ]
          },
          "count": 1
        } ],
        "measureScore": {
          "value": 0.0
        }
      }, {
        "id": "Group_2",
        "population": [ {
          "id": "InitialPopulation_2",
          "code": {
            "coding": [ {
              "system": "http://terminology.hl7.org/CodeSystem/measure-population",
              "code": "initial-population",
              "display": "Initial Population"
            } ]
          },
          "count": 2
        }, {
          "id": "MeasurePopulation_2",
          "code": {
            "coding": [ {
              "system": "http://terminology.hl7.org/CodeSystem/measure-population",
              "code": "measure-population",
              "display": "Measure Population"
            } ]
          },
          "count": 2
        }, {
          "id": "MeasurePopulationExclusion_2",
          "code": {
            "coding": [ {
              "system": "http://terminology.hl7.org/CodeSystem/measure-population",
              "code": "measure-population-exclusion",
              "display": "Measure Population Exclusion"
            } ]
          },
          "count": 0
        }, {
          "id": "MeasureObservation_2_1",
          "code": {
            "coding": [ {
              "system": "http://terminology.hl7.org/CodeSystem/measure-population",
              "code": "measure-population-observation",
              "display": "Measure Population Observation"
            } ]
          },
          "count": 1
        }, {
          "id": "MeasureObservation_2_2",
          "code": {
            "coding": [ {
              "system": "http://terminology.hl7.org/CodeSystem/measure-population",
              "code": "measure-population-observation",
              "display": "Measure Population Observation"
            } ]
          },
          "count": 0
        } ],
        "measureScore": {
          "value": 0.0
        }
      }, {
        "id": "Group_3",
        "population": [ {
          "id": "InitialPopulation_3",
          "code": {
            "coding": [ {
              "system": "http://terminology.hl7.org/CodeSystem/measure-population",
              "code": "initial-population",
              "display": "Initial Population"
            } ]
          },
          "count": 2
        }, {
          "id": "MeasurePopulation_3",
          "code": {
            "coding": [ {
              "system": "http://terminology.hl7.org/CodeSystem/measure-population",
              "code": "measure-population",
              "display": "Measure Population"
            } ]
          },
          "count": 2
        }, {
          "id": "MeasurePopulationExclusion_3",
          "code": {
            "coding": [ {
              "system": "http://terminology.hl7.org/CodeSystem/measure-population",
              "code": "measure-population-exclusion",
              "display": "Measure Population Exclusion"
            } ]
          },
          "count": 0
        }, {
          "id": "MeasureObservation_3_1",
          "code": {
            "coding": [ {
              "system": "http://terminology.hl7.org/CodeSystem/measure-population",
              "code": "measure-population-observation",
              "display": "Measure Population Observation"
            } ]
          },
          "count": 1
        }, {
          "id": "MeasureObservation_3_2",
          "code": {
            "coding": [ {
              "system": "http://terminology.hl7.org/CodeSystem/measure-population",
              "code": "measure-population-observation",
              "display": "Measure Population Observation"
            } ]
          },
          "count": 0
        } ],
        "measureScore": {
          "value": 0.0
        }
      }, {
        "id": "Group_4",
        "population": [ {
          "id": "InitialPopulation_4",
          "code": {
            "coding": [ {
              "system": "http://terminology.hl7.org/CodeSystem/measure-population",
              "code": "initial-population",
              "display": "Initial Population"
            } ]
          },
          "count": 2
        }, {
          "id": "MeasurePopulation_4",
          "code": {
            "coding": [ {
              "system": "http://terminology.hl7.org/CodeSystem/measure-population",
              "code": "measure-population",
              "display": "Measure Population"
            } ]
          },
          "count": 2
        }, {
          "id": "MeasurePopulationExclusion_4",
          "code": {
            "coding": [ {
              "system": "http://terminology.hl7.org/CodeSystem/measure-population",
              "code": "measure-population-exclusion",
              "display": "Measure Population Exclusion"
            } ]
          },
          "count": 0
        }, {
          "id": "MeasureObservation_4_1",
          "code": {
            "coding": [ {
              "system": "http://terminology.hl7.org/CodeSystem/measure-population",
              "code": "measure-population-observation",
              "display": "Measure Population Observation"
            } ]
          },
          "count": 1
        }, {
          "id": "MeasureObservation_4_2",
          "code": {
            "coding": [ {
              "system": "http://terminology.hl7.org/CodeSystem/measure-population",
              "code": "measure-population-observation",
              "display": "Measure Population Observation"
            } ]
          },
          "count": 0
        } ],
        "measureScore": {
          "value": 0.0
        }
      }, {
        "id": "Group_5",
        "population": [ {
          "id": "InitialPopulation_5",
          "code": {
            "coding": [ {
              "system": "http://terminology.hl7.org/CodeSystem/measure-population",
              "code": "initial-population",
              "display": "Initial Population"
            } ]
          },
          "count": 2
        }, {
          "id": "MeasurePopulation_5",
          "code": {
            "coding": [ {
              "system": "http://terminology.hl7.org/CodeSystem/measure-population",
              "code": "measure-population",
              "display": "Measure Population"
            } ]
          },
          "count": 2
        }, {
          "id": "MeasurePopulationExclusion_5",
          "code": {
            "coding": [ {
              "system": "http://terminology.hl7.org/CodeSystem/measure-population",
              "code": "measure-population-exclusion",
              "display": "Measure Population Exclusion"
            } ]
          },
          "count": 0
        }, {
          "id": "MeasureObservation_5_1",
          "code": {
            "coding": [ {
              "system": "http://terminology.hl7.org/CodeSystem/measure-population",
              "code": "measure-population-observation",
              "display": "Measure Population Observation"
            } ]
          },
          "count": 4
        }, {
          "id": "MeasureObservation_5_2",
          "code": {
            "coding": [ {
              "system": "http://terminology.hl7.org/CodeSystem/measure-population",
              "code": "measure-population-observation",
              "display": "Measure Population Observation"
            } ]
          },
          "count": 1
        } ],
        "measureScore": {
          "value": 0.0
        }
      }, {
        "id": "Group_6",
        "population": [ {
          "id": "InitialPopulation_6",
          "code": {
            "coding": [ {
              "system": "http://terminology.hl7.org/CodeSystem/measure-population",
              "code": "initial-population",
              "display": "Initial Population"
            } ]
          },
          "count": 2
        }, {
          "id": "MeasurePopulation_6",
          "code": {
            "coding": [ {
              "system": "http://terminology.hl7.org/CodeSystem/measure-population",
              "code": "measure-population",
              "display": "Measure Population"
            } ]
          },
          "count": 2
        }, {
          "id": "MeasurePopulationExclusion_6",
          "code": {
            "coding": [ {
              "system": "http://terminology.hl7.org/CodeSystem/measure-population",
              "code": "measure-population-exclusion",
              "display": "Measure Population Exclusion"
            } ]
          },
          "count": 0
        }, {
          "id": "MeasureObservation_6_1",
          "code": {
            "coding": [ {
              "system": "http://terminology.hl7.org/CodeSystem/measure-population",
              "code": "measure-population-observation",
              "display": "Measure Population Observation"
            } ]
          },
          "count": 100
        }, {
          "id": "MeasureObservation_6_2",
          "code": {
            "coding": [ {
              "system": "http://terminology.hl7.org/CodeSystem/measure-population",
              "code": "measure-population-observation",
              "display": "Measure Population Observation"
            } ]
          },
          "count": 100
        } ],
        "measureScore": {
          "value": 0.0
        }
      } ],
      "evaluatedResource": [ {
        "reference": "Patient/08bd110c-dfda-403c-91cd-34dfc9f16dc8"
      }, {
        "reference": "Encounter/56f3ca31-a664-4e2a-8a1d-28ae73e26c2c"
      }, {
        "reference": "Condition/569f68c8-77dc-405a-90bf-087a1ae4c87f"
      }, {
        "reference": "Observation/0fcf8f14-b140-42eb-9bb6-f7de5e3dabdf"
      }, {
        "reference": "Observation/c9a61b11-f3d6-490d-bd9e-f149081f074d"
      }, {
        "reference": "Procedure/9df49cdf-c68b-4c26-98b4-18c2ebb1fada"
      }, {
        "reference": "Coverage/aa660db5-d3e9-418c-b5bb-9f56f95679a8"
      }, {
        "reference": "Encounter/2ed50321-8cdb-4280-8b26-f59607ab6a55"
      }, {
        "reference": "Condition/83a9d51f-b1b8-4234-a9f3-184e93d902f0"
      }, {
        "reference": "Observation/dc1b1938-ef84-4989-bf01-223626da7e77"
      }, {
        "reference": "Observation/5079fd4c-c3b8-4e58-8d04-c31348012062"
      }, {
        "reference": "Procedure/28961112-1b7a-4850-9701-830e9685ec13"
      }, {
        "reference": "Coverage/dc6d2a6e-22f2-43ab-aef8-4dc865ce0c3e"
      }, {
        "reference": "Organization/7e6b82c2-16fe-4b30-ac3e-afae38b6617d"
      } ]
    },
    "request": {
      "method": "PUT",
      "url": "MeasureReport/73481ac4-4d8c-4211-a17b-7bb7a85713e4"
    }
  } ]
}