{
  "resourceType": "Bundle",
  "id": "612e6ab302c62a011f2eafaf",
  "type": "transaction",
  "entry": [ {
    "fullUrl": "https://madie.cms.gov/Patient/575f2da0-c890-47a3-b17f-f9e134a1096e",
    "resource": {
      "resourceType": "Patient",
      "id": "575f2da0-c890-47a3-b17f-f9e134a1096e",
      "meta": {
        "profile": [ "http://hl7.org/fhir/us/qicore/StructureDefinition/qicore-patient" ]
      },
      "text": {
        "status": "generated",
        "div": "<div xmlns=\"http://www.w3.org/1999/xhtml\"><div class=\"hapiHeaderText\">PtRef_DA_GCS_DuringED <b>NUMERPASS </b></div><table class=\"hapiPropertyTable\"><tbody><tr><td>Identifier</td><td>5f7ad5e9fc357bf072546722e2c19e60</td></tr><tr><td>Date of birth</td><td><span>02 January 1974</span></td></tr></tbody></table></div>"
      },
      "extension": [ {
        "url": "http://hl7.org/fhir/us/core/StructureDefinition/us-core-race",
        "extension": [ {
          "url": "ombCategory",
          "valueCoding": {
            "system": "urn:oid:2.16.840.1.113883.6.238",
            "code": "1002-5",
            "display": "American Indian or Alaska Native",
            "userSelected": true
          }
        }, {
          "url": "text",
          "valueString": "American Indian or Alaska Native"
        } ]
      }, {
        "url": "http://hl7.org/fhir/us/core/StructureDefinition/us-core-ethnicity",
        "extension": [ {
          "url": "ombCategory",
          "valueCoding": {
            "system": "urn:oid:2.16.840.1.113883.6.238",
            "code": "2135-2",
            "display": "Hispanic or Latino",
            "userSelected": true
          }
        }, {
          "url": "text",
          "valueString": "Hispanic or Latino"
        } ]
      } ],
      "identifier": [ {
        "type": {
          "coding": [ {
            "system": "http://terminology.hl7.org/CodeSystem/v2-0203",
            "code": "MR"
          } ]
        },
        "system": "https://bonnie-fhir.healthit.gov/",
        "value": "612e6ab302c62a011f2eafaf"
      } ],
      "active": true,
      "name": [ {
        "use": "usual",
        "family": "NUMERPass",
        "given": [ "PtRefDAGCSDuringED" ]
      } ],
      "gender": "male",
      "birthDate": "1975-01-02"
    },
    "request": {
      "method": "PUT",
      "url": "Patient/575f2da0-c890-47a3-b17f-f9e134a1096e"
    }
  }, {
    "fullUrl": "https://madie.cms.gov/Encounter/d7acd8dd-9d95-42d7-bfb3-7360123d8dee",
    "resource": {
      "resourceType": "Encounter",
      "id": "d7acd8dd-9d95-42d7-bfb3-7360123d8dee",
      "meta": {
        "profile": [ "http://hl7.org/fhir/us/qicore/StructureDefinition/qicore-encounter" ]
      },
      "status": "finished",
      "class": {
        "system": "http://terminology.hl7.org/CodeSystem/v3-ActCode",
        "code": "EMER",
        "display": "emergency"
      },
      "type": [ {
        "coding": [ {
          "system": "http://snomed.info/sct",
          "code": "4525004"
        } ]
      } ],
      "subject": {
        "reference": "Patient/575f2da0-c890-47a3-b17f-f9e134a1096e"
      },
      "period": {
        "start": "2026-10-31T05:00:00.000+00:00",
        "end": "2026-11-01T07:15:00.000+00:00"
      },
      "length": {
        "value": 1,
        "unit": "days"
      }
    },
    "request": {
      "method": "PUT",
      "url": "Encounter/d7acd8dd-9d95-42d7-bfb3-7360123d8dee"
    }
  }, {
    "fullUrl": "https://madie.cms.gov/Encounter/a21d3af6-dd67-44a7-85d8-70abf4e8c3ba",
    "resource": {
      "resourceType": "Encounter",
      "id": "a21d3af6-dd67-44a7-85d8-70abf4e8c3ba",
      "meta": {
        "profile": [ "http://hl7.org/fhir/us/qicore/StructureDefinition/qicore-encounter" ]
      },
      "status": "finished",
      "class": {
        "system": "http://terminology.hl7.org/CodeSystem/v3-ActCode",
        "code": "IMP",
        "display": "inpatient encounter"
      },
      "type": [ {
        "coding": [ {
          "system": "http://snomed.info/sct",
          "code": "8715000"
        } ]
      } ],
      "subject": {
        "reference": "Patient/575f2da0-c890-47a3-b17f-f9e134a1096e"
      },
      "period": {
        "start": "2026-11-01T08:00:00.000+00:00",
        "end": "2026-11-26T08:15:00.000+00:00"
      },
      "length": {
        "value": 25,
        "unit": "days"
      }
    },
    "request": {
      "method": "PUT",
      "url": "Encounter/a21d3af6-dd67-44a7-85d8-70abf4e8c3ba"
    }
  }, {
    "fullUrl": "https://madie.cms.gov/Coverage/62d24d63-c394-4d8f-9dbb-baeff49472aa",
    "resource": {
      "resourceType": "Coverage",
      "id": "62d24d63-c394-4d8f-9dbb-baeff49472aa",
      "status": "active",
      "beneficiary": {
        "reference": "Patient/575f2da0-c890-47a3-b17f-f9e134a1096e"
      },
      "period": {
        "start": "1975-01-02T08:00:00.000+00:00"
      },
      "payor": [ {
        "reference": "Organization/ed085560-8dd6-4445-9cc4-22f620743cfa"
      } ]
    },
    "request": {
      "method": "PUT",
      "url": "Coverage/62d24d63-c394-4d8f-9dbb-baeff49472aa"
    }
  }, {
    "fullUrl": "https://madie.cms.gov/Procedure/2233b3a7-5f91-4ae8-84a1-a262f3044b00",
    "resource": {
      "resourceType": "Procedure",
      "id": "2233b3a7-5f91-4ae8-84a1-a262f3044b00",
      "meta": {
        "profile": [ "http://hl7.org/fhir/us/qicore/StructureDefinition/qicore-procedurenotdone" ]
      },
      "extension": [ {
        "url": "http://hl7.org/fhir/us/qicore/StructureDefinition/qicore-recorded",
        "valueDateTime": "2026-10-31T21:35:00.000+00:00"
      } ],
      "status": "not-done",
      "statusReason": {
        "coding": [ {
          "system": "http://snomed.info/sct",
          "code": "443390004",
          "display": "Refused (qualifier value)",
          "userSelected": true
        } ]
      },
      "code": {
        "coding": [ {
          "system": "http://snomed.info/sct",
          "version": "2025-03",
          "code": "229511001",
          "display": "Application of graduated compression garment (procedure)",
          "userSelected": true
        } ]
      },
      "subject": {
        "reference": "Patient/575f2da0-c890-47a3-b17f-f9e134a1096e"
      },
      "_performedDateTime": {
        "extension": [ {
          "url": "http://hl7.org/fhir/StructureDefinition/data-absent-reason",
          "valueCode": "not-performed"
        } ]
      }
    },
    "request": {
      "method": "PUT",
      "url": "Procedure/2233b3a7-5f91-4ae8-84a1-a262f3044b00"
    }
  }, {
    "fullUrl": "https://madie.cms.gov/Organization/ed085560-8dd6-4445-9cc4-22f620743cfa",
    "resource": {
      "resourceType": "Organization",
      "id": "ed085560-8dd6-4445-9cc4-22f620743cfa",
      "meta": {
        "profile": [ "http://hl7.org/fhir/us/qicore/StructureDefinition/qicore-organization" ]
      },
      "identifier": [ {
        "use": "temp",
        "system": "urn:oid:2.16.840.1.113883.4.4",
        "value": "21-3259825"
      } ],
      "active": true,
      "type": [ {
        "coding": [ {
          "system": "http://terminology.hl7.org/CodeSystem/organization-type",
          "code": "pay",
          "display": "Payer"
        } ]
      } ],
      "name": "Blue Cross Blue Shield of Texas",
      "telecom": [ {
        "system": "phone",
        "value": "(+1) 972-766-6900"
      } ],
      "address": [ {
        "use": "billing",
        "type": "postal",
        "line": [ "P.O. Box 660044" ],
        "city": "Dallas",
        "state": "TX",
        "postalCode": "75266-0044",
        "country": "USA"
      } ]
    },
    "request": {
      "method": "PUT",
      "url": "Organization/ed085560-8dd6-4445-9cc4-22f620743cfa"
    }
  }, {
    "fullUrl": "https://madie.cms.gov/Practitioner/eebb9553-fecb-444f-8d2f-daeb6a0bf78c",
    "resource": {
      "resourceType": "Practitioner",
      "id": "eebb9553-fecb-444f-8d2f-daeb6a0bf78c",
      "identifier": [ {
        "system": "http://hl7.org/fhir/sid/us-npi",
        "value": "123456"
      } ],
      "name": [ {
        "family": "Evil",
        "prefix": [ "Dr" ]
      } ]
    },
    "request": {
      "method": "PUT",
      "url": "Practitioner/eebb9553-fecb-444f-8d2f-daeb6a0bf78c"
    }
  }, {
    "fullUrl": "https://madie.cms.gov/MeasureReport/1f13d7d0-55ce-47e5-8a23-cb74963fc616",
    "resource": {
      "resourceType": "MeasureReport",
      "id": "1f13d7d0-55ce-47e5-8a23-cb74963fc616",
      "meta": {
        "profile": [ "http://hl7.org/fhir/us/cqfmeasures/StructureDefinition/test-case-cqfm" ]
      },
      "contained": [ {
        "resourceType": "Parameters",
        "id": "ff52827b-9a7c-46fe-a342-ca5c8368cce9-parameters",
        "parameter": [ {
          "name": "subject",
          "valueString": "575f2da0-c890-47a3-b17f-f9e134a1096e"
        } ]
      } ],
      "extension": [ {
        "url": "http://hl7.org/fhir/StructureDefinition/cqf-inputParameters",
        "valueReference": {
          "reference": "#ff52827b-9a7c-46fe-a342-ca5c8368cce9-parameters"
        }
      }, {
        "url": "http://hl7.org/fhir/us/cqfmeasures/StructureDefinition/cqfm-testCaseDescription",
        "valueMarkdown": "GCS refused in ED \n"
      } ],
      "modifierExtension": [ {
        "url": "http://hl7.org/fhir/us/cqfmeasures/StructureDefinition/cqfm-isTestCase",
        "valueBoolean": true
      } ],
      "status": "complete",
      "type": "individual",
      "measure": "https://madie.cms.gov/Measure/CMS108FHIRVTEProphylaxis",
      "period": {
        "start": "2026-01-01",
        "end": "2026-12-31"
      },
      "group": [ {
        "id": "Group_1",
        "population": [ {
          "id": "InitialPopulation_1",
          "code": {
            "coding": [ {
              "system": "http://terminology.hl7.org/CodeSystem/measure-population",
              "code": "initial-population",
              "display": "Initial Population"
            } ]
          },
          "count": 1
        }, {
          "id": "Denominator_1",
          "code": {
            "coding": [ {
              "system": "http://terminology.hl7.org/CodeSystem/measure-population",
              "code": "denominator",
              "display": "Denominator"
            } ]
          },
          "count": 1
        }, {
          "id": "DenominatorExclusion_1",
          "code": {
            "coding": [ {
              "system": "http://terminology.hl7.org/CodeSystem/measure-population",
              "code": "denominator-exclusion",
              "display": "Denominator Exclusion"
            } ]
          },
          "count": 0
        }, {
          "id": "Numerator_1",
          "code": {
            "coding": [ {
              "system": "http://terminology.hl7.org/CodeSystem/measure-population",
              "code": "numerator",
              "display": "Numerator"
            } ]
          },
          "count": 1
        } ],
        "measureScore": {
          "value": 0.0
        }
      } ],
      "evaluatedResource": [ {
        "reference": "Patient/575f2da0-c890-47a3-b17f-f9e134a1096e"
      }, {
        "reference": "Encounter/d7acd8dd-9d95-42d7-bfb3-7360123d8dee"
      }, {
        "reference": "Encounter/a21d3af6-dd67-44a7-85d8-70abf4e8c3ba"
      }, {
        "reference": "Coverage/62d24d63-c394-4d8f-9dbb-baeff49472aa"
      }, {
        "reference": "Procedure/2233b3a7-5f91-4ae8-84a1-a262f3044b00"
      }, {
        "reference": "Organization/ed085560-8dd6-4445-9cc4-22f620743cfa"
      }, {
        "reference": "Practitioner/eebb9553-fecb-444f-8d2f-daeb6a0bf78c"
      } ]
    },
    "request": {
      "method": "PUT",
      "url": "MeasureReport/1f13d7d0-55ce-47e5-8a23-cb74963fc616"
    }
  } ]
}