{
  "resourceType": "Bundle",
  "id": "63487c2f0968f8012254019c",
  "type": "transaction",
  "entry": [ {
    "fullUrl": "https://madie.cms.gov/Patient/36133ed8-3505-4735-bfb1-f02fb288557f",
    "resource": {
      "resourceType": "Patient",
      "id": "36133ed8-3505-4735-bfb1-f02fb288557f",
      "meta": {
        "profile": [ "http://hl7.org/fhir/us/qicore/StructureDefinition/qicore-patient" ]
      },
      "text": {
        "status": "generated",
        "div": "<div xmlns=\"http://www.w3.org/1999/xhtml\"><div class=\"hapiHeaderText\">2EGAsFirstEQ37LastEQ36 <b>DENFAIL </b></div><table class=\"hapiPropertyTable\"><tbody><tr><td>Identifier</td><td>73d161bbd72a0b8d656073de21758ea0022c984462702bb844daf97a7291f479</td></tr><tr><td>Date of birth</td><td><span>14 February 1985</span></td></tr></tbody></table></div>"
      },
      "extension": [ {
        "url": "http://hl7.org/fhir/us/core/StructureDefinition/us-core-race",
        "extension": [ {
          "url": "ombCategory",
          "valueCoding": {
            "system": "urn:oid:2.16.840.1.113883.6.238",
            "code": "1002-5",
            "display": "American Indian or Alaska Native",
            "userSelected": true
          }
        }, {
          "url": "text",
          "valueString": "American Indian or Alaska Native"
        } ]
      }, {
        "url": "http://hl7.org/fhir/us/core/StructureDefinition/us-core-ethnicity",
        "extension": [ {
          "url": "ombCategory",
          "valueCoding": {
            "system": "urn:oid:2.16.840.1.113883.6.238",
            "code": "2135-2",
            "display": "Hispanic or Latino",
            "userSelected": true
          }
        }, {
          "url": "text",
          "valueString": "Hispanic or Latino"
        } ]
      } ],
      "identifier": [ {
        "type": {
          "coding": [ {
            "system": "http://terminology.hl7.org/CodeSystem/v2-0203",
            "code": "MR"
          } ]
        },
        "system": "https://bonnie-fhir.healthit.gov/",
        "value": "63487c2f0968f8012254019c"
      } ],
      "active": true,
      "name": [ {
        "use": "usual",
        "family": "DENFail",
        "given": [ "2EGAsFirstEQ37LastEQ36  " ]
      } ],
      "gender": "female",
      "birthDate": "1998-02-14"
    },
    "request": {
      "method": "PUT",
      "url": "Patient/36133ed8-3505-4735-bfb1-f02fb288557f"
    }
  }, {
    "fullUrl": "https://madie.cms.gov/Observation/d96ea66f-2ac5-4fa6-a390-ccd71b996dc4",
    "resource": {
      "resourceType": "Observation",
      "id": "d96ea66f-2ac5-4fa6-a390-ccd71b996dc4",
      "meta": {
        "profile": [ "http://hl7.org/fhir/us/qicore/StructureDefinition/qicore-simple-observation" ]
      },
      "status": "final",
      "category": [ {
        "coding": [ {
          "system": "http://terminology.hl7.org/CodeSystem/observation-category",
          "code": "exam",
          "display": "exam",
          "userSelected": true
        } ]
      } ],
      "code": {
        "coding": [ {
          "system": "http://loinc.org",
          "code": "11996-6"
        } ]
      },
      "subject": {
        "reference": "Patient/36133ed8-3505-4735-bfb1-f02fb288557f"
      },
      "effectiveDateTime": "2026-06-08T08:00:00.000+00:00",
      "valueInteger": 1
    },
    "request": {
      "method": "PUT",
      "url": "Observation/d96ea66f-2ac5-4fa6-a390-ccd71b996dc4"
    }
  }, {
    "fullUrl": "https://madie.cms.gov/Observation/874acfad-4ba1-4c05-b658-e1c968708da5",
    "resource": {
      "resourceType": "Observation",
      "id": "874acfad-4ba1-4c05-b658-e1c968708da5",
      "meta": {
        "profile": [ "http://hl7.org/fhir/us/qicore/StructureDefinition/qicore-simple-observation" ]
      },
      "status": "final",
      "category": [ {
        "coding": [ {
          "system": "http://terminology.hl7.org/CodeSystem/observation-category",
          "code": "exam",
          "display": "exam",
          "userSelected": true
        } ]
      } ],
      "code": {
        "coding": [ {
          "system": "http://loinc.org",
          "code": "11884-4"
        } ]
      },
      "subject": {
        "reference": "Patient/36133ed8-3505-4735-bfb1-f02fb288557f"
      },
      "effectiveDateTime": "2026-06-08T09:15:00.000+00:00",
      "valueQuantity": {
        "value": 36,
        "system": "http://unitsofmeasure.org",
        "code": "wk"
      }
    },
    "request": {
      "method": "PUT",
      "url": "Observation/874acfad-4ba1-4c05-b658-e1c968708da5"
    }
  }, {
    "fullUrl": "https://madie.cms.gov/Observation/4cb13e06-c2b4-4c01-aede-8f2ca13fcfac",
    "resource": {
      "resourceType": "Observation",
      "id": "4cb13e06-c2b4-4c01-aede-8f2ca13fcfac",
      "meta": {
        "profile": [ "http://hl7.org/fhir/us/qicore/StructureDefinition/qicore-simple-observation" ]
      },
      "status": "final",
      "category": [ {
        "coding": [ {
          "system": "http://terminology.hl7.org/CodeSystem/observation-category",
          "code": "exam",
          "display": "exam",
          "userSelected": true
        } ]
      } ],
      "code": {
        "coding": [ {
          "system": "http://loinc.org",
          "code": "93857-1"
        } ]
      },
      "subject": {
        "reference": "Patient/36133ed8-3505-4735-bfb1-f02fb288557f"
      },
      "effectiveDateTime": "2026-06-08T09:15:00.000+00:00",
      "valueDateTime": "2026-06-08T09:15:00.000+00:00"
    },
    "request": {
      "method": "PUT",
      "url": "Observation/4cb13e06-c2b4-4c01-aede-8f2ca13fcfac"
    }
  }, {
    "fullUrl": "https://madie.cms.gov/Observation/be511ff8-a0b5-458d-84d0-c41ba7745e32",
    "resource": {
      "resourceType": "Observation",
      "id": "be511ff8-a0b5-458d-84d0-c41ba7745e32",
      "meta": {
        "profile": [ "http://hl7.org/fhir/us/qicore/StructureDefinition/qicore-simple-observation" ]
      },
      "status": "final",
      "category": [ {
        "coding": [ {
          "system": "http://terminology.hl7.org/CodeSystem/observation-category",
          "code": "exam",
          "display": "exam",
          "userSelected": true
        } ]
      } ],
      "code": {
        "coding": [ {
          "system": "http://loinc.org",
          "code": "11884-4"
        } ]
      },
      "subject": {
        "reference": "Patient/36133ed8-3505-4735-bfb1-f02fb288557f"
      },
      "effectiveDateTime": "2026-06-08T09:00:00.000+00:00",
      "valueQuantity": {
        "value": 37,
        "system": "http://unitsofmeasure.org",
        "code": "wk"
      }
    },
    "request": {
      "method": "PUT",
      "url": "Observation/be511ff8-a0b5-458d-84d0-c41ba7745e32"
    }
  }, {
    "fullUrl": "https://madie.cms.gov/Encounter/b572432f-156b-4e0d-818e-a28b764c5eac",
    "resource": {
      "resourceType": "Encounter",
      "id": "b572432f-156b-4e0d-818e-a28b764c5eac",
      "meta": {
        "profile": [ "http://hl7.org/fhir/us/qicore/StructureDefinition/qicore-encounter" ]
      },
      "status": "finished",
      "class": {
        "system": "http://terminology.hl7.org/CodeSystem/v3-ActCode",
        "code": "IMP",
        "display": "inpatient encounter"
      },
      "type": [ {
        "coding": [ {
          "system": "http://snomed.info/sct",
          "code": "183452005"
        } ]
      } ],
      "subject": {
        "reference": "Patient/36133ed8-3505-4735-bfb1-f02fb288557f"
      },
      "period": {
        "start": "2026-06-08T08:00:00.000+00:00",
        "end": "2026-06-10T08:15:00.000+00:00"
      },
      "length": {
        "value": 2,
        "unit": "days"
      },
      "reasonReference": [ {
        "reference": "Condition/delivery-of-singleton-f83c"
      } ]
    },
    "request": {
      "method": "PUT",
      "url": "Encounter/b572432f-156b-4e0d-818e-a28b764c5eac"
    }
  }, {
    "fullUrl": "https://madie.cms.gov/Procedure/8688f5ea-aa40-4c83-bb2d-c2bb97f30d23",
    "resource": {
      "resourceType": "Procedure",
      "id": "8688f5ea-aa40-4c83-bb2d-c2bb97f30d23",
      "meta": {
        "profile": [ "http://hl7.org/fhir/us/qicore/StructureDefinition/qicore-procedure" ]
      },
      "extension": [ {
        "url": "http://hl7.org/fhir/us/qicore/StructureDefinition/qicore-recorded",
        "valueDateTime": "2014-04-05T13:35:00.000+00:00"
      } ],
      "status": "completed",
      "code": {
        "coding": [ {
          "system": "http://www.cms.gov/Medicare/Coding/ICD10",
          "code": "10D00Z0"
        } ]
      },
      "subject": {
        "reference": "Patient/36133ed8-3505-4735-bfb1-f02fb288557f"
      },
      "performedPeriod": {
        "start": "2026-06-08T08:00:00.000+00:00",
        "end": "2026-06-08T09:15:00.000+00:00"
      }
    },
    "request": {
      "method": "PUT",
      "url": "Procedure/8688f5ea-aa40-4c83-bb2d-c2bb97f30d23"
    }
  }, {
    "fullUrl": "https://madie.cms.gov/Condition/d91cb334-5fb4-4857-8cc7-4d0d44bb2455",
    "resource": {
      "resourceType": "Condition",
      "id": "d91cb334-5fb4-4857-8cc7-4d0d44bb2455",
      "meta": {
        "profile": [ "http://hl7.org/fhir/us/qicore/StructureDefinition/qicore-condition" ]
      },
      "category": [ {
        "coding": [ {
          "system": "http://terminology.hl7.org/CodeSystem/condition-category",
          "code": "encounter-diagnosis",
          "display": "Encounter Diagnosis"
        } ]
      } ],
      "code": {
        "coding": [ {
          "system": "http://snomed.info/sct",
          "code": "169826009",
          "display": "Single live birth (finding)"
        } ]
      },
      "subject": {
        "reference": "Patient/36133ed8-3505-4735-bfb1-f02fb288557f"
      }
    },
    "request": {
      "method": "PUT",
      "url": "Condition/d91cb334-5fb4-4857-8cc7-4d0d44bb2455"
    }
  }, {
    "fullUrl": "https://madie.cms.gov/Coverage/0fa9cc72-19de-4f3b-9724-5e096ac6bc60",
    "resource": {
      "resourceType": "Coverage",
      "id": "0fa9cc72-19de-4f3b-9724-5e096ac6bc60",
      "meta": {
        "profile": [ "http://hl7.org/fhir/us/qicore/StructureDefinition/qicore-coverage" ]
      },
      "status": "active",
      "beneficiary": {
        "reference": "Patient/36133ed8-3505-4735-bfb1-f02fb288557f"
      },
      "payor": [ {
        "reference": "Organization/19958dae-5d94-4119-91cd-7ce76f4c8622"
      } ]
    },
    "request": {
      "method": "PUT",
      "url": "Coverage/0fa9cc72-19de-4f3b-9724-5e096ac6bc60"
    }
  }, {
    "fullUrl": "https://madie.cms.gov/Organization/19958dae-5d94-4119-91cd-7ce76f4c8622",
    "resource": {
      "resourceType": "Organization",
      "id": "19958dae-5d94-4119-91cd-7ce76f4c8622",
      "meta": {
        "profile": [ "http://hl7.org/fhir/us/qicore/StructureDefinition/qicore-organization" ]
      },
      "identifier": [ {
        "use": "temp",
        "system": "urn:oid:2.16.840.1.113883.4.4",
        "value": "21-3259825"
      } ],
      "active": true,
      "type": [ {
        "coding": [ {
          "system": "http://terminology.hl7.org/CodeSystem/organization-type",
          "code": "pay",
          "display": "Payer"
        } ]
      } ],
      "name": "Blue Cross Blue Shield of Texas",
      "telecom": [ {
        "system": "phone",
        "value": "(+1) 972-766-6900"
      } ],
      "address": [ {
        "use": "billing",
        "type": "postal",
        "line": [ "P.O. Box 660044" ],
        "city": "Dallas",
        "state": "TX",
        "postalCode": "75266-0044",
        "country": "USA"
      } ]
    },
    "request": {
      "method": "PUT",
      "url": "Organization/19958dae-5d94-4119-91cd-7ce76f4c8622"
    }
  }, {
    "fullUrl": "https://madie.cms.gov/Practitioner/f6f68d6d-8403-4b94-b9fb-8a4cd1f177cb",
    "resource": {
      "resourceType": "Practitioner",
      "id": "f6f68d6d-8403-4b94-b9fb-8a4cd1f177cb",
      "identifier": [ {
        "system": "http://hl7.org/fhir/sid/us-npi",
        "value": "123456"
      } ],
      "name": [ {
        "family": "Evil",
        "prefix": [ "Dr" ]
      } ]
    },
    "request": {
      "method": "PUT",
      "url": "Practitioner/f6f68d6d-8403-4b94-b9fb-8a4cd1f177cb"
    }
  }, {
    "fullUrl": "https://madie.cms.gov/MeasureReport/a0be5316-4619-43bc-986d-9d0164c0b7f8",
    "resource": {
      "resourceType": "MeasureReport",
      "id": "a0be5316-4619-43bc-986d-9d0164c0b7f8",
      "meta": {
        "profile": [ "http://hl7.org/fhir/us/cqfmeasures/StructureDefinition/test-case-cqfm" ]
      },
      "contained": [ {
        "resourceType": "Parameters",
        "id": "685c2aac-7020-4535-b954-fa78475dd542-parameters",
        "parameter": [ {
          "name": "subject",
          "valueString": "36133ed8-3505-4735-bfb1-f02fb288557f"
        } ]
      } ],
      "extension": [ {
        "url": "http://hl7.org/fhir/StructureDefinition/cqf-inputParameters",
        "valueReference": {
          "reference": "#685c2aac-7020-4535-b954-fa78475dd542-parameters"
        }
      }, {
        "url": "http://hl7.org/fhir/us/cqfmeasures/StructureDefinition/cqfm-testCaseDescription",
        "valueMarkdown": "Passes: IP, Pt is 27 years of age,  encounter dx of delivery of singleton, gravida, EGA 36 weeks\n"
      } ],
      "modifierExtension": [ {
        "url": "http://hl7.org/fhir/us/cqfmeasures/StructureDefinition/cqfm-isTestCase",
        "valueBoolean": true
      } ],
      "status": "complete",
      "type": "individual",
      "measure": "https://madie.cms.gov/Measure/CMS0334FHIRPCCesareanBirth",
      "period": {
        "start": "2026-01-01",
        "end": "2026-12-31"
      },
      "group": [ {
        "id": "Group_1",
        "population": [ {
          "id": "InitialPopulation_1",
          "code": {
            "coding": [ {
              "system": "http://terminology.hl7.org/CodeSystem/measure-population",
              "code": "initial-population",
              "display": "Initial Population"
            } ]
          },
          "count": 1
        }, {
          "id": "Denominator_1",
          "code": {
            "coding": [ {
              "system": "http://terminology.hl7.org/CodeSystem/measure-population",
              "code": "denominator",
              "display": "Denominator"
            } ]
          },
          "count": 0
        }, {
          "id": "DenominatorExclusion_1",
          "code": {
            "coding": [ {
              "system": "http://terminology.hl7.org/CodeSystem/measure-population",
              "code": "denominator-exclusion",
              "display": "Denominator Exclusion"
            } ]
          },
          "count": 0
        }, {
          "id": "Numerator_1",
          "code": {
            "coding": [ {
              "system": "http://terminology.hl7.org/CodeSystem/measure-population",
              "code": "numerator",
              "display": "Numerator"
            } ]
          },
          "count": 0
        } ],
        "measureScore": {
          "value": 0.0
        }
      } ],
      "evaluatedResource": [ {
        "reference": "Patient/36133ed8-3505-4735-bfb1-f02fb288557f"
      }, {
        "reference": "Observation/d96ea66f-2ac5-4fa6-a390-ccd71b996dc4"
      }, {
        "reference": "Observation/874acfad-4ba1-4c05-b658-e1c968708da5"
      }, {
        "reference": "Observation/4cb13e06-c2b4-4c01-aede-8f2ca13fcfac"
      }, {
        "reference": "Observation/be511ff8-a0b5-458d-84d0-c41ba7745e32"
      }, {
        "reference": "Encounter/b572432f-156b-4e0d-818e-a28b764c5eac"
      }, {
        "reference": "Procedure/8688f5ea-aa40-4c83-bb2d-c2bb97f30d23"
      }, {
        "reference": "Condition/d91cb334-5fb4-4857-8cc7-4d0d44bb2455"
      }, {
        "reference": "Coverage/0fa9cc72-19de-4f3b-9724-5e096ac6bc60"
      }, {
        "reference": "Organization/19958dae-5d94-4119-91cd-7ce76f4c8622"
      }, {
        "reference": "Practitioner/f6f68d6d-8403-4b94-b9fb-8a4cd1f177cb"
      } ]
    },
    "request": {
      "method": "PUT",
      "url": "MeasureReport/a0be5316-4619-43bc-986d-9d0164c0b7f8"
    }
  } ]
}