{
  "resourceType": "Bundle",
  "id": "63487c2e0968f8012254017b",
  "type": "transaction",
  "entry": [ {
    "fullUrl": "https://madie.cms.gov/Patient/70ec8c1c-3aa7-4f7b-9cc7-b803fd905b80",
    "resource": {
      "resourceType": "Patient",
      "id": "70ec8c1c-3aa7-4f7b-9cc7-b803fd905b80",
      "meta": {
        "profile": [ "http://hl7.org/fhir/us/qicore/StructureDefinition/qicore-patient" ]
      },
      "text": {
        "status": "generated",
        "div": "<div xmlns=\"http://www.w3.org/1999/xhtml\"><div class=\"hapiHeaderText\">ProcCSectEndGTEncEnd <b>NUMFAIL </b></div><table class=\"hapiPropertyTable\"><tbody><tr><td>Identifier</td><td>5207b81143c57a177c53244c0ebecd69b59ad095b3dd7336dd907639a51be643</td></tr><tr><td>Date of birth</td><td><span>14 February 1985</span></td></tr></tbody></table></div>"
      },
      "extension": [ {
        "url": "http://hl7.org/fhir/us/core/StructureDefinition/us-core-race",
        "extension": [ {
          "url": "ombCategory",
          "valueCoding": {
            "system": "urn:oid:2.16.840.1.113883.6.238",
            "code": "1002-5",
            "display": "American Indian or Alaska Native",
            "userSelected": true
          }
        }, {
          "url": "text",
          "valueString": "American Indian or Alaska Native"
        } ]
      }, {
        "url": "http://hl7.org/fhir/us/core/StructureDefinition/us-core-ethnicity",
        "extension": [ {
          "url": "ombCategory",
          "valueCoding": {
            "system": "urn:oid:2.16.840.1.113883.6.238",
            "code": "2135-2",
            "display": "Hispanic or Latino",
            "userSelected": true
          }
        }, {
          "url": "text",
          "valueString": "Hispanic or Latino"
        } ]
      } ],
      "identifier": [ {
        "type": {
          "coding": [ {
            "system": "http://terminology.hl7.org/CodeSystem/v2-0203",
            "code": "MR"
          } ]
        },
        "system": "https://bonnie-fhir.healthit.gov/",
        "value": "63487c2e0968f8012254017b"
      } ],
      "active": true,
      "name": [ {
        "use": "usual",
        "family": "NUMFail",
        "given": [ "ProcCSectEndGTEncEnd" ]
      } ],
      "gender": "female",
      "birthDate": "1998-02-14"
    },
    "request": {
      "method": "PUT",
      "url": "Patient/70ec8c1c-3aa7-4f7b-9cc7-b803fd905b80"
    }
  }, {
    "fullUrl": "https://madie.cms.gov/Observation/51d446f8-83f9-4382-a9b2-0032720440fb",
    "resource": {
      "resourceType": "Observation",
      "id": "51d446f8-83f9-4382-a9b2-0032720440fb",
      "meta": {
        "profile": [ "http://hl7.org/fhir/us/qicore/StructureDefinition/qicore-simple-observation" ]
      },
      "status": "final",
      "category": [ {
        "coding": [ {
          "system": "http://terminology.hl7.org/CodeSystem/observation-category",
          "code": "exam",
          "display": "exam",
          "userSelected": true
        } ]
      } ],
      "code": {
        "coding": [ {
          "system": "http://loinc.org",
          "code": "11996-6"
        } ]
      },
      "subject": {
        "reference": "Patient/70ec8c1c-3aa7-4f7b-9cc7-b803fd905b80"
      },
      "effectiveDateTime": "2026-02-28T08:00:00.000+00:00",
      "valueInteger": 1
    },
    "request": {
      "method": "PUT",
      "url": "Observation/51d446f8-83f9-4382-a9b2-0032720440fb"
    }
  }, {
    "fullUrl": "https://madie.cms.gov/Observation/c162d765-28f6-46e6-a868-323a79122b65",
    "resource": {
      "resourceType": "Observation",
      "id": "c162d765-28f6-46e6-a868-323a79122b65",
      "meta": {
        "profile": [ "http://hl7.org/fhir/us/qicore/StructureDefinition/qicore-simple-observation" ]
      },
      "status": "final",
      "category": [ {
        "coding": [ {
          "system": "http://terminology.hl7.org/CodeSystem/observation-category",
          "code": "exam",
          "display": "exam",
          "userSelected": true
        } ]
      } ],
      "code": {
        "coding": [ {
          "system": "http://loinc.org",
          "code": "11884-4"
        } ]
      },
      "subject": {
        "reference": "Patient/70ec8c1c-3aa7-4f7b-9cc7-b803fd905b80"
      },
      "effectiveDateTime": "2026-11-28T21:15:00.000+00:00",
      "valueQuantity": {
        "value": 40,
        "system": "http://unitsofmeasure.org",
        "code": "wk"
      }
    },
    "request": {
      "method": "PUT",
      "url": "Observation/c162d765-28f6-46e6-a868-323a79122b65"
    }
  }, {
    "fullUrl": "https://madie.cms.gov/Observation/b94e6a95-a33e-4ccc-914f-45a2a5013394",
    "resource": {
      "resourceType": "Observation",
      "id": "b94e6a95-a33e-4ccc-914f-45a2a5013394",
      "meta": {
        "profile": [ "http://hl7.org/fhir/us/qicore/StructureDefinition/qicore-simple-observation" ]
      },
      "status": "final",
      "category": [ {
        "coding": [ {
          "system": "http://terminology.hl7.org/CodeSystem/observation-category",
          "code": "exam",
          "display": "exam",
          "userSelected": true
        } ]
      } ],
      "code": {
        "coding": [ {
          "system": "http://loinc.org",
          "code": "93857-1"
        } ]
      },
      "subject": {
        "reference": "Patient/70ec8c1c-3aa7-4f7b-9cc7-b803fd905b80"
      },
      "effectiveDateTime": "2026-11-28T21:15:00.000+00:00",
      "valueDateTime": "2026-11-28T21:15:00.000+00:00"
    },
    "request": {
      "method": "PUT",
      "url": "Observation/b94e6a95-a33e-4ccc-914f-45a2a5013394"
    }
  }, {
    "fullUrl": "https://madie.cms.gov/Encounter/2118ba79-f5a4-4795-adbf-2269b6206048",
    "resource": {
      "resourceType": "Encounter",
      "id": "2118ba79-f5a4-4795-adbf-2269b6206048",
      "meta": {
        "profile": [ "http://hl7.org/fhir/us/qicore/StructureDefinition/qicore-encounter" ]
      },
      "status": "finished",
      "class": {
        "system": "http://terminology.hl7.org/CodeSystem/v3-ActCode",
        "code": "IMP",
        "display": "inpatient encounter"
      },
      "type": [ {
        "coding": [ {
          "system": "http://snomed.info/sct",
          "code": "8715000"
        } ]
      } ],
      "subject": {
        "reference": "Patient/70ec8c1c-3aa7-4f7b-9cc7-b803fd905b80"
      },
      "period": {
        "start": "2026-11-28T08:00:00.000+00:00",
        "end": "2026-11-30T08:15:00.000+00:00"
      },
      "reasonReference": [ {
        "reference": "Condition/b074a74f-2a7e-461b-8fef-5ba2a992d51f"
      } ]
    },
    "request": {
      "method": "PUT",
      "url": "Encounter/2118ba79-f5a4-4795-adbf-2269b6206048"
    }
  }, {
    "fullUrl": "https://madie.cms.gov/Procedure/23900dd8-5f7d-455c-8f8d-ebd9ef873c67",
    "resource": {
      "resourceType": "Procedure",
      "id": "23900dd8-5f7d-455c-8f8d-ebd9ef873c67",
      "meta": {
        "profile": [ "http://hl7.org/fhir/us/qicore/StructureDefinition/qicore-procedure" ]
      },
      "extension": [ {
        "url": "http://hl7.org/fhir/us/qicore/StructureDefinition/qicore-recorded",
        "valueDateTime": "2014-04-05T13:35:00.000+00:00"
      } ],
      "status": "completed",
      "code": {
        "coding": [ {
          "system": "http://www.cms.gov/Medicare/Coding/ICD10",
          "code": "10D00Z0"
        } ]
      },
      "subject": {
        "reference": "Patient/70ec8c1c-3aa7-4f7b-9cc7-b803fd905b80"
      },
      "performedPeriod": {
        "start": "2026-11-30T08:00:00.000+00:00",
        "end": "2026-11-30T08:16:00.000+00:00"
      }
    },
    "request": {
      "method": "PUT",
      "url": "Procedure/23900dd8-5f7d-455c-8f8d-ebd9ef873c67"
    }
  }, {
    "fullUrl": "https://madie.cms.gov/Condition/b074a74f-2a7e-461b-8fef-5ba2a992d51f",
    "resource": {
      "resourceType": "Condition",
      "id": "b074a74f-2a7e-461b-8fef-5ba2a992d51f",
      "meta": {
        "profile": [ "http://hl7.org/fhir/us/qicore/StructureDefinition/qicore-condition-encounter-diagnosis" ]
      },
      "category": [ {
        "coding": [ {
          "system": "http://terminology.hl7.org/CodeSystem/condition-category",
          "code": "encounter-diagnosis",
          "display": "Encounter Diagnosis"
        } ]
      } ],
      "code": {
        "coding": [ {
          "system": "http://snomed.info/sct",
          "version": "2022-09",
          "code": "169826009",
          "display": "Single live birth from singleton pregnancy (finding)",
          "userSelected": true
        } ]
      },
      "subject": {
        "reference": "Patient/70ec8c1c-3aa7-4f7b-9cc7-b803fd905b80"
      },
      "encounter": {
        "reference": "Encounter/2118ba79-f5a4-4795-adbf-2269b6206048"
      },
      "recordedDate": "2026-10-17T08:00:00.000+00:00"
    },
    "request": {
      "method": "PUT",
      "url": "Condition/b074a74f-2a7e-461b-8fef-5ba2a992d51f"
    }
  }, {
    "fullUrl": "https://madie.cms.gov/Coverage/6aeb20f9-7098-416d-83d2-82bb93014581",
    "resource": {
      "resourceType": "Coverage",
      "id": "6aeb20f9-7098-416d-83d2-82bb93014581",
      "meta": {
        "profile": [ "http://hl7.org/fhir/us/qicore/StructureDefinition/qicore-coverage" ]
      },
      "status": "active",
      "subscriberId": "523435",
      "beneficiary": {
        "reference": "Patient/70ec8c1c-3aa7-4f7b-9cc7-b803fd905b80"
      },
      "relationship": {
        "coding": [ {
          "system": "http://terminology.hl7.org/CodeSystem/subscriber-relationship",
          "code": "self"
        } ]
      },
      "payor": [ {
        "reference": "Organization/7a53f272-1794-4cb7-9de2-f32c5bcd55f1"
      } ]
    },
    "request": {
      "method": "PUT",
      "url": "Coverage/6aeb20f9-7098-416d-83d2-82bb93014581"
    }
  }, {
    "fullUrl": "https://madie.cms.gov/Organization/7a53f272-1794-4cb7-9de2-f32c5bcd55f1",
    "resource": {
      "resourceType": "Organization",
      "id": "7a53f272-1794-4cb7-9de2-f32c5bcd55f1",
      "meta": {
        "profile": [ "http://hl7.org/fhir/us/qicore/StructureDefinition/qicore-organization" ]
      },
      "identifier": [ {
        "use": "temp",
        "system": "urn:oid:2.16.840.1.113883.4.4",
        "value": "21-3259825"
      } ],
      "active": true,
      "type": [ {
        "coding": [ {
          "system": "http://terminology.hl7.org/CodeSystem/organization-type",
          "code": "pay",
          "display": "Payer"
        } ]
      } ],
      "name": "Blue Cross Blue Shield of Texas",
      "telecom": [ {
        "system": "phone",
        "value": "(+1) 972-766-6900"
      } ],
      "address": [ {
        "use": "billing",
        "type": "postal",
        "line": [ "P.O. Box 660044" ],
        "city": "Dallas",
        "state": "TX",
        "postalCode": "75266-0044",
        "country": "USA"
      } ]
    },
    "request": {
      "method": "PUT",
      "url": "Organization/7a53f272-1794-4cb7-9de2-f32c5bcd55f1"
    }
  }, {
    "fullUrl": "https://madie.cms.gov/Practitioner/1aac83b8-e167-4447-9d21-589f5b70bff3",
    "resource": {
      "resourceType": "Practitioner",
      "id": "1aac83b8-e167-4447-9d21-589f5b70bff3",
      "meta": {
        "profile": [ "http://hl7.org/fhir/us/qicore/StructureDefinition/qicore-practitioner" ]
      },
      "identifier": [ {
        "system": "http://hl7.org/fhir/sid/us-npi",
        "value": "1234567890"
      } ],
      "name": [ {
        "family": "Evil",
        "prefix": [ "Dr" ]
      } ]
    },
    "request": {
      "method": "PUT",
      "url": "Practitioner/1aac83b8-e167-4447-9d21-589f5b70bff3"
    }
  }, {
    "fullUrl": "https://madie.cms.gov/MeasureReport/021fbb68-84a3-4166-ab25-d524c292cb4d",
    "resource": {
      "resourceType": "MeasureReport",
      "id": "021fbb68-84a3-4166-ab25-d524c292cb4d",
      "meta": {
        "profile": [ "http://hl7.org/fhir/us/cqfmeasures/StructureDefinition/test-case-cqfm" ]
      },
      "contained": [ {
        "resourceType": "Parameters",
        "id": "1207745b-471e-4836-951d-252e8f47324c-parameters",
        "parameter": [ {
          "name": "subject",
          "valueString": "70ec8c1c-3aa7-4f7b-9cc7-b803fd905b80"
        } ]
      } ],
      "extension": [ {
        "url": "http://hl7.org/fhir/StructureDefinition/cqf-inputParameters",
        "valueReference": {
          "reference": "#1207745b-471e-4836-951d-252e8f47324c-parameters"
        }
      }, {
        "url": "http://hl7.org/fhir/us/cqfmeasures/StructureDefinition/cqfm-testCaseDescription",
        "valueMarkdown": "Passes IP, DEN, fails NUM because CSect End after Encounter End; Gravida 1(effect dt/time 42 weeks)  and EGA 40 weeks;  "
      } ],
      "modifierExtension": [ {
        "url": "http://hl7.org/fhir/us/cqfmeasures/StructureDefinition/cqfm-isTestCase",
        "valueBoolean": true
      } ],
      "status": "complete",
      "type": "individual",
      "measure": "https://madie.cms.gov/Measure/CMS0334FHIRPCCesareanBirth",
      "period": {
        "start": "2026-01-01",
        "end": "2026-12-31"
      },
      "group": [ {
        "id": "Group_1",
        "population": [ {
          "id": "InitialPopulation_1",
          "code": {
            "coding": [ {
              "system": "http://terminology.hl7.org/CodeSystem/measure-population",
              "code": "initial-population",
              "display": "Initial Population"
            } ]
          },
          "count": 1
        }, {
          "id": "Denominator_1",
          "code": {
            "coding": [ {
              "system": "http://terminology.hl7.org/CodeSystem/measure-population",
              "code": "denominator",
              "display": "Denominator"
            } ]
          },
          "count": 1
        }, {
          "id": "DenominatorExclusion_1",
          "code": {
            "coding": [ {
              "system": "http://terminology.hl7.org/CodeSystem/measure-population",
              "code": "denominator-exclusion",
              "display": "Denominator Exclusion"
            } ]
          },
          "count": 0
        }, {
          "id": "Numerator_1",
          "code": {
            "coding": [ {
              "system": "http://terminology.hl7.org/CodeSystem/measure-population",
              "code": "numerator",
              "display": "Numerator"
            } ]
          },
          "count": 0
        } ],
        "measureScore": {
          "value": 0.0
        }
      } ],
      "evaluatedResource": [ {
        "reference": "Patient/70ec8c1c-3aa7-4f7b-9cc7-b803fd905b80"
      }, {
        "reference": "Observation/51d446f8-83f9-4382-a9b2-0032720440fb"
      }, {
        "reference": "Observation/c162d765-28f6-46e6-a868-323a79122b65"
      }, {
        "reference": "Observation/b94e6a95-a33e-4ccc-914f-45a2a5013394"
      }, {
        "reference": "Encounter/2118ba79-f5a4-4795-adbf-2269b6206048"
      }, {
        "reference": "Procedure/23900dd8-5f7d-455c-8f8d-ebd9ef873c67"
      }, {
        "reference": "Condition/b074a74f-2a7e-461b-8fef-5ba2a992d51f"
      }, {
        "reference": "Coverage/6aeb20f9-7098-416d-83d2-82bb93014581"
      }, {
        "reference": "Organization/7a53f272-1794-4cb7-9de2-f32c5bcd55f1"
      }, {
        "reference": "Practitioner/1aac83b8-e167-4447-9d21-589f5b70bff3"
      } ]
    },
    "request": {
      "method": "PUT",
      "url": "MeasureReport/021fbb68-84a3-4166-ab25-d524c292cb4d"
    }
  } ]
}