{
  "resourceType": "Bundle",
  "id": "63487c2d0968f80122540164",
  "type": "transaction",
  "entry": [ {
    "fullUrl": "https://madie.cms.gov/Patient/f247e141-7e9f-42ec-bef2-869e381ea00d",
    "resource": {
      "resourceType": "Patient",
      "id": "f247e141-7e9f-42ec-bef2-869e381ea00d",
      "meta": {
        "profile": [ "http://hl7.org/fhir/us/qicore/StructureDefinition/qicore-patient" ]
      },
      "text": {
        "status": "generated",
        "div": "<div xmlns=\"http://www.w3.org/1999/xhtml\"><div class=\"hapiHeaderText\">ProcCsectButVagDelCode<b>NUMPASS</b></div><table class=\"hapiPropertyTable\"><tbody><tr><td>Identifier</td><td>8b7a8f99f3e1839b490bb3076b6cc0feec17e2d3d2b6db6ff89c3711196a7db2</td></tr><tr><td>Date of birth</td><td><span>14 February 1985</span></td></tr></tbody></table></div>"
      },
      "extension": [ {
        "url": "http://hl7.org/fhir/us/core/StructureDefinition/us-core-race",
        "extension": [ {
          "url": "ombCategory",
          "valueCoding": {
            "system": "urn:oid:2.16.840.1.113883.6.238",
            "code": "1002-5",
            "display": "American Indian or Alaska Native",
            "userSelected": true
          }
        }, {
          "url": "text",
          "valueString": "American Indian or Alaska Native"
        } ]
      }, {
        "url": "http://hl7.org/fhir/us/core/StructureDefinition/us-core-ethnicity",
        "extension": [ {
          "url": "ombCategory",
          "valueCoding": {
            "system": "urn:oid:2.16.840.1.113883.6.238",
            "code": "2135-2",
            "display": "Hispanic or Latino",
            "userSelected": true
          }
        }, {
          "url": "text",
          "valueString": "Hispanic or Latino"
        } ]
      } ],
      "identifier": [ {
        "type": {
          "coding": [ {
            "system": "http://terminology.hl7.org/CodeSystem/v2-0203",
            "code": "MR"
          } ]
        },
        "system": "https://bonnie-fhir.healthit.gov/",
        "value": "63487c2d0968f80122540164"
      } ],
      "active": true,
      "name": [ {
        "use": "usual",
        "family": "NUMPass",
        "given": [ "ProcCsectButVagDelCode" ]
      } ],
      "gender": "female",
      "birthDate": "1998-02-14"
    },
    "request": {
      "method": "PUT",
      "url": "Patient/f247e141-7e9f-42ec-bef2-869e381ea00d"
    }
  }, {
    "fullUrl": "https://madie.cms.gov/Observation/a43f1bde-70bb-4a73-b66a-35876877cf73",
    "resource": {
      "resourceType": "Observation",
      "id": "a43f1bde-70bb-4a73-b66a-35876877cf73",
      "meta": {
        "profile": [ "http://hl7.org/fhir/us/qicore/StructureDefinition/qicore-simple-observation" ]
      },
      "status": "final",
      "category": [ {
        "coding": [ {
          "system": "http://terminology.hl7.org/CodeSystem/observation-category",
          "code": "exam",
          "display": "exam",
          "userSelected": true
        } ]
      } ],
      "code": {
        "coding": [ {
          "system": "http://loinc.org",
          "code": "11977-6"
        } ]
      },
      "subject": {
        "reference": "Patient/f247e141-7e9f-42ec-bef2-869e381ea00d"
      },
      "effectiveDateTime": "2026-03-08T09:00:00.000+00:00",
      "performer": [ {
        "reference": "Organization/example1",
        "display": "Hendricks Country Hospital"
      } ],
      "valueInteger": 0
    },
    "request": {
      "method": "PUT",
      "url": "Observation/a43f1bde-70bb-4a73-b66a-35876877cf73"
    }
  }, {
    "fullUrl": "https://madie.cms.gov/Observation/8f330e34-e157-493b-a0b4-8169f9210ddb",
    "resource": {
      "resourceType": "Observation",
      "id": "8f330e34-e157-493b-a0b4-8169f9210ddb",
      "meta": {
        "profile": [ "http://hl7.org/fhir/us/qicore/StructureDefinition/qicore-simple-observation" ]
      },
      "status": "final",
      "category": [ {
        "coding": [ {
          "system": "http://terminology.hl7.org/CodeSystem/observation-category",
          "code": "exam",
          "display": "exam",
          "userSelected": true
        } ]
      } ],
      "code": {
        "coding": [ {
          "system": "http://loinc.org",
          "code": "11996-6"
        } ]
      },
      "subject": {
        "reference": "Patient/f247e141-7e9f-42ec-bef2-869e381ea00d"
      },
      "effectiveDateTime": "2026-03-09T08:00:00.000+00:00",
      "performer": [ {
        "reference": "Organization/example1",
        "display": "Hendricks Country Hospital"
      } ],
      "valueInteger": 1
    },
    "request": {
      "method": "PUT",
      "url": "Observation/8f330e34-e157-493b-a0b4-8169f9210ddb"
    }
  }, {
    "fullUrl": "https://madie.cms.gov/Observation/b8f6e31c-2d94-494b-a128-6eb91b286e88",
    "resource": {
      "resourceType": "Observation",
      "id": "b8f6e31c-2d94-494b-a128-6eb91b286e88",
      "meta": {
        "profile": [ "http://hl7.org/fhir/us/qicore/StructureDefinition/qicore-simple-observation" ]
      },
      "status": "final",
      "category": [ {
        "coding": [ {
          "system": "http://terminology.hl7.org/CodeSystem/observation-category",
          "code": "exam",
          "display": "exam",
          "userSelected": true
        } ]
      } ],
      "code": {
        "coding": [ {
          "system": "http://loinc.org",
          "code": "11884-4"
        } ]
      },
      "subject": {
        "reference": "Patient/f247e141-7e9f-42ec-bef2-869e381ea00d"
      },
      "effectiveDateTime": "2026-06-08T17:00:00.000+00:00",
      "performer": [ {
        "reference": "Organization/example1",
        "display": "Hendricks Country Hospital"
      } ],
      "valueQuantity": {
        "value": 37,
        "system": "http://unitsofmeasure.org",
        "code": "wk"
      }
    },
    "request": {
      "method": "PUT",
      "url": "Observation/b8f6e31c-2d94-494b-a128-6eb91b286e88"
    }
  }, {
    "fullUrl": "https://madie.cms.gov/Observation/63bda552-d1b1-4689-b473-bc92505c30b3",
    "resource": {
      "resourceType": "Observation",
      "id": "63bda552-d1b1-4689-b473-bc92505c30b3",
      "meta": {
        "profile": [ "http://hl7.org/fhir/us/qicore/StructureDefinition/qicore-simple-observation" ]
      },
      "status": "final",
      "category": [ {
        "coding": [ {
          "system": "http://loinc.org",
          "code": "93857-1",
          "display": "Date and time of obstetric delivery",
          "userSelected": true
        } ]
      } ],
      "code": {
        "coding": [ {
          "system": "http://loinc.org",
          "code": "93857-1"
        } ]
      },
      "subject": {
        "reference": "Patient/f247e141-7e9f-42ec-bef2-869e381ea00d"
      },
      "effectiveDateTime": "2026-06-08T20:00:00.000+00:00",
      "performer": [ {
        "reference": "Organization/example1",
        "display": "Hendricks Country Hospital"
      } ],
      "valueDateTime": "2026-06-08T20:00:00.000+00:00"
    },
    "request": {
      "method": "PUT",
      "url": "Observation/63bda552-d1b1-4689-b473-bc92505c30b3"
    }
  }, {
    "fullUrl": "https://madie.cms.gov/Encounter/cb8c32a1-4726-40e3-ac24-e9d9e83dda54",
    "resource": {
      "resourceType": "Encounter",
      "id": "cb8c32a1-4726-40e3-ac24-e9d9e83dda54",
      "meta": {
        "profile": [ "http://hl7.org/fhir/us/qicore/StructureDefinition/qicore-encounter" ]
      },
      "status": "finished",
      "class": {
        "system": "http://terminology.hl7.org/CodeSystem/v3-ActCode",
        "code": "IMP",
        "display": "inpatient encounter"
      },
      "type": [ {
        "coding": [ {
          "system": "http://snomed.info/sct",
          "code": "8715000"
        } ]
      } ],
      "subject": {
        "reference": "Patient/f247e141-7e9f-42ec-bef2-869e381ea00d"
      },
      "period": {
        "start": "2026-06-08T08:00:00.000+00:00",
        "end": "2026-06-10T08:15:00.000+00:00"
      },
      "reasonCode": [ {
        "coding": [ {
          "system": "http://snomed.info/sct",
          "code": "169826009",
          "display": "Single live birth from singleton pregnancy (finding)"
        } ]
      } ]
    },
    "request": {
      "method": "PUT",
      "url": "Encounter/cb8c32a1-4726-40e3-ac24-e9d9e83dda54"
    }
  }, {
    "fullUrl": "https://madie.cms.gov/Procedure/8a30e027-3124-49c7-ae15-1b19e160080e",
    "resource": {
      "resourceType": "Procedure",
      "id": "8a30e027-3124-49c7-ae15-1b19e160080e",
      "meta": {
        "profile": [ "http://hl7.org/fhir/us/qicore/StructureDefinition/qicore-procedure" ]
      },
      "extension": [ {
        "url": "http://hl7.org/fhir/us/qicore/StructureDefinition/qicore-recorded",
        "valueDateTime": "2014-04-05T13:35:00.000+00:00"
      } ],
      "status": "completed",
      "code": {
        "coding": [ {
          "system": "http://www.cms.gov/Medicare/Coding/ICD10",
          "code": "10D07Z3"
        } ]
      },
      "subject": {
        "reference": "Patient/f247e141-7e9f-42ec-bef2-869e381ea00d"
      },
      "performedPeriod": {
        "start": "2026-06-08T20:00:00.000+00:00",
        "end": "2026-06-08T21:15:00.000+00:00"
      }
    },
    "request": {
      "method": "PUT",
      "url": "Procedure/8a30e027-3124-49c7-ae15-1b19e160080e"
    }
  }, {
    "fullUrl": "https://madie.cms.gov/Procedure/4742a385-79c2-42f4-8393-187f4a780dd2",
    "resource": {
      "resourceType": "Procedure",
      "id": "4742a385-79c2-42f4-8393-187f4a780dd2",
      "meta": {
        "profile": [ "http://hl7.org/fhir/us/qicore/StructureDefinition/qicore-procedure" ]
      },
      "extension": [ {
        "url": "http://hl7.org/fhir/us/qicore/StructureDefinition/qicore-recorded",
        "valueDateTime": "2014-04-05T13:35:00.000+00:00"
      } ],
      "status": "completed",
      "code": {
        "coding": [ {
          "system": "http://snomed.info/sct",
          "code": "11466000"
        } ]
      },
      "subject": {
        "reference": "Patient/f247e141-7e9f-42ec-bef2-869e381ea00d"
      },
      "performedPeriod": {
        "start": "2026-06-08T20:00:00.000+00:00",
        "end": "2026-06-08T21:15:00.000+00:00"
      }
    },
    "request": {
      "method": "PUT",
      "url": "Procedure/4742a385-79c2-42f4-8393-187f4a780dd2"
    }
  }, {
    "fullUrl": "https://madie.cms.gov/Condition/45ce33c9-cf2d-412a-8020-98cf2b8f0121",
    "resource": {
      "resourceType": "Condition",
      "id": "45ce33c9-cf2d-412a-8020-98cf2b8f0121",
      "meta": {
        "profile": [ "http://hl7.org/fhir/us/qicore/StructureDefinition/qicore-condition" ]
      },
      "category": [ {
        "coding": [ {
          "system": "http://terminology.hl7.org/CodeSystem/condition-category",
          "code": "encounter-diagnosis",
          "display": "Encounter Diagnosis"
        } ]
      } ],
      "code": {
        "coding": [ {
          "system": "http://snomed.info/sct",
          "version": "2022-09",
          "code": "169826009",
          "display": "Single live birth (finding)",
          "userSelected": true
        } ]
      },
      "subject": {
        "reference": "Patient/f247e141-7e9f-42ec-bef2-869e381ea00d"
      },
      "recordedDate": "2026-10-17T08:00:00.000+00:00"
    },
    "request": {
      "method": "PUT",
      "url": "Condition/45ce33c9-cf2d-412a-8020-98cf2b8f0121"
    }
  }, {
    "fullUrl": "https://madie.cms.gov/Coverage/ef3cb577-1700-4064-914e-d58ab32fbda8",
    "resource": {
      "resourceType": "Coverage",
      "id": "ef3cb577-1700-4064-914e-d58ab32fbda8",
      "meta": {
        "profile": [ "http://hl7.org/fhir/us/qicore/StructureDefinition/qicore-coverage" ]
      },
      "status": "active",
      "subscriberId": "523435",
      "beneficiary": {
        "reference": "Patient/f247e141-7e9f-42ec-bef2-869e381ea00d"
      },
      "relationship": {
        "coding": [ {
          "system": "http://terminology.hl7.org/CodeSystem/subscriber-relationship",
          "code": "self"
        } ]
      },
      "payor": [ {
        "reference": "Organization/bbba9ea9-394d-43a2-aabd-01e707cb6c20"
      } ]
    },
    "request": {
      "method": "PUT",
      "url": "Coverage/ef3cb577-1700-4064-914e-d58ab32fbda8"
    }
  }, {
    "fullUrl": "https://madie.cms.gov/Organization/bbba9ea9-394d-43a2-aabd-01e707cb6c20",
    "resource": {
      "resourceType": "Organization",
      "id": "bbba9ea9-394d-43a2-aabd-01e707cb6c20",
      "meta": {
        "profile": [ "http://hl7.org/fhir/us/qicore/StructureDefinition/qicore-organization" ]
      },
      "identifier": [ {
        "use": "temp",
        "system": "urn:oid:2.16.840.1.113883.4.4",
        "value": "21-3259825"
      } ],
      "active": true,
      "type": [ {
        "coding": [ {
          "system": "http://terminology.hl7.org/CodeSystem/organization-type",
          "code": "pay",
          "display": "Payer"
        } ]
      } ],
      "name": "Blue Cross Blue Shield of Texas",
      "telecom": [ {
        "system": "phone",
        "value": "(+1) 972-766-6900"
      } ],
      "address": [ {
        "use": "billing",
        "type": "postal",
        "line": [ "P.O. Box 660044" ],
        "city": "Dallas",
        "state": "TX",
        "postalCode": "75266-0044",
        "country": "USA"
      } ]
    },
    "request": {
      "method": "PUT",
      "url": "Organization/bbba9ea9-394d-43a2-aabd-01e707cb6c20"
    }
  }, {
    "fullUrl": "https://madie.cms.gov/Practitioner/61fd687a-385f-4bb6-99c5-52f87df3a98f",
    "resource": {
      "resourceType": "Practitioner",
      "id": "61fd687a-385f-4bb6-99c5-52f87df3a98f",
      "meta": {
        "profile": [ "http://hl7.org/fhir/us/qicore/StructureDefinition/qicore-practitioner" ]
      },
      "identifier": [ {
        "system": "http://hl7.org/fhir/sid/us-npi",
        "value": "1234567890"
      } ],
      "name": [ {
        "family": "Evil",
        "prefix": [ "Dr" ]
      } ]
    },
    "request": {
      "method": "PUT",
      "url": "Practitioner/61fd687a-385f-4bb6-99c5-52f87df3a98f"
    }
  }, {
    "fullUrl": "https://madie.cms.gov/MeasureReport/1a5b4a80-5391-408f-ba82-ed11db33f1c7",
    "resource": {
      "resourceType": "MeasureReport",
      "id": "1a5b4a80-5391-408f-ba82-ed11db33f1c7",
      "meta": {
        "profile": [ "http://hl7.org/fhir/us/cqfmeasures/StructureDefinition/test-case-cqfm" ]
      },
      "contained": [ {
        "resourceType": "Parameters",
        "id": "b3a97d67-6deb-4f0c-8584-027d77c23970-parameters",
        "parameter": [ {
          "name": "subject",
          "valueString": "f247e141-7e9f-42ec-bef2-869e381ea00d"
        } ]
      } ],
      "extension": [ {
        "url": "http://hl7.org/fhir/StructureDefinition/cqf-inputParameters",
        "valueReference": {
          "reference": "#b3a97d67-6deb-4f0c-8584-027d77c23970-parameters"
        }
      }, {
        "url": "http://hl7.org/fhir/us/cqfmeasures/StructureDefinition/cqfm-testCaseDescription",
        "valueMarkdown": "Passes IP, DEN, NUM.  Passes NUM as Proc Perf = Csection  although \"Delivery Procedures\" indicates vaginal delivery."
      } ],
      "modifierExtension": [ {
        "url": "http://hl7.org/fhir/us/cqfmeasures/StructureDefinition/cqfm-isTestCase",
        "valueBoolean": true
      } ],
      "status": "complete",
      "type": "individual",
      "measure": "https://madie.cms.gov/Measure/CMS0334FHIRPCCesareanBirth",
      "period": {
        "start": "2026-01-01",
        "end": "2026-12-31"
      },
      "group": [ {
        "id": "Group_1",
        "population": [ {
          "id": "InitialPopulation_1",
          "code": {
            "coding": [ {
              "system": "http://terminology.hl7.org/CodeSystem/measure-population",
              "code": "initial-population",
              "display": "Initial Population"
            } ]
          },
          "count": 1
        }, {
          "id": "Denominator_1",
          "code": {
            "coding": [ {
              "system": "http://terminology.hl7.org/CodeSystem/measure-population",
              "code": "denominator",
              "display": "Denominator"
            } ]
          },
          "count": 1
        }, {
          "id": "DenominatorExclusion_1",
          "code": {
            "coding": [ {
              "system": "http://terminology.hl7.org/CodeSystem/measure-population",
              "code": "denominator-exclusion",
              "display": "Denominator Exclusion"
            } ]
          },
          "count": 0
        }, {
          "id": "Numerator_1",
          "code": {
            "coding": [ {
              "system": "http://terminology.hl7.org/CodeSystem/measure-population",
              "code": "numerator",
              "display": "Numerator"
            } ]
          },
          "count": 1
        } ],
        "measureScore": {
          "value": 0.0
        }
      } ],
      "evaluatedResource": [ {
        "reference": "Patient/f247e141-7e9f-42ec-bef2-869e381ea00d"
      }, {
        "reference": "Observation/a43f1bde-70bb-4a73-b66a-35876877cf73"
      }, {
        "reference": "Observation/8f330e34-e157-493b-a0b4-8169f9210ddb"
      }, {
        "reference": "Observation/b8f6e31c-2d94-494b-a128-6eb91b286e88"
      }, {
        "reference": "Observation/63bda552-d1b1-4689-b473-bc92505c30b3"
      }, {
        "reference": "Encounter/cb8c32a1-4726-40e3-ac24-e9d9e83dda54"
      }, {
        "reference": "Procedure/8a30e027-3124-49c7-ae15-1b19e160080e"
      }, {
        "reference": "Procedure/4742a385-79c2-42f4-8393-187f4a780dd2"
      }, {
        "reference": "Condition/45ce33c9-cf2d-412a-8020-98cf2b8f0121"
      }, {
        "reference": "Coverage/ef3cb577-1700-4064-914e-d58ab32fbda8"
      }, {
        "reference": "Organization/bbba9ea9-394d-43a2-aabd-01e707cb6c20"
      }, {
        "reference": "Practitioner/61fd687a-385f-4bb6-99c5-52f87df3a98f"
      } ]
    },
    "request": {
      "method": "PUT",
      "url": "MeasureReport/1a5b4a80-5391-408f-ba82-ed11db33f1c7"
    }
  } ]
}