{
  "resourceType": "Bundle",
  "id": "tests-Encounter-Medication-Lab-bundle",
  "type": "transaction",
  "entry": [ {
    "fullUrl": "https://madie.cms.gov/Patient/3fdd92df-f418-45ef-93a6-920e3d813f32",
    "resource": {
      "resourceType": "Patient",
      "id": "3fdd92df-f418-45ef-93a6-920e3d813f32",
      "meta": {
        "profile": [ "http://hl7.org/fhir/us/qicore/StructureDefinition/qicore-patient" ]
      },
      "identifier": [ {
        "use": "official",
        "system": "http://hospital.smarthealthit.org",
        "value": "12345"
      } ],
      "name": [ {
        "use": "official",
        "family": "Doe",
        "given": [ "John" ]
      } ],
      "gender": "male",
      "birthDate": "1980-01-01"
    },
    "request": {
      "method": "PUT",
      "url": "Patient/3fdd92df-f418-45ef-93a6-920e3d813f32"
    }
  }, {
    "fullUrl": "https://madie.cms.gov/Encounter/d33ebaf5-bb56-456e-95c6-93d240f6ae85",
    "resource": {
      "resourceType": "Encounter",
      "id": "d33ebaf5-bb56-456e-95c6-93d240f6ae85",
      "meta": {
        "profile": [ "http://hl7.org/fhir/us/qicore/StructureDefinition/qicore-encounter" ]
      },
      "status": "finished",
      "class": {
        "system": "http://terminology.hl7.org/CodeSystem/v3-ActCode",
        "code": "IMP",
        "display": "Inpatient encounter"
      },
      "type": [ {
        "coding": [ {
          "system": "http://snomed.info/sct",
          "code": "183452005",
          "display": "Emergency hospital admission"
        } ]
      } ],
      "subject": {
        "reference": "Patient/3fdd92df-f418-45ef-93a6-920e3d813f32"
      },
      "period": {
        "start": "2026-12-16T08:00:00.000+00:00",
        "end": "2026-12-19T09:00:00.000+00:00"
      }
    },
    "request": {
      "method": "PUT",
      "url": "Encounter/d33ebaf5-bb56-456e-95c6-93d240f6ae85"
    }
  }, {
    "fullUrl": "https://madie.cms.gov/MedicationAdministration/4d7de7e0-2217-4cc8-9de1-6f412cf53217",
    "resource": {
      "resourceType": "MedicationAdministration",
      "id": "4d7de7e0-2217-4cc8-9de1-6f412cf53217",
      "meta": {
        "profile": [ "http://hl7.org/fhir/us/qicore/StructureDefinition/qicore-medicationadministration" ]
      },
      "status": "completed",
      "medicationCodeableConcept": {
        "coding": [ {
          "system": "http://www.nlm.nih.gov/research/umls/rxnorm",
          "code": "1543202",
          "display": "insulin, regular, human 4 UNT Inhalation Powder"
        } ]
      },
      "subject": {
        "reference": "Patient/3fdd92df-f418-45ef-93a6-920e3d813f32"
      },
      "effectivePeriod": {
        "start": "2026-12-16T08:00:00.000+00:00",
        "end": "2026-12-16T09:00:00.000+00:00"
      }
    },
    "request": {
      "method": "PUT",
      "url": "MedicationAdministration/4d7de7e0-2217-4cc8-9de1-6f412cf53217"
    }
  }, {
    "fullUrl": "https://madie.cms.gov/Observation/14e6088e-7d0a-4896-a40a-a9ae7fd3072a",
    "resource": {
      "resourceType": "Observation",
      "id": "14e6088e-7d0a-4896-a40a-a9ae7fd3072a",
      "meta": {
        "profile": [ "http://hl7.org/fhir/us/qicore/StructureDefinition/qicore-observation-lab" ]
      },
      "status": "final",
      "category": [ {
        "coding": [ {
          "system": "http://terminology.hl7.org/CodeSystem/observation-category",
          "code": "laboratory",
          "display": "Laboratory"
        } ]
      } ],
      "code": {
        "coding": [ {
          "system": "http://loinc.org",
          "code": "1556-0",
          "display": "Fasting glucose [Mass/volume] in Capillary blood"
        } ]
      },
      "subject": {
        "reference": "Patient/3fdd92df-f418-45ef-93a6-920e3d813f32"
      },
      "effectivePeriod": {
        "start": "2026-12-16T08:00:00.000+00:00",
        "end": "2026-12-16T08:00:00.000+00:00"
      },
      "issued": "2026-12-16T08:00:00.000+00:00",
      "valueQuantity": {
        "value": 39.9,
        "unit": "mg/dL"
      }
    },
    "request": {
      "method": "PUT",
      "url": "Observation/14e6088e-7d0a-4896-a40a-a9ae7fd3072a"
    }
  }, {
    "fullUrl": "https://madie.cms.gov/Observation/42ec6baf-f026-4444-936c-2375b8f868fc",
    "resource": {
      "resourceType": "Observation",
      "id": "42ec6baf-f026-4444-936c-2375b8f868fc",
      "meta": {
        "profile": [ "http://hl7.org/fhir/us/qicore/StructureDefinition/qicore-observation-lab" ]
      },
      "status": "final",
      "category": [ {
        "coding": [ {
          "system": "http://terminology.hl7.org/CodeSystem/observation-category",
          "code": "laboratory",
          "display": "Laboratory"
        } ]
      } ],
      "code": {
        "coding": [ {
          "system": "http://loinc.org",
          "code": "1556-0",
          "display": "Fasting glucose [Mass/volume] in Capillary blood"
        } ]
      },
      "subject": {
        "reference": "Patient/3fdd92df-f418-45ef-93a6-920e3d813f32"
      },
      "effectivePeriod": {
        "start": "2026-12-16T08:05:00.000+00:00",
        "end": "2026-12-16T08:05:00.000+00:00"
      },
      "issued": "2026-12-16T08:05:00.000+00:00",
      "valueQuantity": {
        "value": 70,
        "unit": "mg/dL"
      }
    },
    "request": {
      "method": "PUT",
      "url": "Observation/42ec6baf-f026-4444-936c-2375b8f868fc"
    }
  }, {
    "fullUrl": "https://madie.cms.gov/Encounter/a5b1677c-b673-42af-ba01-c2d5ab43105f",
    "resource": {
      "resourceType": "Encounter",
      "id": "a5b1677c-b673-42af-ba01-c2d5ab43105f",
      "meta": {
        "profile": [ "http://hl7.org/fhir/us/qicore/StructureDefinition/qicore-encounter" ]
      },
      "status": "finished",
      "class": {
        "system": "http://terminology.hl7.org/CodeSystem/v3-ActCode",
        "code": "EMER",
        "display": "Emergency department visit"
      },
      "type": [ {
        "coding": [ {
          "system": "http://snomed.info/sct",
          "code": "4525004",
          "display": "Emergency department patient visit (procedure)"
        } ]
      } ],
      "subject": {
        "reference": "Patient/3fdd92df-f418-45ef-93a6-920e3d813f32"
      },
      "period": {
        "start": "2026-12-22T08:00:00.000+00:00",
        "end": "2026-12-23T08:00:00.000+00:00"
      }
    },
    "request": {
      "method": "PUT",
      "url": "Encounter/a5b1677c-b673-42af-ba01-c2d5ab43105f"
    }
  }, {
    "fullUrl": "https://madie.cms.gov/Encounter/78dc5f2a-db48-477e-b4c7-0f3348a64abe",
    "resource": {
      "resourceType": "Encounter",
      "id": "78dc5f2a-db48-477e-b4c7-0f3348a64abe",
      "meta": {
        "profile": [ "http://hl7.org/fhir/us/qicore/StructureDefinition/qicore-encounter" ]
      },
      "status": "finished",
      "class": {
        "system": "http://terminology.hl7.org/CodeSystem/v3-ActCode",
        "code": "IMP",
        "display": "Inpatient encounter"
      },
      "type": [ {
        "coding": [ {
          "system": "http://snomed.info/sct",
          "code": "183452005",
          "display": "Emergency hospital admission"
        } ]
      } ],
      "subject": {
        "reference": "Patient/3fdd92df-f418-45ef-93a6-920e3d813f32"
      },
      "period": {
        "start": "2026-12-23T08:00:00.000+00:00",
        "end": "2026-12-29T08:00:00.000+00:00"
      }
    },
    "request": {
      "method": "PUT",
      "url": "Encounter/78dc5f2a-db48-477e-b4c7-0f3348a64abe"
    }
  }, {
    "fullUrl": "https://madie.cms.gov/MedicationAdministration/4711a86a-8c69-470e-9797-f8157ff680e8",
    "resource": {
      "resourceType": "MedicationAdministration",
      "id": "4711a86a-8c69-470e-9797-f8157ff680e8",
      "meta": {
        "profile": [ "http://hl7.org/fhir/us/qicore/StructureDefinition/qicore-medicationadministration" ]
      },
      "status": "completed",
      "medicationCodeableConcept": {
        "coding": [ {
          "system": "http://www.nlm.nih.gov/research/umls/rxnorm",
          "code": "1543202",
          "display": "insulin, regular, human 4 UNT Inhalation Powder"
        } ]
      },
      "subject": {
        "reference": "Patient/3fdd92df-f418-45ef-93a6-920e3d813f32"
      },
      "effectivePeriod": {
        "start": "2026-12-22T08:00:00.000+00:00",
        "end": "2026-12-22T08:15:00.000+00:00"
      }
    },
    "request": {
      "method": "PUT",
      "url": "MedicationAdministration/4711a86a-8c69-470e-9797-f8157ff680e8"
    }
  }, {
    "fullUrl": "https://madie.cms.gov/Observation/4f901042-aef9-4e26-8f7d-3ceaf19b1265",
    "resource": {
      "resourceType": "Observation",
      "id": "4f901042-aef9-4e26-8f7d-3ceaf19b1265",
      "meta": {
        "profile": [ "http://hl7.org/fhir/us/qicore/StructureDefinition/qicore-observation-lab" ]
      },
      "status": "final",
      "category": [ {
        "coding": [ {
          "system": "http://terminology.hl7.org/CodeSystem/observation-category",
          "code": "laboratory",
          "display": "Laboratory"
        } ]
      } ],
      "code": {
        "coding": [ {
          "system": "http://loinc.org",
          "code": "1556-0",
          "display": "Fasting glucose [Mass/volume] in Capillary blood"
        } ]
      },
      "subject": {
        "reference": "Patient/3fdd92df-f418-45ef-93a6-920e3d813f32"
      },
      "effectivePeriod": {
        "start": "2026-12-22T08:00:00.000+00:00",
        "end": "2026-12-22T08:15:00.000+00:00"
      },
      "issued": "2026-12-22T08:00:00.000+00:00",
      "valueQuantity": {
        "value": 39.9,
        "unit": "mg/dL"
      }
    },
    "request": {
      "method": "PUT",
      "url": "Observation/4f901042-aef9-4e26-8f7d-3ceaf19b1265"
    }
  }, {
    "fullUrl": "https://madie.cms.gov/Observation/03e16c73-8dfa-4b3a-97db-b3c80facebb4",
    "resource": {
      "resourceType": "Observation",
      "id": "03e16c73-8dfa-4b3a-97db-b3c80facebb4",
      "meta": {
        "profile": [ "http://hl7.org/fhir/us/qicore/StructureDefinition/qicore-observation-lab" ]
      },
      "status": "final",
      "category": [ {
        "coding": [ {
          "system": "http://terminology.hl7.org/CodeSystem/observation-category",
          "code": "laboratory",
          "display": "Laboratory"
        } ]
      } ],
      "code": {
        "coding": [ {
          "system": "http://loinc.org",
          "code": "1556-0",
          "display": "Fasting glucose [Mass/volume] in Capillary blood"
        } ]
      },
      "subject": {
        "reference": "Patient/3fdd92df-f418-45ef-93a6-920e3d813f32"
      },
      "effectivePeriod": {
        "start": "2026-12-22T08:05:00.000+00:00",
        "end": "2026-12-22T08:05:00.000+00:00"
      },
      "issued": "2026-12-22T08:05:00.000+00:00",
      "valueQuantity": {
        "value": 80.1,
        "unit": "mg/dL"
      }
    },
    "request": {
      "method": "PUT",
      "url": "Observation/03e16c73-8dfa-4b3a-97db-b3c80facebb4"
    }
  }, {
    "fullUrl": "https://madie.cms.gov/MeasureReport/ee57a2ad-7e51-4c6e-b71a-9c2483a81cb9",
    "resource": {
      "resourceType": "MeasureReport",
      "id": "ee57a2ad-7e51-4c6e-b71a-9c2483a81cb9",
      "meta": {
        "profile": [ "http://hl7.org/fhir/us/cqfmeasures/StructureDefinition/test-case-cqfm" ]
      },
      "contained": [ {
        "resourceType": "Parameters",
        "id": "39c79396-b33b-4008-a03b-edc266dd2948-parameters",
        "parameter": [ {
          "name": "subject",
          "valueString": "3fdd92df-f418-45ef-93a6-920e3d813f32"
        } ]
      } ],
      "extension": [ {
        "url": "http://hl7.org/fhir/StructureDefinition/cqf-inputParameters",
        "valueReference": {
          "reference": "#39c79396-b33b-4008-a03b-edc266dd2948-parameters"
        }
      }, {
        "url": "http://hl7.org/fhir/us/cqfmeasures/StructureDefinition/cqfm-testCaseDescription",
        "valueMarkdown": "1st IP Encounter with med. Lab LT 40, followed by lab LT 80 within 5 minutes. Meets Numerator. 2nd enc starts in ED. Has lab LT 40 followed by lab GT 80 within 5 minutes. Does not meet numerator. IPP/Denom = 2, Num = 1"
      } ],
      "modifierExtension": [ {
        "url": "http://hl7.org/fhir/us/cqfmeasures/StructureDefinition/cqfm-isTestCase",
        "valueBoolean": true
      } ],
      "status": "complete",
      "type": "individual",
      "measure": "https://madie.cms.gov/Measure/CMS816FHIRHHHypo",
      "period": {
        "start": "2026-01-01",
        "end": "2026-12-31"
      },
      "group": [ {
        "id": "Group_1",
        "population": [ {
          "id": "InitialPopulation_1",
          "code": {
            "coding": [ {
              "system": "http://terminology.hl7.org/CodeSystem/measure-population",
              "code": "initial-population",
              "display": "Initial Population"
            } ]
          },
          "count": 2
        }, {
          "id": "Denominator_1",
          "code": {
            "coding": [ {
              "system": "http://terminology.hl7.org/CodeSystem/measure-population",
              "code": "denominator",
              "display": "Denominator"
            } ]
          },
          "count": 2
        }, {
          "id": "Numerator_1",
          "code": {
            "coding": [ {
              "system": "http://terminology.hl7.org/CodeSystem/measure-population",
              "code": "numerator",
              "display": "Numerator"
            } ]
          },
          "count": 1
        } ],
        "measureScore": {
          "value": 0.0
        }
      } ],
      "evaluatedResource": [ {
        "reference": "Patient/3fdd92df-f418-45ef-93a6-920e3d813f32"
      }, {
        "reference": "Encounter/d33ebaf5-bb56-456e-95c6-93d240f6ae85"
      }, {
        "reference": "MedicationAdministration/4d7de7e0-2217-4cc8-9de1-6f412cf53217"
      }, {
        "reference": "Observation/14e6088e-7d0a-4896-a40a-a9ae7fd3072a"
      }, {
        "reference": "Observation/42ec6baf-f026-4444-936c-2375b8f868fc"
      }, {
        "reference": "Encounter/a5b1677c-b673-42af-ba01-c2d5ab43105f"
      }, {
        "reference": "Encounter/78dc5f2a-db48-477e-b4c7-0f3348a64abe"
      }, {
        "reference": "MedicationAdministration/4711a86a-8c69-470e-9797-f8157ff680e8"
      }, {
        "reference": "Observation/4f901042-aef9-4e26-8f7d-3ceaf19b1265"
      }, {
        "reference": "Observation/03e16c73-8dfa-4b3a-97db-b3c80facebb4"
      } ]
    },
    "request": {
      "method": "PUT",
      "url": "MeasureReport/ee57a2ad-7e51-4c6e-b71a-9c2483a81cb9"
    }
  } ]
}