{
  "resourceType": "Bundle",
  "id": "612e6b2e02c62a011f2ecc92",
  "type": "transaction",
  "entry": [ {
    "fullUrl": "https://madie.cms.gov/Patient/a30e5588-0e2a-487c-b4d3-15d9e0006741",
    "resource": {
      "resourceType": "Patient",
      "id": "a30e5588-0e2a-487c-b4d3-15d9e0006741",
      "meta": {
        "profile": [ "http://hl7.org/fhir/us/qicore/StructureDefinition/qicore-patient" ]
      },
      "text": {
        "status": "generated",
        "div": "<div xmlns=\"http://www.w3.org/1999/xhtml\"><div class=\"hapiHeaderText\">PtRefMOLMWHDayAfterICU<b>NUMERPASS </b></div><table class=\"hapiPropertyTable\"><tbody><tr><td>Identifier</td><td>bec2580a47ed4bf7691b191e0654b2de</td></tr><tr><td>Date of birth</td><td><span>02 January 1974</span></td></tr></tbody></table></div>"
      },
      "extension": [ {
        "url": "http://hl7.org/fhir/us/core/StructureDefinition/us-core-race",
        "extension": [ {
          "url": "ombCategory",
          "valueCoding": {
            "system": "urn:oid:2.16.840.1.113883.6.238",
            "code": "1002-5",
            "display": "American Indian or Alaska Native",
            "userSelected": true
          }
        }, {
          "url": "text",
          "valueString": "American Indian or Alaska Native"
        } ]
      }, {
        "url": "http://hl7.org/fhir/us/core/StructureDefinition/us-core-ethnicity",
        "extension": [ {
          "url": "ombCategory",
          "valueCoding": {
            "system": "urn:oid:2.16.840.1.113883.6.238",
            "code": "2135-2",
            "display": "Hispanic or Latino",
            "userSelected": true
          }
        }, {
          "url": "text",
          "valueString": "Hispanic or Latino"
        } ]
      } ],
      "identifier": [ {
        "type": {
          "coding": [ {
            "system": "http://terminology.hl7.org/CodeSystem/v2-0203",
            "code": "MR"
          } ]
        },
        "system": "https://bonnie-fhir.healthit.gov/",
        "value": "612e6b2e02c62a011f2ecc92"
      } ],
      "active": true,
      "name": [ {
        "use": "usual",
        "family": "NUMERPass",
        "given": [ "PtRefMORixTaskReject" ]
      } ],
      "gender": "male",
      "birthDate": "1975-01-02"
    },
    "request": {
      "method": "PUT",
      "url": "Patient/a30e5588-0e2a-487c-b4d3-15d9e0006741"
    }
  }, {
    "fullUrl": "https://madie.cms.gov/Encounter/d7873872-2084-4b3b-972f-615f04b5b85e",
    "resource": {
      "resourceType": "Encounter",
      "id": "d7873872-2084-4b3b-972f-615f04b5b85e",
      "meta": {
        "profile": [ "http://hl7.org/fhir/us/qicore/StructureDefinition/qicore-encounter" ]
      },
      "status": "finished",
      "class": {
        "system": "http://terminology.hl7.org/CodeSystem/v3-ActCode",
        "code": "IMP",
        "display": "inpatient encounter"
      },
      "type": [ {
        "coding": [ {
          "system": "http://snomed.info/sct",
          "code": "8715000"
        } ]
      } ],
      "subject": {
        "reference": "Patient/a30e5588-0e2a-487c-b4d3-15d9e0006741"
      },
      "period": {
        "start": "2026-11-01T08:00:00.000+00:00",
        "end": "2026-11-26T08:15:00.000+00:00"
      },
      "length": {
        "value": 25,
        "unit": "days"
      },
      "location": [ {
        "location": {
          "reference": "Location/a27dbee4-cdf2-41fb-ac40-c067b160c39d"
        },
        "period": {
          "start": "2026-11-04T09:00:00.000+00:00",
          "end": "2026-11-06T08:15:00.000+00:00"
        }
      } ]
    },
    "request": {
      "method": "PUT",
      "url": "Encounter/d7873872-2084-4b3b-972f-615f04b5b85e"
    }
  }, {
    "fullUrl": "https://madie.cms.gov/Coverage/2528525c-6adc-489a-aa22-e59b4e2cf357",
    "resource": {
      "resourceType": "Coverage",
      "id": "2528525c-6adc-489a-aa22-e59b4e2cf357",
      "status": "active",
      "beneficiary": {
        "reference": "Patient/a30e5588-0e2a-487c-b4d3-15d9e0006741"
      },
      "period": {
        "start": "1975-01-02T08:00:00.000+00:00"
      },
      "payor": [ {
        "reference": "Organization/c24b0e94-3425-4ec5-95a1-f10b3f55e8b8"
      } ]
    },
    "request": {
      "method": "PUT",
      "url": "Coverage/2528525c-6adc-489a-aa22-e59b4e2cf357"
    }
  }, {
    "fullUrl": "https://madie.cms.gov/MedicationRequest/fa8f9688-6b9b-4db0-a43f-30130cbe0a82",
    "resource": {
      "resourceType": "MedicationRequest",
      "id": "fa8f9688-6b9b-4db0-a43f-30130cbe0a82",
      "meta": {
        "profile": [ "http://hl7.org/fhir/us/qicore/StructureDefinition/qicore-medicationrequest" ]
      },
      "status": "active",
      "intent": "order",
      "category": [ {
        "coding": [ {
          "system": "http://terminology.hl7.org/CodeSystem/medicationrequest-category",
          "code": "inpatient"
        } ]
      } ],
      "doNotPerform": false,
      "medicationCodeableConcept": {
        "coding": [ {
          "system": "http://www.nlm.nih.gov/research/umls/rxnorm",
          "code": "1232086"
        } ]
      },
      "subject": {
        "reference": "Patient/a30e5588-0e2a-487c-b4d3-15d9e0006741"
      },
      "authoredOn": "2026-11-01T08:00:00.000+00:00",
      "requester": {
        "reference": "Practitioner/123456"
      },
      "dosageInstruction": [ {
        "timing": {
          "repeat": {
            "boundsPeriod": {
              "start": "2026-11-03T09:00:00.000+00:00"
            }
          }
        }
      } ]
    },
    "request": {
      "method": "PUT",
      "url": "MedicationRequest/fa8f9688-6b9b-4db0-a43f-30130cbe0a82"
    }
  }, {
    "fullUrl": "https://madie.cms.gov/Task/3c91ce17-ecf5-422f-b277-a51d5b39091e",
    "resource": {
      "resourceType": "Task",
      "id": "3c91ce17-ecf5-422f-b277-a51d5b39091e",
      "meta": {
        "profile": [ "http://hl7.org/fhir/us/qicore/StructureDefinition/qicore-taskrejected" ]
      },
      "status": "rejected",
      "statusReason": {
        "coding": [ {
          "system": "http://snomed.info/sct",
          "code": "443390004",
          "display": "Refusal of treatment by patient (situation)",
          "userSelected": true
        } ]
      },
      "code": {
        "coding": [ {
          "system": "http://hl7.org/fhir/CodeSystem/task-code",
          "code": "fulfill"
        } ]
      },
      "focus": {
        "reference": "MedicationRequest/fa8f9688-6b9b-4db0-a43f-30130cbe0a82"
      },
      "executionPeriod": {
        "start": "2026-11-01T09:00:00.000+00:00",
        "end": "2026-11-03T09:00:00.000+00:00"
      }
    },
    "request": {
      "method": "PUT",
      "url": "Task/3c91ce17-ecf5-422f-b277-a51d5b39091e"
    }
  }, {
    "fullUrl": "https://madie.cms.gov/Location/a27dbee4-cdf2-41fb-ac40-c067b160c39d",
    "resource": {
      "resourceType": "Location",
      "id": "a27dbee4-cdf2-41fb-ac40-c067b160c39d",
      "meta": {
        "profile": [ "http://hl7.org/fhir/us/qicore/StructureDefinition/qicore-location" ]
      },
      "identifier": [ {
        "use": "usual",
        "system": "http://exampleoflocation.com",
        "value": "B1-S.F2"
      } ],
      "name": "Medical Surgical East, first floor",
      "type": [ {
        "coding": [ {
          "system": "https://www.cdc.gov/nhsn/cdaportal/terminology/codesystem/hsloc.html",
          "code": "1025-6",
          "display": "Trauma Critical Care",
          "userSelected": true
        } ]
      } ]
    },
    "request": {
      "method": "PUT",
      "url": "Location/a27dbee4-cdf2-41fb-ac40-c067b160c39d"
    }
  }, {
    "fullUrl": "https://madie.cms.gov/Organization/c24b0e94-3425-4ec5-95a1-f10b3f55e8b8",
    "resource": {
      "resourceType": "Organization",
      "id": "c24b0e94-3425-4ec5-95a1-f10b3f55e8b8",
      "meta": {
        "profile": [ "http://hl7.org/fhir/us/qicore/StructureDefinition/qicore-organization" ]
      },
      "identifier": [ {
        "use": "temp",
        "system": "urn:oid:2.16.840.1.113883.4.4",
        "value": "21-3259825"
      } ],
      "active": true,
      "type": [ {
        "coding": [ {
          "system": "http://terminology.hl7.org/CodeSystem/organization-type",
          "code": "pay",
          "display": "Payer"
        } ]
      } ],
      "name": "Blue Cross Blue Shield of Texas",
      "telecom": [ {
        "system": "phone",
        "value": "(+1) 972-766-6900"
      } ],
      "address": [ {
        "use": "billing",
        "type": "postal",
        "line": [ "P.O. Box 660044" ],
        "city": "Dallas",
        "state": "TX",
        "postalCode": "75266-0044",
        "country": "USA"
      } ]
    },
    "request": {
      "method": "PUT",
      "url": "Organization/c24b0e94-3425-4ec5-95a1-f10b3f55e8b8"
    }
  }, {
    "fullUrl": "https://madie.cms.gov/Practitioner/822aeb3a-5730-446e-af47-1bd1c4d12328",
    "resource": {
      "resourceType": "Practitioner",
      "id": "822aeb3a-5730-446e-af47-1bd1c4d12328",
      "identifier": [ {
        "system": "http://hl7.org/fhir/sid/us-npi",
        "value": "123456"
      } ],
      "name": [ {
        "family": "Evil",
        "prefix": [ "Dr" ]
      } ]
    },
    "request": {
      "method": "PUT",
      "url": "Practitioner/822aeb3a-5730-446e-af47-1bd1c4d12328"
    }
  }, {
    "fullUrl": "https://madie.cms.gov/MeasureReport/bdba93da-ab6a-4f3b-b72e-86f0168f9b43",
    "resource": {
      "resourceType": "MeasureReport",
      "id": "bdba93da-ab6a-4f3b-b72e-86f0168f9b43",
      "meta": {
        "profile": [ "http://hl7.org/fhir/us/cqfmeasures/StructureDefinition/test-case-cqfm" ]
      },
      "contained": [ {
        "resourceType": "Parameters",
        "id": "547de3be-dffb-4912-b51a-50594f360023-parameters",
        "parameter": [ {
          "name": "subject",
          "valueString": "a30e5588-0e2a-487c-b4d3-15d9e0006741"
        } ]
      } ],
      "extension": [ {
        "url": "http://hl7.org/fhir/StructureDefinition/cqf-inputParameters",
        "valueReference": {
          "reference": "#547de3be-dffb-4912-b51a-50594f360023-parameters"
        }
      }, {
        "url": "http://hl7.org/fhir/us/cqfmeasures/StructureDefinition/cqfm-testCaseDescription",
        "valueMarkdown": "Patient refusal for rivaroxaban with Task Rejected"
      } ],
      "modifierExtension": [ {
        "url": "http://hl7.org/fhir/us/cqfmeasures/StructureDefinition/cqfm-isTestCase",
        "valueBoolean": true
      } ],
      "status": "complete",
      "type": "individual",
      "measure": "https://madie.cms.gov/Measure/CMS190FHIRVTEProphylaxisICU",
      "period": {
        "start": "2026-01-01",
        "end": "2026-12-31"
      },
      "group": [ {
        "id": "Group_1",
        "population": [ {
          "id": "InitialPopulation_1",
          "code": {
            "coding": [ {
              "system": "http://terminology.hl7.org/CodeSystem/measure-population",
              "code": "initial-population",
              "display": "Initial Population"
            } ]
          },
          "count": 1
        }, {
          "id": "Denominator_1",
          "code": {
            "coding": [ {
              "system": "http://terminology.hl7.org/CodeSystem/measure-population",
              "code": "denominator",
              "display": "Denominator"
            } ]
          },
          "count": 1
        }, {
          "id": "DenominatorExclusion_1",
          "code": {
            "coding": [ {
              "system": "http://terminology.hl7.org/CodeSystem/measure-population",
              "code": "denominator-exclusion",
              "display": "Denominator Exclusion"
            } ]
          },
          "count": 0
        }, {
          "id": "Numerator_1",
          "code": {
            "coding": [ {
              "system": "http://terminology.hl7.org/CodeSystem/measure-population",
              "code": "numerator",
              "display": "Numerator"
            } ]
          },
          "count": 1
        }, {
          "id": "DenominatorException_1",
          "code": {
            "coding": [ {
              "system": "http://terminology.hl7.org/CodeSystem/measure-population",
              "code": "denominator-exception",
              "display": "Denominator Exception"
            } ]
          },
          "count": 0
        } ],
        "measureScore": {
          "value": 0.0
        }
      } ],
      "evaluatedResource": [ {
        "reference": "Patient/a30e5588-0e2a-487c-b4d3-15d9e0006741"
      }, {
        "reference": "Encounter/d7873872-2084-4b3b-972f-615f04b5b85e"
      }, {
        "reference": "Coverage/2528525c-6adc-489a-aa22-e59b4e2cf357"
      }, {
        "reference": "MedicationRequest/fa8f9688-6b9b-4db0-a43f-30130cbe0a82"
      }, {
        "reference": "Task/3c91ce17-ecf5-422f-b277-a51d5b39091e"
      }, {
        "reference": "Location/a27dbee4-cdf2-41fb-ac40-c067b160c39d"
      }, {
        "reference": "Organization/c24b0e94-3425-4ec5-95a1-f10b3f55e8b8"
      }, {
        "reference": "Practitioner/822aeb3a-5730-446e-af47-1bd1c4d12328"
      } ]
    },
    "request": {
      "method": "PUT",
      "url": "MeasureReport/bdba93da-ab6a-4f3b-b72e-86f0168f9b43"
    }
  } ]
}