{
  "resourceType": "Bundle",
  "id": "60f82c3098086b570510e2ed",
  "type": "transaction",
  "entry": [ {
    "fullUrl": "https://madie.cms.gov/Patient/c417d5e6-4cef-4d7b-93c6-d25a61a8a6ca",
    "resource": {
      "resourceType": "Patient",
      "id": "c417d5e6-4cef-4d7b-93c6-d25a61a8a6ca",
      "meta": {
        "profile": [ "http://hl7.org/fhir/us/qicore/StructureDefinition/qicore-patient" ]
      },
      "text": {
        "status": "generated",
        "div": "<div xmlns=\"http://www.w3.org/1999/xhtml\"><div class=\"hapiHeaderText\">CMP_DayOf_RelvPerStart_1MinAfterObsEnd_EDEndLT1hrB4Obs_ObsEndLT1hrB4IP <b>DENEXPASS </b></div><table class=\"hapiPropertyTable\"><tbody><tr><td>Date of birth</td><td><span>01 January 1980</span></td></tr></tbody></table></div>"
      },
      "extension": [ {
        "url": "http://hl7.org/fhir/us/core/StructureDefinition/us-core-race",
        "extension": [ {
          "url": "ombCategory",
          "valueCoding": {
            "system": "urn:oid:2.16.840.1.113883.6.238",
            "code": "2106-3",
            "display": "White",
            "userSelected": true
          }
        }, {
          "url": "text",
          "valueString": "White"
        } ]
      }, {
        "url": "http://hl7.org/fhir/us/core/StructureDefinition/us-core-ethnicity",
        "extension": [ {
          "url": "ombCategory",
          "valueCoding": {
            "system": "urn:oid:2.16.840.1.113883.6.238",
            "code": "2186-5",
            "display": "Not Hispanic or Latino",
            "userSelected": true
          }
        }, {
          "url": "text",
          "valueString": "Not Hispanic or Latino"
        } ]
      } ],
      "identifier": [ {
        "type": {
          "coding": [ {
            "system": "http://terminology.hl7.org/CodeSystem/v2-0203",
            "code": "MR"
          } ]
        },
        "system": "https://bonnie-fhir.healthit.gov/",
        "value": "60f82c3098086b570510e2ed"
      } ],
      "active": true,
      "name": [ {
        "use": "usual",
        "family": "DENEXPass",
        "given": [ "CMPDayOfRelvPerStart1MinAfterObsEndEDEndLT1hrB4ObsObsEndLT1hrB4IP" ]
      } ],
      "gender": "female",
      "birthDate": "1981-01-01"
    },
    "request": {
      "method": "PUT",
      "url": "Patient/c417d5e6-4cef-4d7b-93c6-d25a61a8a6ca"
    }
  }, {
    "fullUrl": "https://madie.cms.gov/Encounter/135717ae-c435-4c3e-ad9f-74c1a19e6f07",
    "resource": {
      "resourceType": "Encounter",
      "id": "135717ae-c435-4c3e-ad9f-74c1a19e6f07",
      "meta": {
        "profile": [ "http://hl7.org/fhir/us/qicore/StructureDefinition/qicore-encounter" ]
      },
      "status": "finished",
      "class": {
        "system": "http://terminology.hl7.org/CodeSystem/v3-ActCode",
        "code": "EMER",
        "display": "emergency"
      },
      "type": [ {
        "coding": [ {
          "system": "http://snomed.info/sct",
          "code": "4525004"
        } ]
      } ],
      "subject": {
        "reference": "Patient/c417d5e6-4cef-4d7b-93c6-d25a61a8a6ca"
      },
      "period": {
        "start": "2026-11-18T07:00:00.000+00:00",
        "end": "2026-11-18T08:01:00.000+00:00"
      },
      "diagnosis": [ {
        "condition": {
          "reference": "Condition/21d6dcf4-ca25-478a-b8d1-58adef088db0"
        },
        "use": {
          "coding": [ {
            "system": "http://terminology.hl7.org/CodeSystem/diagnosis-role",
            "code": "billing",
            "display": "Billing"
          } ]
        },
        "rank": 1
      } ]
    },
    "request": {
      "method": "PUT",
      "url": "Encounter/135717ae-c435-4c3e-ad9f-74c1a19e6f07"
    }
  }, {
    "fullUrl": "https://madie.cms.gov/Encounter/9d409352-19b9-4e30-b76b-c8b14e358051",
    "resource": {
      "resourceType": "Encounter",
      "id": "9d409352-19b9-4e30-b76b-c8b14e358051",
      "meta": {
        "profile": [ "http://hl7.org/fhir/us/qicore/StructureDefinition/qicore-encounter" ]
      },
      "status": "finished",
      "class": {
        "system": "http://terminology.hl7.org/CodeSystem/v3-ActCode",
        "code": "OBSENC",
        "display": "observation encounter"
      },
      "type": [ {
        "coding": [ {
          "system": "http://snomed.info/sct",
          "code": "448951000124107"
        } ]
      } ],
      "subject": {
        "reference": "Patient/c417d5e6-4cef-4d7b-93c6-d25a61a8a6ca"
      },
      "period": {
        "start": "2026-11-18T09:00:00.000+00:00",
        "end": "2026-11-18T10:01:00.000+00:00"
      }
    },
    "request": {
      "method": "PUT",
      "url": "Encounter/9d409352-19b9-4e30-b76b-c8b14e358051"
    }
  }, {
    "fullUrl": "https://madie.cms.gov/Encounter/e972bfd6-b3f1-4cf2-977f-699f34ee3198",
    "resource": {
      "resourceType": "Encounter",
      "id": "e972bfd6-b3f1-4cf2-977f-699f34ee3198",
      "meta": {
        "profile": [ "http://hl7.org/fhir/us/qicore/StructureDefinition/qicore-encounter" ]
      },
      "status": "finished",
      "class": {
        "system": "http://terminology.hl7.org/CodeSystem/v3-ActCode",
        "code": "IMP",
        "display": "inpatient encounter"
      },
      "type": [ {
        "coding": [ {
          "system": "http://snomed.info/sct",
          "code": "183452005"
        } ]
      } ],
      "subject": {
        "reference": "Patient/c417d5e6-4cef-4d7b-93c6-d25a61a8a6ca"
      },
      "period": {
        "start": "2026-11-18T11:00:00.000+00:00",
        "end": "2026-11-20T08:15:00.000+00:00"
      },
      "reasonReference": [ {
        "reference": "Condition/21d6dcf4-ca25-478a-b8d1-58adef088db0"
      } ]
    },
    "request": {
      "method": "PUT",
      "url": "Encounter/e972bfd6-b3f1-4cf2-977f-699f34ee3198"
    }
  }, {
    "fullUrl": "https://madie.cms.gov/claim/5ca62962b8484628b8de1ec5",
    "resource": {
      "resourceType": "Claim",
      "id": "5ca62962b8484628b8de1ec5",
      "meta": {
        "profile": [ "http://hl7.org/fhir/us/qicore/StructureDefinition/qicore-claim" ]
      },
      "status": "active",
      "type": {
        "coding": [ {
          "system": "http://terminology.hl7.org/CodeSystem/claim-type",
          "code": "institutional"
        } ]
      },
      "use": "claim",
      "patient": {
        "reference": "Patient/c417d5e6-4cef-4d7b-93c6-d25a61a8a6ca"
      },
      "created": "2026-12-01",
      "provider": {
        "reference": "Practitioner/practitioner-123456"
      },
      "priority": {
        "coding": [ {
          "system": "http://terminology.hl7.org/CodeSystem/processpriority",
          "code": "normal"
        } ]
      },
      "diagnosis": [ {
        "sequence": 1,
        "diagnosisCodeableConcept": {
          "coding": [ {
            "system": "http://hl7.org/fhir/sid/icd-10-cm",
            "code": "I63.00"
          } ]
        },
        "type": [ {
          "coding": [ {
            "system": "http://terminology.hl7.org/CodeSystem/ex-diagnosistype",
            "code": "principal"
          } ]
        } ]
      } ],
      "insurance": [ {
        "sequence": 1,
        "focal": true,
        "coverage": {
          "reference": "Coverage/3ac8551e-dfad-455c-bec2-d1ba0ba9fe95"
        }
      } ],
      "item": [ {
        "sequence": 1,
        "diagnosisSequence": [ 1 ],
        "productOrService": {
          "coding": [ {
            "system": "http://terminology.hl7.org/CodeSystem/ex-USCLS",
            "code": "99555"
          } ]
        },
        "encounter": [ {
          "reference": "Encounter/e972bfd6-b3f1-4cf2-977f-699f34ee3198"
        } ]
      } ]
    },
    "request": {
      "method": "PUT",
      "url": "Claim/5ca62962b8484628b8de1ec5"
    }
  }, {
    "fullUrl": "https://madie.cms.gov/Procedure/90a4f554-879a-4758-a8d9-5c6dd91a99c5",
    "resource": {
      "resourceType": "Procedure",
      "id": "90a4f554-879a-4758-a8d9-5c6dd91a99c5",
      "meta": {
        "profile": [ "http://hl7.org/fhir/us/qicore/StructureDefinition/qicore-procedure" ]
      },
      "extension": [ {
        "url": "http://hl7.org/fhir/us/qicore/StructureDefinition/qicore-recorded",
        "valueDateTime": "2026-11-19T13:35:00.000+00:00"
      } ],
      "status": "completed",
      "code": {
        "coding": [ {
          "system": "http://snomed.info/sct",
          "code": "133918004"
        } ]
      },
      "subject": {
        "reference": "Patient/c417d5e6-4cef-4d7b-93c6-d25a61a8a6ca"
      },
      "performedPeriod": {
        "start": "2026-11-18T10:02:00.000+00:00",
        "end": "2026-11-18T10:02:00.000+00:00"
      }
    },
    "request": {
      "method": "PUT",
      "url": "Procedure/90a4f554-879a-4758-a8d9-5c6dd91a99c5"
    }
  }, {
    "fullUrl": "https://madie.cms.gov/Condition/21d6dcf4-ca25-478a-b8d1-58adef088db0",
    "resource": {
      "resourceType": "Condition",
      "id": "21d6dcf4-ca25-478a-b8d1-58adef088db0",
      "meta": {
        "profile": [ "http://hl7.org/fhir/us/qicore/StructureDefinition/qicore-condition-encounter-diagnosis" ]
      },
      "clinicalStatus": {
        "coding": [ {
          "system": "http://terminology.hl7.org/CodeSystem/condition-clinical",
          "code": "active"
        } ]
      },
      "verificationStatus": {
        "coding": [ {
          "system": "http://terminology.hl7.org/CodeSystem/condition-ver-status",
          "code": "confirmed"
        } ]
      },
      "category": [ {
        "coding": [ {
          "system": "http://terminology.hl7.org/CodeSystem/condition-category",
          "code": "encounter-diagnosis",
          "display": "Encounter Diagnosis"
        } ]
      } ],
      "code": {
        "coding": [ {
          "system": "http://snomed.info/sct",
          "version": "2020-09",
          "code": "111297002",
          "display": "Nonparalytic stroke (disorder)",
          "userSelected": true
        } ]
      },
      "subject": {
        "reference": "Patient/c417d5e6-4cef-4d7b-93c6-d25a61a8a6ca"
      },
      "recordedDate": "2026-08-13T08:00:00.000+00:00"
    },
    "request": {
      "method": "PUT",
      "url": "Condition/21d6dcf4-ca25-478a-b8d1-58adef088db0"
    }
  }, {
    "fullUrl": "https://madie.cms.gov/Coverage/3ac8551e-dfad-455c-bec2-d1ba0ba9fe95",
    "resource": {
      "resourceType": "Coverage",
      "id": "3ac8551e-dfad-455c-bec2-d1ba0ba9fe95",
      "meta": {
        "profile": [ "http://hl7.org/fhir/us/qicore/StructureDefinition/qicore-coverage" ]
      },
      "status": "active",
      "beneficiary": {
        "reference": "Patient/c417d5e6-4cef-4d7b-93c6-d25a61a8a6ca"
      },
      "payor": [ {
        "reference": "Organization/abb4c324-526a-4d3d-9cf2-574706a539ad"
      } ]
    },
    "request": {
      "method": "PUT",
      "url": "Coverage/3ac8551e-dfad-455c-bec2-d1ba0ba9fe95"
    }
  }, {
    "fullUrl": "https://madie.cms.gov/Organization/abb4c324-526a-4d3d-9cf2-574706a539ad",
    "resource": {
      "resourceType": "Organization",
      "id": "abb4c324-526a-4d3d-9cf2-574706a539ad",
      "meta": {
        "profile": [ "http://hl7.org/fhir/us/qicore/StructureDefinition/qicore-organization" ]
      },
      "identifier": [ {
        "use": "temp",
        "system": "urn:oid:2.16.840.1.113883.4.4",
        "value": "21-3259825"
      } ],
      "active": true,
      "type": [ {
        "coding": [ {
          "system": "http://terminology.hl7.org/CodeSystem/organization-type",
          "code": "pay",
          "display": "Payer"
        } ]
      } ],
      "name": "Blue Cross Blue Shield of Texas",
      "telecom": [ {
        "system": "phone",
        "value": "(+1) 972-766-6900"
      } ],
      "address": [ {
        "use": "billing",
        "type": "postal",
        "line": [ "P.O. Box 660044" ],
        "city": "Dallas",
        "state": "TX",
        "postalCode": "75266-0044",
        "country": "USA"
      } ]
    },
    "request": {
      "method": "PUT",
      "url": "Organization/abb4c324-526a-4d3d-9cf2-574706a539ad"
    }
  }, {
    "fullUrl": "https://madie.cms.gov/MeasureReport/805a2a3a-efdc-4919-8a50-1d22b07ce9a7",
    "resource": {
      "resourceType": "MeasureReport",
      "id": "805a2a3a-efdc-4919-8a50-1d22b07ce9a7",
      "meta": {
        "profile": [ "http://hl7.org/fhir/us/cqfmeasures/StructureDefinition/test-case-cqfm" ]
      },
      "contained": [ {
        "resourceType": "Parameters",
        "id": "e0eb64f4-e396-4a4e-81e2-73d6526c1c52-parameters",
        "parameter": [ {
          "name": "subject",
          "valueString": "c417d5e6-4cef-4d7b-93c6-d25a61a8a6ca"
        } ]
      } ],
      "extension": [ {
        "url": "http://hl7.org/fhir/StructureDefinition/cqf-inputParameters",
        "valueReference": {
          "reference": "#e0eb64f4-e396-4a4e-81e2-73d6526c1c52-parameters"
        }
      }, {
        "url": "http://hl7.org/fhir/us/cqfmeasures/StructureDefinition/cqfm-testCaseDescription",
        "valueMarkdown": "Patient receives comfort measures performed on the day of hospital arrival, 1 min after Obs end. ED ends less than 1 hour before Obs Start, Obs ends less than 1 hour before IP start.\n"
      } ],
      "modifierExtension": [ {
        "url": "http://hl7.org/fhir/us/cqfmeasures/StructureDefinition/cqfm-isTestCase",
        "valueBoolean": true
      } ],
      "status": "complete",
      "type": "individual",
      "measure": "https://madie.cms.gov/Measure/CMS72FHIRSTKAntithromboticDay2",
      "period": {
        "start": "2026-01-01",
        "end": "2026-12-31"
      },
      "group": [ {
        "id": "Group_1",
        "population": [ {
          "id": "InitialPopulation_1",
          "code": {
            "coding": [ {
              "system": "http://terminology.hl7.org/CodeSystem/measure-population",
              "code": "initial-population",
              "display": "Initial Population"
            } ]
          },
          "count": 1
        }, {
          "id": "Denominator_1",
          "code": {
            "coding": [ {
              "system": "http://terminology.hl7.org/CodeSystem/measure-population",
              "code": "denominator",
              "display": "Denominator"
            } ]
          },
          "count": 1
        }, {
          "id": "DenominatorExclusion_1",
          "code": {
            "coding": [ {
              "system": "http://terminology.hl7.org/CodeSystem/measure-population",
              "code": "denominator-exclusion",
              "display": "Denominator Exclusion"
            } ]
          },
          "count": 1
        }, {
          "id": "Numerator_1",
          "code": {
            "coding": [ {
              "system": "http://terminology.hl7.org/CodeSystem/measure-population",
              "code": "numerator",
              "display": "Numerator"
            } ]
          },
          "count": 0
        }, {
          "id": "DenominatorException_1",
          "code": {
            "coding": [ {
              "system": "http://terminology.hl7.org/CodeSystem/measure-population",
              "code": "denominator-exception",
              "display": "Denominator Exception"
            } ]
          },
          "count": 0
        } ],
        "measureScore": {
          "value": 0.0
        }
      } ],
      "evaluatedResource": [ {
        "reference": "Patient/c417d5e6-4cef-4d7b-93c6-d25a61a8a6ca"
      }, {
        "reference": "Encounter/135717ae-c435-4c3e-ad9f-74c1a19e6f07"
      }, {
        "reference": "Encounter/9d409352-19b9-4e30-b76b-c8b14e358051"
      }, {
        "reference": "Encounter/e972bfd6-b3f1-4cf2-977f-699f34ee3198"
      }, {
        "reference": "Claim/5ca62962b8484628b8de1ec5"
      }, {
        "reference": "Procedure/90a4f554-879a-4758-a8d9-5c6dd91a99c5"
      }, {
        "reference": "Condition/21d6dcf4-ca25-478a-b8d1-58adef088db0"
      }, {
        "reference": "Coverage/3ac8551e-dfad-455c-bec2-d1ba0ba9fe95"
      }, {
        "reference": "Organization/abb4c324-526a-4d3d-9cf2-574706a539ad"
      } ]
    },
    "request": {
      "method": "PUT",
      "url": "MeasureReport/805a2a3a-efdc-4919-8a50-1d22b07ce9a7"
    }
  } ]
}