{
  "resourceType": "Bundle",
  "id": "649980116735443b9ce85cd5",
  "type": "collection",
  "entry": [ {
    "fullUrl": "https://madie.cms.gov/Patient/74aab416-6a06-4fb8-8fbf-5df8012dd811",
    "resource": {
      "resourceType": "Patient",
      "id": "74aab416-6a06-4fb8-8fbf-5df8012dd811",
      "meta": {
        "profile": [ "http://hl7.org/fhir/us/qicore/StructureDefinition/qicore-patient" ]
      },
      "extension": [ {
        "url": "http://hl7.org/fhir/us/core/StructureDefinition/us-core-race",
        "extension": [ {
          "url": "ombCategory",
          "valueCoding": {
            "system": "urn:oid:2.16.840.1.113883.6.238",
            "code": "2054-5",
            "display": "Black or African American",
            "userSelected": true
          }
        }, {
          "url": "text",
          "valueString": "Black or African American"
        } ]
      }, {
        "url": "http://hl7.org/fhir/us/core/StructureDefinition/us-core-ethnicity",
        "extension": [ {
          "url": "ombCategory",
          "valueCoding": {
            "system": "urn:oid:2.16.840.1.113883.6.238",
            "code": "2135-2",
            "display": "Hispanic or Latino",
            "userSelected": true
          }
        }, {
          "url": "text",
          "valueString": "Hispanic or Latino"
        } ]
      } ],
      "identifier": [ {
        "type": {
          "coding": [ {
            "system": "http://terminology.hl7.org/CodeSystem/v2-0203",
            "code": "MR"
          } ]
        },
        "system": "https://bonnie-fhir.healthit.gov/",
        "value": "649980116735443b9ce85cd5"
      } ],
      "name": [ {
        "family": "NumFail",
        "given": [ "2VLTestsduringMPwithMostRecentResultOver" ]
      } ],
      "gender": "male",
      "birthDate": "1987-05-25"
    }
  }, {
    "fullUrl": "https://madie.cms.gov/Condition/33c9626c-eb45-4cfb-b39b-5aa091c8a730",
    "resource": {
      "resourceType": "Condition",
      "id": "33c9626c-eb45-4cfb-b39b-5aa091c8a730",
      "meta": {
        "profile": [ "http://hl7.org/fhir/us/qicore/StructureDefinition/qicore-condition-problems-health-concerns" ]
      },
      "clinicalStatus": {
        "coding": [ {
          "system": "http://terminology.hl7.org/CodeSystem/condition-clinical",
          "code": "active",
          "display": "active",
          "userSelected": true
        } ]
      },
      "category": [ {
        "coding": [ {
          "system": "http://terminology.hl7.org/CodeSystem/condition-category",
          "code": "problem-list-item",
          "display": "Problem List Item"
        } ]
      } ],
      "code": {
        "coding": [ {
          "system": "http://hl7.org/fhir/sid/icd-9-cm",
          "version": "2013",
          "code": "042",
          "display": "Human immunodeficiency virus [HIV] disease",
          "userSelected": true
        }, {
          "system": "http://snomed.info/sct",
          "version": "http://snomed.info/sct/731000124108/version/20250301",
          "code": "165816005",
          "userSelected": true
        } ]
      },
      "subject": {
        "reference": "Patient/74aab416-6a06-4fb8-8fbf-5df8012dd811"
      },
      "onsetDateTime": "2024-01-01T12:00:00.000+00:00",
      "recordedDate": "2024-01-01T12:00:00.000+00:00"
    }
  }, {
    "fullUrl": "https://madie.cms.gov/Condition/55b61d6c-c0a9-4b54-acbf-d071bfed8b68",
    "resource": {
      "resourceType": "Condition",
      "id": "55b61d6c-c0a9-4b54-acbf-d071bfed8b68",
      "meta": {
        "profile": [ "http://hl7.org/fhir/us/qicore/StructureDefinition/qicore-condition-encounter-diagnosis" ]
      },
      "clinicalStatus": {
        "coding": [ {
          "system": "http://terminology.hl7.org/CodeSystem/condition-clinical",
          "code": "active",
          "display": "active",
          "userSelected": true
        } ]
      },
      "category": [ {
        "coding": [ {
          "system": "http://terminology.hl7.org/CodeSystem/condition-category",
          "code": "encounter-diagnosis",
          "display": "Encounter Diagnosis"
        } ]
      } ],
      "code": {
        "coding": [ {
          "system": "http://hl7.org/fhir/sid/icd-9-cm",
          "version": "2013",
          "code": "042",
          "display": "Human immunodeficiency virus [HIV] disease",
          "userSelected": true
        }, {
          "system": "http://snomed.info/sct",
          "version": "http://snomed.info/sct/731000124108/version/20250301",
          "code": "165816005",
          "userSelected": true
        } ]
      },
      "subject": {
        "reference": "Patient/74aab416-6a06-4fb8-8fbf-5df8012dd811"
      },
      "onsetDateTime": "2024-01-01T12:00:00.000+00:00",
      "recordedDate": "2024-01-01T12:00:00.000+00:00"
    }
  }, {
    "fullUrl": "https://madie.cms.gov/Encounter/c599bbe9-62c0-44d6-919a-0fe13eedd9ac",
    "resource": {
      "resourceType": "Encounter",
      "id": "c599bbe9-62c0-44d6-919a-0fe13eedd9ac",
      "meta": {
        "profile": [ "http://hl7.org/fhir/us/qicore/StructureDefinition/qicore-encounter" ]
      },
      "status": "finished",
      "class": {
        "system": "http://terminology.hl7.org/CodeSystem/v3-ActCode",
        "code": "AMB",
        "display": "ambulatory"
      },
      "type": [ {
        "coding": [ {
          "system": "http://www.ama-assn.org/go/cpt",
          "version": "2023",
          "code": "99395",
          "display": "Periodic comprehensive preventive medicine reevaluation and management of an individual including an age and gender appropriate history, examination, counseling/anticipatory guidance/risk factor reduction interventions, and the ordering of laboratory/diagnostic procedures, established patient; 18-39 years",
          "userSelected": true
        } ]
      } ],
      "subject": {
        "reference": "Patient/74aab416-6a06-4fb8-8fbf-5df8012dd811"
      },
      "period": {
        "start": "2026-01-01T11:00:00.000+00:00",
        "end": "2026-01-01T11:22:00.000+00:00"
      }
    }
  }, {
    "fullUrl": "https://madie.cms.gov/Observation/c2ef0e7d-2b60-4e17-a65a-dfc29e263716",
    "resource": {
      "resourceType": "Observation",
      "id": "c2ef0e7d-2b60-4e17-a65a-dfc29e263716",
      "meta": {
        "profile": [ "http://hl7.org/fhir/us/qicore/StructureDefinition/qicore-observation-lab" ]
      },
      "status": "final",
      "category": [ {
        "coding": [ {
          "system": "http://terminology.hl7.org/CodeSystem/observation-category",
          "code": "laboratory",
          "display": "Laboratory"
        } ]
      }, {
        "coding": [ {
          "system": "http://terminology.hl7.org/CodeSystem/observation-category",
          "code": "survey"
        } ]
      } ],
      "code": {
        "coding": [ {
          "system": "http://loinc.org",
          "version": "2.73",
          "code": "10351-5",
          "display": "HIV 1 RNA [Units/volume] (viral load) in Serum or Plasma by Probe with amplification",
          "userSelected": true
        } ]
      },
      "subject": {
        "reference": "Patient/74aab416-6a06-4fb8-8fbf-5df8012dd811"
      },
      "effectiveDateTime": "2026-01-01T07:59:00.000+00:00",
      "issued": "2026-01-01T07:59:00.000+00:00",
      "valueQuantity": {
        "value": 199,
        "unit": "{copies}/mL"
      }
    }
  }, {
    "fullUrl": "https://madie.cms.gov/Observation/53e6bf49-3501-453f-9ee6-38e5e09b3e51",
    "resource": {
      "resourceType": "Observation",
      "id": "53e6bf49-3501-453f-9ee6-38e5e09b3e51",
      "meta": {
        "profile": [ "http://hl7.org/fhir/us/qicore/StructureDefinition/qicore-observation-lab" ]
      },
      "status": "final",
      "category": [ {
        "coding": [ {
          "system": "http://terminology.hl7.org/CodeSystem/observation-category",
          "code": "laboratory",
          "display": "Laboratory"
        } ]
      }, {
        "coding": [ {
          "system": "http://terminology.hl7.org/CodeSystem/observation-category",
          "code": "survey"
        } ]
      } ],
      "code": {
        "coding": [ {
          "system": "http://loinc.org",
          "version": "2.73",
          "code": "10351-5",
          "display": "HIV 1 RNA [Units/volume] (viral load) in Serum or Plasma by Probe with amplification",
          "userSelected": true
        } ]
      },
      "subject": {
        "reference": "Patient/74aab416-6a06-4fb8-8fbf-5df8012dd811"
      },
      "effectiveDateTime": "2026-08-28T08:00:00.000+00:00",
      "issued": "2026-08-28T08:00:00.000+00:00",
      "valueQuantity": {
        "value": 201,
        "unit": "{copies}/mL"
      }
    }
  }, {
    "fullUrl": "https://madie.cms.gov/Coverage/70f083b0-4d2b-4577-a85c-34650e7f6687",
    "resource": {
      "resourceType": "Coverage",
      "id": "70f083b0-4d2b-4577-a85c-34650e7f6687",
      "meta": {
        "profile": [ "http://hl7.org/fhir/us/qicore/StructureDefinition/qicore-coverage" ]
      },
      "status": "active",
      "subscriberId": "123456",
      "beneficiary": {
        "reference": "Patient/74aab416-6a06-4fb8-8fbf-5df8012dd811"
      },
      "relationship": {
        "coding": [ {
          "system": "http://terminology.hl7.org/CodeSystem/subscriber-relationship",
          "code": "self",
          "display": "Self"
        } ]
      },
      "payor": [ {
        "reference": "Organization/61603ec3-9acd-428f-8fcc-6751c3d9bcf8"
      } ]
    }
  }, {
    "fullUrl": "https://madie.cms.gov/Organization/61603ec3-9acd-428f-8fcc-6751c3d9bcf8",
    "resource": {
      "resourceType": "Organization",
      "id": "61603ec3-9acd-428f-8fcc-6751c3d9bcf8",
      "meta": {
        "profile": [ "http://hl7.org/fhir/us/qicore/StructureDefinition/qicore-organization" ]
      },
      "identifier": [ {
        "use": "temp",
        "system": "urn:oid:2.16.840.1.113883.4.4",
        "value": "21-3259825"
      } ],
      "active": true,
      "type": [ {
        "coding": [ {
          "system": "http://terminology.hl7.org/CodeSystem/organization-type",
          "code": "pay",
          "display": "Payer"
        } ]
      } ],
      "name": "Blue Cross Blue Shield of Texas",
      "telecom": [ {
        "system": "phone",
        "value": "(+1) 972-766-6900"
      } ],
      "address": [ {
        "use": "billing",
        "type": "postal",
        "line": [ "P.O. Box 660044" ],
        "city": "Dallas",
        "state": "TX",
        "postalCode": "75266-0044",
        "country": "USA"
      } ]
    }
  }, {
    "fullUrl": "https://madie.cms.gov/Practitioner/936e0efb-629f-4111-93cb-2d2074d45767",
    "resource": {
      "resourceType": "Practitioner",
      "id": "936e0efb-629f-4111-93cb-2d2074d45767",
      "meta": {
        "profile": [ "http://hl7.org/fhir/us/qicore/StructureDefinition/qicore-practitioner" ]
      },
      "identifier": [ {
        "system": "http://hl7.org/fhir/sid/us-npi",
        "value": "1689411712"
      } ],
      "name": [ {
        "family": "Evil",
        "prefix": [ "Dr" ]
      } ]
    }
  }, {
    "fullUrl": "https://madie.cms.gov/MeasureReport/fc8021a8-7c22-4042-a6c9-2ec80af2a14f",
    "resource": {
      "resourceType": "MeasureReport",
      "id": "fc8021a8-7c22-4042-a6c9-2ec80af2a14f",
      "meta": {
        "profile": [ "http://hl7.org/fhir/us/cqfmeasures/StructureDefinition/test-case-cqfm" ]
      },
      "contained": [ {
        "resourceType": "Parameters",
        "id": "3473aee0-3742-4a5e-baf1-6670e7ffcea0-parameters",
        "parameter": [ {
          "name": "subject",
          "valueString": "74aab416-6a06-4fb8-8fbf-5df8012dd811"
        } ]
      } ],
      "extension": [ {
        "url": "http://hl7.org/fhir/StructureDefinition/cqf-inputParameters",
        "valueReference": {
          "reference": "#3473aee0-3742-4a5e-baf1-6670e7ffcea0-parameters"
        }
      }, {
        "url": "http://hl7.org/fhir/us/cqfmeasures/StructureDefinition/cqfm-testCaseDescription",
        "valueMarkdown": "Patient with a diagnosis of HIV Jan 1 years before MP and a qualifying encounter on Jan 1 of the MP with TWO viral load tests - 1) Jan 1 with result < 200, 2) Aug 28 > 200"
      } ],
      "modifierExtension": [ {
        "url": "http://hl7.org/fhir/us/cqfmeasures/StructureDefinition/cqfm-isTestCase",
        "valueBoolean": true
      } ],
      "status": "complete",
      "type": "individual",
      "measure": "https://madie.cms.gov/Measure/CMS314FHIRHIVViralSuppression",
      "period": {
        "start": "2026-01-01",
        "end": "2026-12-31"
      },
      "group": [ {
        "id": "Group_1",
        "population": [ {
          "id": "InitialPopulation_1",
          "code": {
            "coding": [ {
              "system": "http://terminology.hl7.org/CodeSystem/measure-population",
              "code": "initial-population",
              "display": "Initial Population"
            } ]
          },
          "count": 1
        }, {
          "id": "Denominator_1",
          "code": {
            "coding": [ {
              "system": "http://terminology.hl7.org/CodeSystem/measure-population",
              "code": "denominator",
              "display": "Denominator"
            } ]
          },
          "count": 1
        }, {
          "id": "Numerator_1",
          "code": {
            "coding": [ {
              "system": "http://terminology.hl7.org/CodeSystem/measure-population",
              "code": "numerator",
              "display": "Numerator"
            } ]
          },
          "count": 0
        } ],
        "measureScore": {
          "value": 1.0
        }
      } ],
      "evaluatedResource": [ {
        "reference": "Patient/74aab416-6a06-4fb8-8fbf-5df8012dd811"
      }, {
        "reference": "Condition/33c9626c-eb45-4cfb-b39b-5aa091c8a730"
      }, {
        "reference": "Condition/55b61d6c-c0a9-4b54-acbf-d071bfed8b68"
      }, {
        "reference": "Encounter/c599bbe9-62c0-44d6-919a-0fe13eedd9ac"
      }, {
        "reference": "Observation/c2ef0e7d-2b60-4e17-a65a-dfc29e263716"
      }, {
        "reference": "Observation/53e6bf49-3501-453f-9ee6-38e5e09b3e51"
      }, {
        "reference": "Coverage/70f083b0-4d2b-4577-a85c-34650e7f6687"
      }, {
        "reference": "Organization/61603ec3-9acd-428f-8fcc-6751c3d9bcf8"
      }, {
        "reference": "Practitioner/936e0efb-629f-4111-93cb-2d2074d45767"
      } ]
    }
  } ]
}