{
  "resourceType": "Bundle",
  "id": "63487c2d0968f80122540156",
  "type": "transaction",
  "entry": [ {
    "fullUrl": "https://madie.cms.gov/Patient/33bdec01-260e-4b20-b457-adb03a0da942",
    "resource": {
      "resourceType": "Patient",
      "id": "33bdec01-260e-4b20-b457-adb03a0da942",
      "meta": {
        "profile": [ "http://hl7.org/fhir/us/qicore/StructureDefinition/qicore-patient" ]
      },
      "text": {
        "status": "generated",
        "div": "<div xmlns=\"http://www.w3.org/1999/xhtml\"><div class=\"hapiHeaderText\">ProcCsectStart1MinB4EncStart <b>NUMFAIL </b></div><table class=\"hapiPropertyTable\"><tbody><tr><td>Identifier</td><td>e1638c16b27fb415c0157f60f96f2959a17658905e2d025e6949f4a48a957bdc</td></tr><tr><td>Date of birth</td><td><span>14 February 1985</span></td></tr></tbody></table></div>"
      },
      "extension": [ {
        "url": "http://hl7.org/fhir/us/core/StructureDefinition/us-core-race",
        "extension": [ {
          "url": "ombCategory",
          "valueCoding": {
            "system": "urn:oid:2.16.840.1.113883.6.238",
            "code": "1002-5",
            "display": "American Indian or Alaska Native",
            "userSelected": true
          }
        }, {
          "url": "text",
          "valueString": "American Indian or Alaska Native"
        } ]
      }, {
        "url": "http://hl7.org/fhir/us/core/StructureDefinition/us-core-ethnicity",
        "extension": [ {
          "url": "ombCategory",
          "valueCoding": {
            "system": "urn:oid:2.16.840.1.113883.6.238",
            "code": "2135-2",
            "display": "Hispanic or Latino",
            "userSelected": true
          }
        }, {
          "url": "text",
          "valueString": "Hispanic or Latino"
        } ]
      } ],
      "identifier": [ {
        "type": {
          "coding": [ {
            "system": "http://terminology.hl7.org/CodeSystem/v2-0203",
            "code": "MR"
          } ]
        },
        "system": "https://bonnie-fhir.healthit.gov/",
        "value": "63487c2d0968f80122540156"
      } ],
      "active": true,
      "name": [ {
        "use": "usual",
        "family": "NUMFail",
        "given": [ "ProcCsectStart1MinB4EncStart" ]
      } ],
      "gender": "female",
      "birthDate": "1998-02-14"
    },
    "request": {
      "method": "PUT",
      "url": "Patient/33bdec01-260e-4b20-b457-adb03a0da942"
    }
  }, {
    "fullUrl": "https://madie.cms.gov/Observation/2e6f88b6-2457-4309-ac18-0edf620f0d47",
    "resource": {
      "resourceType": "Observation",
      "id": "2e6f88b6-2457-4309-ac18-0edf620f0d47",
      "meta": {
        "profile": [ "http://hl7.org/fhir/us/qicore/StructureDefinition/qicore-simple-observation" ]
      },
      "status": "final",
      "category": [ {
        "coding": [ {
          "system": "http://terminology.hl7.org/CodeSystem/observation-category",
          "code": "exam",
          "display": "exam",
          "userSelected": true
        } ]
      } ],
      "code": {
        "coding": [ {
          "system": "http://loinc.org",
          "code": "11996-6"
        } ]
      },
      "subject": {
        "reference": "Patient/33bdec01-260e-4b20-b457-adb03a0da942"
      },
      "effectiveDateTime": "2026-02-09T08:00:00.000+00:00",
      "valueInteger": 1
    },
    "request": {
      "method": "PUT",
      "url": "Observation/2e6f88b6-2457-4309-ac18-0edf620f0d47"
    }
  }, {
    "fullUrl": "https://madie.cms.gov/Observation/1ed6e027-4c61-4365-8f72-a705e33a18a5",
    "resource": {
      "resourceType": "Observation",
      "id": "1ed6e027-4c61-4365-8f72-a705e33a18a5",
      "meta": {
        "profile": [ "http://hl7.org/fhir/us/qicore/StructureDefinition/qicore-simple-observation" ]
      },
      "status": "final",
      "category": [ {
        "coding": [ {
          "system": "http://terminology.hl7.org/CodeSystem/observation-category",
          "code": "exam",
          "display": "exam",
          "userSelected": true
        } ]
      } ],
      "code": {
        "coding": [ {
          "system": "http://loinc.org",
          "code": "11884-4"
        } ]
      },
      "subject": {
        "reference": "Patient/33bdec01-260e-4b20-b457-adb03a0da942"
      },
      "effectiveDateTime": "2026-11-28T21:15:00.000+00:00",
      "valueQuantity": {
        "value": 40,
        "system": "http://unitsofmeasure.org",
        "code": "wk"
      }
    },
    "request": {
      "method": "PUT",
      "url": "Observation/1ed6e027-4c61-4365-8f72-a705e33a18a5"
    }
  }, {
    "fullUrl": "https://madie.cms.gov/Observation/3caa6d50-d8d5-4476-b8b9-d2a7fcf70732",
    "resource": {
      "resourceType": "Observation",
      "id": "3caa6d50-d8d5-4476-b8b9-d2a7fcf70732",
      "meta": {
        "profile": [ "http://hl7.org/fhir/us/qicore/StructureDefinition/qicore-simple-observation" ]
      },
      "status": "final",
      "category": [ {
        "coding": [ {
          "system": "http://terminology.hl7.org/CodeSystem/observation-category",
          "code": "exam",
          "display": "exam",
          "userSelected": true
        } ]
      } ],
      "code": {
        "coding": [ {
          "system": "http://loinc.org",
          "code": "93857-1"
        } ]
      },
      "subject": {
        "reference": "Patient/33bdec01-260e-4b20-b457-adb03a0da942"
      },
      "effectiveDateTime": "2026-11-28T21:15:00.000+00:00",
      "valueDateTime": "2026-11-28T21:15:00.000+00:00"
    },
    "request": {
      "method": "PUT",
      "url": "Observation/3caa6d50-d8d5-4476-b8b9-d2a7fcf70732"
    }
  }, {
    "fullUrl": "https://madie.cms.gov/Encounter/2e2ef61e-84b4-43a6-889b-c8ee0a244a46",
    "resource": {
      "resourceType": "Encounter",
      "id": "2e2ef61e-84b4-43a6-889b-c8ee0a244a46",
      "meta": {
        "profile": [ "http://hl7.org/fhir/us/qicore/StructureDefinition/qicore-encounter" ]
      },
      "status": "finished",
      "class": {
        "system": "http://terminology.hl7.org/CodeSystem/v3-ActCode",
        "code": "IMP",
        "display": "inpatient encounter"
      },
      "type": [ {
        "coding": [ {
          "system": "http://snomed.info/sct",
          "code": "8715000"
        } ]
      } ],
      "subject": {
        "reference": "Patient/33bdec01-260e-4b20-b457-adb03a0da942"
      },
      "period": {
        "start": "2026-11-28T08:00:00.000+00:00",
        "end": "2026-11-30T08:15:00.000+00:00"
      },
      "reasonReference": [ {
        "reference": "Condition/5da5b51a-d01e-4aac-986e-31208e8745f9"
      } ]
    },
    "request": {
      "method": "PUT",
      "url": "Encounter/2e2ef61e-84b4-43a6-889b-c8ee0a244a46"
    }
  }, {
    "fullUrl": "https://madie.cms.gov/Procedure/c655ff65-4b1e-4b69-9697-b5389cc90060",
    "resource": {
      "resourceType": "Procedure",
      "id": "c655ff65-4b1e-4b69-9697-b5389cc90060",
      "meta": {
        "profile": [ "http://hl7.org/fhir/us/qicore/StructureDefinition/qicore-procedure" ]
      },
      "extension": [ {
        "url": "http://hl7.org/fhir/us/qicore/StructureDefinition/qicore-recorded",
        "valueDateTime": "2014-04-05T13:35:00.000+00:00"
      } ],
      "status": "completed",
      "code": {
        "coding": [ {
          "system": "http://snomed.info/sct",
          "code": "10745001"
        } ]
      },
      "subject": {
        "reference": "Patient/33bdec01-260e-4b20-b457-adb03a0da942"
      },
      "performedPeriod": {
        "start": "2026-11-28T08:00:00.000+00:00",
        "end": "2026-11-30T08:15:00.000+00:00"
      }
    },
    "request": {
      "method": "PUT",
      "url": "Procedure/c655ff65-4b1e-4b69-9697-b5389cc90060"
    }
  }, {
    "fullUrl": "https://madie.cms.gov/Procedure/e9386a6f-fa31-492b-bf84-ef35a787acf9",
    "resource": {
      "resourceType": "Procedure",
      "id": "e9386a6f-fa31-492b-bf84-ef35a787acf9",
      "meta": {
        "profile": [ "http://hl7.org/fhir/us/qicore/StructureDefinition/qicore-procedure" ]
      },
      "extension": [ {
        "url": "http://hl7.org/fhir/us/qicore/StructureDefinition/qicore-recorded",
        "valueDateTime": "2014-04-05T13:35:00.000+00:00"
      } ],
      "status": "completed",
      "code": {
        "coding": [ {
          "system": "http://www.cms.gov/Medicare/Coding/ICD10",
          "code": "10D00Z0"
        } ]
      },
      "subject": {
        "reference": "Patient/33bdec01-260e-4b20-b457-adb03a0da942"
      },
      "performedDateTime": "2026-11-28T07:59:00.000+00:00"
    },
    "request": {
      "method": "PUT",
      "url": "Procedure/e9386a6f-fa31-492b-bf84-ef35a787acf9"
    }
  }, {
    "fullUrl": "https://madie.cms.gov/Condition/5da5b51a-d01e-4aac-986e-31208e8745f9",
    "resource": {
      "resourceType": "Condition",
      "id": "5da5b51a-d01e-4aac-986e-31208e8745f9",
      "meta": {
        "profile": [ "http://hl7.org/fhir/us/qicore/StructureDefinition/qicore-condition-encounter-diagnosis" ]
      },
      "category": [ {
        "coding": [ {
          "system": "http://terminology.hl7.org/CodeSystem/condition-category",
          "code": "encounter-diagnosis",
          "display": "Encounter Diagnosis"
        } ]
      } ],
      "code": {
        "coding": [ {
          "system": "http://snomed.info/sct",
          "version": "2022-09",
          "code": "169826009",
          "display": "Single live birth from singleton pregnancy (finding)",
          "userSelected": true
        } ]
      },
      "subject": {
        "reference": "Patient/33bdec01-260e-4b20-b457-adb03a0da942"
      },
      "encounter": {
        "reference": "Encounter/5d014eb1b848460872380470"
      },
      "recordedDate": "2026-10-17T08:00:00.000+00:00"
    },
    "request": {
      "method": "PUT",
      "url": "Condition/5da5b51a-d01e-4aac-986e-31208e8745f9"
    }
  }, {
    "fullUrl": "https://madie.cms.gov/Coverage/4bdc55ee-2566-4efc-8513-b61aad2c5f17",
    "resource": {
      "resourceType": "Coverage",
      "id": "4bdc55ee-2566-4efc-8513-b61aad2c5f17",
      "meta": {
        "profile": [ "http://hl7.org/fhir/us/qicore/StructureDefinition/qicore-coverage" ]
      },
      "status": "active",
      "subscriberId": "523435",
      "beneficiary": {
        "reference": "Patient/33bdec01-260e-4b20-b457-adb03a0da942"
      },
      "relationship": {
        "coding": [ {
          "system": "http://terminology.hl7.org/CodeSystem/subscriber-relationship",
          "code": "self"
        } ]
      },
      "payor": [ {
        "reference": "Organization/feb77fb1-d5b9-4f6d-b33f-e5f937483cd2"
      } ]
    },
    "request": {
      "method": "PUT",
      "url": "Coverage/4bdc55ee-2566-4efc-8513-b61aad2c5f17"
    }
  }, {
    "fullUrl": "https://madie.cms.gov/Organization/feb77fb1-d5b9-4f6d-b33f-e5f937483cd2",
    "resource": {
      "resourceType": "Organization",
      "id": "feb77fb1-d5b9-4f6d-b33f-e5f937483cd2",
      "meta": {
        "profile": [ "http://hl7.org/fhir/us/qicore/StructureDefinition/qicore-organization" ]
      },
      "identifier": [ {
        "use": "temp",
        "system": "urn:oid:2.16.840.1.113883.4.4",
        "value": "21-3259825"
      } ],
      "active": true,
      "type": [ {
        "coding": [ {
          "system": "http://terminology.hl7.org/CodeSystem/organization-type",
          "code": "pay",
          "display": "Payer"
        } ]
      } ],
      "name": "Blue Cross Blue Shield of Texas",
      "telecom": [ {
        "system": "phone",
        "value": "(+1) 972-766-6900"
      } ],
      "address": [ {
        "use": "billing",
        "type": "postal",
        "line": [ "P.O. Box 660044" ],
        "city": "Dallas",
        "state": "TX",
        "postalCode": "75266-0044",
        "country": "USA"
      } ]
    },
    "request": {
      "method": "PUT",
      "url": "Organization/feb77fb1-d5b9-4f6d-b33f-e5f937483cd2"
    }
  }, {
    "fullUrl": "https://madie.cms.gov/Practitioner/42a8a923-b134-475e-aa3f-31e719354796",
    "resource": {
      "resourceType": "Practitioner",
      "id": "42a8a923-b134-475e-aa3f-31e719354796",
      "meta": {
        "profile": [ "http://hl7.org/fhir/us/qicore/StructureDefinition/qicore-practitioner" ]
      },
      "identifier": [ {
        "system": "http://hl7.org/fhir/sid/us-npi",
        "value": "1234567890"
      } ],
      "name": [ {
        "family": "Evil",
        "prefix": [ "Dr" ]
      } ]
    },
    "request": {
      "method": "PUT",
      "url": "Practitioner/42a8a923-b134-475e-aa3f-31e719354796"
    }
  }, {
    "fullUrl": "https://madie.cms.gov/MeasureReport/d3a63014-4a76-4a52-af2e-43c4024fe977",
    "resource": {
      "resourceType": "MeasureReport",
      "id": "d3a63014-4a76-4a52-af2e-43c4024fe977",
      "meta": {
        "profile": [ "http://hl7.org/fhir/us/cqfmeasures/StructureDefinition/test-case-cqfm" ]
      },
      "contained": [ {
        "resourceType": "Parameters",
        "id": "3d7eccd5-5cf2-4536-b98b-d9f299fac8e0-parameters",
        "parameter": [ {
          "name": "subject",
          "valueString": "33bdec01-260e-4b20-b457-adb03a0da942"
        } ]
      } ],
      "extension": [ {
        "url": "http://hl7.org/fhir/StructureDefinition/cqf-inputParameters",
        "valueReference": {
          "reference": "#3d7eccd5-5cf2-4536-b98b-d9f299fac8e0-parameters"
        }
      }, {
        "url": "http://hl7.org/fhir/us/cqfmeasures/StructureDefinition/cqfm-testCaseDescription",
        "valueMarkdown": "IP, DEN, meets Gravida 1(effect 42 weeks)  and EGA 40 weeks;  Start of Proc Num fails as Csect start is 1 minute before start of Delivery Encounter."
      } ],
      "modifierExtension": [ {
        "url": "http://hl7.org/fhir/us/cqfmeasures/StructureDefinition/cqfm-isTestCase",
        "valueBoolean": true
      } ],
      "status": "complete",
      "type": "individual",
      "measure": "https://madie.cms.gov/Measure/CMS0334FHIRPCCesareanBirth",
      "period": {
        "start": "2026-01-01",
        "end": "2026-12-31"
      },
      "group": [ {
        "id": "Group_1",
        "population": [ {
          "id": "InitialPopulation_1",
          "code": {
            "coding": [ {
              "system": "http://terminology.hl7.org/CodeSystem/measure-population",
              "code": "initial-population",
              "display": "Initial Population"
            } ]
          },
          "count": 1
        }, {
          "id": "Denominator_1",
          "code": {
            "coding": [ {
              "system": "http://terminology.hl7.org/CodeSystem/measure-population",
              "code": "denominator",
              "display": "Denominator"
            } ]
          },
          "count": 1
        }, {
          "id": "DenominatorExclusion_1",
          "code": {
            "coding": [ {
              "system": "http://terminology.hl7.org/CodeSystem/measure-population",
              "code": "denominator-exclusion",
              "display": "Denominator Exclusion"
            } ]
          },
          "count": 0
        }, {
          "id": "Numerator_1",
          "code": {
            "coding": [ {
              "system": "http://terminology.hl7.org/CodeSystem/measure-population",
              "code": "numerator",
              "display": "Numerator"
            } ]
          },
          "count": 0
        } ],
        "measureScore": {
          "value": 0.0
        }
      } ],
      "evaluatedResource": [ {
        "reference": "Patient/33bdec01-260e-4b20-b457-adb03a0da942"
      }, {
        "reference": "Observation/2e6f88b6-2457-4309-ac18-0edf620f0d47"
      }, {
        "reference": "Observation/1ed6e027-4c61-4365-8f72-a705e33a18a5"
      }, {
        "reference": "Observation/3caa6d50-d8d5-4476-b8b9-d2a7fcf70732"
      }, {
        "reference": "Encounter/2e2ef61e-84b4-43a6-889b-c8ee0a244a46"
      }, {
        "reference": "Procedure/c655ff65-4b1e-4b69-9697-b5389cc90060"
      }, {
        "reference": "Procedure/e9386a6f-fa31-492b-bf84-ef35a787acf9"
      }, {
        "reference": "Condition/5da5b51a-d01e-4aac-986e-31208e8745f9"
      }, {
        "reference": "Coverage/4bdc55ee-2566-4efc-8513-b61aad2c5f17"
      }, {
        "reference": "Organization/feb77fb1-d5b9-4f6d-b33f-e5f937483cd2"
      }, {
        "reference": "Practitioner/42a8a923-b134-475e-aa3f-31e719354796"
      } ]
    },
    "request": {
      "method": "PUT",
      "url": "MeasureReport/d3a63014-4a76-4a52-af2e-43c4024fe977"
    }
  } ]
}