{
  "resourceType": "Bundle",
  "id": "tests-DENEXFail-HighRiskDx",
  "type": "transaction",
  "entry": [ {
    "fullUrl": "https://madie.cms.gov/Patient/37360067-1cca-4dd2-8bd8-c5afe63816ed",
    "resource": {
      "resourceType": "Patient",
      "id": "37360067-1cca-4dd2-8bd8-c5afe63816ed",
      "meta": {
        "profile": [ "http://hl7.org/fhir/us/qicore/StructureDefinition/qicore-patient" ]
      },
      "extension": [ {
        "url": "http://hl7.org/fhir/us/core/StructureDefinition/us-core-race",
        "extension": [ {
          "url": "ombCategory",
          "valueCoding": {
            "system": "urn:oid:2.16.840.1.113883.6.238",
            "code": "2106-3",
            "display": "White"
          }
        }, {
          "url": "text",
          "valueString": "White"
        } ]
      }, {
        "url": "http://hl7.org/fhir/us/core/StructureDefinition/us-core-ethnicity",
        "extension": [ {
          "url": "ombCategory",
          "valueCoding": {
            "system": "urn:oid:2.16.840.1.113883.6.238",
            "code": "2135-2",
            "display": "Hispanic or Latino"
          }
        }, {
          "url": "text",
          "valueString": "Hispanic or Latino"
        } ]
      }, {
        "url": "http://hl7.org/fhir/us/core/StructureDefinition/us-core-sex",
        "valueCode": "248153007"
      } ],
      "identifier": [ {
        "system": "http://hospital.smarthealthit.org",
        "value": "999999999"
      } ],
      "name": [ {
        "family": "Example",
        "given": [ "Patient" ]
      } ],
      "gender": "male",
      "birthDate": "1975-01-01"
    },
    "request": {
      "method": "PUT",
      "url": "Patient/37360067-1cca-4dd2-8bd8-c5afe63816ed"
    }
  }, {
    "fullUrl": "https://madie.cms.gov/Encounter/755d22d0-f39b-46f1-ae71-165aa07c7515",
    "resource": {
      "resourceType": "Encounter",
      "id": "755d22d0-f39b-46f1-ae71-165aa07c7515",
      "meta": {
        "profile": [ "http://hl7.org/fhir/us/qicore/StructureDefinition/qicore-encounter" ]
      },
      "status": "finished",
      "class": {
        "system": "http://terminology.hl7.org/CodeSystem/v3-ActCode",
        "code": "IMP",
        "display": "inpatient encounter"
      },
      "type": [ {
        "coding": [ {
          "system": "http://snomed.info/sct",
          "code": "183452005",
          "display": "Emergency hospital admission (procedure)"
        } ]
      } ],
      "subject": {
        "reference": "Patient/37360067-1cca-4dd2-8bd8-c5afe63816ed"
      },
      "period": {
        "start": "2026-09-29T08:00:00.000+00:00",
        "end": "2026-10-03T20:00:00.000+00:00"
      },
      "reasonCode": [ {
        "coding": [ {
          "system": "http://hl7.org/fhir/sid/icd-10-cm",
          "code": "S37.061A",
          "display": "Major laceration of right kidney, initial encounter"
        } ]
      } ]
    },
    "request": {
      "method": "PUT",
      "url": "Encounter/755d22d0-f39b-46f1-ae71-165aa07c7515"
    }
  }, {
    "fullUrl": "https://madie.cms.gov/Observation/2647d9cd-0753-4ae6-9692-c66ec7a50431",
    "resource": {
      "resourceType": "Observation",
      "id": "2647d9cd-0753-4ae6-9692-c66ec7a50431",
      "meta": {
        "profile": [ "http://hl7.org/fhir/us/qicore/StructureDefinition/qicore-observation-lab" ]
      },
      "status": "final",
      "category": [ {
        "coding": [ {
          "system": "http://terminology.hl7.org/CodeSystem/observation-category",
          "code": "laboratory",
          "display": "Laboratory"
        } ]
      } ],
      "code": {
        "coding": [ {
          "system": "http://loinc.org",
          "code": "21232-4",
          "display": "Creatinine [Mass/volume] in Arterial blood"
        } ]
      },
      "subject": {
        "reference": "Patient/37360067-1cca-4dd2-8bd8-c5afe63816ed"
      },
      "effectiveDateTime": "2026-10-01T08:01:00.000+00:00",
      "valueQuantity": {
        "value": 0.9,
        "unit": "mg/dL",
        "system": "http://unitsofmeasure.org",
        "code": "mg/dL"
      }
    },
    "request": {
      "method": "PUT",
      "url": "Observation/2647d9cd-0753-4ae6-9692-c66ec7a50431"
    }
  }, {
    "fullUrl": "https://madie.cms.gov/Observation/23d4763f-9299-421e-a307-47890254bb8a",
    "resource": {
      "resourceType": "Observation",
      "id": "23d4763f-9299-421e-a307-47890254bb8a",
      "meta": {
        "profile": [ "http://hl7.org/fhir/us/qicore/StructureDefinition/qicore-observation-lab" ]
      },
      "status": "final",
      "category": [ {
        "coding": [ {
          "system": "http://terminology.hl7.org/CodeSystem/observation-category",
          "code": "laboratory",
          "display": "Laboratory"
        } ]
      } ],
      "code": {
        "coding": [ {
          "system": "http://loinc.org",
          "code": "21232-4",
          "display": "Creatinine [Mass/volume] in Arterial blood"
        } ]
      },
      "subject": {
        "reference": "Patient/37360067-1cca-4dd2-8bd8-c5afe63816ed"
      },
      "effectiveDateTime": "2026-10-01T07:00:00.000+00:00",
      "valueQuantity": {
        "value": 0.91,
        "unit": "mg/dL",
        "system": "http://unitsofmeasure.org",
        "code": "mg/dL"
      }
    },
    "request": {
      "method": "PUT",
      "url": "Observation/23d4763f-9299-421e-a307-47890254bb8a"
    }
  }, {
    "fullUrl": "https://madie.cms.gov/Condition/ca8f61ec-5fc7-4090-acf1-aa847cbfc2a5",
    "resource": {
      "resourceType": "Condition",
      "id": "ca8f61ec-5fc7-4090-acf1-aa847cbfc2a5",
      "meta": {
        "profile": [ "http://hl7.org/fhir/us/qicore/StructureDefinition/qicore-condition-encounter-diagnosis" ]
      },
      "clinicalStatus": {
        "coding": [ {
          "system": "http://terminology.hl7.org/CodeSystem/condition-clinical",
          "code": "active",
          "display": "Active"
        } ]
      },
      "verificationStatus": {
        "coding": [ {
          "system": "http://terminology.hl7.org/CodeSystem/condition-ver-status",
          "code": "confirmed",
          "display": "Confirmed"
        } ]
      },
      "category": [ {
        "coding": [ {
          "system": "http://terminology.hl7.org/CodeSystem/condition-category",
          "code": "encounter-diagnosis",
          "display": "Encounter Diagnosis"
        } ],
        "text": "Encounter Diagnosis"
      } ],
      "code": {
        "coding": [ {
          "system": "http://hl7.org/fhir/sid/icd-10-cm",
          "code": "S37.061A",
          "display": "Major laceration of right kidney, initial encounter"
        } ],
        "text": "Major laceration of right kidney, initial encounter"
      },
      "subject": {
        "reference": "Patient/37360067-1cca-4dd2-8bd8-c5afe63816ed"
      },
      "encounter": {
        "reference": "Encounter/755d22d0-f39b-46f1-ae71-165aa07c7515"
      }
    },
    "request": {
      "method": "PUT",
      "url": "Condition/ca8f61ec-5fc7-4090-acf1-aa847cbfc2a5"
    }
  }, {
    "fullUrl": "https://madie.cms.gov/Observation/674ecb60-0fd0-45e9-8829-317c288e17dc",
    "resource": {
      "resourceType": "Observation",
      "id": "674ecb60-0fd0-45e9-8829-317c288e17dc",
      "meta": {
        "profile": [ "http://hl7.org/fhir/us/qicore/StructureDefinition/qicore-observation-lab" ]
      },
      "status": "final",
      "category": [ {
        "coding": [ {
          "system": "http://terminology.hl7.org/CodeSystem/observation-category",
          "code": "laboratory",
          "display": "Laboratory"
        } ]
      } ],
      "code": {
        "coding": [ {
          "system": "http://loinc.org",
          "code": "21232-4",
          "display": "Creatinine [Mass/volume] in Arterial blood"
        } ]
      },
      "subject": {
        "reference": "Patient/37360067-1cca-4dd2-8bd8-c5afe63816ed"
      },
      "effectiveDateTime": "2026-10-01T07:35:00.000+00:00",
      "valueQuantity": {
        "value": 0.91,
        "unit": "mg/dL",
        "system": "http://unitsofmeasure.org",
        "code": "mg/dL"
      }
    },
    "request": {
      "method": "PUT",
      "url": "Observation/674ecb60-0fd0-45e9-8829-317c288e17dc"
    }
  }, {
    "fullUrl": "https://madie.cms.gov/MeasureReport/a6f281ec-b278-4700-939b-48454e60db81",
    "resource": {
      "resourceType": "MeasureReport",
      "id": "a6f281ec-b278-4700-939b-48454e60db81",
      "meta": {
        "profile": [ "http://hl7.org/fhir/us/cqfmeasures/StructureDefinition/test-case-cqfm" ]
      },
      "contained": [ {
        "resourceType": "Parameters",
        "id": "9b63a2ba-e4da-4360-9a48-7d2d093528b6-parameters",
        "parameter": [ {
          "name": "subject",
          "valueString": "37360067-1cca-4dd2-8bd8-c5afe63816ed"
        } ]
      } ],
      "extension": [ {
        "url": "http://hl7.org/fhir/StructureDefinition/cqf-inputParameters",
        "valueReference": {
          "reference": "#9b63a2ba-e4da-4360-9a48-7d2d093528b6-parameters"
        }
      }, {
        "url": "http://hl7.org/fhir/us/cqfmeasures/StructureDefinition/cqfm-testCaseDescription",
        "valueMarkdown": "Patient is High Risk Diagnosis of AKI, no ER admission"
      } ],
      "modifierExtension": [ {
        "url": "http://hl7.org/fhir/us/cqfmeasures/StructureDefinition/cqfm-isTestCase",
        "valueBoolean": true
      } ],
      "status": "complete",
      "type": "individual",
      "measure": "https://madie.cms.gov/Measure/CMS832FHIRHHAKI",
      "period": {
        "start": "2026-01-01",
        "end": "2026-12-31"
      },
      "group": [ {
        "id": "Group_1",
        "population": [ {
          "id": "InitialPopulation_1",
          "code": {
            "coding": [ {
              "system": "http://terminology.hl7.org/CodeSystem/measure-population",
              "code": "initial-population",
              "display": "Initial Population"
            } ]
          },
          "count": 1
        }, {
          "id": "Denominator_1",
          "code": {
            "coding": [ {
              "system": "http://terminology.hl7.org/CodeSystem/measure-population",
              "code": "denominator",
              "display": "Denominator"
            } ]
          },
          "count": 1
        }, {
          "id": "DenominatorExclusion_1",
          "code": {
            "coding": [ {
              "system": "http://terminology.hl7.org/CodeSystem/measure-population",
              "code": "denominator-exclusion",
              "display": "Denominator Exclusion"
            } ]
          },
          "count": 1
        }, {
          "id": "Numerator_1",
          "code": {
            "coding": [ {
              "system": "http://terminology.hl7.org/CodeSystem/measure-population",
              "code": "numerator",
              "display": "Numerator"
            } ]
          },
          "count": 0
        } ],
        "measureScore": {
          "value": 0.0
        }
      } ],
      "evaluatedResource": [ {
        "reference": "Patient/37360067-1cca-4dd2-8bd8-c5afe63816ed"
      }, {
        "reference": "Encounter/755d22d0-f39b-46f1-ae71-165aa07c7515"
      }, {
        "reference": "Observation/2647d9cd-0753-4ae6-9692-c66ec7a50431"
      }, {
        "reference": "Observation/23d4763f-9299-421e-a307-47890254bb8a"
      }, {
        "reference": "Condition/ca8f61ec-5fc7-4090-acf1-aa847cbfc2a5"
      }, {
        "reference": "Observation/674ecb60-0fd0-45e9-8829-317c288e17dc"
      } ]
    },
    "request": {
      "method": "PUT",
      "url": "MeasureReport/a6f281ec-b278-4700-939b-48454e60db81"
    }
  } ]
}