{
  "resourceType": "Bundle",
  "id": "62df2a6b0056b6e23ec675a9",
  "type": "collection",
  "entry": [ {
    "fullUrl": "https://madie.cms.gov/Patient/659f9c7b-5c1c-475f-bfcb-77c246fa7a28",
    "resource": {
      "resourceType": "Patient",
      "id": "659f9c7b-5c1c-475f-bfcb-77c246fa7a28",
      "meta": {
        "profile": [ "http://hl7.org/fhir/us/qicore/StructureDefinition/qicore-patient" ]
      },
      "extension": [ {
        "url": "http://hl7.org/fhir/us/core/StructureDefinition/us-core-race",
        "extension": [ {
          "url": "ombCategory",
          "valueCoding": {
            "system": "urn:oid:2.16.840.1.113883.6.238",
            "code": "2106-3",
            "display": "White",
            "userSelected": true
          }
        }, {
          "url": "text",
          "valueString": "White"
        } ]
      }, {
        "url": "http://hl7.org/fhir/us/core/StructureDefinition/us-core-ethnicity",
        "extension": [ {
          "url": "ombCategory",
          "valueCoding": {
            "system": "urn:oid:2.16.840.1.113883.6.238",
            "code": "2186-5",
            "display": "Not Hispanic or Latino",
            "userSelected": true
          }
        }, {
          "url": "text",
          "valueString": "Not Hispanic or Latino"
        } ]
      } ],
      "identifier": [ {
        "type": {
          "coding": [ {
            "system": "http://terminology.hl7.org/CodeSystem/v2-0203",
            "code": "MR"
          } ]
        },
        "system": "https://bonnie-fhir.healthit.gov/",
        "value": "62df2a6b0056b6e23ec675a9"
      } ],
      "name": [ {
        "family": "DENEXCEPPass",
        "given": [ "MedicalReasonMedicationForAboveNormalBMI" ]
      } ],
      "gender": "unknown",
      "birthDate": "1957-11-07"
    }
  }, {
    "fullUrl": "https://madie.cms.gov/Encounter/3673bc8c-be93-4949-a354-1a1d5d007504",
    "resource": {
      "resourceType": "Encounter",
      "id": "3673bc8c-be93-4949-a354-1a1d5d007504",
      "meta": {
        "profile": [ "http://hl7.org/fhir/us/qicore/StructureDefinition/qicore-encounter" ]
      },
      "status": "finished",
      "class": {
        "system": "http://terminology.hl7.org/CodeSystem/v3-ActCode",
        "code": "AMB",
        "display": "ambulatory"
      },
      "type": [ {
        "coding": [ {
          "system": "http://snomed.info/sct",
          "code": "10197000",
          "display": "Psychiatric interview and evaluation (procedure)",
          "userSelected": true
        } ]
      } ],
      "subject": {
        "reference": "Patient/659f9c7b-5c1c-475f-bfcb-77c246fa7a28"
      },
      "period": {
        "start": "2026-01-01T08:00:00.000+00:00",
        "end": "2026-01-01T08:25:00.000+00:00"
      }
    }
  }, {
    "fullUrl": "https://madie.cms.gov/Observation/81c1bd25-41c5-43e3-adc1-bb486ad1c54d",
    "resource": {
      "resourceType": "Observation",
      "id": "81c1bd25-41c5-43e3-adc1-bb486ad1c54d",
      "meta": {
        "profile": [ "http://hl7.org/fhir/us/qicore/StructureDefinition/qicore-observationcancelled" ]
      },
      "extension": [ {
        "url": "http://hl7.org/fhir/us/qicore/StructureDefinition/qicore-notDoneReason",
        "valueCodeableConcept": {
          "coding": [ {
            "system": "http://snomed.info/sct",
            "code": "183945002",
            "display": "Procedure declined for religious reason (situation)",
            "userSelected": true
          } ]
        }
      } ],
      "status": "cancelled",
      "category": [ {
        "coding": [ {
          "system": "http://terminology.hl7.org/CodeSystem/observation-category",
          "code": "vital-signs",
          "display": "Vital Signs"
        } ]
      } ],
      "code": {
        "coding": [ {
          "system": "http://loinc.org",
          "code": "39156-5",
          "display": "Body mass index (BMI) [Ratio]",
          "userSelected": true
        } ]
      },
      "subject": {
        "reference": "Patient/659f9c7b-5c1c-475f-bfcb-77c246fa7a28"
      },
      "effectiveDateTime": "2026-01-01T08:05:00.000+00:00",
      "issued": "2026-01-01T08:05:00.000+00:00",
      "dataAbsentReason": {
        "coding": [ {
          "system": "http://terminology.hl7.org/CodeSystem/data-absent-reason",
          "code": "not-performed",
          "display": "Not Performed"
        } ]
      }
    }
  }, {
    "fullUrl": "https://madie.cms.gov/MedicationRequest/140d8a90-9bf6-4927-9561-ecbbc9767dfe",
    "resource": {
      "resourceType": "MedicationRequest",
      "id": "140d8a90-9bf6-4927-9561-ecbbc9767dfe",
      "meta": {
        "profile": [ "http://hl7.org/fhir/us/qicore/StructureDefinition/qicore-mednotrequested" ]
      },
      "status": "completed",
      "intent": "order",
      "doNotPerform": true,
      "medicationCodeableConcept": {
        "coding": [ {
          "system": "http://www.nlm.nih.gov/research/umls/rxnorm",
          "code": "1112982",
          "display": "phentermine hydrochloride 15 MG Disintegrating Oral Tablet",
          "userSelected": true
        } ]
      },
      "subject": {
        "reference": "Patient/659f9c7b-5c1c-475f-bfcb-77c246fa7a28"
      },
      "authoredOn": "2026-01-01T08:10:00.000+00:00",
      "requester": {
        "reference": "Practitioner/f007",
        "display": "Patrick Pump"
      },
      "reasonCode": [ {
        "coding": [ {
          "system": "http://snomed.info/sct",
          "code": "62014003",
          "display": "Adverse reaction caused by drug (disorder)",
          "userSelected": true
        } ]
      } ]
    }
  }, {
    "fullUrl": "https://madie.cms.gov/Coverage/03d04e11-5b47-4278-8c11-fc56527c690a",
    "resource": {
      "resourceType": "Coverage",
      "id": "03d04e11-5b47-4278-8c11-fc56527c690a",
      "meta": {
        "profile": [ "http://hl7.org/fhir/us/qicore/StructureDefinition/qicore-coverage" ]
      },
      "status": "active",
      "subscriberId": "123456",
      "beneficiary": {
        "reference": "Patient/659f9c7b-5c1c-475f-bfcb-77c246fa7a28"
      },
      "relationship": {
        "coding": [ {
          "system": "http://terminology.hl7.org/CodeSystem/subscriber-relationship",
          "code": "self",
          "display": "Self",
          "userSelected": true
        } ]
      },
      "payor": [ {
        "reference": "Organization/32fd5440-97e0-4103-bce2-c4875f520945"
      } ]
    }
  }, {
    "fullUrl": "https://madie.cms.gov/Organization/32fd5440-97e0-4103-bce2-c4875f520945",
    "resource": {
      "resourceType": "Organization",
      "id": "32fd5440-97e0-4103-bce2-c4875f520945",
      "meta": {
        "profile": [ "http://hl7.org/fhir/us/qicore/StructureDefinition/qicore-organization" ]
      },
      "identifier": [ {
        "use": "temp",
        "system": "urn:oid:2.16.840.1.113883.4.4",
        "value": "21-3259825"
      } ],
      "active": true,
      "type": [ {
        "coding": [ {
          "system": "http://terminology.hl7.org/CodeSystem/organization-type",
          "code": "pay",
          "display": "Payer"
        } ]
      } ],
      "name": "Blue Cross Blue Shield of Texas",
      "telecom": [ {
        "system": "phone",
        "value": "(+1) 972-766-6900"
      } ],
      "address": [ {
        "use": "billing",
        "type": "postal",
        "line": [ "P.O. Box 660044" ],
        "city": "Dallas",
        "state": "TX",
        "postalCode": "75266-0044",
        "country": "USA"
      } ]
    }
  }, {
    "fullUrl": "https://madie.cms.gov/Practitioner/8fc7454d-75e7-456e-8978-e812256a9ada",
    "resource": {
      "resourceType": "Practitioner",
      "id": "8fc7454d-75e7-456e-8978-e812256a9ada",
      "meta": {
        "profile": [ "http://hl7.org/fhir/us/qicore/StructureDefinition/qicore-practitioner" ]
      },
      "identifier": [ {
        "system": "http://hl7.org/fhir/sid/us-npi",
        "value": "1234567893"
      } ],
      "name": [ {
        "family": "Evil",
        "prefix": [ "Dr" ]
      } ]
    }
  }, {
    "fullUrl": "https://madie.cms.gov/MeasureReport/3de4937e-ab6f-4569-9e1a-7e08a3cbb3d8",
    "resource": {
      "resourceType": "MeasureReport",
      "id": "3de4937e-ab6f-4569-9e1a-7e08a3cbb3d8",
      "meta": {
        "profile": [ "http://hl7.org/fhir/us/cqfmeasures/StructureDefinition/test-case-cqfm" ]
      },
      "contained": [ {
        "resourceType": "Parameters",
        "id": "ff457917-5722-4c56-9ef6-2299a3bd84c4-parameters",
        "parameter": [ {
          "name": "subject",
          "valueString": "659f9c7b-5c1c-475f-bfcb-77c246fa7a28"
        } ]
      } ],
      "extension": [ {
        "url": "http://hl7.org/fhir/StructureDefinition/cqf-inputParameters",
        "valueReference": {
          "reference": "#ff457917-5722-4c56-9ef6-2299a3bd84c4-parameters"
        }
      }, {
        "url": "http://hl7.org/fhir/us/cqfmeasures/StructureDefinition/cqfm-testCaseDescription",
        "valueMarkdown": "Enc during MP, no BMI or medication intervention as pat refused"
      } ],
      "modifierExtension": [ {
        "url": "http://hl7.org/fhir/us/cqfmeasures/StructureDefinition/cqfm-isTestCase",
        "valueBoolean": true
      } ],
      "status": "complete",
      "type": "individual",
      "measure": "https://madie.cms.gov/Measure/CMS69FHIRPCSBMIScreenAndFollowUp",
      "period": {
        "start": "2026-01-01",
        "end": "2026-12-31"
      },
      "group": [ {
        "id": "Group_1",
        "population": [ {
          "id": "InitialPopulation_1",
          "code": {
            "coding": [ {
              "system": "http://terminology.hl7.org/CodeSystem/measure-population",
              "code": "initial-population",
              "display": "Initial Population"
            } ]
          },
          "count": 1
        }, {
          "id": "Denominator_1",
          "code": {
            "coding": [ {
              "system": "http://terminology.hl7.org/CodeSystem/measure-population",
              "code": "denominator",
              "display": "Denominator"
            } ]
          },
          "count": 1
        }, {
          "id": "DenominatorExclusion_1",
          "code": {
            "coding": [ {
              "system": "http://terminology.hl7.org/CodeSystem/measure-population",
              "code": "denominator-exclusion",
              "display": "Denominator Exclusion"
            } ]
          },
          "count": 0
        }, {
          "id": "Numerator_1",
          "code": {
            "coding": [ {
              "system": "http://terminology.hl7.org/CodeSystem/measure-population",
              "code": "numerator",
              "display": "Numerator"
            } ]
          },
          "count": 0
        }, {
          "id": "DenominatorException_1",
          "code": {
            "coding": [ {
              "system": "http://terminology.hl7.org/CodeSystem/measure-population",
              "code": "denominator-exception",
              "display": "Denominator Exception"
            } ]
          },
          "count": 1
        } ],
        "measureScore": {
          "value": 1.0
        }
      } ],
      "evaluatedResource": [ {
        "reference": "Patient/659f9c7b-5c1c-475f-bfcb-77c246fa7a28"
      }, {
        "reference": "Encounter/3673bc8c-be93-4949-a354-1a1d5d007504"
      }, {
        "reference": "Observation/81c1bd25-41c5-43e3-adc1-bb486ad1c54d"
      }, {
        "reference": "MedicationRequest/140d8a90-9bf6-4927-9561-ecbbc9767dfe"
      }, {
        "reference": "Coverage/03d04e11-5b47-4278-8c11-fc56527c690a"
      }, {
        "reference": "Organization/32fd5440-97e0-4103-bce2-c4875f520945"
      }, {
        "reference": "Practitioner/8fc7454d-75e7-456e-8978-e812256a9ada"
      } ]
    }
  } ]
}