{
  "resourceType": "Bundle",
  "id": "62f65aa75efef5272905e706",
  "type": "collection",
  "entry": [ {
    "fullUrl": "https://madie.cms.gov/Patient/6f17c306-5df4-431a-8364-d44ab5bad34a",
    "resource": {
      "resourceType": "Patient",
      "id": "6f17c306-5df4-431a-8364-d44ab5bad34a",
      "meta": {
        "profile": [ "http://hl7.org/fhir/us/qicore/StructureDefinition/qicore-patient" ]
      },
      "extension": [ {
        "url": "http://hl7.org/fhir/us/core/StructureDefinition/us-core-race",
        "extension": [ {
          "url": "ombCategory",
          "valueCoding": {
            "system": "urn:oid:2.16.840.1.113883.6.238",
            "code": "1002-5",
            "display": "American Indian or Alaska Native",
            "userSelected": true
          }
        }, {
          "url": "text",
          "valueString": "American Indian or Alaska Native"
        } ]
      }, {
        "url": "http://hl7.org/fhir/us/core/StructureDefinition/us-core-ethnicity",
        "extension": [ {
          "url": "ombCategory",
          "valueCoding": {
            "system": "urn:oid:2.16.840.1.113883.6.238",
            "code": "2135-2",
            "display": "Hispanic or Latino",
            "userSelected": true
          }
        }, {
          "url": "text",
          "valueString": "Hispanic or Latino"
        } ]
      }, {
        "url": "http://hl7.org/fhir/us/core/StructureDefinition/us-core-sex",
        "valueCode": "248153007"
      } ],
      "identifier": [ {
        "type": {
          "coding": [ {
            "system": "http://terminology.hl7.org/CodeSystem/v2-0203",
            "code": "MR"
          } ]
        },
        "system": "https://bonnie-fhir.healthit.gov/",
        "value": "62f65aa75efef5272905e706"
      } ],
      "name": [ {
        "family": "DENEXCEPFail",
        "given": [ "AdultPtReasonForNoDepScreenandDepScreenAWeekAgo" ]
      } ],
      "gender": "male",
      "birthDate": "2008-01-01"
    }
  }, {
    "fullUrl": "https://madie.cms.gov/Encounter/72e9fdf3-f27b-4609-b9cd-68f824d3537f",
    "resource": {
      "resourceType": "Encounter",
      "id": "72e9fdf3-f27b-4609-b9cd-68f824d3537f",
      "meta": {
        "profile": [ "http://hl7.org/fhir/us/qicore/StructureDefinition/qicore-encounter" ]
      },
      "status": "finished",
      "class": {
        "system": "http://terminology.hl7.org/CodeSystem/v3-ActCode",
        "code": "AMB",
        "display": "ambulatory"
      },
      "type": [ {
        "coding": [ {
          "system": "http://snomed.info/sct",
          "code": "10197000",
          "display": "Psychiatric interview and evaluation (procedure)",
          "userSelected": true
        } ]
      } ],
      "subject": {
        "reference": "Patient/6f17c306-5df4-431a-8364-d44ab5bad34a"
      },
      "period": {
        "start": "2026-06-28T08:00:00.000Z",
        "end": "2026-06-28T08:15:00.000Z"
      }
    }
  }, {
    "fullUrl": "https://madie.cms.gov/Observation/ad7ed486-e4a5-404a-ae42-6d9f7ce8eda2",
    "resource": {
      "resourceType": "Observation",
      "id": "ad7ed486-e4a5-404a-ae42-6d9f7ce8eda2",
      "meta": {
        "profile": [ "http://hl7.org/fhir/us/qicore/StructureDefinition/qicore-observationcancelled" ]
      },
      "extension": [ {
        "url": "http://hl7.org/fhir/us/qicore/StructureDefinition/qicore-notDoneReason",
        "valueCodeableConcept": {
          "coding": [ {
            "system": "http://snomed.info/sct",
            "code": "720834000",
            "display": "Depression screening declined (situation)",
            "userSelected": true
          } ]
        }
      } ],
      "status": "cancelled",
      "category": [ {
        "coding": [ {
          "system": "http://terminology.hl7.org/CodeSystem/observation-category",
          "code": "procedure",
          "display": "Procedure"
        } ]
      } ],
      "code": {
        "coding": [ {
          "system": "http://loinc.org",
          "code": "73832-8",
          "display": "Adult depression screening assessment",
          "userSelected": true
        } ]
      },
      "subject": {
        "reference": "Patient/6f17c306-5df4-431a-8364-d44ab5bad34a"
      },
      "issued": "2026-06-28T08:00:00.000Z",
      "valueBoolean": true
    }
  }, {
    "fullUrl": "https://madie.cms.gov/Observation/75566fcc-0f4f-4a30-a475-33ef11feec41",
    "resource": {
      "resourceType": "Observation",
      "id": "75566fcc-0f4f-4a30-a475-33ef11feec41",
      "meta": {
        "profile": [ "http://hl7.org/fhir/us/qicore/StructureDefinition/qicore-observation-screening-assessment" ]
      },
      "status": "final",
      "category": [ {
        "coding": [ {
          "system": "http://terminology.hl7.org/CodeSystem/observation-category",
          "code": "procedure",
          "display": "Procedure"
        } ]
      }, {
        "coding": [ {
          "system": "http://terminology.hl7.org/CodeSystem/observation-category",
          "code": "survey",
          "display": "Survey"
        } ]
      } ],
      "code": {
        "coding": [ {
          "system": "http://loinc.org",
          "code": "73832-8",
          "display": "Adult depression screening assessment",
          "userSelected": true
        } ]
      },
      "subject": {
        "reference": "Patient/6f17c306-5df4-431a-8364-d44ab5bad34a"
      },
      "effectiveDateTime": "2026-06-21T08:00:00.000Z",
      "issued": "2026-06-20T08:00:00.000Z",
      "valueBoolean": true
    }
  }, {
    "fullUrl": "https://madie.cms.gov/Coverage/33db1fa4-e405-415e-9828-babb3f6cdb5d",
    "resource": {
      "resourceType": "Coverage",
      "id": "33db1fa4-e405-415e-9828-babb3f6cdb5d",
      "meta": {
        "profile": [ "http://hl7.org/fhir/us/qicore/StructureDefinition/qicore-coverage" ]
      },
      "status": "active",
      "type": {
        "coding": [ {
          "system": "https://nahdo.org/sopt",
          "code": "21",
          "display": "Medicaid (Managed Care)",
          "userSelected": true
        } ]
      },
      "subscriberId": "123456789",
      "beneficiary": {
        "reference": "Patient/6f17c306-5df4-431a-8364-d44ab5bad34a"
      },
      "relationship": {
        "coding": [ {
          "system": "http://terminology.hl7.org/CodeSystem/subscriber-relationship",
          "code": "self",
          "display": "Self",
          "userSelected": true
        } ]
      },
      "period": {
        "start": "2021-06-28T08:00:00.000Z",
        "end": "2026-06-28T08:15:00.000Z"
      },
      "payor": [ {
        "reference": "Organization/40c4cf70-5018-4bd1-b388-81adebfa0c98"
      } ]
    }
  }, {
    "fullUrl": "https://madie.cms.gov/Organization/40c4cf70-5018-4bd1-b388-81adebfa0c98",
    "resource": {
      "resourceType": "Organization",
      "id": "40c4cf70-5018-4bd1-b388-81adebfa0c98",
      "meta": {
        "profile": [ "http://hl7.org/fhir/us/qicore/StructureDefinition/qicore-organization" ]
      },
      "identifier": [ {
        "use": "temp",
        "system": "urn:oid:2.16.840.1.113883.4.4",
        "value": "21-3259825"
      } ],
      "active": true,
      "type": [ {
        "coding": [ {
          "system": "http://terminology.hl7.org/CodeSystem/organization-type",
          "code": "pay",
          "display": "Payer"
        } ]
      } ],
      "name": "Blue Cross Blue Shield of Texas",
      "telecom": [ {
        "system": "phone",
        "value": "(+1) 972-766-6900"
      } ],
      "address": [ {
        "use": "billing",
        "type": "postal",
        "line": [ "P.O. Box 660044" ],
        "city": "Dallas",
        "state": "TX",
        "postalCode": "75266-0044",
        "country": "USA"
      } ]
    }
  }, {
    "fullUrl": "https://madie.cms.gov/Practitioner/cc484ef7-69e3-4fa0-8d3a-fcaa2f592bfa",
    "resource": {
      "resourceType": "Practitioner",
      "id": "cc484ef7-69e3-4fa0-8d3a-fcaa2f592bfa",
      "meta": {
        "profile": [ "http://hl7.org/fhir/us/qicore/StructureDefinition/qicore-practitioner" ]
      },
      "identifier": [ {
        "system": "http://hl7.org/fhir/sid/us-npi",
        "value": "1234567893"
      } ],
      "name": [ {
        "family": "Evil",
        "prefix": [ "Dr" ]
      } ]
    }
  }, {
    "fullUrl": "https://madie.cms.gov/MeasureReport/4d573421-a154-4534-beda-b21e58f1560e",
    "resource": {
      "resourceType": "MeasureReport",
      "id": "4d573421-a154-4534-beda-b21e58f1560e",
      "meta": {
        "profile": [ "http://hl7.org/fhir/us/cqfmeasures/StructureDefinition/test-case-cqfm" ]
      },
      "contained": [ {
        "resourceType": "Parameters",
        "id": "3c159133-c47a-4895-817c-cc08e0a9d21f-parameters",
        "parameter": [ {
          "name": "subject",
          "valueString": "6f17c306-5df4-431a-8364-d44ab5bad34a"
        } ]
      } ],
      "extension": [ {
        "url": "http://hl7.org/fhir/StructureDefinition/cqf-inputParameters",
        "valueReference": {
          "reference": "#3c159133-c47a-4895-817c-cc08e0a9d21f-parameters"
        }
      }, {
        "url": "http://hl7.org/fhir/us/cqfmeasures/StructureDefinition/cqfm-testCaseDescription",
        "valueMarkdown": "18 yo male with patient reason for not screening for depression and had screening done a week ago."
      } ],
      "modifierExtension": [ {
        "url": "http://hl7.org/fhir/us/cqfmeasures/StructureDefinition/cqfm-isTestCase",
        "valueBoolean": true
      } ],
      "status": "complete",
      "type": "individual",
      "measure": "https://madie.cms.gov/Measure/CMS2FHIRPCSDepScreenAndFollowUp",
      "period": {
        "start": "2026-01-01",
        "end": "2026-12-31"
      },
      "group": [ {
        "id": "Group_1",
        "population": [ {
          "id": "InitialPopulation_1",
          "code": {
            "coding": [ {
              "system": "http://terminology.hl7.org/CodeSystem/measure-population",
              "code": "initial-population",
              "display": "Initial Population"
            } ]
          },
          "count": 1
        }, {
          "id": "Denominator_1",
          "code": {
            "coding": [ {
              "system": "http://terminology.hl7.org/CodeSystem/measure-population",
              "code": "denominator",
              "display": "Denominator"
            } ]
          },
          "count": 1
        }, {
          "id": "DenominatorExclusion_1",
          "code": {
            "coding": [ {
              "system": "http://terminology.hl7.org/CodeSystem/measure-population",
              "code": "denominator-exclusion",
              "display": "Denominator Exclusion"
            } ]
          },
          "count": 0
        }, {
          "id": "Numerator_1",
          "code": {
            "coding": [ {
              "system": "http://terminology.hl7.org/CodeSystem/measure-population",
              "code": "numerator",
              "display": "Numerator"
            } ]
          },
          "count": 0
        }, {
          "id": "DenominatorException_1",
          "code": {
            "coding": [ {
              "system": "http://terminology.hl7.org/CodeSystem/measure-population",
              "code": "denominator-exception",
              "display": "Denominator Exception"
            } ]
          },
          "count": 0
        } ],
        "measureScore": {
          "value": 1.0
        }
      } ],
      "evaluatedResource": [ {
        "reference": "Patient/6f17c306-5df4-431a-8364-d44ab5bad34a"
      }, {
        "reference": "Encounter/72e9fdf3-f27b-4609-b9cd-68f824d3537f"
      }, {
        "reference": "Observation/ad7ed486-e4a5-404a-ae42-6d9f7ce8eda2"
      }, {
        "reference": "Observation/75566fcc-0f4f-4a30-a475-33ef11feec41"
      }, {
        "reference": "Coverage/33db1fa4-e405-415e-9828-babb3f6cdb5d"
      }, {
        "reference": "Organization/40c4cf70-5018-4bd1-b388-81adebfa0c98"
      }, {
        "reference": "Practitioner/cc484ef7-69e3-4fa0-8d3a-fcaa2f592bfa"
      } ]
    }
  } ]
}