{
  "resourceType": "Bundle",
  "id": "62fd4b710968f82603aac854",
  "type": "collection",
  "entry": [ {
    "fullUrl": "https://madie.cms.gov/Patient/e25e1d4a-6240-4bd6-8d8a-2773e7a920b6",
    "resource": {
      "resourceType": "Patient",
      "id": "e25e1d4a-6240-4bd6-8d8a-2773e7a920b6",
      "meta": {
        "profile": [ "http://hl7.org/fhir/us/qicore/StructureDefinition/qicore-patient" ]
      },
      "extension": [ {
        "url": "http://hl7.org/fhir/us/core/StructureDefinition/us-core-race",
        "extension": [ {
          "url": "ombCategory",
          "valueCoding": {
            "system": "urn:oid:2.16.840.1.113883.6.238",
            "code": "2054-5",
            "display": "Black or African American",
            "userSelected": true
          }
        }, {
          "url": "text",
          "valueString": "Black or African American"
        } ]
      }, {
        "url": "http://hl7.org/fhir/us/core/StructureDefinition/us-core-ethnicity",
        "extension": [ {
          "url": "ombCategory",
          "valueCoding": {
            "system": "urn:oid:2.16.840.1.113883.6.238",
            "code": "2186-5",
            "display": "Not Hispanic or Latino",
            "userSelected": true
          }
        }, {
          "url": "text",
          "valueString": "Not Hispanic or Latino"
        } ]
      } ],
      "identifier": [ {
        "type": {
          "coding": [ {
            "system": "http://terminology.hl7.org/CodeSystem/v2-0203",
            "code": "MR"
          } ]
        },
        "system": "https://bonnie-fhir.healthit.gov/",
        "value": "62fd4b710968f82603aac854"
      } ],
      "name": [ {
        "family": "IPFail",
        "given": [ "EncOverlapsEndMP" ]
      } ],
      "gender": "female",
      "birthDate": "2001-12-31"
    }
  }, {
    "fullUrl": "https://madie.cms.gov/Encounter/5373e52d-7228-4ed0-baf2-018a946ba4c8",
    "resource": {
      "resourceType": "Encounter",
      "id": "5373e52d-7228-4ed0-baf2-018a946ba4c8",
      "meta": {
        "profile": [ "http://hl7.org/fhir/us/qicore/StructureDefinition/qicore-encounter" ]
      },
      "status": "finished",
      "class": {
        "system": "http://terminology.hl7.org/CodeSystem/v3-ActCode",
        "code": "AMB",
        "display": "ambulatory"
      },
      "type": [ {
        "coding": [ {
          "system": "http://www.ama-assn.org/go/cpt",
          "version": "2021",
          "code": "99385",
          "display": "Initial comprehensive preventive medicine evaluation and management of an individual including an age and gender appropriate history, examination, counseling/anticipatory guidance/risk factor reduction interventions, and the ordering of laboratory/diagnostic procedures, new patient; 18-39 years",
          "userSelected": true
        } ]
      } ],
      "subject": {
        "reference": "Patient/e25e1d4a-6240-4bd6-8d8a-2773e7a920b6"
      },
      "period": {
        "start": "2026-12-31T23:59:00.000+00:00",
        "end": "2027-01-01T00:15:00.000+00:00"
      }
    }
  }, {
    "fullUrl": "https://madie.cms.gov/ServiceRequest/ed79c67a-f845-41d4-a415-ec993b417047",
    "resource": {
      "resourceType": "ServiceRequest",
      "id": "ed79c67a-f845-41d4-a415-ec993b417047",
      "meta": {
        "profile": [ "http://hl7.org/fhir/us/qicore/StructureDefinition/qicore-servicerequest" ]
      },
      "status": "active",
      "intent": "order",
      "code": {
        "coding": [ {
          "system": "http://snomed.info/sct",
          "version": "http://snomed.info/sct/731000124108/version/20250301",
          "code": "103696004",
          "display": "Patient referral to specialist (procedure)",
          "userSelected": true
        } ]
      },
      "subject": {
        "reference": "Patient/e25e1d4a-6240-4bd6-8d8a-2773e7a920b6"
      },
      "authoredOn": "2026-08-08T08:00:00.000+00:00"
    }
  }, {
    "fullUrl": "https://madie.cms.gov/Coverage/1bb83b97-bec1-4f71-a8e6-359154ab4f62",
    "resource": {
      "resourceType": "Coverage",
      "id": "1bb83b97-bec1-4f71-a8e6-359154ab4f62",
      "meta": {
        "profile": [ "http://hl7.org/fhir/us/qicore/StructureDefinition/qicore-coverage" ]
      },
      "status": "active",
      "subscriberId": "123456",
      "beneficiary": {
        "reference": "Patient/e25e1d4a-6240-4bd6-8d8a-2773e7a920b6"
      },
      "relationship": {
        "coding": [ {
          "system": "http://terminology.hl7.org/CodeSystem/subscriber-relationship",
          "code": "self",
          "display": "Self"
        } ]
      },
      "payor": [ {
        "reference": "Organization/d9630aaa-1778-471e-8e31-9f550d849828"
      } ]
    }
  }, {
    "fullUrl": "https://madie.cms.gov/Organization/d9630aaa-1778-471e-8e31-9f550d849828",
    "resource": {
      "resourceType": "Organization",
      "id": "d9630aaa-1778-471e-8e31-9f550d849828",
      "meta": {
        "profile": [ "http://hl7.org/fhir/us/qicore/StructureDefinition/qicore-organization" ]
      },
      "identifier": [ {
        "use": "temp",
        "system": "urn:oid:2.16.840.1.113883.4.4",
        "value": "21-3259825"
      } ],
      "active": true,
      "type": [ {
        "coding": [ {
          "system": "http://terminology.hl7.org/CodeSystem/organization-type",
          "code": "pay",
          "display": "Payer"
        } ]
      } ],
      "name": "Blue Cross Blue Shield of Texas",
      "telecom": [ {
        "system": "phone",
        "value": "(+1) 972-766-6900"
      } ],
      "address": [ {
        "use": "billing",
        "type": "postal",
        "line": [ "P.O. Box 660044" ],
        "city": "Dallas",
        "state": "TX",
        "postalCode": "75266-0044",
        "country": "USA"
      } ]
    }
  }, {
    "fullUrl": "https://madie.cms.gov/Practitioner/f073b855-e1d3-4be3-b85e-cd4d98de0294",
    "resource": {
      "resourceType": "Practitioner",
      "id": "f073b855-e1d3-4be3-b85e-cd4d98de0294",
      "meta": {
        "profile": [ "http://hl7.org/fhir/us/qicore/StructureDefinition/qicore-practitioner" ]
      },
      "identifier": [ {
        "system": "http://hl7.org/fhir/sid/us-npi",
        "value": "1689411712"
      } ],
      "name": [ {
        "family": "Evil",
        "prefix": [ "Dr" ]
      } ]
    }
  }, {
    "fullUrl": "https://madie.cms.gov/MeasureReport/b2cda3c7-f644-438f-a821-6640a62bc759",
    "resource": {
      "resourceType": "MeasureReport",
      "id": "b2cda3c7-f644-438f-a821-6640a62bc759",
      "meta": {
        "profile": [ "http://hl7.org/fhir/us/cqfmeasures/StructureDefinition/test-case-cqfm" ]
      },
      "contained": [ {
        "resourceType": "Parameters",
        "id": "7b963f54-f4e5-49fc-b8d6-4dd78ebe8695-parameters",
        "parameter": [ {
          "name": "subject",
          "valueString": "e25e1d4a-6240-4bd6-8d8a-2773e7a920b6"
        } ]
      } ],
      "extension": [ {
        "url": "http://hl7.org/fhir/StructureDefinition/cqf-inputParameters",
        "valueReference": {
          "reference": "#7b963f54-f4e5-49fc-b8d6-4dd78ebe8695-parameters"
        }
      }, {
        "url": "http://hl7.org/fhir/us/cqfmeasures/StructureDefinition/cqfm-testCaseDescription",
        "valueMarkdown": "Encounter starts during MP but ends after MP.  ( \"start\" : \"202x-12-31T23:59:00.000+00:00\", \"end\" : \"202x-01-01T00:15:00.000+00:00\")"
      } ],
      "modifierExtension": [ {
        "url": "http://hl7.org/fhir/us/cqfmeasures/StructureDefinition/cqfm-isTestCase",
        "valueBoolean": true
      } ],
      "status": "complete",
      "type": "individual",
      "measure": "https://madie.cms.gov/Measure/CMS50FHIRReceiptofSpecialistReport",
      "period": {
        "start": "2026-01-01",
        "end": "2026-12-31"
      },
      "group": [ {
        "id": "Group_1",
        "population": [ {
          "id": "InitialPopulation_1",
          "code": {
            "coding": [ {
              "system": "http://terminology.hl7.org/CodeSystem/measure-population",
              "code": "initial-population",
              "display": "Initial Population"
            } ]
          },
          "count": 0
        }, {
          "id": "Denominator_1",
          "code": {
            "coding": [ {
              "system": "http://terminology.hl7.org/CodeSystem/measure-population",
              "code": "denominator",
              "display": "Denominator"
            } ]
          },
          "count": 0
        }, {
          "id": "Numerator_1",
          "code": {
            "coding": [ {
              "system": "http://terminology.hl7.org/CodeSystem/measure-population",
              "code": "numerator",
              "display": "Numerator"
            } ]
          },
          "count": 0
        } ],
        "measureScore": {
          "value": 1.0
        }
      } ],
      "evaluatedResource": [ {
        "reference": "Patient/e25e1d4a-6240-4bd6-8d8a-2773e7a920b6"
      }, {
        "reference": "Encounter/5373e52d-7228-4ed0-baf2-018a946ba4c8"
      }, {
        "reference": "ServiceRequest/ed79c67a-f845-41d4-a415-ec993b417047"
      }, {
        "reference": "Coverage/1bb83b97-bec1-4f71-a8e6-359154ab4f62"
      }, {
        "reference": "Organization/d9630aaa-1778-471e-8e31-9f550d849828"
      }, {
        "reference": "Practitioner/f073b855-e1d3-4be3-b85e-cd4d98de0294"
      } ]
    }
  } ]
}