{
  "resourceType": "Bundle",
  "id": "60f82c2f98086b570510e2bc",
  "type": "transaction",
  "entry": [ {
    "fullUrl": "https://madie.cms.gov/Patient/edd8668f-d541-4869-9bb6-02e9e2c2509d",
    "resource": {
      "resourceType": "Patient",
      "id": "edd8668f-d541-4869-9bb6-02e9e2c2509d",
      "meta": {
        "profile": [ "http://hl7.org/fhir/us/qicore/StructureDefinition/qicore-patient" ]
      },
      "text": {
        "status": "generated",
        "div": "<div xmlns=\"http://www.w3.org/1999/xhtml\"><div class=\"hapiHeaderText\">CMPDuringDiffEDTestOccurr <b>DENEXPASS </b></div><table class=\"hapiPropertyTable\"><tbody><tr><td>Identifier</td><td>fcf1262e7fbb728ee91bb3f762114a06e0ac67ead4b8481c3330832671d831a7</td></tr><tr><td>Date of birth</td><td><span>26 September 1975</span></td></tr></tbody></table></div>"
      },
      "extension": [ {
        "url": "http://hl7.org/fhir/us/core/StructureDefinition/us-core-race",
        "extension": [ {
          "url": "ombCategory",
          "valueCoding": {
            "system": "urn:oid:2.16.840.1.113883.6.238",
            "code": "2054-5",
            "display": "Black or African American",
            "userSelected": true
          }
        }, {
          "url": "text",
          "valueString": "Black or African American"
        } ]
      }, {
        "url": "http://hl7.org/fhir/us/core/StructureDefinition/us-core-ethnicity",
        "extension": [ {
          "url": "ombCategory",
          "valueCoding": {
            "system": "urn:oid:2.16.840.1.113883.6.238",
            "code": "2186-5",
            "display": "Not Hispanic or Latino",
            "userSelected": true
          }
        }, {
          "url": "text",
          "valueString": "Not Hispanic or Latino"
        } ]
      } ],
      "identifier": [ {
        "type": {
          "coding": [ {
            "system": "http://terminology.hl7.org/CodeSystem/v2-0203",
            "code": "MR"
          } ]
        },
        "system": "https://bonnie-fhir.healthit.gov/",
        "value": "60f82c2f98086b570510e2bc"
      } ],
      "active": true,
      "name": [ {
        "use": "usual",
        "family": "DENEXPass",
        "given": [ "CMPDuringDiffEDTestOccurr" ]
      } ],
      "gender": "female",
      "birthDate": "1976-09-26"
    },
    "request": {
      "method": "PUT",
      "url": "Patient/edd8668f-d541-4869-9bb6-02e9e2c2509d"
    }
  }, {
    "fullUrl": "https://madie.cms.gov/Encounter/a8201372-aaf6-4ee0-98f6-f2b218ec38ca",
    "resource": {
      "resourceType": "Encounter",
      "id": "a8201372-aaf6-4ee0-98f6-f2b218ec38ca",
      "meta": {
        "profile": [ "http://hl7.org/fhir/us/qicore/StructureDefinition/qicore-encounter" ]
      },
      "status": "finished",
      "class": {
        "system": "http://terminology.hl7.org/CodeSystem/v3-ActCode",
        "code": "EMER",
        "display": "emergency",
        "userSelected": true
      },
      "type": [ {
        "coding": [ {
          "system": "http://snomed.info/sct",
          "code": "4525004"
        } ]
      } ],
      "subject": {
        "reference": "Patient/edd8668f-d541-4869-9bb6-02e9e2c2509d"
      },
      "period": {
        "start": "2026-10-11T23:59:00.000+00:00",
        "end": "2026-10-12T00:06:00.000+00:00"
      }
    },
    "request": {
      "method": "PUT",
      "url": "Encounter/a8201372-aaf6-4ee0-98f6-f2b218ec38ca"
    }
  }, {
    "fullUrl": "https://madie.cms.gov/Encounter/38d6e27f-ae20-4625-939e-eac8ef8a72b1",
    "resource": {
      "resourceType": "Encounter",
      "id": "38d6e27f-ae20-4625-939e-eac8ef8a72b1",
      "meta": {
        "profile": [ "http://hl7.org/fhir/us/qicore/StructureDefinition/qicore-encounter" ]
      },
      "status": "finished",
      "class": {
        "system": "http://terminology.hl7.org/CodeSystem/v3-ActCode",
        "code": "IMP",
        "display": "inpatient encounter",
        "userSelected": true
      },
      "type": [ {
        "coding": [ {
          "system": "http://snomed.info/sct",
          "code": "32485007"
        } ]
      } ],
      "subject": {
        "reference": "Patient/edd8668f-d541-4869-9bb6-02e9e2c2509d"
      },
      "period": {
        "start": "2026-10-12T06:16:00.000+00:00",
        "end": "2026-10-16T06:31:00.000+00:00"
      },
      "length": {
        "value": 4,
        "unit": "days"
      },
      "reasonReference": [ {
        "reference": "Condition/f9ac8986-98f6-40c0-a751-1cfcd159aadf"
      } ]
    },
    "request": {
      "method": "PUT",
      "url": "Encounter/38d6e27f-ae20-4625-939e-eac8ef8a72b1"
    }
  }, {
    "fullUrl": "https://madie.cms.gov/Procedure/522621d1-1c17-4c66-a54b-f8dc09724431",
    "resource": {
      "resourceType": "Procedure",
      "id": "522621d1-1c17-4c66-a54b-f8dc09724431",
      "meta": {
        "profile": [ "http://hl7.org/fhir/us/qicore/StructureDefinition/qicore-procedure" ]
      },
      "extension": [ {
        "url": "http://hl7.org/fhir/us/qicore/StructureDefinition/qicore-recorded",
        "valueDateTime": "2026-11-19T13:35:00.000+00:00"
      } ],
      "status": "completed",
      "code": {
        "coding": [ {
          "system": "http://snomed.info/sct",
          "code": "133918004"
        } ]
      },
      "subject": {
        "reference": "Patient/edd8668f-d541-4869-9bb6-02e9e2c2509d"
      },
      "performedPeriod": {
        "start": "2026-10-12T00:00:00.000+00:00"
      }
    },
    "request": {
      "method": "PUT",
      "url": "Procedure/522621d1-1c17-4c66-a54b-f8dc09724431"
    }
  }, {
    "fullUrl": "https://madie.cms.gov/Coverage/023d9f07-7689-49b7-87e0-ea3ac9a531b9",
    "resource": {
      "resourceType": "Coverage",
      "id": "023d9f07-7689-49b7-87e0-ea3ac9a531b9",
      "status": "active",
      "beneficiary": {
        "reference": "Patient/edd8668f-d541-4869-9bb6-02e9e2c2509d"
      },
      "period": {
        "start": "1976-09-26T08:00:00.000+00:00"
      },
      "payor": [ {
        "reference": "Organization/43a186ed-14cf-4dfe-b3ae-330995bafc03"
      } ]
    },
    "request": {
      "method": "PUT",
      "url": "Coverage/023d9f07-7689-49b7-87e0-ea3ac9a531b9"
    }
  }, {
    "fullUrl": "https://madie.cms.gov/Condition/f9ac8986-98f6-40c0-a751-1cfcd159aadf",
    "resource": {
      "resourceType": "Condition",
      "id": "f9ac8986-98f6-40c0-a751-1cfcd159aadf",
      "meta": {
        "profile": [ "http://hl7.org/fhir/us/qicore/StructureDefinition/qicore-condition-encounter-diagnosis" ]
      },
      "clinicalStatus": {
        "coding": [ {
          "system": "http://terminology.hl7.org/CodeSystem/condition-clinical",
          "code": "active"
        } ]
      },
      "verificationStatus": {
        "coding": [ {
          "system": "http://terminology.hl7.org/CodeSystem/condition-ver-status",
          "code": "confirmed"
        } ]
      },
      "category": [ {
        "coding": [ {
          "system": "http://terminology.hl7.org/CodeSystem/condition-category",
          "code": "encounter-diagnosis",
          "display": "Encounter Diagnosis"
        } ]
      } ],
      "code": {
        "coding": [ {
          "system": "http://snomed.info/sct",
          "version": "2020-09",
          "code": "111297002",
          "display": "Nonparalytic stroke (disorder)",
          "userSelected": true
        } ]
      },
      "subject": {
        "reference": "Patient/edd8668f-d541-4869-9bb6-02e9e2c2509d"
      },
      "encounter": {
        "reference": "Encounter/38d6e27f-ae20-4625-939e-eac8ef8a72b1"
      },
      "recordedDate": "2026-08-13T08:00:00.000+00:00"
    },
    "request": {
      "method": "PUT",
      "url": "Condition/f9ac8986-98f6-40c0-a751-1cfcd159aadf"
    }
  }, {
    "fullUrl": "https://madie.cms.gov/claim/5ca62962b8484628b8de1ec5",
    "resource": {
      "resourceType": "Claim",
      "id": "5ca62962b8484628b8de1ec5",
      "meta": {
        "profile": [ "http://hl7.org/fhir/us/qicore/StructureDefinition/qicore-claim" ]
      },
      "status": "active",
      "type": {
        "coding": [ {
          "system": "http://terminology.hl7.org/CodeSystem/claim-type",
          "code": "institutional"
        } ]
      },
      "use": "claim",
      "patient": {
        "reference": "Patient/edd8668f-d541-4869-9bb6-02e9e2c2509d"
      },
      "created": "2026-12-01",
      "provider": {
        "reference": "Practitioner/practitioner-123456"
      },
      "priority": {
        "coding": [ {
          "system": "http://terminology.hl7.org/CodeSystem/processpriority",
          "code": "normal"
        } ]
      },
      "diagnosis": [ {
        "sequence": 1,
        "diagnosisCodeableConcept": {
          "coding": [ {
            "system": "http://hl7.org/fhir/sid/icd-10-cm",
            "code": "I63.00"
          } ]
        },
        "type": [ {
          "coding": [ {
            "system": "http://terminology.hl7.org/CodeSystem/ex-diagnosistype",
            "code": "principal"
          } ]
        } ]
      } ],
      "insurance": [ {
        "sequence": 1,
        "focal": true,
        "coverage": {
          "reference": "Coverage/5fa041661c76ba66d9959367"
        }
      } ],
      "item": [ {
        "sequence": 1,
        "diagnosisSequence": [ 1 ],
        "productOrService": {
          "coding": [ {
            "system": "http://terminology.hl7.org/CodeSystem/ex-USCLS",
            "code": "99555"
          } ]
        },
        "encounter": [ {
          "reference": "Encounter/38d6e27f-ae20-4625-939e-eac8ef8a72b1"
        } ]
      } ]
    },
    "request": {
      "method": "PUT",
      "url": "Claim/5ca62962b8484628b8de1ec5"
    }
  }, {
    "fullUrl": "https://madie.cms.gov/Organization/43a186ed-14cf-4dfe-b3ae-330995bafc03",
    "resource": {
      "resourceType": "Organization",
      "id": "43a186ed-14cf-4dfe-b3ae-330995bafc03",
      "meta": {
        "profile": [ "http://hl7.org/fhir/us/qicore/StructureDefinition/qicore-organization" ]
      },
      "identifier": [ {
        "use": "temp",
        "system": "urn:oid:2.16.840.1.113883.4.4",
        "value": "21-3259825"
      } ],
      "active": true,
      "type": [ {
        "coding": [ {
          "system": "http://terminology.hl7.org/CodeSystem/organization-type",
          "code": "pay",
          "display": "Payer"
        } ]
      } ],
      "name": "Blue Cross Blue Shield of Texas",
      "telecom": [ {
        "system": "phone",
        "value": "(+1) 972-766-6900"
      } ],
      "address": [ {
        "use": "billing",
        "type": "postal",
        "line": [ "P.O. Box 660044" ],
        "city": "Dallas",
        "state": "TX",
        "postalCode": "75266-0044",
        "country": "USA"
      } ]
    },
    "request": {
      "method": "PUT",
      "url": "Organization/43a186ed-14cf-4dfe-b3ae-330995bafc03"
    }
  }, {
    "fullUrl": "https://madie.cms.gov/MeasureReport/0a309e59-a403-4b6f-b772-eeeb05df7082",
    "resource": {
      "resourceType": "MeasureReport",
      "id": "0a309e59-a403-4b6f-b772-eeeb05df7082",
      "meta": {
        "profile": [ "http://hl7.org/fhir/us/cqfmeasures/StructureDefinition/test-case-cqfm" ]
      },
      "contained": [ {
        "resourceType": "Parameters",
        "id": "2bd9f4ba-e333-4385-b357-468d970803f8-parameters",
        "parameter": [ {
          "name": "subject",
          "valueString": "edd8668f-d541-4869-9bb6-02e9e2c2509d"
        } ]
      } ],
      "extension": [ {
        "url": "http://hl7.org/fhir/StructureDefinition/cqf-inputParameters",
        "valueReference": {
          "reference": "#2bd9f4ba-e333-4385-b357-468d970803f8-parameters"
        }
      }, {
        "url": "http://hl7.org/fhir/us/cqfmeasures/StructureDefinition/cqfm-testCaseDescription",
        "valueMarkdown": "Patient receives comfort measures performed during a different ED encounter from IP Encounter. Testing multiple occurrences.\n"
      } ],
      "modifierExtension": [ {
        "url": "http://hl7.org/fhir/us/cqfmeasures/StructureDefinition/cqfm-isTestCase",
        "valueBoolean": true
      } ],
      "status": "complete",
      "type": "individual",
      "measure": "https://madie.cms.gov/Measure/CMS72FHIRSTKAntithromboticDay2",
      "period": {
        "start": "2026-01-01",
        "end": "2026-12-31"
      },
      "group": [ {
        "id": "Group_1",
        "population": [ {
          "id": "InitialPopulation_1",
          "code": {
            "coding": [ {
              "system": "http://terminology.hl7.org/CodeSystem/measure-population",
              "code": "initial-population",
              "display": "Initial Population"
            } ]
          },
          "count": 1
        }, {
          "id": "Denominator_1",
          "code": {
            "coding": [ {
              "system": "http://terminology.hl7.org/CodeSystem/measure-population",
              "code": "denominator",
              "display": "Denominator"
            } ]
          },
          "count": 1
        }, {
          "id": "DenominatorExclusion_1",
          "code": {
            "coding": [ {
              "system": "http://terminology.hl7.org/CodeSystem/measure-population",
              "code": "denominator-exclusion",
              "display": "Denominator Exclusion"
            } ]
          },
          "count": 1
        }, {
          "id": "Numerator_1",
          "code": {
            "coding": [ {
              "system": "http://terminology.hl7.org/CodeSystem/measure-population",
              "code": "numerator",
              "display": "Numerator"
            } ]
          },
          "count": 0
        }, {
          "id": "DenominatorException_1",
          "code": {
            "coding": [ {
              "system": "http://terminology.hl7.org/CodeSystem/measure-population",
              "code": "denominator-exception",
              "display": "Denominator Exception"
            } ]
          },
          "count": 0
        } ],
        "measureScore": {
          "value": 0.0
        }
      } ],
      "evaluatedResource": [ {
        "reference": "Patient/edd8668f-d541-4869-9bb6-02e9e2c2509d"
      }, {
        "reference": "Encounter/a8201372-aaf6-4ee0-98f6-f2b218ec38ca"
      }, {
        "reference": "Encounter/38d6e27f-ae20-4625-939e-eac8ef8a72b1"
      }, {
        "reference": "Procedure/522621d1-1c17-4c66-a54b-f8dc09724431"
      }, {
        "reference": "Coverage/023d9f07-7689-49b7-87e0-ea3ac9a531b9"
      }, {
        "reference": "Condition/f9ac8986-98f6-40c0-a751-1cfcd159aadf"
      }, {
        "reference": "Claim/5ca62962b8484628b8de1ec5"
      }, {
        "reference": "Organization/43a186ed-14cf-4dfe-b3ae-330995bafc03"
      } ]
    },
    "request": {
      "method": "PUT",
      "url": "MeasureReport/0a309e59-a403-4b6f-b772-eeeb05df7082"
    }
  } ]
}