{
  "resourceType": "Bundle",
  "id": "62fd0fbb85b0356a7c285333",
  "type": "collection",
  "entry": [ {
    "fullUrl": "https://madie.cms.gov/Patient/ab43793d-af43-4960-8b9f-012f23a08822",
    "resource": {
      "resourceType": "Patient",
      "id": "ab43793d-af43-4960-8b9f-012f23a08822",
      "meta": {
        "profile": [ "http://hl7.org/fhir/us/qicore/StructureDefinition/qicore-patient" ]
      },
      "extension": [ {
        "url": "http://hl7.org/fhir/us/core/StructureDefinition/us-core-race",
        "extension": [ {
          "url": "ombCategory",
          "valueCoding": {
            "system": "urn:oid:2.16.840.1.113883.6.238",
            "code": "1002-5",
            "display": "American Indian or Alaska Native",
            "userSelected": true
          }
        }, {
          "url": "text",
          "valueString": "American Indian or Alaska Native"
        } ]
      }, {
        "url": "http://hl7.org/fhir/us/core/StructureDefinition/us-core-ethnicity",
        "extension": [ {
          "url": "ombCategory",
          "valueCoding": {
            "system": "urn:oid:2.16.840.1.113883.6.238",
            "code": "2186-5",
            "display": "Not Hispanic or Latino",
            "userSelected": true
          }
        }, {
          "url": "text",
          "valueString": "Not Hispanic or Latino"
        } ]
      } ],
      "identifier": [ {
        "type": {
          "coding": [ {
            "system": "http://terminology.hl7.org/CodeSystem/v2-0203",
            "code": "MR"
          } ]
        },
        "system": "https://bonnie-fhir.healthit.gov/",
        "value": "62fd0fbb85b0356a7c285333"
      } ],
      "name": [ {
        "family": "DenomFail",
        "given": [ "GleasonAfter1stTxValueLessThan6" ]
      } ],
      "gender": "male",
      "birthDate": "1993-09-17"
    }
  }, {
    "fullUrl": "https://madie.cms.gov/Condition/89593efd-8779-42ff-9e79-538772af25fe",
    "resource": {
      "resourceType": "Condition",
      "id": "89593efd-8779-42ff-9e79-538772af25fe",
      "meta": {
        "profile": [ "http://hl7.org/fhir/us/qicore/StructureDefinition/qicore-condition-problems-health-concerns" ]
      },
      "clinicalStatus": {
        "coding": [ {
          "system": "http://terminology.hl7.org/CodeSystem/condition-clinical",
          "code": "active",
          "display": "active",
          "userSelected": true
        } ]
      },
      "category": [ {
        "coding": [ {
          "system": "http://terminology.hl7.org/CodeSystem/condition-category",
          "code": "problem-list-item",
          "display": "Problem List Item"
        } ]
      } ],
      "code": {
        "coding": [ {
          "system": "http://snomed.info/sct",
          "code": "254900004",
          "display": "Carcinoma of prostate (disorder)",
          "userSelected": true
        } ]
      },
      "subject": {
        "reference": "Patient/ab43793d-af43-4960-8b9f-012f23a08822"
      },
      "onsetPeriod": {
        "start": "2022-06-14T08:00:00.000+00:00"
      }
    }
  }, {
    "fullUrl": "https://madie.cms.gov/Procedure/16bcf296-ca41-4c8e-912f-830f432b9672",
    "resource": {
      "resourceType": "Procedure",
      "id": "16bcf296-ca41-4c8e-912f-830f432b9672",
      "meta": {
        "profile": [ "http://hl7.org/fhir/us/qicore/StructureDefinition/qicore-procedure" ]
      },
      "extension": [ {
        "url": "http://hl7.org/fhir/us/qicore/StructureDefinition/qicore-recorded",
        "valueDateTime": "2026-02-01T09:00:00.000+00:00"
      } ],
      "status": "completed",
      "code": {
        "coding": [ {
          "system": "http://snomed.info/sct",
          "code": "38915000",
          "display": "Radionuclide therapy for gland ablation (procedure)",
          "userSelected": true
        } ]
      },
      "subject": {
        "reference": "Patient/ab43793d-af43-4960-8b9f-012f23a08822"
      },
      "performedDateTime": "2026-04-28T08:00:00.000+00:00"
    }
  }, {
    "fullUrl": "https://madie.cms.gov/Observation/51a6b188-908b-4bbd-8325-4ca96b5dcd2d",
    "resource": {
      "resourceType": "Observation",
      "id": "51a6b188-908b-4bbd-8325-4ca96b5dcd2d",
      "meta": {
        "profile": [ "http://hl7.org/fhir/us/qicore/StructureDefinition/qicore-observation-lab" ]
      },
      "status": "final",
      "category": [ {
        "coding": [ {
          "system": "http://terminology.hl7.org/CodeSystem/observation-category",
          "code": "laboratory",
          "display": "Laboratory"
        } ]
      } ],
      "code": {
        "coding": [ {
          "system": "http://loinc.org",
          "version": "2.72",
          "code": "10508-0",
          "display": "Prostate specific Ag [Presence] in Tissue by Immune stain",
          "userSelected": true
        } ]
      },
      "subject": {
        "reference": "Patient/ab43793d-af43-4960-8b9f-012f23a08822"
      },
      "effectiveDateTime": "2026-02-02T08:00:00.000+00:00",
      "valueQuantity": {
        "value": 5.0,
        "system": "http://unitsofmeasure.org",
        "code": "ng/mL"
      }
    }
  }, {
    "fullUrl": "https://madie.cms.gov/Observation/0cc6eb8d-e33a-4673-bd18-f18f17b13363",
    "resource": {
      "resourceType": "Observation",
      "id": "0cc6eb8d-e33a-4673-bd18-f18f17b13363",
      "meta": {
        "profile": [ "http://hl7.org/fhir/us/qicore/StructureDefinition/qicore-observation-clinical-result" ]
      },
      "status": "final",
      "category": [ {
        "coding": [ {
          "system": "http://terminology.hl7.org/CodeSystem/observation-category",
          "code": "procedure",
          "display": "Procedure"
        } ]
      } ],
      "code": {
        "coding": [ {
          "system": "http://loinc.org",
          "code": "35266-6",
          "display": "Gleason score in Specimen Qualitative",
          "userSelected": true
        } ]
      },
      "subject": {
        "reference": "Patient/ab43793d-af43-4960-8b9f-012f23a08822"
      },
      "effectiveDateTime": "2026-08-17T08:00:00.000+00:00",
      "valueInteger": 5
    }
  }, {
    "fullUrl": "https://madie.cms.gov/Observation/a87b6e0a-b825-4bf2-8625-78f99a5a73a5",
    "resource": {
      "resourceType": "Observation",
      "id": "a87b6e0a-b825-4bf2-8625-78f99a5a73a5",
      "meta": {
        "profile": [ "http://hl7.org/fhir/us/qicore/StructureDefinition/qicore-observation-clinical-result" ]
      },
      "status": "final",
      "category": [ {
        "coding": [ {
          "system": "http://terminology.hl7.org/CodeSystem/observation-category",
          "code": "procedure",
          "display": "Procedure"
        } ]
      } ],
      "code": {
        "coding": [ {
          "system": "http://snomed.info/sct",
          "code": "254292007",
          "display": "Tumor staging (tumor staging)",
          "userSelected": true
        } ]
      },
      "subject": {
        "reference": "Patient/ab43793d-af43-4960-8b9f-012f23a08822"
      },
      "effectiveDateTime": "2026-04-27T23:59:00.000+00:00",
      "valueCodeableConcept": {
        "coding": [ {
          "system": "http://snomed.info/sct",
          "code": "1228899006",
          "display": "American Joint Committee on Cancer cT1c (qualifier value)",
          "userSelected": true
        } ]
      }
    }
  }, {
    "fullUrl": "https://madie.cms.gov/Coverage/26c3c106-f58d-4f76-a4a2-439e2dbda532",
    "resource": {
      "resourceType": "Coverage",
      "id": "26c3c106-f58d-4f76-a4a2-439e2dbda532",
      "meta": {
        "profile": [ "http://hl7.org/fhir/us/qicore/StructureDefinition/qicore-coverage" ]
      },
      "status": "active",
      "subscriberId": "123456789",
      "beneficiary": {
        "reference": "Patient/ab43793d-af43-4960-8b9f-012f23a08822"
      },
      "relationship": {
        "coding": [ {
          "system": "http://terminology.hl7.org/CodeSystem/subscriber-relationship",
          "code": "self",
          "display": "Self",
          "userSelected": true
        } ]
      },
      "payor": [ {
        "reference": "Organization/22a6bd73-253a-44f1-99f3-8d3a7e4d67a0"
      } ]
    }
  }, {
    "fullUrl": "https://madie.cms.gov/Organization/22a6bd73-253a-44f1-99f3-8d3a7e4d67a0",
    "resource": {
      "resourceType": "Organization",
      "id": "22a6bd73-253a-44f1-99f3-8d3a7e4d67a0",
      "meta": {
        "profile": [ "http://hl7.org/fhir/us/qicore/StructureDefinition/qicore-organization" ]
      },
      "identifier": [ {
        "use": "temp",
        "system": "urn:oid:2.16.840.1.113883.4.4",
        "value": "21-3259825"
      } ],
      "active": true,
      "type": [ {
        "coding": [ {
          "system": "http://terminology.hl7.org/CodeSystem/organization-type",
          "code": "pay",
          "display": "Payer"
        } ]
      } ],
      "name": "Blue Cross Blue Shield of Texas",
      "telecom": [ {
        "system": "phone",
        "value": "(+1) 972-766-6900"
      } ],
      "address": [ {
        "use": "billing",
        "type": "postal",
        "line": [ "P.O. Box 660044" ],
        "city": "Dallas",
        "state": "TX",
        "postalCode": "75266-0044",
        "country": "USA"
      } ]
    }
  }, {
    "fullUrl": "https://madie.cms.gov/Practitioner/03cf3cd7-9d52-4e04-83b8-9f512b84de4c",
    "resource": {
      "resourceType": "Practitioner",
      "id": "03cf3cd7-9d52-4e04-83b8-9f512b84de4c",
      "meta": {
        "profile": [ "http://hl7.org/fhir/us/qicore/StructureDefinition/qicore-practitioner" ]
      },
      "identifier": [ {
        "system": "http://hl7.org/fhir/sid/us-npi",
        "value": "1234567893"
      } ],
      "name": [ {
        "family": "Evil",
        "prefix": [ "Dr" ]
      } ]
    }
  }, {
    "fullUrl": "https://madie.cms.gov/MeasureReport/b7285d5f-272a-480f-a469-ed6ff792eaae",
    "resource": {
      "resourceType": "MeasureReport",
      "id": "b7285d5f-272a-480f-a469-ed6ff792eaae",
      "meta": {
        "profile": [ "http://hl7.org/fhir/us/cqfmeasures/StructureDefinition/test-case-cqfm" ]
      },
      "contained": [ {
        "resourceType": "Parameters",
        "id": "7f6b1263-7fc1-4652-bda5-4432811e6312-parameters",
        "parameter": [ {
          "name": "subject",
          "valueString": "ab43793d-af43-4960-8b9f-012f23a08822"
        } ]
      } ],
      "extension": [ {
        "url": "http://hl7.org/fhir/StructureDefinition/cqf-inputParameters",
        "valueReference": {
          "reference": "#7f6b1263-7fc1-4652-bda5-4432811e6312-parameters"
        }
      }, {
        "url": "http://hl7.org/fhir/us/cqfmeasures/StructureDefinition/cqfm-testCaseDescription",
        "valueMarkdown": "Prostate Ca Diagnosis but does not meet Gleason. Meets tumor staging. first treatment, and  PSA.  Gleason is after 1st cancer treatment.  Value < 6.\n"
      } ],
      "modifierExtension": [ {
        "url": "http://hl7.org/fhir/us/cqfmeasures/StructureDefinition/cqfm-isTestCase",
        "valueBoolean": true
      } ],
      "status": "complete",
      "type": "individual",
      "measure": "https://madie.cms.gov/Measure/CMS129FHIRProstCaBoneScanUse",
      "period": {
        "start": "2026-01-01",
        "end": "2026-12-31"
      },
      "group": [ {
        "id": "Group_1",
        "population": [ {
          "id": "InitialPopulation_1",
          "code": {
            "coding": [ {
              "system": "http://terminology.hl7.org/CodeSystem/measure-population",
              "code": "initial-population",
              "display": "Initial Population"
            } ]
          },
          "count": 1
        }, {
          "id": "Denominator_1",
          "code": {
            "coding": [ {
              "system": "http://terminology.hl7.org/CodeSystem/measure-population",
              "code": "denominator",
              "display": "Denominator"
            } ]
          },
          "count": 0
        }, {
          "id": "Numerator_1",
          "code": {
            "coding": [ {
              "system": "http://terminology.hl7.org/CodeSystem/measure-population",
              "code": "numerator",
              "display": "Numerator"
            } ]
          },
          "count": 0
        }, {
          "id": "DenominatorException_1",
          "code": {
            "coding": [ {
              "system": "http://terminology.hl7.org/CodeSystem/measure-population",
              "code": "denominator-exception",
              "display": "Denominator Exception"
            } ]
          },
          "count": 0
        } ],
        "measureScore": {
          "value": 1.0
        }
      } ],
      "evaluatedResource": [ {
        "reference": "Patient/ab43793d-af43-4960-8b9f-012f23a08822"
      }, {
        "reference": "Condition/89593efd-8779-42ff-9e79-538772af25fe"
      }, {
        "reference": "Procedure/16bcf296-ca41-4c8e-912f-830f432b9672"
      }, {
        "reference": "Observation/51a6b188-908b-4bbd-8325-4ca96b5dcd2d"
      }, {
        "reference": "Observation/0cc6eb8d-e33a-4673-bd18-f18f17b13363"
      }, {
        "reference": "Observation/a87b6e0a-b825-4bf2-8625-78f99a5a73a5"
      }, {
        "reference": "Coverage/26c3c106-f58d-4f76-a4a2-439e2dbda532"
      }, {
        "reference": "Organization/22a6bd73-253a-44f1-99f3-8d3a7e4d67a0"
      }, {
        "reference": "Practitioner/03cf3cd7-9d52-4e04-83b8-9f512b84de4c"
      } ]
    }
  } ]
}