{
  "resourceType": "Bundle",
  "id": "60f82c2e98086b570510e267",
  "type": "transaction",
  "entry": [ {
    "fullUrl": "https://madie.cms.gov/Patient/ed638412-155e-4349-8461-4550fd4fae3b",
    "resource": {
      "resourceType": "Patient",
      "id": "ed638412-155e-4349-8461-4550fd4fae3b",
      "meta": {
        "profile": [ "http://hl7.org/fhir/us/qicore/StructureDefinition/qicore-patient" ]
      },
      "text": {
        "status": "generated",
        "div": "<div xmlns=\"http://www.w3.org/1999/xhtml\"><div class=\"hapiHeaderText\">PatientRefusal_AntithromboticNotOrdered_ED <b>DENEXCEPPASS </b></div><table class=\"hapiPropertyTable\"><tbody><tr><td>Identifier</td><td>38322593560c369b56f538a737c6ba5b</td></tr><tr><td>Date of birth</td><td><span>26 September 1975</span></td></tr></tbody></table></div>"
      },
      "extension": [ {
        "url": "http://hl7.org/fhir/us/core/StructureDefinition/us-core-race",
        "extension": [ {
          "url": "ombCategory",
          "valueCoding": {
            "system": "urn:oid:2.16.840.1.113883.6.238",
            "code": "1002-5",
            "display": "American Indian or Alaska Native",
            "userSelected": true
          }
        }, {
          "url": "text",
          "valueString": "American Indian or Alaska Native"
        } ]
      }, {
        "url": "http://hl7.org/fhir/us/core/StructureDefinition/us-core-ethnicity",
        "extension": [ {
          "url": "ombCategory",
          "valueCoding": {
            "system": "urn:oid:2.16.840.1.113883.6.238",
            "code": "2135-2",
            "display": "Hispanic or Latino",
            "userSelected": true
          }
        }, {
          "url": "text",
          "valueString": "Hispanic or Latino"
        } ]
      } ],
      "identifier": [ {
        "type": {
          "coding": [ {
            "system": "http://terminology.hl7.org/CodeSystem/v2-0203",
            "code": "MR"
          } ]
        },
        "system": "https://bonnie-fhir.healthit.gov/",
        "value": "60f82c2e98086b570510e267"
      } ],
      "active": true,
      "name": [ {
        "use": "usual",
        "family": "DENEXCEPPass",
        "given": [ "PatientRefusal_AntithromboticNotOrdered_ED" ]
      } ],
      "gender": "female",
      "birthDate": "1976-09-26"
    },
    "request": {
      "method": "PUT",
      "url": "Patient/ed638412-155e-4349-8461-4550fd4fae3b"
    }
  }, {
    "fullUrl": "https://madie.cms.gov/Encounter/1f440711-521f-44b2-90f6-6225a36cb54b",
    "resource": {
      "resourceType": "Encounter",
      "id": "1f440711-521f-44b2-90f6-6225a36cb54b",
      "meta": {
        "profile": [ "http://hl7.org/fhir/us/qicore/StructureDefinition/qicore-encounter" ]
      },
      "status": "finished",
      "class": {
        "system": "http://terminology.hl7.org/CodeSystem/v3-ActCode",
        "code": "EMER",
        "display": "emergency",
        "userSelected": true
      },
      "type": [ {
        "coding": [ {
          "system": "http://snomed.info/sct",
          "code": "4525004"
        } ]
      } ],
      "subject": {
        "reference": "Patient/ed638412-155e-4349-8461-4550fd4fae3b"
      },
      "period": {
        "start": "2026-10-10T08:00:00.000+00:00",
        "end": "2026-10-10T08:15:00.000+00:00"
      },
      "length": {
        "value": 0,
        "unit": "days"
      }
    },
    "request": {
      "method": "PUT",
      "url": "Encounter/1f440711-521f-44b2-90f6-6225a36cb54b"
    }
  }, {
    "fullUrl": "https://madie.cms.gov/Encounter/eac61a40-014f-4e43-8c72-fd99a2209c0e",
    "resource": {
      "resourceType": "Encounter",
      "id": "eac61a40-014f-4e43-8c72-fd99a2209c0e",
      "meta": {
        "profile": [ "http://hl7.org/fhir/us/qicore/StructureDefinition/qicore-encounter" ]
      },
      "status": "finished",
      "class": {
        "system": "http://terminology.hl7.org/CodeSystem/v3-ActCode",
        "code": "IMP",
        "display": "inpatient encounter",
        "userSelected": true
      },
      "type": [ {
        "coding": [ {
          "system": "http://snomed.info/sct",
          "code": "32485007"
        } ]
      } ],
      "subject": {
        "reference": "Patient/ed638412-155e-4349-8461-4550fd4fae3b"
      },
      "period": {
        "start": "2026-10-10T09:00:00.000+00:00",
        "end": "2026-10-12T11:15:00.000+00:00"
      },
      "length": {
        "value": 2,
        "unit": "days"
      },
      "reasonReference": [ {
        "reference": "Condition/ae31a749-4682-4489-abbc-e711999f5fc6"
      } ]
    },
    "request": {
      "method": "PUT",
      "url": "Encounter/eac61a40-014f-4e43-8c72-fd99a2209c0e"
    }
  }, {
    "fullUrl": "https://madie.cms.gov/claim/5ca62962b8484628b8de1ec5",
    "resource": {
      "resourceType": "Claim",
      "id": "5ca62962b8484628b8de1ec5",
      "meta": {
        "profile": [ "http://hl7.org/fhir/us/qicore/StructureDefinition/qicore-claim" ]
      },
      "status": "active",
      "type": {
        "coding": [ {
          "system": "http://terminology.hl7.org/CodeSystem/claim-type",
          "code": "institutional"
        } ]
      },
      "use": "claim",
      "patient": {
        "reference": "Patient/d170a0a8-b5ad-4303-b6df-e304dd5f92ad"
      },
      "created": "2026-12-01",
      "provider": {
        "reference": "Practitioner/practitioner-123456"
      },
      "priority": {
        "coding": [ {
          "system": "http://terminology.hl7.org/CodeSystem/processpriority",
          "code": "normal"
        } ]
      },
      "diagnosis": [ {
        "sequence": 1,
        "diagnosisCodeableConcept": {
          "coding": [ {
            "system": "http://hl7.org/fhir/sid/icd-10-cm",
            "code": "I63.00"
          } ]
        },
        "type": [ {
          "coding": [ {
            "system": "http://terminology.hl7.org/CodeSystem/ex-diagnosistype",
            "code": "principal"
          } ]
        } ]
      } ],
      "insurance": [ {
        "sequence": 1,
        "focal": true,
        "coverage": {
          "reference": "Coverage/5fa041661c76ba66d9959367"
        }
      } ],
      "item": [ {
        "sequence": 1,
        "diagnosisSequence": [ 1 ],
        "productOrService": {
          "coding": [ {
            "system": "http://terminology.hl7.org/CodeSystem/ex-USCLS",
            "code": "99555"
          } ]
        },
        "encounter": [ {
          "reference": "Encounter/eac61a40-014f-4e43-8c72-fd99a2209c0e"
        } ]
      } ]
    },
    "request": {
      "method": "PUT",
      "url": "Claim/5ca62962b8484628b8de1ec5"
    }
  }, {
    "fullUrl": "https://madie.cms.gov/MedicationRequest/ac7c9f6b-74b2-47a8-9cc3-8f963f317eb9",
    "resource": {
      "resourceType": "MedicationRequest",
      "id": "ac7c9f6b-74b2-47a8-9cc3-8f963f317eb9",
      "meta": {
        "profile": [ "http://hl7.org/fhir/us/qicore/StructureDefinition/qicore-medicationrequest" ]
      },
      "status": "active",
      "intent": "order",
      "category": [ {
        "coding": [ {
          "system": "http://terminology.hl7.org/CodeSystem/medicationrequest-category",
          "code": "inpatient"
        } ]
      } ],
      "medicationCodeableConcept": {
        "coding": [ {
          "system": "http://www.nlm.nih.gov/research/umls/rxnorm",
          "code": "1037045"
        } ]
      },
      "subject": {
        "reference": "Patient/39a21e09-33d0-45ca-99eb-b839c1676e1a"
      },
      "authoredOn": "2026-10-10T10:00:00.000+00:00",
      "requester": {
        "reference": "Practitioner/example"
      }
    },
    "request": {
      "method": "PUT",
      "url": "MedicationRequest/ac7c9f6b-74b2-47a8-9cc3-8f963f317eb9"
    }
  }, {
    "fullUrl": "https://madie.cms.gov/Task/5456caf4-77c0-412b-93fc-3c666c17fe37",
    "resource": {
      "resourceType": "Task",
      "id": "5456caf4-77c0-412b-93fc-3c666c17fe37",
      "meta": {
        "profile": [ "http://hl7.org/fhir/us/qicore/StructureDefinition/qicore-taskrejected" ]
      },
      "status": "rejected",
      "statusReason": {
        "coding": [ {
          "system": "http://snomed.info/sct",
          "code": "443390004",
          "display": "Refusal of treatment by patient (situation)",
          "userSelected": true
        } ]
      },
      "code": {
        "coding": [ {
          "system": "http://hl7.org/fhir/CodeSystem/task-code",
          "code": "fulfill"
        } ]
      },
      "focus": {
        "reference": "MedicationRequest/ac7c9f6b-74b2-47a8-9cc3-8f963f317eb9"
      },
      "executionPeriod": {
        "start": "2026-10-10T09:30:00.000+00:00",
        "end": "2026-10-12T09:00:00.000+00:00"
      }
    },
    "request": {
      "method": "PUT",
      "url": "Task/5456caf4-77c0-412b-93fc-3c666c17fe37"
    }
  }, {
    "fullUrl": "https://madie.cms.gov/Coverage/01386dba-ad70-4f84-b49b-5b537efbf450",
    "resource": {
      "resourceType": "Coverage",
      "id": "01386dba-ad70-4f84-b49b-5b537efbf450",
      "status": "active",
      "subscriberId": "523435",
      "beneficiary": {
        "reference": "Patient/ed638412-155e-4349-8461-4550fd4fae3b"
      },
      "relationship": {
        "coding": [ {
          "system": "http://terminology.hl7.org/CodeSystem/subscriber-relationship",
          "code": "self"
        } ]
      },
      "period": {
        "start": "1976-09-26T08:00:00.000+00:00"
      },
      "payor": [ {
        "reference": "Organization/35f573d0-6bea-4865-961a-56f2dc19acb2"
      } ]
    },
    "request": {
      "method": "PUT",
      "url": "Coverage/01386dba-ad70-4f84-b49b-5b537efbf450"
    }
  }, {
    "fullUrl": "https://madie.cms.gov/Condition/ae31a749-4682-4489-abbc-e711999f5fc6",
    "resource": {
      "resourceType": "Condition",
      "id": "ae31a749-4682-4489-abbc-e711999f5fc6",
      "meta": {
        "profile": [ "http://hl7.org/fhir/us/qicore/StructureDefinition/qicore-condition-encounter-diagnosis" ]
      },
      "clinicalStatus": {
        "coding": [ {
          "system": "http://terminology.hl7.org/CodeSystem/condition-clinical",
          "code": "active"
        } ]
      },
      "verificationStatus": {
        "coding": [ {
          "system": "http://terminology.hl7.org/CodeSystem/condition-ver-status",
          "code": "confirmed"
        } ]
      },
      "category": [ {
        "coding": [ {
          "system": "http://terminology.hl7.org/CodeSystem/condition-category",
          "code": "encounter-diagnosis",
          "display": "Encounter Diagnosis"
        } ]
      } ],
      "code": {
        "coding": [ {
          "system": "http://snomed.info/sct",
          "version": "2020-09",
          "code": "111297002",
          "display": "Nonparalytic stroke (disorder)",
          "userSelected": true
        } ]
      },
      "subject": {
        "reference": "Patient/ed638412-155e-4349-8461-4550fd4fae3b"
      },
      "recordedDate": "2026-08-06T08:00:00.000+00:00"
    },
    "request": {
      "method": "PUT",
      "url": "Condition/ae31a749-4682-4489-abbc-e711999f5fc6"
    }
  }, {
    "fullUrl": "https://madie.cms.gov/Organization/35f573d0-6bea-4865-961a-56f2dc19acb2",
    "resource": {
      "resourceType": "Organization",
      "id": "35f573d0-6bea-4865-961a-56f2dc19acb2",
      "meta": {
        "profile": [ "http://hl7.org/fhir/us/qicore/StructureDefinition/qicore-organization" ]
      },
      "identifier": [ {
        "use": "temp",
        "system": "urn:oid:2.16.840.1.113883.4.4",
        "value": "21-3259825"
      } ],
      "active": true,
      "type": [ {
        "coding": [ {
          "system": "http://terminology.hl7.org/CodeSystem/organization-type",
          "code": "pay",
          "display": "Payer"
        } ]
      } ],
      "name": "Blue Cross Blue Shield of Texas",
      "telecom": [ {
        "system": "phone",
        "value": "(+1) 972-766-6900"
      } ],
      "address": [ {
        "use": "billing",
        "type": "postal",
        "line": [ "P.O. Box 660044" ],
        "city": "Dallas",
        "state": "TX",
        "postalCode": "75266-0044",
        "country": "USA"
      } ]
    },
    "request": {
      "method": "PUT",
      "url": "Organization/35f573d0-6bea-4865-961a-56f2dc19acb2"
    }
  }, {
    "fullUrl": "https://madie.cms.gov/MeasureReport/cf1aeb73-d464-4dd9-9f46-38afe84f76ec",
    "resource": {
      "resourceType": "MeasureReport",
      "id": "cf1aeb73-d464-4dd9-9f46-38afe84f76ec",
      "meta": {
        "profile": [ "http://hl7.org/fhir/us/cqfmeasures/StructureDefinition/test-case-cqfm" ]
      },
      "contained": [ {
        "resourceType": "Parameters",
        "id": "0c8d4587-29a2-4beb-aa1f-d41a29c16f92-parameters",
        "parameter": [ {
          "name": "subject",
          "valueString": "ed638412-155e-4349-8461-4550fd4fae3b"
        } ]
      } ],
      "extension": [ {
        "url": "http://hl7.org/fhir/StructureDefinition/cqf-inputParameters",
        "valueReference": {
          "reference": "#0c8d4587-29a2-4beb-aa1f-d41a29c16f92-parameters"
        }
      }, {
        "url": "http://hl7.org/fhir/us/cqfmeasures/StructureDefinition/cqfm-testCaseDescription",
        "valueMarkdown": "ED visit AND antithrombotic is not ordered due to patient refusal with task rejects\n"
      } ],
      "modifierExtension": [ {
        "url": "http://hl7.org/fhir/us/cqfmeasures/StructureDefinition/cqfm-isTestCase",
        "valueBoolean": true
      } ],
      "status": "complete",
      "type": "individual",
      "measure": "https://madie.cms.gov/Measure/CMS72FHIRSTKAntithromboticDay2",
      "period": {
        "start": "2026-01-01",
        "end": "2026-12-31"
      },
      "group": [ {
        "id": "Group_1",
        "population": [ {
          "id": "InitialPopulation_1",
          "code": {
            "coding": [ {
              "system": "http://terminology.hl7.org/CodeSystem/measure-population",
              "code": "initial-population",
              "display": "Initial Population"
            } ]
          },
          "count": 1
        }, {
          "id": "Denominator_1",
          "code": {
            "coding": [ {
              "system": "http://terminology.hl7.org/CodeSystem/measure-population",
              "code": "denominator",
              "display": "Denominator"
            } ]
          },
          "count": 1
        }, {
          "id": "DenominatorExclusion_1",
          "code": {
            "coding": [ {
              "system": "http://terminology.hl7.org/CodeSystem/measure-population",
              "code": "denominator-exclusion",
              "display": "Denominator Exclusion"
            } ]
          },
          "count": 0
        }, {
          "id": "Numerator_1",
          "code": {
            "coding": [ {
              "system": "http://terminology.hl7.org/CodeSystem/measure-population",
              "code": "numerator",
              "display": "Numerator"
            } ]
          },
          "count": 0
        }, {
          "id": "DenominatorException_1",
          "code": {
            "coding": [ {
              "system": "http://terminology.hl7.org/CodeSystem/measure-population",
              "code": "denominator-exception",
              "display": "Denominator Exception"
            } ]
          },
          "count": 1
        } ],
        "measureScore": {
          "value": 0.0
        }
      } ],
      "evaluatedResource": [ {
        "reference": "Patient/ed638412-155e-4349-8461-4550fd4fae3b"
      }, {
        "reference": "Encounter/1f440711-521f-44b2-90f6-6225a36cb54b"
      }, {
        "reference": "Encounter/eac61a40-014f-4e43-8c72-fd99a2209c0e"
      }, {
        "reference": "Claim/5ca62962b8484628b8de1ec5"
      }, {
        "reference": "MedicationRequest/ac7c9f6b-74b2-47a8-9cc3-8f963f317eb9"
      }, {
        "reference": "Task/5456caf4-77c0-412b-93fc-3c666c17fe37"
      }, {
        "reference": "Coverage/01386dba-ad70-4f84-b49b-5b537efbf450"
      }, {
        "reference": "Condition/ae31a749-4682-4489-abbc-e711999f5fc6"
      }, {
        "reference": "Organization/35f573d0-6bea-4865-961a-56f2dc19acb2"
      } ]
    },
    "request": {
      "method": "PUT",
      "url": "MeasureReport/cf1aeb73-d464-4dd9-9f46-38afe84f76ec"
    }
  } ]
}