{
  "resourceType": "Bundle",
  "id": "6494679cd09ece2c2e9bf933",
  "type": "collection",
  "entry": [ {
    "fullUrl": "https://madie.cms.gov/Patient/98acbc6d-b8e1-4a69-9b6f-682890dd64b3",
    "resource": {
      "resourceType": "Patient",
      "id": "98acbc6d-b8e1-4a69-9b6f-682890dd64b3",
      "meta": {
        "profile": [ "http://hl7.org/fhir/us/qicore/StructureDefinition/qicore-patient" ]
      },
      "extension": [ {
        "url": "http://hl7.org/fhir/us/core/StructureDefinition/us-core-race",
        "extension": [ {
          "url": "ombCategory",
          "valueCoding": {
            "system": "urn:oid:2.16.840.1.113883.6.238",
            "code": "2106-3",
            "display": "White",
            "userSelected": true
          }
        }, {
          "url": "text",
          "valueString": "White"
        } ]
      }, {
        "url": "http://hl7.org/fhir/us/core/StructureDefinition/us-core-ethnicity",
        "extension": [ {
          "url": "ombCategory",
          "valueCoding": {
            "system": "urn:oid:2.16.840.1.113883.6.238",
            "code": "2135-2",
            "display": "Hispanic or Latino",
            "userSelected": true
          }
        }, {
          "url": "text",
          "valueString": "Hispanic or Latino"
        } ]
      } ],
      "identifier": [ {
        "type": {
          "coding": [ {
            "system": "http://terminology.hl7.org/CodeSystem/v2-0203",
            "code": "MR"
          } ]
        },
        "system": "https://bonnie-fhir.healthit.gov/",
        "value": "6494679cd09ece2c2e9bf933"
      } ],
      "name": [ {
        "family": "12NumPass",
        "given": [ "EncInMPVLafterEncDuringMP" ]
      } ],
      "gender": "male",
      "birthDate": "1991-06-08"
    }
  }, {
    "fullUrl": "https://madie.cms.gov/Condition/8c01b0c4-4962-4ac1-916c-6ffc7a13bf86",
    "resource": {
      "resourceType": "Condition",
      "id": "8c01b0c4-4962-4ac1-916c-6ffc7a13bf86",
      "meta": {
        "profile": [ "http://hl7.org/fhir/us/qicore/StructureDefinition/qicore-condition-problems-health-concerns" ]
      },
      "clinicalStatus": {
        "coding": [ {
          "system": "http://terminology.hl7.org/CodeSystem/condition-clinical",
          "code": "active",
          "display": "active",
          "userSelected": true
        } ]
      },
      "category": [ {
        "coding": [ {
          "system": "http://terminology.hl7.org/CodeSystem/condition-category",
          "code": "problem-list-item",
          "display": "Problem List Item"
        } ]
      } ],
      "code": {
        "coding": [ {
          "system": "http://hl7.org/fhir/sid/icd-9-cm",
          "version": "2013",
          "code": "042",
          "display": "Human immunodeficiency virus [HIV] disease",
          "userSelected": true
        }, {
          "system": "http://snomed.info/sct",
          "version": "http://snomed.info/sct/731000124108/version/20250301",
          "code": "165816005",
          "userSelected": true
        } ]
      },
      "subject": {
        "reference": "Patient/98acbc6d-b8e1-4a69-9b6f-682890dd64b3"
      },
      "onsetDateTime": "2002-09-08T08:00:00.000+00:00",
      "recordedDate": "2002-09-08T08:00:00.000+00:00"
    }
  }, {
    "fullUrl": "https://madie.cms.gov/Encounter/a8e308a6-3584-4b61-924d-aed645814935",
    "resource": {
      "resourceType": "Encounter",
      "id": "a8e308a6-3584-4b61-924d-aed645814935",
      "meta": {
        "profile": [ "http://hl7.org/fhir/us/qicore/StructureDefinition/qicore-encounter" ]
      },
      "status": "finished",
      "class": {
        "system": "http://terminology.hl7.org/CodeSystem/v3-ActCode",
        "code": "AMB",
        "display": "ambulatory"
      },
      "type": [ {
        "coding": [ {
          "system": "http://snomed.info/sct",
          "version": "2022-09",
          "code": "281036007",
          "display": "Follow-up consultation (procedure)",
          "userSelected": true
        } ]
      } ],
      "subject": {
        "reference": "Patient/98acbc6d-b8e1-4a69-9b6f-682890dd64b3"
      },
      "period": {
        "start": "2026-01-30T08:00:00.000+00:00",
        "end": "2026-01-30T08:15:00.000+00:00"
      }
    }
  }, {
    "fullUrl": "https://madie.cms.gov/Observation/e0c881c0-bbfb-4bf1-90f9-55fba41893e6",
    "resource": {
      "resourceType": "Observation",
      "id": "e0c881c0-bbfb-4bf1-90f9-55fba41893e6",
      "meta": {
        "profile": [ "http://hl7.org/fhir/us/qicore/StructureDefinition/qicore-observation-lab" ]
      },
      "status": "final",
      "category": [ {
        "coding": [ {
          "system": "http://terminology.hl7.org/CodeSystem/observation-category",
          "code": "laboratory",
          "display": "Laboratory"
        } ]
      }, {
        "coding": [ {
          "system": "http://terminology.hl7.org/CodeSystem/observation-category",
          "code": "survey"
        } ]
      } ],
      "code": {
        "coding": [ {
          "system": "http://loinc.org",
          "code": "20447-9",
          "userSelected": true
        } ]
      },
      "subject": {
        "reference": "Patient/98acbc6d-b8e1-4a69-9b6f-682890dd64b3"
      },
      "effectiveDateTime": "2026-05-01T08:00:00.000+00:00",
      "dataAbsentReason": {
        "coding": [ {
          "system": "http://terminology.hl7.org/CodeSystem/data-absent-reason",
          "code": "unknown",
          "display": "Unknown"
        } ]
      }
    }
  }, {
    "fullUrl": "https://madie.cms.gov/Coverage/afba3bbd-edc2-4553-8062-077f51cb0650",
    "resource": {
      "resourceType": "Coverage",
      "id": "afba3bbd-edc2-4553-8062-077f51cb0650",
      "meta": {
        "profile": [ "http://hl7.org/fhir/us/qicore/StructureDefinition/qicore-coverage" ]
      },
      "status": "active",
      "subscriberId": "123456",
      "beneficiary": {
        "reference": "Patient/98acbc6d-b8e1-4a69-9b6f-682890dd64b3"
      },
      "relationship": {
        "coding": [ {
          "system": "http://terminology.hl7.org/CodeSystem/subscriber-relationship",
          "code": "self",
          "display": "Self"
        } ]
      },
      "payor": [ {
        "reference": "Organization/335c89ce-4edc-4d01-a3b2-2d5a9563b245"
      } ]
    }
  }, {
    "fullUrl": "https://madie.cms.gov/Organization/335c89ce-4edc-4d01-a3b2-2d5a9563b245",
    "resource": {
      "resourceType": "Organization",
      "id": "335c89ce-4edc-4d01-a3b2-2d5a9563b245",
      "meta": {
        "profile": [ "http://hl7.org/fhir/us/qicore/StructureDefinition/qicore-organization" ]
      },
      "identifier": [ {
        "use": "temp",
        "system": "urn:oid:2.16.840.1.113883.4.4",
        "value": "21-3259825"
      } ],
      "active": true,
      "type": [ {
        "coding": [ {
          "system": "http://terminology.hl7.org/CodeSystem/organization-type",
          "code": "pay",
          "display": "Payer"
        } ]
      } ],
      "name": "Blue Cross Blue Shield of Texas",
      "telecom": [ {
        "system": "phone",
        "value": "(+1) 972-766-6900"
      } ],
      "address": [ {
        "use": "billing",
        "type": "postal",
        "line": [ "P.O. Box 660044" ],
        "city": "Dallas",
        "state": "TX",
        "postalCode": "75266-0044",
        "country": "USA"
      } ]
    }
  }, {
    "fullUrl": "https://madie.cms.gov/Practitioner/9e9726d3-2b21-4090-93f7-0541da935ab4",
    "resource": {
      "resourceType": "Practitioner",
      "id": "9e9726d3-2b21-4090-93f7-0541da935ab4",
      "meta": {
        "profile": [ "http://hl7.org/fhir/us/qicore/StructureDefinition/qicore-practitioner" ]
      },
      "identifier": [ {
        "system": "http://hl7.org/fhir/sid/us-npi",
        "value": "1689411712"
      } ],
      "name": [ {
        "family": "Evil",
        "prefix": [ "Dr" ]
      } ]
    }
  }, {
    "fullUrl": "https://madie.cms.gov/MeasureReport/164e8875-b05c-4789-8bf1-258dcd071aa2",
    "resource": {
      "resourceType": "MeasureReport",
      "id": "164e8875-b05c-4789-8bf1-258dcd071aa2",
      "meta": {
        "profile": [ "http://hl7.org/fhir/us/cqfmeasures/StructureDefinition/test-case-cqfm" ]
      },
      "contained": [ {
        "resourceType": "Parameters",
        "id": "21ff0f6b-40c8-4a28-b630-7b22d108c554-parameters",
        "parameter": [ {
          "name": "subject",
          "valueString": "98acbc6d-b8e1-4a69-9b6f-682890dd64b3"
        } ]
      } ],
      "extension": [ {
        "url": "http://hl7.org/fhir/StructureDefinition/cqf-inputParameters",
        "valueReference": {
          "reference": "#21ff0f6b-40c8-4a28-b630-7b22d108c554-parameters"
        }
      }, {
        "url": "http://hl7.org/fhir/us/cqfmeasures/StructureDefinition/cqfm-testCaseDescription",
        "valueMarkdown": "Patient has an encounter during the first 240 days of the MP and a VL test on 5/1 (on 90 days after Enc)"
      } ],
      "modifierExtension": [ {
        "url": "http://hl7.org/fhir/us/cqfmeasures/StructureDefinition/cqfm-isTestCase",
        "valueBoolean": true
      } ],
      "status": "complete",
      "type": "individual",
      "measure": "https://madie.cms.gov/Measure/CMS1157FHIRHIVRetention",
      "period": {
        "start": "2026-01-01",
        "end": "2026-12-31"
      },
      "group": [ {
        "id": "Group_1",
        "population": [ {
          "id": "InitialPopulation_1",
          "code": {
            "coding": [ {
              "system": "http://terminology.hl7.org/CodeSystem/measure-population",
              "code": "initial-population",
              "display": "Initial Population"
            } ]
          },
          "count": 1
        }, {
          "id": "Denominator_1",
          "code": {
            "coding": [ {
              "system": "http://terminology.hl7.org/CodeSystem/measure-population",
              "code": "denominator",
              "display": "Denominator"
            } ]
          },
          "count": 1
        }, {
          "id": "Numerator_1",
          "code": {
            "coding": [ {
              "system": "http://terminology.hl7.org/CodeSystem/measure-population",
              "code": "numerator",
              "display": "Numerator"
            } ]
          },
          "count": 1
        } ],
        "measureScore": {
          "value": 1.0
        }
      } ],
      "evaluatedResource": [ {
        "reference": "Patient/98acbc6d-b8e1-4a69-9b6f-682890dd64b3"
      }, {
        "reference": "Condition/8c01b0c4-4962-4ac1-916c-6ffc7a13bf86"
      }, {
        "reference": "Encounter/a8e308a6-3584-4b61-924d-aed645814935"
      }, {
        "reference": "Observation/e0c881c0-bbfb-4bf1-90f9-55fba41893e6"
      }, {
        "reference": "Coverage/afba3bbd-edc2-4553-8062-077f51cb0650"
      }, {
        "reference": "Organization/335c89ce-4edc-4d01-a3b2-2d5a9563b245"
      }, {
        "reference": "Practitioner/9e9726d3-2b21-4090-93f7-0541da935ab4"
      } ]
    }
  } ]
}