{
  "resourceType": "Bundle",
  "id": "6298e96c5c5f0f80c3806878",
  "type": "collection",
  "entry": [ {
    "fullUrl": "https://madie.cms.gov/Patient/830e69d7-3820-46d6-9222-9d79323d0194",
    "resource": {
      "resourceType": "Patient",
      "id": "830e69d7-3820-46d6-9222-9d79323d0194",
      "meta": {
        "profile": [ "http://hl7.org/fhir/us/qicore/StructureDefinition/qicore-patient" ]
      },
      "extension": [ {
        "url": "http://hl7.org/fhir/us/core/StructureDefinition/us-core-race",
        "extension": [ {
          "url": "ombCategory",
          "valueCoding": {
            "system": "urn:oid:2.16.840.1.113883.6.238",
            "code": "1002-5",
            "display": "American Indian or Alaska Native",
            "userSelected": true
          }
        }, {
          "url": "text",
          "valueString": "American Indian or Alaska Native"
        } ]
      }, {
        "url": "http://hl7.org/fhir/us/core/StructureDefinition/us-core-ethnicity",
        "extension": [ {
          "url": "ombCategory",
          "valueCoding": {
            "system": "urn:oid:2.16.840.1.113883.6.238",
            "code": "2135-2",
            "display": "Hispanic or Latino",
            "userSelected": true
          }
        }, {
          "url": "text",
          "valueString": "Hispanic or Latino"
        } ]
      } ],
      "identifier": [ {
        "type": {
          "coding": [ {
            "system": "http://terminology.hl7.org/CodeSystem/v2-0203",
            "code": "MR"
          } ]
        },
        "system": "https://bonnie-fhir.healthit.gov/",
        "value": "6298e96c5c5f0f80c3806878"
      } ],
      "name": [ {
        "family": "DENOMFail",
        "given": [ "CancerStagingNull" ]
      } ],
      "gender": "male",
      "birthDate": "1980-12-31"
    }
  }, {
    "fullUrl": "https://madie.cms.gov/Condition/4bd22eb8-e3c6-45f5-9e38-4ae83b41b99f",
    "resource": {
      "resourceType": "Condition",
      "id": "4bd22eb8-e3c6-45f5-9e38-4ae83b41b99f",
      "meta": {
        "profile": [ "http://hl7.org/fhir/us/qicore/StructureDefinition/qicore-condition-problems-health-concerns" ]
      },
      "clinicalStatus": {
        "coding": [ {
          "system": "http://terminology.hl7.org/CodeSystem/condition-clinical",
          "code": "active",
          "display": "active",
          "userSelected": true
        } ]
      },
      "category": [ {
        "coding": [ {
          "system": "http://terminology.hl7.org/CodeSystem/condition-category",
          "code": "problem-list-item",
          "display": "Problem List Item"
        }, {
          "system": "http://snomed.info/sct",
          "code": "439401001",
          "display": "Diagnosis"
        } ]
      } ],
      "code": {
        "coding": [ {
          "system": "http://snomed.info/sct",
          "code": "254900004",
          "display": "Carcinoma of prostate (disorder)",
          "userSelected": true
        } ]
      },
      "subject": {
        "reference": "Patient/830e69d7-3820-46d6-9222-9d79323d0194"
      },
      "onsetPeriod": {
        "start": "2008-06-14T08:00:00.000+00:00"
      }
    }
  }, {
    "fullUrl": "https://madie.cms.gov/Procedure/66fb415e-258c-4422-9f2f-01d012a2ab55",
    "resource": {
      "resourceType": "Procedure",
      "id": "66fb415e-258c-4422-9f2f-01d012a2ab55",
      "meta": {
        "profile": [ "http://hl7.org/fhir/us/qicore/StructureDefinition/qicore-procedure" ]
      },
      "extension": [ {
        "url": "http://hl7.org/fhir/us/qicore/StructureDefinition/qicore-recorded",
        "valueDateTime": "2026-02-01T09:00:00.000+00:00"
      } ],
      "status": "completed",
      "code": {
        "coding": [ {
          "system": "http://snomed.info/sct",
          "code": "38915000",
          "display": "Radionuclide therapy for gland ablation (procedure)",
          "userSelected": true
        } ]
      },
      "subject": {
        "reference": "Patient/830e69d7-3820-46d6-9222-9d79323d0194"
      },
      "performedDateTime": "2026-04-28T08:00:00.000+00:00"
    }
  }, {
    "fullUrl": "https://madie.cms.gov/Observation/dc6a8684-b0de-4a51-b55f-40f5eef68330",
    "resource": {
      "resourceType": "Observation",
      "id": "dc6a8684-b0de-4a51-b55f-40f5eef68330",
      "meta": {
        "profile": [ "http://hl7.org/fhir/us/qicore/StructureDefinition/qicore-observation-lab" ]
      },
      "status": "final",
      "category": [ {
        "coding": [ {
          "system": "http://terminology.hl7.org/CodeSystem/observation-category",
          "code": "laboratory",
          "display": "Laboratory"
        } ]
      } ],
      "code": {
        "coding": [ {
          "system": "http://loinc.org",
          "version": "2.72",
          "code": "10508-0",
          "display": "Prostate specific Ag [Presence] in Tissue by Immune stain",
          "userSelected": true
        } ]
      },
      "subject": {
        "reference": "Patient/830e69d7-3820-46d6-9222-9d79323d0194"
      },
      "effectiveDateTime": "2026-04-24T08:00:00.000+00:00",
      "valueQuantity": {
        "value": 8.0,
        "system": "http://unitsofmeasure.org",
        "code": "ng/mL"
      }
    }
  }, {
    "fullUrl": "https://madie.cms.gov/Observation/123c2ace-4ad9-4d7e-878d-ecd4265a7883",
    "resource": {
      "resourceType": "Observation",
      "id": "123c2ace-4ad9-4d7e-878d-ecd4265a7883",
      "meta": {
        "profile": [ "http://hl7.org/fhir/us/qicore/StructureDefinition/qicore-observation-clinical-result" ]
      },
      "status": "final",
      "category": [ {
        "coding": [ {
          "system": "http://terminology.hl7.org/CodeSystem/observation-category",
          "code": "procedure",
          "display": "Procedure"
        } ]
      } ],
      "code": {
        "coding": [ {
          "system": "http://loinc.org",
          "code": "35266-6",
          "display": "Gleason score in Specimen Qualitative",
          "userSelected": true
        } ]
      },
      "subject": {
        "reference": "Patient/830e69d7-3820-46d6-9222-9d79323d0194"
      },
      "effectiveDateTime": "2026-01-02T08:00:00.000+00:00",
      "valueInteger": 5
    }
  }, {
    "fullUrl": "https://madie.cms.gov/Observation/91afb7ca-baee-42f4-83f6-7f1f52a3cc67",
    "resource": {
      "resourceType": "Observation",
      "id": "91afb7ca-baee-42f4-83f6-7f1f52a3cc67",
      "meta": {
        "profile": [ "http://hl7.org/fhir/us/qicore/StructureDefinition/qicore-observation-clinical-result" ]
      },
      "status": "final",
      "category": [ {
        "coding": [ {
          "system": "http://terminology.hl7.org/CodeSystem/observation-category",
          "code": "procedure",
          "display": "Procedure"
        } ]
      } ],
      "code": {
        "coding": [ {
          "system": "http://loinc.org",
          "version": "2.72",
          "code": "25031-6",
          "display": "NM Bone Views",
          "userSelected": true
        } ]
      },
      "subject": {
        "reference": "Patient/830e69d7-3820-46d6-9222-9d79323d0194"
      },
      "effectiveDateTime": "2026-08-17T08:00:00.000+00:00",
      "issued": "2026-08-17T08:00:00.000+00:00",
      "valueString": "Normal results found"
    }
  }, {
    "fullUrl": "https://madie.cms.gov/Coverage/42449c62-99af-4373-bc10-6a9efefcf54b",
    "resource": {
      "resourceType": "Coverage",
      "id": "42449c62-99af-4373-bc10-6a9efefcf54b",
      "meta": {
        "profile": [ "http://hl7.org/fhir/us/qicore/StructureDefinition/qicore-coverage" ]
      },
      "status": "active",
      "subscriberId": "123456789",
      "beneficiary": {
        "reference": "Patient/830e69d7-3820-46d6-9222-9d79323d0194"
      },
      "relationship": {
        "coding": [ {
          "system": "http://terminology.hl7.org/CodeSystem/subscriber-relationship",
          "code": "self",
          "display": "Self",
          "userSelected": true
        } ]
      },
      "payor": [ {
        "reference": "Organization/ef239cdd-f80b-4127-ab9b-c85d9a98621a"
      } ]
    }
  }, {
    "fullUrl": "https://madie.cms.gov/Organization/ef239cdd-f80b-4127-ab9b-c85d9a98621a",
    "resource": {
      "resourceType": "Organization",
      "id": "ef239cdd-f80b-4127-ab9b-c85d9a98621a",
      "meta": {
        "profile": [ "http://hl7.org/fhir/us/qicore/StructureDefinition/qicore-organization" ]
      },
      "identifier": [ {
        "use": "temp",
        "system": "urn:oid:2.16.840.1.113883.4.4",
        "value": "21-3259825"
      } ],
      "active": true,
      "type": [ {
        "coding": [ {
          "system": "http://terminology.hl7.org/CodeSystem/organization-type",
          "code": "pay",
          "display": "Payer"
        } ]
      } ],
      "name": "Blue Cross Blue Shield of Texas",
      "telecom": [ {
        "system": "phone",
        "value": "(+1) 972-766-6900"
      } ],
      "address": [ {
        "use": "billing",
        "type": "postal",
        "line": [ "P.O. Box 660044" ],
        "city": "Dallas",
        "state": "TX",
        "postalCode": "75266-0044",
        "country": "USA"
      } ]
    }
  }, {
    "fullUrl": "https://madie.cms.gov/Practitioner/e48f995f-f2ab-4e24-affb-18fc825b3b00",
    "resource": {
      "resourceType": "Practitioner",
      "id": "e48f995f-f2ab-4e24-affb-18fc825b3b00",
      "meta": {
        "profile": [ "http://hl7.org/fhir/us/qicore/StructureDefinition/qicore-practitioner" ]
      },
      "identifier": [ {
        "system": "http://hl7.org/fhir/sid/us-npi",
        "value": "1234567893"
      } ],
      "name": [ {
        "family": "Evil",
        "prefix": [ "Dr" ]
      } ]
    }
  }, {
    "fullUrl": "https://madie.cms.gov/MeasureReport/4085ead6-e08c-47ce-81af-14facf71b5ae",
    "resource": {
      "resourceType": "MeasureReport",
      "id": "4085ead6-e08c-47ce-81af-14facf71b5ae",
      "meta": {
        "profile": [ "http://hl7.org/fhir/us/cqfmeasures/StructureDefinition/test-case-cqfm" ]
      },
      "contained": [ {
        "resourceType": "Parameters",
        "id": "05cefbee-82c8-4d0a-acbe-be2410a00700-parameters",
        "parameter": [ {
          "name": "subject",
          "valueString": "830e69d7-3820-46d6-9222-9d79323d0194"
        } ]
      } ],
      "extension": [ {
        "url": "http://hl7.org/fhir/StructureDefinition/cqf-inputParameters",
        "valueReference": {
          "reference": "#05cefbee-82c8-4d0a-acbe-be2410a00700-parameters"
        }
      }, {
        "url": "http://hl7.org/fhir/us/cqfmeasures/StructureDefinition/cqfm-testCaseDescription",
        "valueMarkdown": "No cancer staging performed"
      } ],
      "modifierExtension": [ {
        "url": "http://hl7.org/fhir/us/cqfmeasures/StructureDefinition/cqfm-isTestCase",
        "valueBoolean": true
      } ],
      "status": "complete",
      "type": "individual",
      "measure": "https://madie.cms.gov/Measure/CMS129FHIRProstCaBoneScanUse",
      "period": {
        "start": "2026-01-01",
        "end": "2026-12-31"
      },
      "group": [ {
        "id": "Group_1",
        "population": [ {
          "id": "InitialPopulation_1",
          "code": {
            "coding": [ {
              "system": "http://terminology.hl7.org/CodeSystem/measure-population",
              "code": "initial-population",
              "display": "Initial Population"
            } ]
          },
          "count": 1
        }, {
          "id": "Denominator_1",
          "code": {
            "coding": [ {
              "system": "http://terminology.hl7.org/CodeSystem/measure-population",
              "code": "denominator",
              "display": "Denominator"
            } ]
          },
          "count": 0
        }, {
          "id": "Numerator_1",
          "code": {
            "coding": [ {
              "system": "http://terminology.hl7.org/CodeSystem/measure-population",
              "code": "numerator",
              "display": "Numerator"
            } ]
          },
          "count": 0
        }, {
          "id": "DenominatorException_1",
          "code": {
            "coding": [ {
              "system": "http://terminology.hl7.org/CodeSystem/measure-population",
              "code": "denominator-exception",
              "display": "Denominator Exception"
            } ]
          },
          "count": 0
        } ],
        "measureScore": {
          "value": 1.0
        }
      } ],
      "evaluatedResource": [ {
        "reference": "Patient/830e69d7-3820-46d6-9222-9d79323d0194"
      }, {
        "reference": "Condition/4bd22eb8-e3c6-45f5-9e38-4ae83b41b99f"
      }, {
        "reference": "Procedure/66fb415e-258c-4422-9f2f-01d012a2ab55"
      }, {
        "reference": "Observation/dc6a8684-b0de-4a51-b55f-40f5eef68330"
      }, {
        "reference": "Observation/123c2ace-4ad9-4d7e-878d-ecd4265a7883"
      }, {
        "reference": "Observation/91afb7ca-baee-42f4-83f6-7f1f52a3cc67"
      }, {
        "reference": "Coverage/42449c62-99af-4373-bc10-6a9efefcf54b"
      }, {
        "reference": "Organization/ef239cdd-f80b-4127-ab9b-c85d9a98621a"
      }, {
        "reference": "Practitioner/e48f995f-f2ab-4e24-affb-18fc825b3b00"
      } ]
    }
  } ]
}