{
  "resourceType": "Bundle",
  "id": "tests-DENOMPass-HypoMedRelativeDateTimeDuringER-bundle",
  "type": "transaction",
  "entry": [ {
    "fullUrl": "https://madie.cms.gov/Encounter/4ae8e4fd-2fc4-4c15-acbf-a89f8c973b07",
    "resource": {
      "resourceType": "Encounter",
      "id": "4ae8e4fd-2fc4-4c15-acbf-a89f8c973b07",
      "meta": {
        "profile": [ "http://hl7.org/fhir/us/qicore/StructureDefinition/qicore-encounter" ]
      },
      "status": "finished",
      "class": {
        "system": "http://terminology.hl7.org/CodeSystem/v3-ActCode",
        "code": "EMER",
        "display": "emergency"
      },
      "type": [ {
        "coding": [ {
          "system": "http://snomed.info/sct",
          "code": "4525004",
          "display": "Emergency department patient visit (procedure)"
        } ]
      } ],
      "subject": {
        "reference": "Patient/0abd9346-f086-4111-8614-d41be2e03979"
      },
      "period": {
        "start": "2026-01-11T08:00:00.000Z",
        "end": "2026-01-12T08:00:00.000Z"
      }
    },
    "request": {
      "method": "PUT",
      "url": "Encounter/4ae8e4fd-2fc4-4c15-acbf-a89f8c973b07"
    }
  }, {
    "fullUrl": "https://madie.cms.gov/Encounter/37b6d340-6d36-4b19-a9f9-7aa339094ff0",
    "resource": {
      "resourceType": "Encounter",
      "id": "37b6d340-6d36-4b19-a9f9-7aa339094ff0",
      "meta": {
        "profile": [ "http://hl7.org/fhir/us/qicore/StructureDefinition/qicore-encounter" ]
      },
      "status": "finished",
      "class": {
        "system": "http://terminology.hl7.org/CodeSystem/v3-ActCode",
        "code": "IMP",
        "display": "Inpatient encounter"
      },
      "type": [ {
        "coding": [ {
          "system": "http://snomed.info/sct",
          "code": "183452005",
          "display": "Emergency hospital admission (procedure)"
        } ]
      } ],
      "subject": {
        "reference": "Patient/0abd9346-f086-4111-8614-d41be2e03979"
      },
      "period": {
        "start": "2026-01-12T08:00:00.000Z",
        "end": "2026-01-14T08:15:00.000Z"
      }
    },
    "request": {
      "method": "PUT",
      "url": "Encounter/37b6d340-6d36-4b19-a9f9-7aa339094ff0"
    }
  }, {
    "fullUrl": "https://madie.cms.gov/MedicationAdministration/e7d73dc8-b825-4900-9f70-f4060fd07696",
    "resource": {
      "resourceType": "MedicationAdministration",
      "id": "e7d73dc8-b825-4900-9f70-f4060fd07696",
      "meta": {
        "profile": [ "http://hl7.org/fhir/us/qicore/StructureDefinition/qicore-medicationadministration" ]
      },
      "status": "completed",
      "medicationCodeableConcept": {
        "coding": [ {
          "system": "http://www.nlm.nih.gov/research/umls/rxnorm",
          "code": "1604539",
          "display": "1.5 ML insulin glargine 300 UNT/ML Pen Injector"
        } ]
      },
      "subject": {
        "reference": "Patient/0abd9346-f086-4111-8614-d41be2e03979"
      },
      "effectivePeriod": {
        "start": "2026-01-13T08:20:00.000Z",
        "end": "2026-01-13T08:25:00.000Z"
      }
    },
    "request": {
      "method": "PUT",
      "url": "MedicationAdministration/e7d73dc8-b825-4900-9f70-f4060fd07696"
    }
  }, {
    "fullUrl": "https://madie.cms.gov/Patient/0abd9346-f086-4111-8614-d41be2e03979",
    "resource": {
      "resourceType": "Patient",
      "id": "0abd9346-f086-4111-8614-d41be2e03979",
      "meta": {
        "profile": [ "http://hl7.org/fhir/us/qicore/StructureDefinition/qicore-patient" ]
      },
      "extension": [ {
        "url": "http://hl7.org/fhir/us/core/StructureDefinition/us-core-race",
        "extension": [ {
          "url": "ombCategory",
          "valueCoding": {
            "system": "urn:oid:2.16.840.1.113883.6.238",
            "code": "2106-3",
            "display": "White"
          }
        }, {
          "url": "text",
          "valueString": "White"
        } ]
      }, {
        "url": "http://hl7.org/fhir/us/core/StructureDefinition/us-core-ethnicity",
        "extension": [ {
          "url": "ombCategory",
          "valueCoding": {
            "system": "urn:oid:2.16.840.1.113883.6.238",
            "code": "2135-2",
            "display": "Hispanic or Latino"
          }
        }, {
          "url": "text",
          "valueString": "Hispanic or Latino"
        } ]
      }, {
        "url": "http://hl7.org/fhir/us/core/StructureDefinition/us-core-sex",
        "valueCode": "248153007"
      } ],
      "identifier": [ {
        "system": "http://hospital.smarthealthit.org",
        "value": "999999999"
      } ],
      "name": [ {
        "family": "CMSDENOMPass",
        "given": [ "HypoMedRelDateTimeDuringInPtEnc" ]
      } ],
      "gender": "female",
      "birthDate": "1956-01-01"
    },
    "request": {
      "method": "PUT",
      "url": "Patient/0abd9346-f086-4111-8614-d41be2e03979"
    }
  }, {
    "fullUrl": "https://madie.cms.gov/MeasureReport/8bff4d23-d65e-471b-b081-c3a921ddbc57",
    "resource": {
      "resourceType": "MeasureReport",
      "id": "8bff4d23-d65e-471b-b081-c3a921ddbc57",
      "meta": {
        "profile": [ "http://hl7.org/fhir/us/cqfmeasures/StructureDefinition/test-case-cqfm" ]
      },
      "contained": [ {
        "resourceType": "Parameters",
        "id": "4968f4f2-d257-47fb-97c4-8ce225c6508d-parameters",
        "parameter": [ {
          "name": "subject",
          "valueString": "0abd9346-f086-4111-8614-d41be2e03979"
        } ]
      } ],
      "extension": [ {
        "url": "http://hl7.org/fhir/StructureDefinition/cqf-inputParameters",
        "valueReference": {
          "reference": "#4968f4f2-d257-47fb-97c4-8ce225c6508d-parameters"
        }
      }, {
        "url": "http://hl7.org/fhir/us/cqfmeasures/StructureDefinition/cqfm-testCaseDescription",
        "valueMarkdown": "Encounter started in ER before IP. Hypo med relevant date/time during IP. Meets denominator.\n\n(CMS #6)"
      } ],
      "modifierExtension": [ {
        "url": "http://hl7.org/fhir/us/cqfmeasures/StructureDefinition/cqfm-isTestCase",
        "valueBoolean": true
      } ],
      "status": "complete",
      "type": "individual",
      "measure": "https://madie.cms.gov/Measure/NHSNGlycemicControlHypoglycemiaInitialPopulation",
      "period": {
        "start": "2026-01-01",
        "end": "2026-12-31"
      },
      "group": [ {
        "id": "Group_1",
        "population": [ {
          "id": "InitialPopulation_1",
          "code": {
            "coding": [ {
              "system": "http://terminology.hl7.org/CodeSystem/measure-population",
              "code": "initial-population",
              "display": "Initial Population"
            } ]
          },
          "count": 1
        } ],
        "measureScore": {
          "value": 0.0
        }
      } ],
      "evaluatedResource": [ {
        "reference": "Encounter/4ae8e4fd-2fc4-4c15-acbf-a89f8c973b07"
      }, {
        "reference": "Encounter/37b6d340-6d36-4b19-a9f9-7aa339094ff0"
      }, {
        "reference": "MedicationAdministration/e7d73dc8-b825-4900-9f70-f4060fd07696"
      }, {
        "reference": "Patient/0abd9346-f086-4111-8614-d41be2e03979"
      } ]
    },
    "request": {
      "method": "PUT",
      "url": "MeasureReport/8bff4d23-d65e-471b-b081-c3a921ddbc57"
    }
  } ]
}