{
  "resourceType": "Bundle",
  "id": "62d03365d15ad008a13f69e7",
  "type": "collection",
  "entry": [ {
    "fullUrl": "https://madie.cms.gov/Patient/9b11d2b8-872b-49c5-90b2-740f4e218a92",
    "resource": {
      "resourceType": "Patient",
      "id": "9b11d2b8-872b-49c5-90b2-740f4e218a92",
      "meta": {
        "profile": [ "http://hl7.org/fhir/us/qicore/StructureDefinition/qicore-patient" ]
      },
      "extension": [ {
        "url": "http://hl7.org/fhir/us/core/StructureDefinition/us-core-race",
        "extension": [ {
          "url": "ombCategory",
          "valueCoding": {
            "system": "urn:oid:2.16.840.1.113883.6.238",
            "code": "2054-5",
            "display": "Black or African American",
            "userSelected": true
          }
        }, {
          "url": "text",
          "valueString": "Black or African American"
        } ]
      }, {
        "url": "http://hl7.org/fhir/us/core/StructureDefinition/us-core-ethnicity",
        "extension": [ {
          "url": "ombCategory",
          "valueCoding": {
            "system": "urn:oid:2.16.840.1.113883.6.238",
            "code": "2135-2",
            "display": "Hispanic or Latino",
            "userSelected": true
          }
        }, {
          "url": "text",
          "valueString": "Hispanic or Latino"
        } ]
      } ],
      "identifier": [ {
        "type": {
          "coding": [ {
            "system": "http://terminology.hl7.org/CodeSystem/v2-0203",
            "code": "MR"
          } ]
        },
        "system": "https://bonnie-fhir.healthit.gov/",
        "value": "62d03365d15ad008a13f69e7"
      } ],
      "name": [ {
        "family": "DENEXCEPPass",
        "given": [ "ElevatedBPDeclinedNonPharm" ]
      } ],
      "gender": "male",
      "birthDate": "2006-01-31"
    }
  }, {
    "fullUrl": "https://madie.cms.gov/Encounter/8739d689-01c3-40fd-aa91-ec5b0f06b844",
    "resource": {
      "resourceType": "Encounter",
      "id": "8739d689-01c3-40fd-aa91-ec5b0f06b844",
      "meta": {
        "profile": [ "http://hl7.org/fhir/us/qicore/StructureDefinition/qicore-encounter" ]
      },
      "status": "finished",
      "class": {
        "system": "http://terminology.hl7.org/CodeSystem/v3-ActCode",
        "code": "AMB",
        "display": "ambulatory"
      },
      "type": [ {
        "coding": [ {
          "system": "http://snomed.info/sct",
          "version": "2022-03",
          "code": "103705002",
          "display": "Patient status observation (procedure)",
          "userSelected": true
        } ]
      } ],
      "subject": {
        "reference": "Patient/9b11d2b8-872b-49c5-90b2-740f4e218a92"
      },
      "period": {
        "start": "2026-12-31T08:00:00.000Z",
        "end": "2026-12-31T08:30:00.000Z"
      }
    }
  }, {
    "fullUrl": "https://madie.cms.gov/Observation/8e2cfa2b-e57f-4f13-ab2e-1e29397fbec5",
    "resource": {
      "resourceType": "Observation",
      "id": "8e2cfa2b-e57f-4f13-ab2e-1e29397fbec5",
      "meta": {
        "profile": [ "http://hl7.org/fhir/us/core/StructureDefinition/us-core-blood-pressure" ]
      },
      "status": "final",
      "category": [ {
        "coding": [ {
          "system": "http://terminology.hl7.org/CodeSystem/observation-category",
          "code": "vital-signs",
          "display": "Vital Signs"
        } ],
        "text": "Vital Signs"
      } ],
      "code": {
        "coding": [ {
          "system": "http://loinc.org",
          "code": "85354-9",
          "display": "Blood pressure panel with all children optional"
        } ]
      },
      "subject": {
        "reference": "Patient/9b11d2b8-872b-49c5-90b2-740f4e218a92"
      },
      "effectiveDateTime": "2026-12-31T08:01:00.000Z",
      "component": [ {
        "code": {
          "coding": [ {
            "system": "http://loinc.org",
            "code": "8480-6",
            "display": "Systolic blood pressure"
          } ]
        },
        "valueQuantity": {
          "value": 120,
          "unit": "mmHg",
          "system": "http://unitsofmeasure.org",
          "code": "mm[Hg]"
        }
      }, {
        "code": {
          "coding": [ {
            "system": "http://loinc.org",
            "code": "8462-4",
            "display": "Diastolic blood pressure"
          } ]
        },
        "valueQuantity": {
          "value": 79,
          "unit": "mmHg",
          "system": "http://unitsofmeasure.org",
          "code": "mm[Hg]"
        }
      } ]
    }
  }, {
    "fullUrl": "https://madie.cms.gov/Observation/8689226f-f0bc-467b-91a3-7612080b7864",
    "resource": {
      "resourceType": "Observation",
      "id": "8689226f-f0bc-467b-91a3-7612080b7864",
      "meta": {
        "profile": [ "http://hl7.org/fhir/us/qicore/StructureDefinition/qicore-observationcancelled" ]
      },
      "extension": [ {
        "url": "http://hl7.org/fhir/us/qicore/StructureDefinition/qicore-notDoneReason",
        "valueCodeableConcept": {
          "coding": [ {
            "system": "http://snomed.info/sct",
            "code": "183932001",
            "display": "Procedure contraindicated (situation)",
            "userSelected": true
          } ]
        }
      } ],
      "status": "cancelled",
      "category": [ {
        "coding": [ {
          "system": "http://terminology.hl7.org/CodeSystem/observation-category",
          "code": "vital-signs",
          "display": "Vital Signs"
        } ]
      } ],
      "code": {
        "coding": [ {
          "system": "http://loinc.org",
          "code": "85354-9",
          "display": "Blood pressure panel with all children optional",
          "userSelected": true
        } ]
      },
      "subject": {
        "reference": "Patient/9b11d2b8-872b-49c5-90b2-740f4e218a92"
      },
      "effectiveDateTime": "2026-01-01T08:10:00.000Z",
      "issued": "2026-01-01T08:05:00.000Z",
      "component": [ {
        "code": {
          "coding": [ {
            "system": "http://loinc.org",
            "code": "8480-6",
            "display": "Systolic blood pressure"
          } ]
        },
        "dataAbsentReason": {
          "coding": [ {
            "system": "http://terminology.hl7.org/CodeSystem/data-absent-reason",
            "code": "not-performed",
            "display": "Not Performed"
          } ]
        }
      }, {
        "code": {
          "coding": [ {
            "system": "http://loinc.org",
            "code": "8462-4",
            "display": "Diastolic blood pressure"
          } ]
        },
        "dataAbsentReason": {
          "coding": [ {
            "system": "http://terminology.hl7.org/CodeSystem/data-absent-reason",
            "code": "not-performed",
            "display": "Not Performed"
          } ]
        }
      } ]
    }
  }, {
    "fullUrl": "https://madie.cms.gov/ServiceRequest/6acc094c-1684-456d-b9f5-92da7dad23ab",
    "resource": {
      "resourceType": "ServiceRequest",
      "id": "6acc094c-1684-456d-b9f5-92da7dad23ab",
      "meta": {
        "profile": [ "http://hl7.org/fhir/us/qicore/StructureDefinition/qicore-servicenotrequested" ]
      },
      "extension": [ {
        "url": "http://hl7.org/fhir/us/qicore/StructureDefinition/qicore-doNotPerformReason",
        "valueCodeableConcept": {
          "coding": [ {
            "system": "http://snomed.info/sct",
            "code": "1296859006",
            "display": "Procedure declined (situation)",
            "userSelected": true
          } ]
        }
      } ],
      "status": "completed",
      "intent": "order",
      "doNotPerform": true,
      "code": {
        "coding": [ {
          "system": "http://snomed.info/sct",
          "version": "2022-03",
          "code": "313204009",
          "display": "Lifestyle education (procedure)",
          "userSelected": true
        } ]
      },
      "subject": {
        "reference": "Patient/9b11d2b8-872b-49c5-90b2-740f4e218a92"
      },
      "authoredOn": "2026-12-31T08:02:00.000Z",
      "reasonCode": [ {
        "coding": [ {
          "system": "http://snomed.info/sct",
          "code": "1296859006",
          "display": "Procedure declined (situation)",
          "userSelected": true
        } ]
      } ]
    }
  }, {
    "fullUrl": "https://madie.cms.gov/Coverage/3c3a632c-2a38-4bd2-b44e-5fd3aaaf3a27",
    "resource": {
      "resourceType": "Coverage",
      "id": "3c3a632c-2a38-4bd2-b44e-5fd3aaaf3a27",
      "meta": {
        "profile": [ "http://hl7.org/fhir/us/qicore/StructureDefinition/qicore-coverage" ]
      },
      "status": "active",
      "subscriberId": "65135481",
      "beneficiary": {
        "reference": "Patient/9b11d2b8-872b-49c5-90b2-740f4e218a92"
      },
      "relationship": {
        "coding": [ {
          "system": "http://terminology.hl7.org/CodeSystem/subscriber-relationship",
          "code": "self",
          "display": "Self"
        } ]
      },
      "payor": [ {
        "reference": "Organization/f569a954-a090-48a2-93e6-6f813fd20eb3"
      } ]
    }
  }, {
    "fullUrl": "https://madie.cms.gov/Organization/f569a954-a090-48a2-93e6-6f813fd20eb3",
    "resource": {
      "resourceType": "Organization",
      "id": "f569a954-a090-48a2-93e6-6f813fd20eb3",
      "meta": {
        "profile": [ "http://hl7.org/fhir/us/qicore/StructureDefinition/qicore-organization" ]
      },
      "identifier": [ {
        "use": "temp",
        "system": "urn:oid:2.16.840.1.113883.4.4",
        "value": "21-3259825"
      } ],
      "active": true,
      "type": [ {
        "coding": [ {
          "system": "http://terminology.hl7.org/CodeSystem/organization-type",
          "code": "pay",
          "display": "Payer"
        } ]
      } ],
      "name": "Blue Cross Blue Shield of Texas",
      "telecom": [ {
        "system": "phone",
        "value": "(+1) 972-766-6900"
      } ],
      "address": [ {
        "use": "billing",
        "type": "postal",
        "line": [ "P.O. Box 660044" ],
        "city": "Dallas",
        "state": "TX",
        "postalCode": "75266-0044",
        "country": "USA"
      } ]
    }
  }, {
    "fullUrl": "https://madie.cms.gov/Practitioner/8863ca08-9c55-4fee-8a71-fdf77558402a",
    "resource": {
      "resourceType": "Practitioner",
      "id": "8863ca08-9c55-4fee-8a71-fdf77558402a",
      "meta": {
        "profile": [ "http://hl7.org/fhir/us/qicore/StructureDefinition/qicore-practitioner" ]
      },
      "identifier": [ {
        "system": "http://hl7.org/fhir/sid/us-npi",
        "value": "1134108814"
      } ],
      "name": [ {
        "family": "Evil",
        "prefix": [ "Dr" ]
      } ]
    }
  }, {
    "fullUrl": "https://madie.cms.gov/MeasureReport/9c51b1e6-9760-432b-80a2-8d283b2c01ef",
    "resource": {
      "resourceType": "MeasureReport",
      "id": "9c51b1e6-9760-432b-80a2-8d283b2c01ef",
      "meta": {
        "profile": [ "http://hl7.org/fhir/us/cqfmeasures/StructureDefinition/test-case-cqfm" ]
      },
      "contained": [ {
        "resourceType": "Parameters",
        "id": "dc20a5e0-e4d4-4abf-b51f-fe0eccd1db49-parameters",
        "parameter": [ {
          "name": "subject",
          "valueString": "9b11d2b8-872b-49c5-90b2-740f4e218a92"
        } ]
      } ],
      "extension": [ {
        "url": "http://hl7.org/fhir/StructureDefinition/cqf-inputParameters",
        "valueReference": {
          "reference": "#dc20a5e0-e4d4-4abf-b51f-fe0eccd1db49-parameters"
        }
      }, {
        "url": "http://hl7.org/fhir/us/cqfmeasures/StructureDefinition/cqfm-testCaseDescription",
        "valueMarkdown": "Enc .12/31 0800-0830 during MP, age 20, BP 120/79 at 0801, , declined lifestyle education @0802. "
      } ],
      "modifierExtension": [ {
        "url": "http://hl7.org/fhir/us/cqfmeasures/StructureDefinition/cqfm-isTestCase",
        "valueBoolean": true
      } ],
      "status": "complete",
      "type": "individual",
      "measure": "https://madie.cms.gov/Measure/CMS22FHIRPCSBPScreeningFollowUp",
      "period": {
        "start": "2026-01-01",
        "end": "2026-12-31"
      },
      "group": [ {
        "id": "Group_1",
        "population": [ {
          "id": "InitialPopulation_1",
          "code": {
            "coding": [ {
              "system": "http://terminology.hl7.org/CodeSystem/measure-population",
              "code": "initial-population",
              "display": "Initial Population"
            } ]
          },
          "count": 1
        }, {
          "id": "Denominator_1",
          "code": {
            "coding": [ {
              "system": "http://terminology.hl7.org/CodeSystem/measure-population",
              "code": "denominator",
              "display": "Denominator"
            } ]
          },
          "count": 1
        }, {
          "id": "DenominatorExclusion_1",
          "code": {
            "coding": [ {
              "system": "http://terminology.hl7.org/CodeSystem/measure-population",
              "code": "denominator-exclusion",
              "display": "Denominator Exclusion"
            } ]
          },
          "count": 0
        }, {
          "id": "Numerator_1",
          "code": {
            "coding": [ {
              "system": "http://terminology.hl7.org/CodeSystem/measure-population",
              "code": "numerator",
              "display": "Numerator"
            } ]
          },
          "count": 0
        }, {
          "id": "DenominatorException_1",
          "code": {
            "coding": [ {
              "system": "http://terminology.hl7.org/CodeSystem/measure-population",
              "code": "denominator-exception",
              "display": "Denominator Exception"
            } ]
          },
          "count": 1
        } ],
        "measureScore": {
          "value": 0.0
        }
      } ],
      "evaluatedResource": [ {
        "reference": "Patient/9b11d2b8-872b-49c5-90b2-740f4e218a92"
      }, {
        "reference": "Encounter/8739d689-01c3-40fd-aa91-ec5b0f06b844"
      }, {
        "reference": "Observation/8e2cfa2b-e57f-4f13-ab2e-1e29397fbec5"
      }, {
        "reference": "Observation/8689226f-f0bc-467b-91a3-7612080b7864"
      }, {
        "reference": "ServiceRequest/6acc094c-1684-456d-b9f5-92da7dad23ab"
      }, {
        "reference": "Coverage/3c3a632c-2a38-4bd2-b44e-5fd3aaaf3a27"
      }, {
        "reference": "Organization/f569a954-a090-48a2-93e6-6f813fd20eb3"
      }, {
        "reference": "Practitioner/8863ca08-9c55-4fee-8a71-fdf77558402a"
      } ]
    }
  } ]
}