{
  "resourceType": "Bundle",
  "id": "IPPass-SDECoverage2e",
  "type": "transaction",
  "entry": [ {
    "fullUrl": "https://madie.cms.gov/Patient/b0c3c273-5cd5-4d4d-960e-47e7d19c9240",
    "resource": {
      "resourceType": "Patient",
      "id": "b0c3c273-5cd5-4d4d-960e-47e7d19c9240",
      "meta": {
        "profile": [ "http://hl7.org/fhir/us/qicore/StructureDefinition/qicore-patient" ]
      },
      "extension": [ {
        "url": "http://hl7.org/fhir/us/core/StructureDefinition/us-core-race",
        "extension": [ {
          "url": "ombCategory",
          "valueCoding": {
            "system": "urn:oid:2.16.840.1.113883.6.238",
            "code": "2028-9",
            "display": "Asian",
            "userSelected": true
          }
        }, {
          "url": "text",
          "valueString": "Asian"
        }, {
          "url": "detailed",
          "valueCoding": {
            "system": "urn:oid:2.16.840.1.113883.6.238",
            "code": "1653-5",
            "display": "Tohono O'Odham"
          }
        } ]
      }, {
        "url": "http://hl7.org/fhir/us/core/StructureDefinition/us-core-ethnicity",
        "extension": [ {
          "url": "ombCategory",
          "valueCoding": {
            "system": "urn:oid:2.16.840.1.113883.6.238",
            "code": "2135-2",
            "display": "Hispanic or Latino",
            "userSelected": true
          }
        }, {
          "url": "text",
          "valueString": "Hispanic or Latino"
        }, {
          "url": "detailed",
          "valueCoding": {
            "system": "urn:oid:2.16.840.1.113883.6.238",
            "code": "2180-8",
            "display": "Puerto Rican"
          }
        } ]
      }, {
        "url": "http://hl7.org/fhir/us/core/StructureDefinition/us-core-sex",
        "valueCode": "248152002"
      } ],
      "identifier": [ {
        "system": "http://hospital.smarthealthit.org",
        "value": "999999995"
      } ],
      "name": [ {
        "family": "SDE",
        "given": [ "SDECoverage2" ]
      } ],
      "gender": "unknown",
      "birthDate": "2014-01-01"
    },
    "request": {
      "method": "PUT",
      "url": "Patient/b0c3c273-5cd5-4d4d-960e-47e7d19c9240"
    }
  }, {
    "fullUrl": "https://madie.cms.gov/Encounter/ef4b7026-a930-40fa-8e96-6164d21eac7e",
    "resource": {
      "resourceType": "Encounter",
      "id": "ef4b7026-a930-40fa-8e96-6164d21eac7e",
      "meta": {
        "profile": [ "http://hl7.org/fhir/us/qicore/StructureDefinition/qicore-encounter" ]
      },
      "status": "finished",
      "class": {
        "system": "http://terminology.hl7.org/CodeSystem/v3-ActCode",
        "code": "AMB",
        "display": "ambulatory"
      },
      "type": [ {
        "coding": [ {
          "system": "http://snomed.info/sct",
          "code": "228653003",
          "display": "Occupational therapy home visit (regime/therapy)"
        } ]
      } ],
      "subject": {
        "reference": "Patient/b0c3c273-5cd5-4d4d-960e-47e7d19c9240"
      },
      "period": {
        "start": "2026-01-01T01:00:00.000+00:00",
        "end": "2026-01-01T01:15:00.000+00:00"
      }
    },
    "request": {
      "method": "PUT",
      "url": "Encounter/ef4b7026-a930-40fa-8e96-6164d21eac7e"
    }
  }, {
    "fullUrl": "https://madie.cms.gov/Encounter/1c2c789a-b4f0-4e2f-8f67-9ea9b9bbba66",
    "resource": {
      "resourceType": "Encounter",
      "id": "1c2c789a-b4f0-4e2f-8f67-9ea9b9bbba66",
      "meta": {
        "profile": [ "http://hl7.org/fhir/us/qicore/StructureDefinition/qicore-encounter" ]
      },
      "status": "finished",
      "class": {
        "system": "http://terminology.hl7.org/CodeSystem/v3-ActCode",
        "code": "AMB",
        "display": "ambulatory"
      },
      "type": [ {
        "coding": [ {
          "system": "http://snomed.info/sct",
          "code": "41375007",
          "display": "Medical evaluation of hearing problem (procedure)"
        } ]
      } ],
      "subject": {
        "reference": "Patient/b0c3c273-5cd5-4d4d-960e-47e7d19c9240"
      },
      "period": {
        "start": "2026-01-01T01:00:00.000+00:00",
        "end": "2026-01-01T01:15:00.000+00:00"
      }
    },
    "request": {
      "method": "PUT",
      "url": "Encounter/1c2c789a-b4f0-4e2f-8f67-9ea9b9bbba66"
    }
  }, {
    "fullUrl": "https://madie.cms.gov/Coverage/18131387-eb5a-41a7-af5b-761ef75d407e",
    "resource": {
      "resourceType": "Coverage",
      "id": "18131387-eb5a-41a7-af5b-761ef75d407e",
      "meta": {
        "profile": [ "http://hl7.org/fhir/us/qicore/StructureDefinition/qicore-coverage" ]
      },
      "identifier": [ {
        "system": "http://benefitsinc.com/certificate",
        "value": "12345"
      } ],
      "status": "active",
      "type": {
        "coding": [ {
          "system": "https://nahdo.org/sopt",
          "code": "59",
          "display": "Other Private Insurance"
        } ]
      },
      "policyHolder": {
        "reference": "Patient/b0c3c273-5cd5-4d4d-960e-47e7d19c9240"
      },
      "subscriber": {
        "reference": "Patient/b0c3c273-5cd5-4d4d-960e-47e7d19c9240"
      },
      "subscriberId": "12191",
      "beneficiary": {
        "reference": "Patient/b0c3c273-5cd5-4d4d-960e-47e7d19c9240"
      },
      "dependent": "0",
      "relationship": {
        "coding": [ {
          "system": "http://terminology.hl7.org/CodeSystem/subscriber-relationship",
          "code": "self"
        } ]
      },
      "period": {
        "start": "2023-01-01T06:00:00.000+00:00",
        "end": "2023-01-01T11:06:01.000+00:00"
      },
      "payor": [ {
        "reference": "Patient/b0c3c273-5cd5-4d4d-960e-47e7d19c9240"
      } ],
      "order": 9
    },
    "request": {
      "method": "PUT",
      "url": "Coverage/18131387-eb5a-41a7-af5b-761ef75d407e"
    }
  }, {
    "fullUrl": "https://madie.cms.gov/MeasureReport/4821176f-a47e-441c-9807-0d7b43852e6c",
    "resource": {
      "resourceType": "MeasureReport",
      "id": "4821176f-a47e-441c-9807-0d7b43852e6c",
      "meta": {
        "profile": [ "http://hl7.org/fhir/us/cqfmeasures/StructureDefinition/test-case-cqfm" ]
      },
      "contained": [ {
        "resourceType": "Parameters",
        "id": "5483508b-6eae-4610-9b8e-6a63a3967cea-parameters",
        "parameter": [ {
          "name": "subject",
          "valueString": "b0c3c273-5cd5-4d4d-960e-47e7d19c9240"
        } ]
      } ],
      "extension": [ {
        "url": "http://hl7.org/fhir/StructureDefinition/cqf-inputParameters",
        "valueReference": {
          "reference": "#5483508b-6eae-4610-9b8e-6a63a3967cea-parameters"
        }
      }, {
        "url": "http://hl7.org/fhir/us/cqfmeasures/StructureDefinition/cqfm-testCaseDescription",
        "valueMarkdown": "For meeting SDE 100% coverage - patient sex female"
      } ],
      "modifierExtension": [ {
        "url": "http://hl7.org/fhir/us/cqfmeasures/StructureDefinition/cqfm-isTestCase",
        "valueBoolean": true
      } ],
      "status": "complete",
      "type": "individual",
      "measure": "https://madie.cms.gov/Measure/CMS138FHIRTobaccoScrnCessation",
      "period": {
        "start": "2026-01-01",
        "end": "2026-12-31"
      },
      "group": [ {
        "id": "Group_1",
        "population": [ {
          "id": "InitialPopulation_1",
          "code": {
            "coding": [ {
              "system": "http://terminology.hl7.org/CodeSystem/measure-population",
              "code": "initial-population",
              "display": "Initial Population"
            } ]
          },
          "count": 1
        }, {
          "id": "Denominator_1",
          "code": {
            "coding": [ {
              "system": "http://terminology.hl7.org/CodeSystem/measure-population",
              "code": "denominator",
              "display": "Denominator"
            } ]
          },
          "count": 1
        }, {
          "id": "DenominatorExclusion_1",
          "code": {
            "coding": [ {
              "system": "http://terminology.hl7.org/CodeSystem/measure-population",
              "code": "denominator-exclusion",
              "display": "Denominator Exclusion"
            } ]
          },
          "count": 0
        }, {
          "id": "Numerator_1",
          "code": {
            "coding": [ {
              "system": "http://terminology.hl7.org/CodeSystem/measure-population",
              "code": "numerator",
              "display": "Numerator"
            } ]
          },
          "count": 0
        } ],
        "measureScore": {
          "value": 1.0
        }
      }, {
        "id": "Group_2",
        "population": [ {
          "id": "InitialPopulation_2",
          "code": {
            "coding": [ {
              "system": "http://terminology.hl7.org/CodeSystem/measure-population",
              "code": "initial-population",
              "display": "Initial Population"
            } ]
          },
          "count": 1
        }, {
          "id": "Denominator_2",
          "code": {
            "coding": [ {
              "system": "http://terminology.hl7.org/CodeSystem/measure-population",
              "code": "denominator",
              "display": "Denominator"
            } ]
          },
          "count": 0
        }, {
          "id": "DenominatorExclusion_2",
          "code": {
            "coding": [ {
              "system": "http://terminology.hl7.org/CodeSystem/measure-population",
              "code": "denominator-exclusion",
              "display": "Denominator Exclusion"
            } ]
          },
          "count": 0
        }, {
          "id": "Numerator_2",
          "code": {
            "coding": [ {
              "system": "http://terminology.hl7.org/CodeSystem/measure-population",
              "code": "numerator",
              "display": "Numerator"
            } ]
          },
          "count": 0
        } ],
        "measureScore": {
          "value": 1.0
        }
      }, {
        "id": "Group_3",
        "population": [ {
          "id": "InitialPopulation_3",
          "code": {
            "coding": [ {
              "system": "http://terminology.hl7.org/CodeSystem/measure-population",
              "code": "initial-population",
              "display": "Initial Population"
            } ]
          },
          "count": 1
        }, {
          "id": "Denominator_3",
          "code": {
            "coding": [ {
              "system": "http://terminology.hl7.org/CodeSystem/measure-population",
              "code": "denominator",
              "display": "Denominator"
            } ]
          },
          "count": 1
        }, {
          "id": "DenominatorExclusion_3",
          "code": {
            "coding": [ {
              "system": "http://terminology.hl7.org/CodeSystem/measure-population",
              "code": "denominator-exclusion",
              "display": "Denominator Exclusion"
            } ]
          },
          "count": 0
        }, {
          "id": "Numerator_3",
          "code": {
            "coding": [ {
              "system": "http://terminology.hl7.org/CodeSystem/measure-population",
              "code": "numerator",
              "display": "Numerator"
            } ]
          },
          "count": 0
        } ],
        "measureScore": {
          "value": 1.0
        }
      } ],
      "evaluatedResource": [ {
        "reference": "Patient/b0c3c273-5cd5-4d4d-960e-47e7d19c9240"
      }, {
        "reference": "Encounter/ef4b7026-a930-40fa-8e96-6164d21eac7e"
      }, {
        "reference": "Encounter/1c2c789a-b4f0-4e2f-8f67-9ea9b9bbba66"
      }, {
        "reference": "Coverage/18131387-eb5a-41a7-af5b-761ef75d407e"
      } ]
    },
    "request": {
      "method": "PUT",
      "url": "MeasureReport/4821176f-a47e-441c-9807-0d7b43852e6c"
    }
  } ]
}