{
  "resourceType": "Bundle",
  "id": "62fd4b660968f8012246b012",
  "type": "collection",
  "entry": [ {
    "fullUrl": "https://madie.cms.gov/Patient/12c82f74-5184-450f-9de1-ea211f3bf47a",
    "resource": {
      "resourceType": "Patient",
      "id": "12c82f74-5184-450f-9de1-ea211f3bf47a",
      "meta": {
        "profile": [ "http://hl7.org/fhir/us/qicore/StructureDefinition/qicore-patient" ]
      },
      "extension": [ {
        "url": "http://hl7.org/fhir/us/core/StructureDefinition/us-core-race",
        "extension": [ {
          "url": "ombCategory",
          "valueCoding": {
            "system": "urn:oid:2.16.840.1.113883.6.238",
            "code": "2028-9",
            "display": "Asian",
            "userSelected": true
          }
        }, {
          "url": "text",
          "valueString": "Asian"
        } ]
      }, {
        "url": "http://hl7.org/fhir/us/core/StructureDefinition/us-core-ethnicity",
        "extension": [ {
          "url": "ombCategory",
          "valueCoding": {
            "system": "urn:oid:2.16.840.1.113883.6.238",
            "code": "2186-5",
            "display": "Not Hispanic or Latino",
            "userSelected": true
          }
        }, {
          "url": "text",
          "valueString": "Not Hispanic or Latino"
        } ]
      } ],
      "identifier": [ {
        "type": {
          "coding": [ {
            "system": "http://terminology.hl7.org/CodeSystem/v2-0203",
            "code": "MR"
          } ]
        },
        "system": "https://bonnie-fhir.healthit.gov/",
        "value": "62fd4b660968f8012246b012"
      } ],
      "name": [ {
        "family": "DenomPass",
        "given": [ "EncRefNewPsychDRC" ]
      } ],
      "gender": "female",
      "birthDate": "1989-11-29"
    }
  }, {
    "fullUrl": "https://madie.cms.gov/ServiceRequest/c2b3d6b5-8b37-4b3f-8cfc-5a107135aa96",
    "resource": {
      "resourceType": "ServiceRequest",
      "id": "c2b3d6b5-8b37-4b3f-8cfc-5a107135aa96",
      "meta": {
        "profile": [ "http://hl7.org/fhir/us/qicore/StructureDefinition/qicore-servicerequest" ]
      },
      "status": "completed",
      "intent": "order",
      "code": {
        "coding": [ {
          "system": "http://snomed.info/sct",
          "version": "http://snomed.info/sct/731000124108/version/20250301",
          "code": "103696004",
          "display": "Patient referral to specialist (procedure)",
          "userSelected": true
        } ]
      },
      "subject": {
        "reference": "Patient/12c82f74-5184-450f-9de1-ea211f3bf47a"
      },
      "authoredOn": "2026-01-01T00:00:00+00:00"
    }
  }, {
    "fullUrl": "https://madie.cms.gov/Procedure/fd222215-f679-436e-bbc3-1e995b0b686c",
    "resource": {
      "resourceType": "Procedure",
      "id": "fd222215-f679-436e-bbc3-1e995b0b686c",
      "meta": {
        "profile": [ "http://hl7.org/fhir/us/qicore/StructureDefinition/qicore-procedure" ]
      },
      "extension": [ {
        "url": "http://hl7.org/fhir/us/qicore/StructureDefinition/qicore-recorded",
        "valueDateTime": "2026-01-01T00:00:00+00:00"
      } ],
      "status": "completed",
      "code": {
        "coding": [ {
          "system": "http://www.ama-assn.org/go/cpt",
          "version": "2021",
          "code": "90839",
          "display": "Psychotherapy for crisis; first 60 minutes",
          "userSelected": true
        } ]
      },
      "subject": {
        "reference": "Patient/12c82f74-5184-450f-9de1-ea211f3bf47a"
      },
      "performedDateTime": "2026-01-01T00:00:00+00:00"
    }
  }, {
    "fullUrl": "https://madie.cms.gov/Coverage/a450ebd4-0064-481c-bd6a-7fbebe720770",
    "resource": {
      "resourceType": "Coverage",
      "id": "a450ebd4-0064-481c-bd6a-7fbebe720770",
      "meta": {
        "profile": [ "http://hl7.org/fhir/us/qicore/StructureDefinition/qicore-coverage" ]
      },
      "status": "active",
      "subscriberId": "123456",
      "beneficiary": {
        "reference": "Patient/12c82f74-5184-450f-9de1-ea211f3bf47a"
      },
      "relationship": {
        "coding": [ {
          "system": "http://terminology.hl7.org/CodeSystem/subscriber-relationship",
          "code": "self",
          "display": "Self"
        } ]
      },
      "payor": [ {
        "reference": "Organization/34cd96d5-d9aa-487e-abda-5103c1d94e72"
      } ]
    }
  }, {
    "fullUrl": "https://madie.cms.gov/Organization/34cd96d5-d9aa-487e-abda-5103c1d94e72",
    "resource": {
      "resourceType": "Organization",
      "id": "34cd96d5-d9aa-487e-abda-5103c1d94e72",
      "meta": {
        "profile": [ "http://hl7.org/fhir/us/qicore/StructureDefinition/qicore-organization" ]
      },
      "identifier": [ {
        "use": "temp",
        "system": "urn:oid:2.16.840.1.113883.4.4",
        "value": "21-3259825"
      } ],
      "active": true,
      "type": [ {
        "coding": [ {
          "system": "http://terminology.hl7.org/CodeSystem/organization-type",
          "code": "pay",
          "display": "Payer"
        } ]
      } ],
      "name": "Blue Cross Blue Shield of Texas",
      "telecom": [ {
        "system": "phone",
        "value": "(+1) 972-766-6900"
      } ],
      "address": [ {
        "use": "billing",
        "type": "postal",
        "line": [ "P.O. Box 660044" ],
        "city": "Dallas",
        "state": "TX",
        "postalCode": "75266-0044",
        "country": "USA"
      } ]
    }
  }, {
    "fullUrl": "https://madie.cms.gov/Practitioner/fa101a2e-3264-439e-9ebb-50892c4a2352",
    "resource": {
      "resourceType": "Practitioner",
      "id": "fa101a2e-3264-439e-9ebb-50892c4a2352",
      "meta": {
        "profile": [ "http://hl7.org/fhir/us/qicore/StructureDefinition/qicore-practitioner" ]
      },
      "identifier": [ {
        "system": "http://hl7.org/fhir/sid/us-npi",
        "value": "1689411712"
      } ],
      "name": [ {
        "family": "Evil",
        "prefix": [ "Dr" ]
      } ]
    }
  }, {
    "fullUrl": "https://madie.cms.gov/MeasureReport/5e866931-2dee-4308-921a-37d735290147",
    "resource": {
      "resourceType": "MeasureReport",
      "id": "5e866931-2dee-4308-921a-37d735290147",
      "meta": {
        "profile": [ "http://hl7.org/fhir/us/cqfmeasures/StructureDefinition/test-case-cqfm" ]
      },
      "contained": [ {
        "resourceType": "Parameters",
        "id": "f824e8d5-c3bd-4d68-8327-ea7405146251-parameters",
        "parameter": [ {
          "name": "subject",
          "valueString": "12c82f74-5184-450f-9de1-ea211f3bf47a"
        } ]
      } ],
      "extension": [ {
        "url": "http://hl7.org/fhir/StructureDefinition/cqf-inputParameters",
        "valueReference": {
          "reference": "#f824e8d5-c3bd-4d68-8327-ea7405146251-parameters"
        }
      }, {
        "url": "http://hl7.org/fhir/us/cqfmeasures/StructureDefinition/cqfm-testCaseDescription",
        "valueMarkdown": "Psychotherapy intervention first hour of MP with a referral. "
      } ],
      "modifierExtension": [ {
        "url": "http://hl7.org/fhir/us/cqfmeasures/StructureDefinition/cqfm-isTestCase",
        "valueBoolean": true
      } ],
      "status": "complete",
      "type": "individual",
      "measure": "https://madie.cms.gov/Measure/CMS50FHIRReceiptofSpecialistReport",
      "period": {
        "start": "2026-01-01",
        "end": "2026-12-31"
      },
      "group": [ {
        "id": "Group_1",
        "population": [ {
          "id": "InitialPopulation_1",
          "code": {
            "coding": [ {
              "system": "http://terminology.hl7.org/CodeSystem/measure-population",
              "code": "initial-population",
              "display": "Initial Population"
            } ]
          },
          "count": 1
        }, {
          "id": "Denominator_1",
          "code": {
            "coding": [ {
              "system": "http://terminology.hl7.org/CodeSystem/measure-population",
              "code": "denominator",
              "display": "Denominator"
            } ]
          },
          "count": 1
        }, {
          "id": "Numerator_1",
          "code": {
            "coding": [ {
              "system": "http://terminology.hl7.org/CodeSystem/measure-population",
              "code": "numerator",
              "display": "Numerator"
            } ]
          },
          "count": 0
        } ],
        "measureScore": {
          "value": 1.0
        }
      } ],
      "evaluatedResource": [ {
        "reference": "Patient/12c82f74-5184-450f-9de1-ea211f3bf47a"
      }, {
        "reference": "ServiceRequest/c2b3d6b5-8b37-4b3f-8cfc-5a107135aa96"
      }, {
        "reference": "Procedure/fd222215-f679-436e-bbc3-1e995b0b686c"
      }, {
        "reference": "Coverage/a450ebd4-0064-481c-bd6a-7fbebe720770"
      }, {
        "reference": "Organization/34cd96d5-d9aa-487e-abda-5103c1d94e72"
      }, {
        "reference": "Practitioner/fa101a2e-3264-439e-9ebb-50892c4a2352"
      } ]
    }
  } ]
}