{
  "resourceType": "Bundle",
  "id": "63487c300968f801225401ca",
  "type": "transaction",
  "entry": [ {
    "fullUrl": "https://madie.cms.gov/Patient/bd369a0e-1c2c-4bd8-863c-27776268efb7",
    "resource": {
      "resourceType": "Patient",
      "id": "bd369a0e-1c2c-4bd8-863c-27776268efb7",
      "meta": {
        "profile": [ "http://hl7.org/fhir/us/qicore/StructureDefinition/qicore-patient" ]
      },
      "text": {
        "status": "generated",
        "div": "<div xmlns=\"http://www.w3.org/1999/xhtml\"><div class=\"hapiHeaderText\">AssessTimeOfDelivResultB4DelivEncStart<b>DENOMFail</b></div><table class=\"hapiPropertyTable\"><tbody><tr><td>Identifier</td><td>71189d70ba3427612f2a418107466ed1652ec9a0e76c1b9c30a1691a1d91b34c</td></tr><tr><td>Date of birth</td><td><span>14 February 1985</span></td></tr></tbody></table></div>"
      },
      "extension": [ {
        "url": "http://hl7.org/fhir/us/core/StructureDefinition/us-core-race",
        "extension": [ {
          "url": "ombCategory",
          "valueCoding": {
            "system": "urn:oid:2.16.840.1.113883.6.238",
            "code": "1002-5",
            "display": "American Indian or Alaska Native",
            "userSelected": true
          }
        }, {
          "url": "text",
          "valueString": "American Indian or Alaska Native"
        } ]
      }, {
        "url": "http://hl7.org/fhir/us/core/StructureDefinition/us-core-ethnicity",
        "extension": [ {
          "url": "ombCategory",
          "valueCoding": {
            "system": "urn:oid:2.16.840.1.113883.6.238",
            "code": "2135-2",
            "display": "Hispanic or Latino",
            "userSelected": true
          }
        }, {
          "url": "text",
          "valueString": "Hispanic or Latino"
        } ]
      } ],
      "identifier": [ {
        "type": {
          "coding": [ {
            "system": "http://terminology.hl7.org/CodeSystem/v2-0203",
            "code": "MR"
          } ]
        },
        "system": "https://bonnie-fhir.healthit.gov/",
        "value": "63487c300968f801225401ca"
      } ],
      "active": true,
      "name": [ {
        "use": "usual",
        "family": "DENOMFail",
        "given": [ "AssessTimeOfDelivResultB4DelivEncStart" ]
      } ],
      "gender": "female",
      "birthDate": "1998-02-14"
    },
    "request": {
      "method": "PUT",
      "url": "Patient/bd369a0e-1c2c-4bd8-863c-27776268efb7"
    }
  }, {
    "fullUrl": "https://madie.cms.gov/Observation/db5135f6-4c42-4ddc-a811-b44dc94f43b5",
    "resource": {
      "resourceType": "Observation",
      "id": "db5135f6-4c42-4ddc-a811-b44dc94f43b5",
      "meta": {
        "profile": [ "http://hl7.org/fhir/us/qicore/StructureDefinition/qicore-observation" ]
      },
      "status": "final",
      "category": [ {
        "coding": [ {
          "system": "http://terminology.hl7.org/CodeSystem/observation-category",
          "code": "exam",
          "display": "exam",
          "userSelected": true
        } ]
      } ],
      "code": {
        "coding": [ {
          "system": "http://loinc.org",
          "code": "11996-6"
        } ]
      },
      "subject": {
        "reference": "Patient/bd369a0e-1c2c-4bd8-863c-27776268efb7"
      },
      "effectiveDateTime": "2026-02-09T08:00:00.000+00:00",
      "valueInteger": 1
    },
    "request": {
      "method": "PUT",
      "url": "Observation/db5135f6-4c42-4ddc-a811-b44dc94f43b5"
    }
  }, {
    "fullUrl": "https://madie.cms.gov/Observation/688458f4-cf51-4bd5-9b1d-4443d1e2a50a",
    "resource": {
      "resourceType": "Observation",
      "id": "688458f4-cf51-4bd5-9b1d-4443d1e2a50a",
      "meta": {
        "profile": [ "http://hl7.org/fhir/us/qicore/StructureDefinition/qicore-simple-observation" ]
      },
      "status": "final",
      "category": [ {
        "coding": [ {
          "system": "http://terminology.hl7.org/CodeSystem/observation-category",
          "code": "exam",
          "display": "exam",
          "userSelected": true
        } ]
      } ],
      "code": {
        "coding": [ {
          "system": "http://loinc.org",
          "code": "93857-1"
        } ]
      },
      "subject": {
        "reference": "Patient/bd369a0e-1c2c-4bd8-863c-27776268efb7"
      },
      "effectiveDateTime": "2026-11-28T21:30:00.000+00:00",
      "performer": [ {
        "reference": "Organization/example1",
        "display": "Hendricks Country Hospital"
      } ],
      "valueDateTime": "2026-11-28T07:59:00.000+00:00"
    },
    "request": {
      "method": "PUT",
      "url": "Observation/688458f4-cf51-4bd5-9b1d-4443d1e2a50a"
    }
  }, {
    "fullUrl": "https://madie.cms.gov/Encounter/6e56de44-6b30-4b4a-86c7-4aacfeff563e",
    "resource": {
      "resourceType": "Encounter",
      "id": "6e56de44-6b30-4b4a-86c7-4aacfeff563e",
      "meta": {
        "profile": [ "http://hl7.org/fhir/us/qicore/StructureDefinition/qicore-encounter" ]
      },
      "status": "finished",
      "class": {
        "system": "http://terminology.hl7.org/CodeSystem/v3-ActCode",
        "code": "IMP",
        "display": "inpatient encounter"
      },
      "type": [ {
        "coding": [ {
          "system": "http://snomed.info/sct",
          "code": "8715000"
        } ]
      } ],
      "subject": {
        "reference": "Patient/bd369a0e-1c2c-4bd8-863c-27776268efb7"
      },
      "period": {
        "start": "2026-11-28T08:00:00.000+00:00",
        "end": "2026-11-30T08:15:00.000+00:00"
      },
      "length": {
        "value": 2,
        "unit": "days"
      },
      "reasonCode": [ {
        "coding": [ {
          "system": "http://snomed.info/sct",
          "code": "169826009",
          "display": "Single live birth from singleton pregnancy (finding)"
        } ]
      } ]
    },
    "request": {
      "method": "PUT",
      "url": "Encounter/6e56de44-6b30-4b4a-86c7-4aacfeff563e"
    }
  }, {
    "fullUrl": "https://madie.cms.gov/Procedure/cccf8a31-7ea9-4a62-8254-23a6e67e92f9",
    "resource": {
      "resourceType": "Procedure",
      "id": "cccf8a31-7ea9-4a62-8254-23a6e67e92f9",
      "meta": {
        "profile": [ "http://hl7.org/fhir/us/qicore/StructureDefinition/qicore-procedure" ]
      },
      "extension": [ {
        "url": "http://hl7.org/fhir/us/qicore/StructureDefinition/qicore-recorded",
        "valueDateTime": "2014-04-05T13:35:00.000+00:00"
      } ],
      "status": "completed",
      "code": {
        "coding": [ {
          "system": "http://snomed.info/sct",
          "code": "22633006"
        } ]
      },
      "subject": {
        "reference": "Patient/bd369a0e-1c2c-4bd8-863c-27776268efb7"
      },
      "performedPeriod": {
        "start": "2026-11-28T20:00:00.000+00:00",
        "end": "2026-11-28T20:15:00.000+00:00"
      }
    },
    "request": {
      "method": "PUT",
      "url": "Procedure/cccf8a31-7ea9-4a62-8254-23a6e67e92f9"
    }
  }, {
    "fullUrl": "https://madie.cms.gov/Condition/bd6d051f-1f6b-4892-b19f-36ef45fa0a72",
    "resource": {
      "resourceType": "Condition",
      "id": "bd6d051f-1f6b-4892-b19f-36ef45fa0a72",
      "meta": {
        "profile": [ "http://hl7.org/fhir/us/qicore/StructureDefinition/qicore-condition" ]
      },
      "category": [ {
        "coding": [ {
          "system": "http://terminology.hl7.org/CodeSystem/condition-category",
          "code": "encounter-diagnosis",
          "display": "Encounter Diagnosis"
        } ]
      } ],
      "code": {
        "coding": [ {
          "system": "http://snomed.info/sct",
          "version": "2022-09",
          "code": "169826009",
          "display": "Single live birth (finding)",
          "userSelected": true
        } ]
      },
      "subject": {
        "reference": "Patient/bd369a0e-1c2c-4bd8-863c-27776268efb7"
      },
      "recordedDate": "2026-10-21T08:00:00.000+00:00"
    },
    "request": {
      "method": "PUT",
      "url": "Condition/bd6d051f-1f6b-4892-b19f-36ef45fa0a72"
    }
  }, {
    "fullUrl": "https://madie.cms.gov/Coverage/19aab0a6-eb89-48e2-ae79-dfea68df3a1d",
    "resource": {
      "resourceType": "Coverage",
      "id": "19aab0a6-eb89-48e2-ae79-dfea68df3a1d",
      "meta": {
        "profile": [ "http://hl7.org/fhir/us/qicore/StructureDefinition/qicore-coverage" ]
      },
      "status": "active",
      "subscriberId": "523435",
      "beneficiary": {
        "reference": "Patient/bd369a0e-1c2c-4bd8-863c-27776268efb7"
      },
      "relationship": {
        "coding": [ {
          "system": "http://terminology.hl7.org/CodeSystem/subscriber-relationship",
          "code": "self"
        } ]
      },
      "payor": [ {
        "reference": "Organization/865a4c33-7776-47f1-8be9-34d49d4a29b7"
      } ]
    },
    "request": {
      "method": "PUT",
      "url": "Coverage/19aab0a6-eb89-48e2-ae79-dfea68df3a1d"
    }
  }, {
    "fullUrl": "https://madie.cms.gov/Organization/865a4c33-7776-47f1-8be9-34d49d4a29b7",
    "resource": {
      "resourceType": "Organization",
      "id": "865a4c33-7776-47f1-8be9-34d49d4a29b7",
      "meta": {
        "profile": [ "http://hl7.org/fhir/us/qicore/StructureDefinition/qicore-organization" ]
      },
      "identifier": [ {
        "use": "temp",
        "system": "urn:oid:2.16.840.1.113883.4.4",
        "value": "21-3259825"
      } ],
      "active": true,
      "type": [ {
        "coding": [ {
          "system": "http://terminology.hl7.org/CodeSystem/organization-type",
          "code": "pay",
          "display": "Payer"
        } ]
      } ],
      "name": "Blue Cross Blue Shield of Texas",
      "telecom": [ {
        "system": "phone",
        "value": "(+1) 972-766-6900"
      } ],
      "address": [ {
        "use": "billing",
        "type": "postal",
        "line": [ "P.O. Box 660044" ],
        "city": "Dallas",
        "state": "TX",
        "postalCode": "75266-0044",
        "country": "USA"
      } ]
    },
    "request": {
      "method": "PUT",
      "url": "Organization/865a4c33-7776-47f1-8be9-34d49d4a29b7"
    }
  }, {
    "fullUrl": "https://madie.cms.gov/Practitioner/8f8364bd-a04e-40f7-82f9-3be69fa1736d",
    "resource": {
      "resourceType": "Practitioner",
      "id": "8f8364bd-a04e-40f7-82f9-3be69fa1736d",
      "meta": {
        "profile": [ "http://hl7.org/fhir/us/qicore/StructureDefinition/qicore-practitioner" ]
      },
      "identifier": [ {
        "system": "http://hl7.org/fhir/sid/us-npi",
        "value": "1234567890"
      } ],
      "name": [ {
        "family": "Evil",
        "prefix": [ "Dr" ]
      } ]
    },
    "request": {
      "method": "PUT",
      "url": "Practitioner/8f8364bd-a04e-40f7-82f9-3be69fa1736d"
    }
  }, {
    "fullUrl": "https://madie.cms.gov/MeasureReport/45d73dc2-cc6d-41b0-890c-e13d47a717af",
    "resource": {
      "resourceType": "MeasureReport",
      "id": "45d73dc2-cc6d-41b0-890c-e13d47a717af",
      "meta": {
        "profile": [ "http://hl7.org/fhir/us/cqfmeasures/StructureDefinition/test-case-cqfm" ]
      },
      "contained": [ {
        "resourceType": "Parameters",
        "id": "ab8f5205-9134-4a6f-a584-0b23b9ee1fa1-parameters",
        "parameter": [ {
          "name": "subject",
          "valueString": "bd369a0e-1c2c-4bd8-863c-27776268efb7"
        } ]
      } ],
      "extension": [ {
        "url": "http://hl7.org/fhir/StructureDefinition/cqf-inputParameters",
        "valueReference": {
          "reference": "#ab8f5205-9134-4a6f-a584-0b23b9ee1fa1-parameters"
        }
      }, {
        "url": "http://hl7.org/fhir/us/cqfmeasures/StructureDefinition/cqfm-testCaseDescription",
        "valueMarkdown": "Passes IP, Gravida 1(auth 42 weeks);  Proc is not Cesarean Birth. LastTimeOfDelivery result before Delivery Encounter Start Time.   \n"
      } ],
      "modifierExtension": [ {
        "url": "http://hl7.org/fhir/us/cqfmeasures/StructureDefinition/cqfm-isTestCase",
        "valueBoolean": true
      } ],
      "status": "complete",
      "type": "individual",
      "measure": "https://madie.cms.gov/Measure/CMS0334FHIRPCCesareanBirth",
      "period": {
        "start": "2026-01-01",
        "end": "2026-12-31"
      },
      "group": [ {
        "id": "Group_1",
        "population": [ {
          "id": "InitialPopulation_1",
          "code": {
            "coding": [ {
              "system": "http://terminology.hl7.org/CodeSystem/measure-population",
              "code": "initial-population",
              "display": "Initial Population"
            } ]
          },
          "count": 1
        }, {
          "id": "Denominator_1",
          "code": {
            "coding": [ {
              "system": "http://terminology.hl7.org/CodeSystem/measure-population",
              "code": "denominator",
              "display": "Denominator"
            } ]
          },
          "count": 0
        }, {
          "id": "DenominatorExclusion_1",
          "code": {
            "coding": [ {
              "system": "http://terminology.hl7.org/CodeSystem/measure-population",
              "code": "denominator-exclusion",
              "display": "Denominator Exclusion"
            } ]
          },
          "count": 0
        }, {
          "id": "Numerator_1",
          "code": {
            "coding": [ {
              "system": "http://terminology.hl7.org/CodeSystem/measure-population",
              "code": "numerator",
              "display": "Numerator"
            } ]
          },
          "count": 0
        } ],
        "measureScore": {
          "value": 0.0
        }
      } ],
      "evaluatedResource": [ {
        "reference": "Patient/bd369a0e-1c2c-4bd8-863c-27776268efb7"
      }, {
        "reference": "Observation/db5135f6-4c42-4ddc-a811-b44dc94f43b5"
      }, {
        "reference": "Observation/688458f4-cf51-4bd5-9b1d-4443d1e2a50a"
      }, {
        "reference": "Encounter/6e56de44-6b30-4b4a-86c7-4aacfeff563e"
      }, {
        "reference": "Procedure/cccf8a31-7ea9-4a62-8254-23a6e67e92f9"
      }, {
        "reference": "Condition/bd6d051f-1f6b-4892-b19f-36ef45fa0a72"
      }, {
        "reference": "Coverage/19aab0a6-eb89-48e2-ae79-dfea68df3a1d"
      }, {
        "reference": "Organization/865a4c33-7776-47f1-8be9-34d49d4a29b7"
      }, {
        "reference": "Practitioner/8f8364bd-a04e-40f7-82f9-3be69fa1736d"
      } ]
    },
    "request": {
      "method": "PUT",
      "url": "MeasureReport/45d73dc2-cc6d-41b0-890c-e13d47a717af"
    }
  } ]
}