{
  "resourceType": "Bundle",
  "id": "tests-DENOMPass-Age18EDEnc-bundle",
  "type": "transaction",
  "entry": [ {
    "fullUrl": "https://madie.cms.gov/Encounter/ec3440d7-8a07-415e-b6a4-f4c2171c0ec9",
    "resource": {
      "resourceType": "Encounter",
      "id": "ec3440d7-8a07-415e-b6a4-f4c2171c0ec9",
      "meta": {
        "profile": [ "http://hl7.org/fhir/us/qicore/StructureDefinition/qicore-encounter" ]
      },
      "status": "finished",
      "class": {
        "system": "http://terminology.hl7.org/CodeSystem/v3-ActCode",
        "code": "IMP",
        "display": "Inpatient encounter"
      },
      "type": [ {
        "coding": [ {
          "system": "http://snomed.info/sct",
          "code": "183452005",
          "display": "Inpatient encounter"
        } ]
      } ],
      "period": {
        "start": "2026-07-11T08:00:00.000+00:00",
        "end": "2026-07-12T21:00:00.000+00:00"
      }
    },
    "request": {
      "method": "PUT",
      "url": "Encounter/ec3440d7-8a07-415e-b6a4-f4c2171c0ec9"
    }
  }, {
    "fullUrl": "https://madie.cms.gov/MedicationAdministration/f059550c-37f1-4612-988c-ebfc183c22dd",
    "resource": {
      "resourceType": "MedicationAdministration",
      "id": "f059550c-37f1-4612-988c-ebfc183c22dd",
      "meta": {
        "profile": [ "http://hl7.org/fhir/us/qicore/StructureDefinition/qicore-medicationadministration" ]
      },
      "status": "completed",
      "medicationCodeableConcept": {
        "coding": [ {
          "system": "http://www.nlm.nih.gov/research/umls/rxnorm",
          "code": "1670021",
          "display": "Hypoglycemics Severe Hypoglycemia"
        } ]
      },
      "subject": {
        "reference": "Patient/974284eb-fc89-452a-9b38-a884c0e0477e"
      },
      "effectivePeriod": {
        "start": "2026-07-12T21:00:00.000+00:00"
      }
    },
    "request": {
      "method": "PUT",
      "url": "MedicationAdministration/f059550c-37f1-4612-988c-ebfc183c22dd"
    }
  }, {
    "fullUrl": "https://madie.cms.gov/Patient/974284eb-fc89-452a-9b38-a884c0e0477e",
    "resource": {
      "resourceType": "Patient",
      "id": "974284eb-fc89-452a-9b38-a884c0e0477e",
      "meta": {
        "profile": [ "http://hl7.org/fhir/us/qicore/StructureDefinition/qicore-patient" ]
      },
      "extension": [ {
        "url": "http://hl7.org/fhir/us/core/StructureDefinition/us-core-race",
        "extension": [ {
          "url": "ombCategory",
          "valueCoding": {
            "system": "urn:oid:2.16.840.1.113883.6.238",
            "code": "2106-3",
            "display": "White"
          }
        }, {
          "url": "text",
          "valueString": "White"
        } ]
      }, {
        "url": "http://hl7.org/fhir/us/core/StructureDefinition/us-core-ethnicity",
        "extension": [ {
          "url": "ombCategory",
          "valueCoding": {
            "system": "urn:oid:2.16.840.1.113883.6.238",
            "code": "2135-2",
            "display": "Hispanic or Latino"
          }
        }, {
          "url": "text",
          "valueString": "Hispanic or Latino"
        } ]
      }, {
        "url": "http://hl7.org/fhir/us/core/StructureDefinition/us-core-sex",
        "valueCode": "248153007"
      } ],
      "identifier": [ {
        "system": "http://hospital.smarthealthit.org",
        "value": "999999999"
      } ],
      "name": [ {
        "family": "Example",
        "given": [ "Patient" ]
      } ],
      "gender": "female",
      "birthDate": "2008-07-11"
    },
    "request": {
      "method": "PUT",
      "url": "Patient/974284eb-fc89-452a-9b38-a884c0e0477e"
    }
  }, {
    "fullUrl": "https://madie.cms.gov/MeasureReport/6244d8f6-995c-4a0e-9d86-9c3abfc3fcb7",
    "resource": {
      "resourceType": "MeasureReport",
      "id": "6244d8f6-995c-4a0e-9d86-9c3abfc3fcb7",
      "meta": {
        "profile": [ "http://hl7.org/fhir/us/cqfmeasures/StructureDefinition/test-case-cqfm" ]
      },
      "contained": [ {
        "resourceType": "Parameters",
        "id": "922256c1-94fc-4af3-9c24-47ec7125de6f-parameters",
        "parameter": [ {
          "name": "subject",
          "valueString": "974284eb-fc89-452a-9b38-a884c0e0477e"
        } ]
      } ],
      "extension": [ {
        "url": "http://hl7.org/fhir/StructureDefinition/cqf-inputParameters",
        "valueReference": {
          "reference": "#922256c1-94fc-4af3-9c24-47ec7125de6f-parameters"
        }
      }, {
        "url": "http://hl7.org/fhir/us/cqfmeasures/StructureDefinition/cqfm-testCaseDescription",
        "valueMarkdown": "Pt turned 18 at exact date/time at start of ED encounter, meds administered, no lab tests. Denom pass."
      } ],
      "modifierExtension": [ {
        "url": "http://hl7.org/fhir/us/cqfmeasures/StructureDefinition/cqfm-isTestCase",
        "valueBoolean": true
      } ],
      "status": "complete",
      "type": "individual",
      "measure": "https://madie.cms.gov/Measure/CMS816FHIRHHHypo",
      "period": {
        "start": "2026-01-01",
        "end": "2026-12-31"
      },
      "group": [ {
        "id": "Group_1",
        "population": [ {
          "id": "InitialPopulation_1",
          "code": {
            "coding": [ {
              "system": "http://terminology.hl7.org/CodeSystem/measure-population",
              "code": "initial-population",
              "display": "Initial Population"
            } ]
          },
          "count": 1
        }, {
          "id": "Denominator_1",
          "code": {
            "coding": [ {
              "system": "http://terminology.hl7.org/CodeSystem/measure-population",
              "code": "denominator",
              "display": "Denominator"
            } ]
          },
          "count": 1
        }, {
          "id": "Numerator_1",
          "code": {
            "coding": [ {
              "system": "http://terminology.hl7.org/CodeSystem/measure-population",
              "code": "numerator",
              "display": "Numerator"
            } ]
          },
          "count": 0
        } ],
        "measureScore": {
          "value": 0.0
        }
      } ],
      "evaluatedResource": [ {
        "reference": "Encounter/ec3440d7-8a07-415e-b6a4-f4c2171c0ec9"
      }, {
        "reference": "MedicationAdministration/f059550c-37f1-4612-988c-ebfc183c22dd"
      }, {
        "reference": "Patient/974284eb-fc89-452a-9b38-a884c0e0477e"
      } ]
    },
    "request": {
      "method": "PUT",
      "url": "MeasureReport/6244d8f6-995c-4a0e-9d86-9c3abfc3fcb7"
    }
  } ]
}