{
  "resourceType": "Bundle",
  "id": "60f82c3098086b570510e2ee",
  "type": "transaction",
  "entry": [ {
    "fullUrl": "https://madie.cms.gov/Patient/b92af729-d556-4af8-bdd6-b2eedf775cdd",
    "resource": {
      "resourceType": "Patient",
      "id": "b92af729-d556-4af8-bdd6-b2eedf775cdd",
      "meta": {
        "profile": [ "http://hl7.org/fhir/us/qicore/StructureDefinition/qicore-patient" ]
      },
      "text": {
        "status": "generated",
        "div": "<div xmlns=\"http://www.w3.org/1999/xhtml\"><div class=\"hapiHeaderText\">CMP_DayOf_RelvPerStart_1MinB4IPStart_EDEndLT1hrB4Obs_ObsEndLT1hrB4IP <b>DENEXPASS </b></div><table class=\"hapiPropertyTable\"><tbody><tr><td>Date of birth</td><td><span>01 January 1980</span></td></tr></tbody></table></div>"
      },
      "extension": [ {
        "url": "http://hl7.org/fhir/us/core/StructureDefinition/us-core-race",
        "extension": [ {
          "url": "ombCategory",
          "valueCoding": {
            "system": "urn:oid:2.16.840.1.113883.6.238",
            "code": "2106-3",
            "display": "White",
            "userSelected": true
          }
        }, {
          "url": "text",
          "valueString": "White"
        } ]
      }, {
        "url": "http://hl7.org/fhir/us/core/StructureDefinition/us-core-ethnicity",
        "extension": [ {
          "url": "ombCategory",
          "valueCoding": {
            "system": "urn:oid:2.16.840.1.113883.6.238",
            "code": "2186-5",
            "display": "Not Hispanic or Latino",
            "userSelected": true
          }
        }, {
          "url": "text",
          "valueString": "Not Hispanic or Latino"
        } ]
      } ],
      "identifier": [ {
        "type": {
          "coding": [ {
            "system": "http://terminology.hl7.org/CodeSystem/v2-0203",
            "code": "MR"
          } ]
        },
        "system": "https://bonnie-fhir.healthit.gov/",
        "value": "60f82c3098086b570510e2ee"
      } ],
      "active": true,
      "name": [ {
        "use": "usual",
        "family": "DENEXPass",
        "given": [ "CMPDayOfRelvPerStart1MinB4IPStartEDEndLT1hrB4ObsObsEndLT1hrB4IP" ]
      } ],
      "gender": "female",
      "birthDate": "1981-01-01"
    },
    "request": {
      "method": "PUT",
      "url": "Patient/b92af729-d556-4af8-bdd6-b2eedf775cdd"
    }
  }, {
    "fullUrl": "https://madie.cms.gov/Encounter/24c441b7-5bd8-4045-9c9a-23933132b5ca",
    "resource": {
      "resourceType": "Encounter",
      "id": "24c441b7-5bd8-4045-9c9a-23933132b5ca",
      "meta": {
        "profile": [ "http://hl7.org/fhir/us/qicore/StructureDefinition/qicore-encounter" ]
      },
      "status": "finished",
      "class": {
        "system": "http://terminology.hl7.org/CodeSystem/v3-ActCode",
        "code": "EMER",
        "display": "emergency"
      },
      "type": [ {
        "coding": [ {
          "system": "http://snomed.info/sct",
          "code": "4525004"
        } ]
      } ],
      "subject": {
        "reference": "Patient/b92af729-d556-4af8-bdd6-b2eedf775cdd"
      },
      "period": {
        "start": "2026-11-18T07:00:00.000+00:00",
        "end": "2026-11-18T08:01:00.000+00:00"
      }
    },
    "request": {
      "method": "PUT",
      "url": "Encounter/24c441b7-5bd8-4045-9c9a-23933132b5ca"
    }
  }, {
    "fullUrl": "https://madie.cms.gov/Encounter/29619cbc-242e-4324-a070-349af980e322",
    "resource": {
      "resourceType": "Encounter",
      "id": "29619cbc-242e-4324-a070-349af980e322",
      "meta": {
        "profile": [ "http://hl7.org/fhir/us/qicore/StructureDefinition/qicore-encounter" ]
      },
      "status": "finished",
      "class": {
        "system": "http://terminology.hl7.org/CodeSystem/v3-ActCode",
        "code": "OBSENC",
        "display": "observation encounter"
      },
      "type": [ {
        "coding": [ {
          "system": "http://snomed.info/sct",
          "code": "448951000124107"
        } ]
      } ],
      "subject": {
        "reference": "Patient/b92af729-d556-4af8-bdd6-b2eedf775cdd"
      },
      "period": {
        "start": "2026-11-18T09:00:00.000+00:00",
        "end": "2026-11-18T10:01:00.000+00:00"
      }
    },
    "request": {
      "method": "PUT",
      "url": "Encounter/29619cbc-242e-4324-a070-349af980e322"
    }
  }, {
    "fullUrl": "https://madie.cms.gov/Encounter/7d746bd6-16ea-4cf6-b89f-90d180e54481",
    "resource": {
      "resourceType": "Encounter",
      "id": "7d746bd6-16ea-4cf6-b89f-90d180e54481",
      "meta": {
        "profile": [ "http://hl7.org/fhir/us/qicore/StructureDefinition/qicore-encounter" ]
      },
      "status": "finished",
      "class": {
        "system": "http://terminology.hl7.org/CodeSystem/v3-ActCode",
        "code": "IMP",
        "display": "inpatient encounter"
      },
      "type": [ {
        "coding": [ {
          "system": "http://snomed.info/sct",
          "code": "183452005"
        } ]
      } ],
      "subject": {
        "reference": "Patient/b92af729-d556-4af8-bdd6-b2eedf775cdd"
      },
      "period": {
        "start": "2026-11-18T11:00:00.000+00:00",
        "end": "2026-11-20T08:15:00.000+00:00"
      },
      "reasonReference": [ {
        "reference": "Condition/37185f3f-47fc-4cdb-88d5-fdda8386633c"
      } ]
    },
    "request": {
      "method": "PUT",
      "url": "Encounter/7d746bd6-16ea-4cf6-b89f-90d180e54481"
    }
  }, {
    "fullUrl": "https://madie.cms.gov/claim/5ca62962b8484628b8de1ec5",
    "resource": {
      "resourceType": "Claim",
      "id": "5ca62962b8484628b8de1ec5",
      "meta": {
        "profile": [ "http://hl7.org/fhir/us/qicore/StructureDefinition/qicore-claim" ]
      },
      "status": "active",
      "type": {
        "coding": [ {
          "system": "http://terminology.hl7.org/CodeSystem/claim-type",
          "code": "institutional"
        } ]
      },
      "use": "claim",
      "patient": {
        "reference": "Patient/b92af729-d556-4af8-bdd6-b2eedf775cdd"
      },
      "created": "2026-12-01",
      "provider": {
        "reference": "Practitioner/practitioner-123456"
      },
      "priority": {
        "coding": [ {
          "system": "http://terminology.hl7.org/CodeSystem/processpriority",
          "code": "normal"
        } ]
      },
      "diagnosis": [ {
        "sequence": 1,
        "diagnosisCodeableConcept": {
          "coding": [ {
            "system": "http://hl7.org/fhir/sid/icd-10-cm",
            "code": "I63.00"
          } ]
        },
        "type": [ {
          "coding": [ {
            "system": "http://terminology.hl7.org/CodeSystem/ex-diagnosistype",
            "code": "principal"
          } ]
        } ]
      } ],
      "insurance": [ {
        "sequence": 1,
        "focal": true,
        "coverage": {
          "reference": "Coverage/573a4dc4-52e5-4948-882b-3fa7116fcbdf"
        }
      } ],
      "item": [ {
        "sequence": 1,
        "diagnosisSequence": [ 1 ],
        "productOrService": {
          "coding": [ {
            "system": "http://terminology.hl7.org/CodeSystem/ex-USCLS",
            "code": "99555"
          } ]
        },
        "encounter": [ {
          "reference": "Encounter/7d746bd6-16ea-4cf6-b89f-90d180e54481"
        } ]
      } ]
    },
    "request": {
      "method": "PUT",
      "url": "Claim/5ca62962b8484628b8de1ec5"
    }
  }, {
    "fullUrl": "https://madie.cms.gov/Procedure/a584a3d4-bb9e-4e41-82f7-a34d4ff469a1",
    "resource": {
      "resourceType": "Procedure",
      "id": "a584a3d4-bb9e-4e41-82f7-a34d4ff469a1",
      "meta": {
        "profile": [ "http://hl7.org/fhir/us/qicore/StructureDefinition/qicore-procedure" ]
      },
      "extension": [ {
        "url": "http://hl7.org/fhir/us/qicore/StructureDefinition/qicore-recorded",
        "valueDateTime": "2026-11-19T13:35:00.000+00:00"
      } ],
      "status": "completed",
      "code": {
        "coding": [ {
          "system": "http://snomed.info/sct",
          "code": "133918004"
        } ]
      },
      "subject": {
        "reference": "Patient/b92af729-d556-4af8-bdd6-b2eedf775cdd"
      },
      "performedPeriod": {
        "start": "2026-11-18T10:59:00.000+00:00",
        "end": "2026-11-20T08:15:00.000+00:00"
      }
    },
    "request": {
      "method": "PUT",
      "url": "Procedure/a584a3d4-bb9e-4e41-82f7-a34d4ff469a1"
    }
  }, {
    "fullUrl": "https://madie.cms.gov/Condition/37185f3f-47fc-4cdb-88d5-fdda8386633c",
    "resource": {
      "resourceType": "Condition",
      "id": "37185f3f-47fc-4cdb-88d5-fdda8386633c",
      "meta": {
        "profile": [ "http://hl7.org/fhir/us/qicore/StructureDefinition/qicore-condition-encounter-diagnosis" ]
      },
      "clinicalStatus": {
        "coding": [ {
          "system": "http://terminology.hl7.org/CodeSystem/condition-clinical",
          "code": "active"
        } ]
      },
      "verificationStatus": {
        "coding": [ {
          "system": "http://terminology.hl7.org/CodeSystem/condition-ver-status",
          "code": "confirmed"
        } ]
      },
      "category": [ {
        "coding": [ {
          "system": "http://terminology.hl7.org/CodeSystem/condition-category",
          "code": "encounter-diagnosis",
          "display": "Encounter Diagnosis"
        } ]
      } ],
      "code": {
        "coding": [ {
          "system": "http://snomed.info/sct",
          "version": "2020-09",
          "code": "111297002",
          "display": "Nonparalytic stroke (disorder)",
          "userSelected": true
        } ]
      },
      "subject": {
        "reference": "Patient/b92af729-d556-4af8-bdd6-b2eedf775cdd"
      },
      "recordedDate": "2026-08-13T08:00:00.000+00:00"
    },
    "request": {
      "method": "PUT",
      "url": "Condition/37185f3f-47fc-4cdb-88d5-fdda8386633c"
    }
  }, {
    "fullUrl": "https://madie.cms.gov/Coverage/573a4dc4-52e5-4948-882b-3fa7116fcbdf",
    "resource": {
      "resourceType": "Coverage",
      "id": "573a4dc4-52e5-4948-882b-3fa7116fcbdf",
      "meta": {
        "profile": [ "http://hl7.org/fhir/us/qicore/StructureDefinition/qicore-coverage" ]
      },
      "status": "active",
      "beneficiary": {
        "reference": "Patient/b92af729-d556-4af8-bdd6-b2eedf775cdd"
      },
      "payor": [ {
        "reference": "Organization/f0d3672d-737e-4565-97b2-a5f2548e8e83"
      } ]
    },
    "request": {
      "method": "PUT",
      "url": "Coverage/573a4dc4-52e5-4948-882b-3fa7116fcbdf"
    }
  }, {
    "fullUrl": "https://madie.cms.gov/Organization/f0d3672d-737e-4565-97b2-a5f2548e8e83",
    "resource": {
      "resourceType": "Organization",
      "id": "f0d3672d-737e-4565-97b2-a5f2548e8e83",
      "meta": {
        "profile": [ "http://hl7.org/fhir/us/qicore/StructureDefinition/qicore-organization" ]
      },
      "identifier": [ {
        "use": "temp",
        "system": "urn:oid:2.16.840.1.113883.4.4",
        "value": "21-3259825"
      } ],
      "active": true,
      "type": [ {
        "coding": [ {
          "system": "http://terminology.hl7.org/CodeSystem/organization-type",
          "code": "pay",
          "display": "Payer"
        } ]
      } ],
      "name": "Blue Cross Blue Shield of Texas",
      "telecom": [ {
        "system": "phone",
        "value": "(+1) 972-766-6900"
      } ],
      "address": [ {
        "use": "billing",
        "type": "postal",
        "line": [ "P.O. Box 660044" ],
        "city": "Dallas",
        "state": "TX",
        "postalCode": "75266-0044",
        "country": "USA"
      } ]
    },
    "request": {
      "method": "PUT",
      "url": "Organization/f0d3672d-737e-4565-97b2-a5f2548e8e83"
    }
  }, {
    "fullUrl": "https://madie.cms.gov/MeasureReport/5d361e4b-95c6-4814-88a6-32899bf64524",
    "resource": {
      "resourceType": "MeasureReport",
      "id": "5d361e4b-95c6-4814-88a6-32899bf64524",
      "meta": {
        "profile": [ "http://hl7.org/fhir/us/cqfmeasures/StructureDefinition/test-case-cqfm" ]
      },
      "contained": [ {
        "resourceType": "Parameters",
        "id": "ac851b86-d999-4757-8f1f-2c0a297cd3b9-parameters",
        "parameter": [ {
          "name": "subject",
          "valueString": "b92af729-d556-4af8-bdd6-b2eedf775cdd"
        } ]
      } ],
      "extension": [ {
        "url": "http://hl7.org/fhir/StructureDefinition/cqf-inputParameters",
        "valueReference": {
          "reference": "#ac851b86-d999-4757-8f1f-2c0a297cd3b9-parameters"
        }
      }, {
        "url": "http://hl7.org/fhir/us/cqfmeasures/StructureDefinition/cqfm-testCaseDescription",
        "valueMarkdown": "Patient receives comfort measures performed on the day of hospital arrival, 1 min before IP start. ED ends less than 1 hour before Obs Start, Obs ends less than 1 hour before IP start.\n"
      } ],
      "modifierExtension": [ {
        "url": "http://hl7.org/fhir/us/cqfmeasures/StructureDefinition/cqfm-isTestCase",
        "valueBoolean": true
      } ],
      "status": "complete",
      "type": "individual",
      "measure": "https://madie.cms.gov/Measure/CMS72FHIRSTKAntithromboticDay2",
      "period": {
        "start": "2026-01-01",
        "end": "2026-12-31"
      },
      "group": [ {
        "id": "Group_1",
        "population": [ {
          "id": "InitialPopulation_1",
          "code": {
            "coding": [ {
              "system": "http://terminology.hl7.org/CodeSystem/measure-population",
              "code": "initial-population",
              "display": "Initial Population"
            } ]
          },
          "count": 1
        }, {
          "id": "Denominator_1",
          "code": {
            "coding": [ {
              "system": "http://terminology.hl7.org/CodeSystem/measure-population",
              "code": "denominator",
              "display": "Denominator"
            } ]
          },
          "count": 1
        }, {
          "id": "DenominatorExclusion_1",
          "code": {
            "coding": [ {
              "system": "http://terminology.hl7.org/CodeSystem/measure-population",
              "code": "denominator-exclusion",
              "display": "Denominator Exclusion"
            } ]
          },
          "count": 1
        }, {
          "id": "Numerator_1",
          "code": {
            "coding": [ {
              "system": "http://terminology.hl7.org/CodeSystem/measure-population",
              "code": "numerator",
              "display": "Numerator"
            } ]
          },
          "count": 0
        }, {
          "id": "DenominatorException_1",
          "code": {
            "coding": [ {
              "system": "http://terminology.hl7.org/CodeSystem/measure-population",
              "code": "denominator-exception",
              "display": "Denominator Exception"
            } ]
          },
          "count": 0
        } ],
        "measureScore": {
          "value": 0.0
        }
      } ],
      "evaluatedResource": [ {
        "reference": "Patient/b92af729-d556-4af8-bdd6-b2eedf775cdd"
      }, {
        "reference": "Encounter/24c441b7-5bd8-4045-9c9a-23933132b5ca"
      }, {
        "reference": "Encounter/29619cbc-242e-4324-a070-349af980e322"
      }, {
        "reference": "Encounter/7d746bd6-16ea-4cf6-b89f-90d180e54481"
      }, {
        "reference": "Claim/5ca62962b8484628b8de1ec5"
      }, {
        "reference": "Procedure/a584a3d4-bb9e-4e41-82f7-a34d4ff469a1"
      }, {
        "reference": "Condition/37185f3f-47fc-4cdb-88d5-fdda8386633c"
      }, {
        "reference": "Coverage/573a4dc4-52e5-4948-882b-3fa7116fcbdf"
      }, {
        "reference": "Organization/f0d3672d-737e-4565-97b2-a5f2548e8e83"
      } ]
    },
    "request": {
      "method": "PUT",
      "url": "MeasureReport/5d361e4b-95c6-4814-88a6-32899bf64524"
    }
  } ]
}