{
  "resourceType": "Bundle",
  "id": "Patient-33-IPPass-TelephoneVisit",
  "type": "transaction",
  "entry": [ {
    "fullUrl": "https://madie.cms.gov/Patient/514a74ba-baea-4102-b2e7-050f84c79ef8",
    "resource": {
      "resourceType": "Patient",
      "id": "514a74ba-baea-4102-b2e7-050f84c79ef8",
      "meta": {
        "profile": [ "http://hl7.org/fhir/us/qicore/StructureDefinition/qicore-patient" ]
      },
      "extension": [ {
        "url": "http://hl7.org/fhir/us/core/StructureDefinition/us-core-race",
        "extension": [ {
          "url": "ombCategory",
          "valueCoding": {
            "system": "urn:oid:2.16.840.1.113883.6.238",
            "code": "2028-9",
            "display": "Asian"
          }
        }, {
          "url": "text",
          "valueString": "Asian"
        } ]
      }, {
        "url": "http://hl7.org/fhir/us/core/StructureDefinition/us-core-ethnicity",
        "extension": [ {
          "url": "ombCategory",
          "valueCoding": {
            "system": "urn:oid:2.16.840.1.113883.6.238",
            "code": "2135-2",
            "display": "Hispanic or Latino"
          }
        }, {
          "url": "text",
          "valueString": "Hispanic or Latino"
        } ]
      } ],
      "identifier": [ {
        "system": "http://hospital.smarthealthit.org",
        "value": "999999995"
      } ],
      "name": [ {
        "family": "Bertha",
        "given": [ "Betty" ]
      } ],
      "gender": "female",
      "birthDate": "2008-01-01"
    },
    "request": {
      "method": "PUT",
      "url": "Patient/514a74ba-baea-4102-b2e7-050f84c79ef8"
    }
  }, {
    "fullUrl": "https://madie.cms.gov/Encounter/4f4c7a23-da13-4d4c-9d97-f5e292c9ccd8",
    "resource": {
      "resourceType": "Encounter",
      "id": "4f4c7a23-da13-4d4c-9d97-f5e292c9ccd8",
      "meta": {
        "profile": [ "http://hl7.org/fhir/us/qicore/StructureDefinition/qicore-encounter" ]
      },
      "status": "finished",
      "class": {
        "system": "http://terminology.hl7.org/CodeSystem/v3-ActCode",
        "code": "AMB",
        "display": "ambulatory"
      },
      "type": [ {
        "coding": [ {
          "system": "http://snomed.info/sct",
          "code": "401267002",
          "display": "Telephone triage encounter (procedure)"
        } ]
      } ],
      "subject": {
        "reference": "Patient/514a74ba-baea-4102-b2e7-050f84c79ef8"
      },
      "period": {
        "start": "2026-01-01T00:00:00.000+00:00",
        "end": "2026-01-01T01:00:00.000+00:00"
      }
    },
    "request": {
      "method": "PUT",
      "url": "Encounter/4f4c7a23-da13-4d4c-9d97-f5e292c9ccd8"
    }
  }, {
    "fullUrl": "https://madie.cms.gov/Condition/abc25f38-2b28-4b86-b5ea-44e00c274aa9",
    "resource": {
      "resourceType": "Condition",
      "id": "abc25f38-2b28-4b86-b5ea-44e00c274aa9",
      "meta": {
        "profile": [ "http://hl7.org/fhir/us/qicore/StructureDefinition/qicore-condition-encounter-diagnosis" ]
      },
      "clinicalStatus": {
        "coding": [ {
          "system": "http://terminology.hl7.org/CodeSystem/condition-clinical",
          "code": "active"
        } ]
      },
      "category": [ {
        "coding": [ {
          "system": "http://terminology.hl7.org/CodeSystem/condition-category",
          "code": "encounter-diagnosis",
          "display": "Encounter Diagnosis"
        } ]
      } ],
      "code": {
        "coding": [ {
          "system": "http://snomed.info/sct",
          "code": "102781000119107",
          "display": "Sensory neuropathy due to type 1 diabetes mellitus (disorder)"
        } ]
      },
      "subject": {
        "reference": "Patient/514a74ba-baea-4102-b2e7-050f84c79ef8"
      },
      "onsetDateTime": "2026-01-01T23:59:00.000+00:00"
    },
    "request": {
      "method": "PUT",
      "url": "Condition/abc25f38-2b28-4b86-b5ea-44e00c274aa9"
    }
  }, {
    "fullUrl": "https://madie.cms.gov/MeasureReport/3e883a8f-e667-4e44-8d5f-81d31e8ce0db",
    "resource": {
      "resourceType": "MeasureReport",
      "id": "3e883a8f-e667-4e44-8d5f-81d31e8ce0db",
      "meta": {
        "profile": [ "http://hl7.org/fhir/us/cqfmeasures/StructureDefinition/test-case-cqfm" ]
      },
      "contained": [ {
        "resourceType": "Parameters",
        "id": "c5f62289-eccb-48da-8da6-e58cb59929f4-parameters",
        "parameter": [ {
          "name": "subject",
          "valueString": "514a74ba-baea-4102-b2e7-050f84c79ef8"
        } ]
      } ],
      "extension": [ {
        "url": "http://hl7.org/fhir/StructureDefinition/cqf-inputParameters",
        "valueReference": {
          "reference": "#c5f62289-eccb-48da-8da6-e58cb59929f4-parameters"
        }
      }, {
        "url": "http://hl7.org/fhir/us/cqfmeasures/StructureDefinition/cqfm-testCaseDescription",
        "valueMarkdown": "Encounter is telephone visit"
      } ],
      "modifierExtension": [ {
        "url": "http://hl7.org/fhir/us/cqfmeasures/StructureDefinition/cqfm-isTestCase",
        "valueBoolean": true
      } ],
      "status": "complete",
      "type": "individual",
      "measure": "https://madie.cms.gov/Measure/CMS122FHIRDiabetesAssessGT9Pct",
      "period": {
        "start": "2026-01-01",
        "end": "2026-12-31"
      },
      "group": [ {
        "id": "Group_1",
        "population": [ {
          "id": "InitialPopulation_1",
          "code": {
            "coding": [ {
              "system": "http://terminology.hl7.org/CodeSystem/measure-population",
              "code": "initial-population",
              "display": "Initial Population"
            } ]
          },
          "count": 1
        }, {
          "id": "Denominator_1",
          "code": {
            "coding": [ {
              "system": "http://terminology.hl7.org/CodeSystem/measure-population",
              "code": "denominator",
              "display": "Denominator"
            } ]
          },
          "count": 1
        }, {
          "id": "DenominatorExclusion_1",
          "code": {
            "coding": [ {
              "system": "http://terminology.hl7.org/CodeSystem/measure-population",
              "code": "denominator-exclusion",
              "display": "Denominator Exclusion"
            } ]
          },
          "count": 0
        }, {
          "id": "Numerator_1",
          "code": {
            "coding": [ {
              "system": "http://terminology.hl7.org/CodeSystem/measure-population",
              "code": "numerator",
              "display": "Numerator"
            } ]
          },
          "count": 1
        } ],
        "measureScore": {
          "value": 1.0
        }
      } ],
      "evaluatedResource": [ {
        "reference": "Patient/514a74ba-baea-4102-b2e7-050f84c79ef8"
      }, {
        "reference": "Encounter/4f4c7a23-da13-4d4c-9d97-f5e292c9ccd8"
      }, {
        "reference": "Condition/abc25f38-2b28-4b86-b5ea-44e00c274aa9"
      } ]
    },
    "request": {
      "method": "PUT",
      "url": "MeasureReport/3e883a8f-e667-4e44-8d5f-81d31e8ce0db"
    }
  } ]
}