{
  "resourceType": "Bundle",
  "id": "DENEXPass-KidneyTransplantProcedureDuringMP",
  "type": "transaction",
  "entry": [ {
    "fullUrl": "https://madie.cms.gov/Patient/7de4b027-eb4c-4a2e-958f-e6b7a3eb6309",
    "resource": {
      "resourceType": "Patient",
      "id": "7de4b027-eb4c-4a2e-958f-e6b7a3eb6309",
      "meta": {
        "profile": [ "http://hl7.org/fhir/us/qicore/StructureDefinition/qicore-patient" ]
      },
      "extension": [ {
        "url": "http://hl7.org/fhir/us/core/StructureDefinition/us-core-race",
        "extension": [ {
          "url": "ombCategory",
          "valueCoding": {
            "system": "urn:oid:2.16.840.1.113883.6.238",
            "code": "2028-9",
            "display": "Asian"
          }
        }, {
          "url": "text",
          "valueString": "Asian"
        } ]
      }, {
        "url": "http://hl7.org/fhir/us/core/StructureDefinition/us-core-ethnicity",
        "extension": [ {
          "url": "ombCategory",
          "valueCoding": {
            "system": "urn:oid:2.16.840.1.113883.6.238",
            "code": "2135-2",
            "display": "Hispanic or Latino"
          }
        }, {
          "url": "text",
          "valueString": "Hispanic or Latino"
        } ]
      } ],
      "identifier": [ {
        "system": "http://hospital.smarthealthit.org",
        "value": "999999995"
      } ],
      "name": [ {
        "family": "DENEXPass",
        "given": [ "KidneyTransplantProcedureDuringMP" ]
      } ],
      "gender": "female",
      "birthDate": "2007-12-31"
    },
    "request": {
      "method": "PUT",
      "url": "Patient/7de4b027-eb4c-4a2e-958f-e6b7a3eb6309"
    }
  }, {
    "fullUrl": "https://madie.cms.gov/Encounter/494b5445-5e48-44f0-9682-699970434fc3",
    "resource": {
      "resourceType": "Encounter",
      "id": "494b5445-5e48-44f0-9682-699970434fc3",
      "meta": {
        "profile": [ "http://hl7.org/fhir/us/qicore/StructureDefinition/qicore-encounter" ]
      },
      "status": "finished",
      "class": {
        "system": "http://terminology.hl7.org/CodeSystem/v3-ActCode",
        "code": "AMB",
        "display": "ambulatory"
      },
      "type": [ {
        "coding": [ {
          "system": "http://snomed.info/sct",
          "code": "3391000175108",
          "display": "Office visit for pediatric care and assessment (procedure)"
        } ]
      } ],
      "subject": {
        "reference": "Patient/7de4b027-eb4c-4a2e-958f-e6b7a3eb6309"
      },
      "period": {
        "start": "2026-01-01T00:00:00.000+00:00",
        "end": "2026-01-01T01:00:00.000+00:00"
      }
    },
    "request": {
      "method": "PUT",
      "url": "Encounter/494b5445-5e48-44f0-9682-699970434fc3"
    }
  }, {
    "fullUrl": "https://madie.cms.gov/Condition/577ed86b-7cc6-47f3-97b7-159902f674e5",
    "resource": {
      "resourceType": "Condition",
      "id": "577ed86b-7cc6-47f3-97b7-159902f674e5",
      "meta": {
        "profile": [ "http://hl7.org/fhir/us/qicore/StructureDefinition/qicore-condition-encounter-diagnosis" ]
      },
      "clinicalStatus": {
        "coding": [ {
          "system": "http://terminology.hl7.org/CodeSystem/condition-clinical",
          "code": "active"
        } ]
      },
      "category": [ {
        "coding": [ {
          "system": "http://terminology.hl7.org/CodeSystem/condition-category",
          "code": "encounter-diagnosis",
          "display": "Encounter Diagnosis"
        } ]
      } ],
      "code": {
        "coding": [ {
          "system": "http://snomed.info/sct",
          "code": "371125006",
          "display": "Labile essential hypertension (disorder)"
        } ]
      },
      "subject": {
        "reference": "Patient/7de4b027-eb4c-4a2e-958f-e6b7a3eb6309"
      },
      "onsetDateTime": "2026-06-30T23:59:59.000+00:00"
    },
    "request": {
      "method": "PUT",
      "url": "Condition/577ed86b-7cc6-47f3-97b7-159902f674e5"
    }
  }, {
    "fullUrl": "https://madie.cms.gov/Procedure/226576e1-ce9c-4fb1-9a0a-cad1e77d5cde",
    "resource": {
      "resourceType": "Procedure",
      "id": "226576e1-ce9c-4fb1-9a0a-cad1e77d5cde",
      "meta": {
        "profile": [ "http://hl7.org/fhir/us/qicore/StructureDefinition/qicore-procedure" ]
      },
      "extension": [ {
        "url": "http://hl7.org/fhir/us/qicore/StructureDefinition/qicore-recorded",
        "valueDateTime": "2025-12-31T00:00:00.000+00:00"
      } ],
      "status": "completed",
      "code": {
        "coding": [ {
          "system": "http://snomed.info/sct",
          "code": "70536003",
          "display": "Transplant of kidney (procedure)"
        } ]
      },
      "subject": {
        "reference": "Patient/7de4b027-eb4c-4a2e-958f-e6b7a3eb6309"
      },
      "performedPeriod": {
        "start": "2026-12-30T00:00:00.000+00:00",
        "end": "2026-12-30T23:59:59.000+00:00"
      }
    },
    "request": {
      "method": "PUT",
      "url": "Procedure/226576e1-ce9c-4fb1-9a0a-cad1e77d5cde"
    }
  }, {
    "fullUrl": "https://madie.cms.gov/MeasureReport/ef49684d-0996-4dd3-8c9b-e0ebfba51c03",
    "resource": {
      "resourceType": "MeasureReport",
      "id": "ef49684d-0996-4dd3-8c9b-e0ebfba51c03",
      "meta": {
        "profile": [ "http://hl7.org/fhir/us/cqfmeasures/StructureDefinition/test-case-cqfm" ]
      },
      "contained": [ {
        "resourceType": "Parameters",
        "id": "9e916f7f-a65e-4df7-9075-ddd3c4e57193-parameters",
        "parameter": [ {
          "name": "subject",
          "valueString": "7de4b027-eb4c-4a2e-958f-e6b7a3eb6309"
        } ]
      } ],
      "extension": [ {
        "url": "http://hl7.org/fhir/StructureDefinition/cqf-inputParameters",
        "valueReference": {
          "reference": "#9e916f7f-a65e-4df7-9075-ddd3c4e57193-parameters"
        }
      }, {
        "url": "http://hl7.org/fhir/us/cqfmeasures/StructureDefinition/cqfm-testCaseDescription",
        "valueMarkdown": "Kidney transplant procedure during MP"
      } ],
      "modifierExtension": [ {
        "url": "http://hl7.org/fhir/us/cqfmeasures/StructureDefinition/cqfm-isTestCase",
        "valueBoolean": true
      } ],
      "status": "complete",
      "type": "individual",
      "measure": "https://madie.cms.gov/Measure/CMS165FHIRControllingHighBP",
      "period": {
        "start": "2026-01-01",
        "end": "2026-12-31"
      },
      "group": [ {
        "id": "Group_1",
        "population": [ {
          "id": "InitialPopulation_1",
          "code": {
            "coding": [ {
              "system": "http://terminology.hl7.org/CodeSystem/measure-population",
              "code": "initial-population",
              "display": "Initial Population"
            } ]
          },
          "count": 1
        }, {
          "id": "Denominator_1",
          "code": {
            "coding": [ {
              "system": "http://terminology.hl7.org/CodeSystem/measure-population",
              "code": "denominator",
              "display": "Denominator"
            } ]
          },
          "count": 1
        }, {
          "id": "DenominatorExclusion_1",
          "code": {
            "coding": [ {
              "system": "http://terminology.hl7.org/CodeSystem/measure-population",
              "code": "denominator-exclusion",
              "display": "Denominator Exclusion"
            } ]
          },
          "count": 1
        }, {
          "id": "Numerator_1",
          "code": {
            "coding": [ {
              "system": "http://terminology.hl7.org/CodeSystem/measure-population",
              "code": "numerator",
              "display": "Numerator"
            } ]
          },
          "count": 0
        } ],
        "measureScore": {
          "value": 1.0
        }
      } ],
      "evaluatedResource": [ {
        "reference": "Patient/7de4b027-eb4c-4a2e-958f-e6b7a3eb6309"
      }, {
        "reference": "Encounter/494b5445-5e48-44f0-9682-699970434fc3"
      }, {
        "reference": "Condition/577ed86b-7cc6-47f3-97b7-159902f674e5"
      }, {
        "reference": "Procedure/226576e1-ce9c-4fb1-9a0a-cad1e77d5cde"
      } ]
    },
    "request": {
      "method": "PUT",
      "url": "MeasureReport/ef49684d-0996-4dd3-8c9b-e0ebfba51c03"
    }
  } ]
}