{
  "resourceType": "Bundle",
  "id": "IPPPass-AnnualWellnessVisit",
  "type": "transaction",
  "entry": [ {
    "fullUrl": "https://madie.cms.gov/Patient/a3deee90-5966-4309-b52f-c0a76046f680",
    "resource": {
      "resourceType": "Patient",
      "id": "a3deee90-5966-4309-b52f-c0a76046f680",
      "meta": {
        "profile": [ "http://hl7.org/fhir/us/qicore/StructureDefinition/qicore-patient" ]
      },
      "extension": [ {
        "url": "http://hl7.org/fhir/us/core/StructureDefinition/us-core-race",
        "extension": [ {
          "url": "ombCategory",
          "valueCoding": {
            "system": "urn:oid:2.16.840.1.113883.6.238",
            "code": "2028-9",
            "display": "Asian"
          }
        }, {
          "url": "text",
          "valueString": "Asian"
        } ]
      }, {
        "url": "http://hl7.org/fhir/us/core/StructureDefinition/us-core-ethnicity",
        "extension": [ {
          "url": "ombCategory",
          "valueCoding": {
            "system": "urn:oid:2.16.840.1.113883.6.238",
            "code": "2135-2",
            "display": "Hispanic or Latino"
          }
        }, {
          "url": "text",
          "valueString": "Hispanic or Latino"
        } ]
      } ],
      "identifier": [ {
        "system": "http://hospital.smarthealthit.org",
        "value": "999999995"
      } ],
      "name": [ {
        "family": "AnnualWellness",
        "given": [ "IPPass" ]
      } ],
      "gender": "female",
      "birthDate": "2007-12-31"
    },
    "request": {
      "method": "PUT",
      "url": "Patient/a3deee90-5966-4309-b52f-c0a76046f680"
    }
  }, {
    "fullUrl": "https://madie.cms.gov/Encounter/7a1179eb-7e8f-42da-a551-d904af16cd55",
    "resource": {
      "resourceType": "Encounter",
      "id": "7a1179eb-7e8f-42da-a551-d904af16cd55",
      "meta": {
        "profile": [ "http://hl7.org/fhir/us/qicore/StructureDefinition/qicore-encounter" ]
      },
      "status": "finished",
      "class": {
        "system": "http://terminology.hl7.org/CodeSystem/v3-ActCode",
        "code": "AMB",
        "display": "ambulatory"
      },
      "type": [ {
        "coding": [ {
          "system": "http://snomed.info/sct",
          "code": "456201000124103",
          "display": "Medicare annual wellness visit (procedure)"
        } ]
      } ],
      "subject": {
        "reference": "Patient/a3deee90-5966-4309-b52f-c0a76046f680"
      },
      "period": {
        "start": "2026-01-01T00:00:00.000+00:00",
        "end": "2026-01-01T01:00:00.000+00:00"
      }
    },
    "request": {
      "method": "PUT",
      "url": "Encounter/7a1179eb-7e8f-42da-a551-d904af16cd55"
    }
  }, {
    "fullUrl": "https://madie.cms.gov/Condition/1c35de76-5536-4dba-bb48-2e9662b30732",
    "resource": {
      "resourceType": "Condition",
      "id": "1c35de76-5536-4dba-bb48-2e9662b30732",
      "meta": {
        "profile": [ "http://hl7.org/fhir/us/qicore/StructureDefinition/qicore-condition-encounter-diagnosis" ]
      },
      "clinicalStatus": {
        "coding": [ {
          "system": "http://terminology.hl7.org/CodeSystem/condition-clinical",
          "code": "active"
        } ]
      },
      "category": [ {
        "coding": [ {
          "system": "http://terminology.hl7.org/CodeSystem/condition-category",
          "code": "encounter-diagnosis",
          "display": "Encounter Diagnosis"
        } ]
      } ],
      "code": {
        "coding": [ {
          "system": "http://snomed.info/sct",
          "code": "371125006",
          "display": "Labile essential hypertension (disorder)"
        } ]
      },
      "subject": {
        "reference": "Patient/a3deee90-5966-4309-b52f-c0a76046f680"
      },
      "onsetDateTime": "2026-06-30T23:59:59.000+00:00"
    },
    "request": {
      "method": "PUT",
      "url": "Condition/1c35de76-5536-4dba-bb48-2e9662b30732"
    }
  }, {
    "fullUrl": "https://madie.cms.gov/MeasureReport/e3867723-a042-49e7-a98f-a71e13a7d8cf",
    "resource": {
      "resourceType": "MeasureReport",
      "id": "e3867723-a042-49e7-a98f-a71e13a7d8cf",
      "meta": {
        "profile": [ "http://hl7.org/fhir/us/cqfmeasures/StructureDefinition/test-case-cqfm" ]
      },
      "contained": [ {
        "resourceType": "Parameters",
        "id": "93bba1c1-8c2a-4f75-ac5a-e3e0daf75577-parameters",
        "parameter": [ {
          "name": "subject",
          "valueString": "a3deee90-5966-4309-b52f-c0a76046f680"
        } ]
      } ],
      "extension": [ {
        "url": "http://hl7.org/fhir/StructureDefinition/cqf-inputParameters",
        "valueReference": {
          "reference": "#93bba1c1-8c2a-4f75-ac5a-e3e0daf75577-parameters"
        }
      }, {
        "url": "http://hl7.org/fhir/us/cqfmeasures/StructureDefinition/cqfm-testCaseDescription",
        "valueMarkdown": "Annual wellness during MP"
      } ],
      "modifierExtension": [ {
        "url": "http://hl7.org/fhir/us/cqfmeasures/StructureDefinition/cqfm-isTestCase",
        "valueBoolean": true
      } ],
      "status": "complete",
      "type": "individual",
      "measure": "https://madie.cms.gov/Measure/CMS165FHIRControllingHighBP",
      "period": {
        "start": "2026-01-01",
        "end": "2026-12-31"
      },
      "group": [ {
        "id": "Group_1",
        "population": [ {
          "id": "InitialPopulation_1",
          "code": {
            "coding": [ {
              "system": "http://terminology.hl7.org/CodeSystem/measure-population",
              "code": "initial-population",
              "display": "Initial Population"
            } ]
          },
          "count": 1
        }, {
          "id": "Denominator_1",
          "code": {
            "coding": [ {
              "system": "http://terminology.hl7.org/CodeSystem/measure-population",
              "code": "denominator",
              "display": "Denominator"
            } ]
          },
          "count": 1
        }, {
          "id": "DenominatorExclusion_1",
          "code": {
            "coding": [ {
              "system": "http://terminology.hl7.org/CodeSystem/measure-population",
              "code": "denominator-exclusion",
              "display": "Denominator Exclusion"
            } ]
          },
          "count": 0
        }, {
          "id": "Numerator_1",
          "code": {
            "coding": [ {
              "system": "http://terminology.hl7.org/CodeSystem/measure-population",
              "code": "numerator",
              "display": "Numerator"
            } ]
          },
          "count": 0
        } ],
        "measureScore": {
          "value": 1.0
        }
      } ],
      "evaluatedResource": [ {
        "reference": "Patient/a3deee90-5966-4309-b52f-c0a76046f680"
      }, {
        "reference": "Encounter/7a1179eb-7e8f-42da-a551-d904af16cd55"
      }, {
        "reference": "Condition/1c35de76-5536-4dba-bb48-2e9662b30732"
      } ]
    },
    "request": {
      "method": "PUT",
      "url": "MeasureReport/e3867723-a042-49e7-a98f-a71e13a7d8cf"
    }
  } ]
}