{
  "resourceType": "Bundle",
  "id": "DENOMPass-RVStrokeDxPOA",
  "type": "transaction",
  "entry": [ {
    "fullUrl": "https://madie.cms.gov/Claim/f67c5ffb-625d-4721-a90c-3cbb11b7fd98",
    "resource": {
      "resourceType": "Claim",
      "id": "f67c5ffb-625d-4721-a90c-3cbb11b7fd98",
      "meta": {
        "profile": [ "http://hl7.org/fhir/us/qicore/StructureDefinition/qicore-claim" ]
      },
      "status": "active",
      "type": {
        "coding": [ {
          "system": "http://terminology.hl7.org/CodeSystem/claim-type",
          "code": "professional",
          "display": "Professional"
        } ]
      },
      "use": "claim",
      "patient": {
        "reference": "Patient/f4708272-e5d3-4b6a-9431-a3cd2eb6809f"
      },
      "created": "2026-12-12",
      "provider": {
        "reference": "Practitioner/practitioner-1"
      },
      "priority": {
        "coding": [ {
          "system": "http://terminology.hl7.org/CodeSystem/processpriority",
          "code": "normal"
        } ]
      },
      "diagnosis": [ {
        "sequence": 1,
        "diagnosisCodeableConcept": {
          "coding": [ {
            "system": "http://hl7.org/fhir/sid/icd-10-cm",
            "code": "G45.0"
          } ]
        },
        "onAdmission": {
          "coding": [ {
            "system": "https://www.cms.gov/Medicare/Medicare-Fee-for-Service-Payment/HospitalAcqCond/Coding",
            "code": "Y"
          } ]
        }
      } ],
      "insurance": [ {
        "sequence": 1,
        "focal": true,
        "coverage": {
          "reference": "Coverage/coverage-1"
        }
      } ],
      "item": [ {
        "sequence": 1,
        "diagnosisSequence": [ 1, 2 ],
        "productOrService": {
          "coding": [ {
            "system": "http://terminology.hl7.org/CodeSystem/ex-USCLS",
            "code": "1101"
          } ]
        },
        "encounter": [ {
          "reference": "Encounter/3410ed8d-efa8-4369-aa88-6bfc278d1ab3"
        } ]
      } ]
    },
    "request": {
      "method": "PUT",
      "url": "Claim/f67c5ffb-625d-4721-a90c-3cbb11b7fd98"
    }
  }, {
    "fullUrl": "https://madie.cms.gov/Patient/f4708272-e5d3-4b6a-9431-a3cd2eb6809f",
    "resource": {
      "resourceType": "Patient",
      "id": "f4708272-e5d3-4b6a-9431-a3cd2eb6809f",
      "meta": {
        "profile": [ "http://hl7.org/fhir/us/qicore/StructureDefinition/qicore-patient" ]
      },
      "extension": [ {
        "url": "http://hl7.org/fhir/us/core/StructureDefinition/us-core-race",
        "extension": [ {
          "url": "ombCategory",
          "valueCoding": {
            "system": "urn:oid:2.16.840.1.113883.6.238",
            "code": "1002-5",
            "display": "American Indian or Alaska Native",
            "userSelected": true
          }
        }, {
          "url": "text",
          "valueString": "American Indian or Alaska Native"
        } ]
      }, {
        "url": "http://hl7.org/fhir/us/core/StructureDefinition/us-core-ethnicity",
        "extension": [ {
          "url": "ombCategory",
          "valueCoding": {
            "system": "urn:oid:2.16.840.1.113883.6.238",
            "code": "2135-2",
            "display": "Hispanic or Latino",
            "userSelected": true
          }
        }, {
          "url": "text",
          "valueString": "Hispanic or Latino"
        } ]
      } ],
      "identifier": [ {
        "type": {
          "coding": [ {
            "system": "http://terminology.hl7.org/CodeSystem/v2-0203",
            "code": "MR"
          } ]
        },
        "system": "https://bonnie-fhir.healthit.gov/",
        "value": "61152a3b98086b7a79cbd7c1"
      } ],
      "active": true,
      "name": [ {
        "use": "usual",
        "family": "DENOMPass",
        "given": [ "RVDeliriumDxPOA" ]
      } ],
      "gender": "female",
      "birthDate": "1964-12-11"
    },
    "request": {
      "method": "PUT",
      "url": "Patient/f4708272-e5d3-4b6a-9431-a3cd2eb6809f"
    }
  }, {
    "fullUrl": "https://madie.cms.gov/Encounter/3410ed8d-efa8-4369-aa88-6bfc278d1ab3",
    "resource": {
      "resourceType": "Encounter",
      "id": "3410ed8d-efa8-4369-aa88-6bfc278d1ab3",
      "meta": {
        "profile": [ "http://hl7.org/fhir/us/qicore/StructureDefinition/qicore-encounter" ]
      },
      "status": "finished",
      "class": {
        "system": "http://terminology.hl7.org/CodeSystem/v3-ActCode",
        "code": "IMP",
        "display": "inpatient encounter"
      },
      "type": [ {
        "coding": [ {
          "system": "http://snomed.info/sct",
          "code": "183452005",
          "display": "Emergency hospital admission"
        } ]
      } ],
      "subject": {
        "reference": "Patient/f4708272-e5d3-4b6a-9431-a3cd2eb6809f"
      },
      "period": {
        "start": "2026-11-12T08:00:00.000+00:00",
        "end": "2026-11-18T08:01:00.000+00:00"
      },
      "length": {
        "value": 6,
        "unit": "days"
      }
    },
    "request": {
      "method": "PUT",
      "url": "Encounter/3410ed8d-efa8-4369-aa88-6bfc278d1ab3"
    }
  }, {
    "fullUrl": "https://madie.cms.gov/Practitioner/8d202702-6f2a-4c6a-8799-268d74f06dc4",
    "resource": {
      "resourceType": "Practitioner",
      "id": "8d202702-6f2a-4c6a-8799-268d74f06dc4",
      "identifier": [ {
        "system": "http://www.cms.gov/identifiers/pracitioners",
        "value": "P12345"
      } ],
      "name": [ {
        "use": "official",
        "family": "Smith",
        "given": [ "John" ]
      } ],
      "qualification": [ {
        "identifier": [ {
          "system": "http://hl7.org/fhir/sid/us-npi",
          "value": "1234567890"
        } ],
        "code": {
          "coding": [ {
            "system": "http://terminology.hl7.org/CodeSystem/v2-0203",
            "code": "MD",
            "display": "Medical License number"
          } ]
        }
      } ]
    },
    "request": {
      "method": "PUT",
      "url": "Practitioner/8d202702-6f2a-4c6a-8799-268d74f06dc4"
    }
  }, {
    "fullUrl": "https://madie.cms.gov/Coverage/8c94270a-4831-49e0-8659-cc8a967c3db1",
    "resource": {
      "resourceType": "Coverage",
      "id": "8c94270a-4831-49e0-8659-cc8a967c3db1",
      "status": "active",
      "beneficiary": {
        "reference": "Patient/f4708272-e5d3-4b6a-9431-a3cd2eb6809f"
      },
      "payor": [ {
        "reference": "Organization/2c71e8cb-fa5e-4f47-96da-56c190e4e5b5"
      } ]
    },
    "request": {
      "method": "PUT",
      "url": "Coverage/8c94270a-4831-49e0-8659-cc8a967c3db1"
    }
  }, {
    "fullUrl": "https://madie.cms.gov/Organization/2c71e8cb-fa5e-4f47-96da-56c190e4e5b5",
    "resource": {
      "resourceType": "Organization",
      "id": "2c71e8cb-fa5e-4f47-96da-56c190e4e5b5",
      "identifier": [ {
        "system": "http://cms.gov/insurance-ids",
        "value": "AET12345"
      } ],
      "type": [ {
        "coding": [ {
          "system": "http://terminology.hl7.org/CodeSystem/organization-type",
          "code": "prov",
          "display": "Healthcare Provider"
        } ]
      } ],
      "name": "Aetna Insurance",
      "telecom": [ {
        "system": "phone",
        "value": "+1-800-123-4567"
      } ],
      "address": [ {
        "line": [ "123 Main Street" ],
        "city": "Cityville",
        "state": "CA",
        "postalCode": "12345",
        "country": "USA"
      } ]
    },
    "request": {
      "method": "PUT",
      "url": "Organization/2c71e8cb-fa5e-4f47-96da-56c190e4e5b5"
    }
  }, {
    "fullUrl": "https://madie.cms.gov/MeasureReport/959d93a9-fc01-48e7-989b-15b3f2fba3c7",
    "resource": {
      "resourceType": "MeasureReport",
      "id": "959d93a9-fc01-48e7-989b-15b3f2fba3c7",
      "meta": {
        "profile": [ "http://hl7.org/fhir/us/cqfmeasures/StructureDefinition/test-case-cqfm" ]
      },
      "contained": [ {
        "resourceType": "Parameters",
        "id": "7cd7cb01-7726-4102-843c-e6d02cc32880-parameters",
        "parameter": [ {
          "name": "subject",
          "valueString": "f4708272-e5d3-4b6a-9431-a3cd2eb6809f"
        } ]
      } ],
      "extension": [ {
        "url": "http://hl7.org/fhir/StructureDefinition/cqf-inputParameters",
        "valueReference": {
          "reference": "#7cd7cb01-7726-4102-843c-e6d02cc32880-parameters"
        }
      }, {
        "url": "http://hl7.org/fhir/us/cqfmeasures/StructureDefinition/cqfm-testCaseDescription",
        "valueMarkdown": "Encounter with Stroke dx POA = Y. Meets RV"
      } ],
      "modifierExtension": [ {
        "url": "http://hl7.org/fhir/us/cqfmeasures/StructureDefinition/cqfm-isTestCase",
        "valueBoolean": true
      } ],
      "status": "complete",
      "type": "individual",
      "measure": "https://madie.cms.gov/Measure/CMS1017FHIRHHFI",
      "period": {
        "start": "2026-01-01",
        "end": "2026-12-31"
      },
      "group": [ {
        "id": "Group_1",
        "population": [ {
          "id": "InitialPopulation_1",
          "code": {
            "coding": [ {
              "system": "http://terminology.hl7.org/CodeSystem/measure-population",
              "code": "initial-population",
              "display": "Initial Population"
            } ]
          },
          "count": 1
        }, {
          "id": "Denominator_1",
          "code": {
            "coding": [ {
              "system": "http://terminology.hl7.org/CodeSystem/measure-population",
              "code": "denominator",
              "display": "Denominator"
            } ]
          },
          "count": 1
        }, {
          "id": "DenominatorExclusion_1",
          "code": {
            "coding": [ {
              "system": "http://terminology.hl7.org/CodeSystem/measure-population",
              "code": "denominator-exclusion",
              "display": "Denominator Exclusion"
            } ]
          },
          "count": 0
        }, {
          "id": "Numerator_1",
          "code": {
            "coding": [ {
              "system": "http://terminology.hl7.org/CodeSystem/measure-population",
              "code": "numerator",
              "display": "Numerator"
            } ]
          },
          "count": 0
        }, {
          "id": "NumeratorExclusion_1",
          "code": {
            "coding": [ {
              "system": "http://terminology.hl7.org/CodeSystem/measure-population",
              "code": "numerator-exclusion",
              "display": "Numerator Exclusion"
            } ]
          },
          "count": 0
        }, {
          "id": "MeasureObservation_1_1_1",
          "code": {
            "coding": [ {
              "system": "http://terminology.hl7.org/CodeSystem/measure-population",
              "code": "measure-observation",
              "display": "Measure Observation"
            } ]
          },
          "count": 6
        } ],
        "measureScore": {
          "value": 0.0
        }
      } ],
      "evaluatedResource": [ {
        "reference": "Claim/f67c5ffb-625d-4721-a90c-3cbb11b7fd98"
      }, {
        "reference": "Patient/f4708272-e5d3-4b6a-9431-a3cd2eb6809f"
      }, {
        "reference": "Encounter/3410ed8d-efa8-4369-aa88-6bfc278d1ab3"
      }, {
        "reference": "Practitioner/8d202702-6f2a-4c6a-8799-268d74f06dc4"
      }, {
        "reference": "Coverage/8c94270a-4831-49e0-8659-cc8a967c3db1"
      }, {
        "reference": "Organization/2c71e8cb-fa5e-4f47-96da-56c190e4e5b5"
      } ]
    },
    "request": {
      "method": "PUT",
      "url": "MeasureReport/959d93a9-fc01-48e7-989b-15b3f2fba3c7"
    }
  } ]
}