{
  "resourceType": "Bundle",
  "id": "633b3f9e0968f80122503cd6",
  "type": "transaction",
  "entry": [ {
    "fullUrl": "https://madie.cms.gov/Patient/9bd6f62a-8e96-441f-b3a4-d189a58589ae",
    "resource": {
      "resourceType": "Patient",
      "id": "9bd6f62a-8e96-441f-b3a4-d189a58589ae",
      "meta": {
        "profile": [ "http://hl7.org/fhir/us/qicore/StructureDefinition/qicore-patient" ]
      },
      "text": {
        "status": "generated",
        "div": "<div xmlns=\"http://www.w3.org/1999/xhtml\"><div class=\"hapiHeaderText\">LastAssPrfEstDELRelvTm24Hr01MinB4DELRsltDtTime<b>DENOMPASS</b></div><table class=\"hapiPropertyTable\"><tbody><tr><td>Date of birth</td><td><span>01 February 2004</span></td></tr></tbody></table></div>"
      },
      "extension": [ {
        "url": "http://hl7.org/fhir/us/core/StructureDefinition/us-core-race",
        "extension": [ {
          "url": "ombCategory",
          "valueCoding": {
            "system": "urn:oid:2.16.840.1.113883.6.238",
            "code": "1002-5",
            "display": "American Indian or Alaska Native",
            "userSelected": true
          }
        }, {
          "url": "text",
          "valueString": "American Indian or Alaska Native"
        } ]
      }, {
        "url": "http://hl7.org/fhir/us/core/StructureDefinition/us-core-ethnicity",
        "extension": [ {
          "url": "ombCategory",
          "valueCoding": {
            "system": "urn:oid:2.16.840.1.113883.6.238",
            "code": "2135-2",
            "display": "Hispanic or Latino",
            "userSelected": true
          }
        }, {
          "url": "text",
          "valueString": "Hispanic or Latino"
        } ]
      } ],
      "identifier": [ {
        "type": {
          "coding": [ {
            "system": "http://terminology.hl7.org/CodeSystem/v2-0203",
            "code": "MR"
          } ]
        },
        "system": "https://bonnie-fhir.healthit.gov/",
        "value": "633b3f9e0968f80122503cd6"
      } ],
      "active": true,
      "name": [ {
        "use": "usual",
        "family": "DENOMPass",
        "given": [ "LastAssPrfEstDELRelvTm24Hr01MinB4DELRsltDtTime" ]
      } ],
      "gender": "female",
      "birthDate": "2005-02-01"
    },
    "request": {
      "method": "PUT",
      "url": "Patient/9bd6f62a-8e96-441f-b3a4-d189a58589ae"
    }
  }, {
    "fullUrl": "https://madie.cms.gov/Observation/34a6fafb-dd13-4df1-b002-7549bc25b8b8",
    "resource": {
      "resourceType": "Observation",
      "id": "34a6fafb-dd13-4df1-b002-7549bc25b8b8",
      "meta": {
        "profile": [ "http://hl7.org/fhir/us/qicore/StructureDefinition/qicore-simple-observation" ]
      },
      "status": "final",
      "category": [ {
        "coding": [ {
          "system": "http://terminology.hl7.org/CodeSystem/observation-category",
          "code": "exam",
          "display": "exam",
          "userSelected": true
        } ]
      } ],
      "code": {
        "coding": [ {
          "system": "http://loinc.org",
          "code": "93857-1"
        } ]
      },
      "subject": {
        "reference": "Patient/9bd6f62a-8e96-441f-b3a4-d189a58589ae"
      },
      "effectiveDateTime": "2026-02-01T08:00:00.000+00:00",
      "performer": [ {
        "reference": "Organization/example1",
        "display": "Hendricks Country Hospital"
      } ],
      "valueDateTime": "2026-02-01T08:00:00.000+00:00"
    },
    "request": {
      "method": "PUT",
      "url": "Observation/34a6fafb-dd13-4df1-b002-7549bc25b8b8"
    }
  }, {
    "fullUrl": "https://madie.cms.gov/Observation/d9a9558d-8a42-4927-8593-724c98d2f6b5",
    "resource": {
      "resourceType": "Observation",
      "id": "d9a9558d-8a42-4927-8593-724c98d2f6b5",
      "meta": {
        "profile": [ "http://hl7.org/fhir/us/qicore/StructureDefinition/qicore-simple-observation" ]
      },
      "status": "final",
      "category": [ {
        "coding": [ {
          "system": "http://terminology.hl7.org/CodeSystem/observation-category",
          "code": "exam",
          "display": "exam",
          "userSelected": true
        } ]
      } ],
      "code": {
        "coding": [ {
          "system": "http://loinc.org",
          "code": "11778-8"
        } ]
      },
      "subject": {
        "reference": "Patient/9bd6f62a-8e96-441f-b3a4-d189a58589ae"
      },
      "effectiveDateTime": "2026-01-31T07:59:00.000+00:00",
      "performer": [ {
        "reference": "Organization/example1",
        "display": "Hendricks Country Hospital"
      } ],
      "valueDateTime": "2026-02-01T08:00:00.000+00:00"
    },
    "request": {
      "method": "PUT",
      "url": "Observation/d9a9558d-8a42-4927-8593-724c98d2f6b5"
    }
  }, {
    "fullUrl": "https://madie.cms.gov/Encounter/900a9170-bbdc-4c59-9c68-175dc117e2f1",
    "resource": {
      "resourceType": "Encounter",
      "id": "900a9170-bbdc-4c59-9c68-175dc117e2f1",
      "meta": {
        "profile": [ "http://hl7.org/fhir/us/qicore/StructureDefinition/qicore-encounter" ]
      },
      "status": "finished",
      "class": {
        "system": "http://terminology.hl7.org/CodeSystem/v3-ActCode",
        "code": "IMP",
        "display": "inpatient encounter"
      },
      "type": [ {
        "coding": [ {
          "system": "http://snomed.info/sct",
          "code": "183452005"
        } ]
      } ],
      "subject": {
        "reference": "Patient/9bd6f62a-8e96-441f-b3a4-d189a58589ae"
      },
      "period": {
        "start": "2026-02-01T08:00:00.000+00:00",
        "end": "2026-02-05T08:15:00.000+00:00"
      }
    },
    "request": {
      "method": "PUT",
      "url": "Encounter/900a9170-bbdc-4c59-9c68-175dc117e2f1"
    }
  }, {
    "fullUrl": "https://madie.cms.gov/Procedure/8023e19b-24d0-499e-8283-4c2cf6dc73c9",
    "resource": {
      "resourceType": "Procedure",
      "id": "8023e19b-24d0-499e-8283-4c2cf6dc73c9",
      "meta": {
        "profile": [ "http://hl7.org/fhir/us/qicore/StructureDefinition/qicore-procedure" ]
      },
      "extension": [ {
        "url": "http://hl7.org/fhir/us/qicore/StructureDefinition/qicore-recorded",
        "valueDateTime": "2014-04-05T13:35:00.000+00:00"
      } ],
      "status": "completed",
      "code": {
        "coding": [ {
          "system": "http://snomed.info/sct",
          "code": "10745001"
        } ]
      },
      "subject": {
        "reference": "Patient/9bd6f62a-8e96-441f-b3a4-d189a58589ae"
      },
      "performedPeriod": {
        "start": "2026-02-01T08:00:00.000+00:00",
        "end": "2026-02-05T08:15:00.000+00:00"
      }
    },
    "request": {
      "method": "PUT",
      "url": "Procedure/8023e19b-24d0-499e-8283-4c2cf6dc73c9"
    }
  }, {
    "fullUrl": "https://madie.cms.gov/Coverage/71afeb63-ec66-49be-8f6b-80868162ccb8",
    "resource": {
      "resourceType": "Coverage",
      "id": "71afeb63-ec66-49be-8f6b-80868162ccb8",
      "meta": {
        "profile": [ "http://hl7.org/fhir/us/qicore/StructureDefinition/qicore-coverage" ]
      },
      "status": "active",
      "subscriberId": "523435",
      "beneficiary": {
        "reference": "Patient/9bd6f62a-8e96-441f-b3a4-d189a58589ae"
      },
      "relationship": {
        "coding": [ {
          "system": "http://terminology.hl7.org/CodeSystem/subscriber-relationship",
          "code": "self"
        } ]
      },
      "payor": [ {
        "reference": "Organization/83aad1d9-d1e6-4561-a421-c53b6e12dfec"
      } ]
    },
    "request": {
      "method": "PUT",
      "url": "Coverage/71afeb63-ec66-49be-8f6b-80868162ccb8"
    }
  }, {
    "fullUrl": "https://madie.cms.gov/Organization/83aad1d9-d1e6-4561-a421-c53b6e12dfec",
    "resource": {
      "resourceType": "Organization",
      "id": "83aad1d9-d1e6-4561-a421-c53b6e12dfec",
      "meta": {
        "profile": [ "http://hl7.org/fhir/us/qicore/StructureDefinition/qicore-organization" ]
      },
      "identifier": [ {
        "use": "temp",
        "system": "urn:oid:2.16.840.1.113883.4.4",
        "value": "21-3259825"
      } ],
      "active": true,
      "type": [ {
        "coding": [ {
          "system": "http://terminology.hl7.org/CodeSystem/organization-type",
          "code": "pay",
          "display": "Payer"
        } ]
      } ],
      "name": "Blue Cross Blue Shield of Texas",
      "telecom": [ {
        "system": "phone",
        "value": "(+1) 972-766-6900"
      } ],
      "address": [ {
        "use": "billing",
        "type": "postal",
        "line": [ "P.O. Box 660044" ],
        "city": "Dallas",
        "state": "TX",
        "postalCode": "75266-0044",
        "country": "USA"
      } ]
    },
    "request": {
      "method": "PUT",
      "url": "Organization/83aad1d9-d1e6-4561-a421-c53b6e12dfec"
    }
  }, {
    "fullUrl": "https://madie.cms.gov/Practitioner/716ec3c5-3d64-4833-8b6e-ab4380da9a81",
    "resource": {
      "resourceType": "Practitioner",
      "id": "716ec3c5-3d64-4833-8b6e-ab4380da9a81",
      "meta": {
        "profile": [ "http://hl7.org/fhir/us/qicore/StructureDefinition/qicore-practitioner" ]
      },
      "identifier": [ {
        "system": "http://hl7.org/fhir/sid/us-npi",
        "value": "1234567890"
      } ],
      "name": [ {
        "family": "Evil",
        "prefix": [ "Dr" ]
      } ]
    },
    "request": {
      "method": "PUT",
      "url": "Practitioner/716ec3c5-3d64-4833-8b6e-ab4380da9a81"
    }
  }, {
    "fullUrl": "https://madie.cms.gov/MeasureReport/f1572af7-c5f4-4f45-b584-ddd9a208fa38",
    "resource": {
      "resourceType": "MeasureReport",
      "id": "f1572af7-c5f4-4f45-b584-ddd9a208fa38",
      "meta": {
        "profile": [ "http://hl7.org/fhir/us/cqfmeasures/StructureDefinition/test-case-cqfm" ]
      },
      "contained": [ {
        "resourceType": "Parameters",
        "id": "becaee7e-609e-4136-ab42-8bc865fd48ae-parameters",
        "parameter": [ {
          "name": "subject",
          "valueString": "9bd6f62a-8e96-441f-b3a4-d189a58589ae"
        } ]
      } ],
      "extension": [ {
        "url": "http://hl7.org/fhir/StructureDefinition/cqf-inputParameters",
        "valueReference": {
          "reference": "#becaee7e-609e-4136-ab42-8bc865fd48ae-parameters"
        }
      }, {
        "url": "http://hl7.org/fhir/us/cqfmeasures/StructureDefinition/cqfm-testCaseDescription",
        "valueMarkdown": "Last assessment Performed, Estimated Delivery Date, Relevant time, 24 hours 1 min before Delivery Result Date/Time.  \n"
      } ],
      "modifierExtension": [ {
        "url": "http://hl7.org/fhir/us/cqfmeasures/StructureDefinition/cqfm-isTestCase",
        "valueBoolean": true
      } ],
      "status": "complete",
      "type": "individual",
      "measure": "https://madie.cms.gov/Measure/CMS1028FHIRPCSevereOBComps",
      "period": {
        "start": "2026-01-01",
        "end": "2026-12-31"
      },
      "group": [ {
        "id": "Group_1",
        "population": [ {
          "id": "InitialPopulation_1",
          "code": {
            "coding": [ {
              "system": "http://terminology.hl7.org/CodeSystem/measure-population",
              "code": "initial-population",
              "display": "Initial Population"
            } ]
          },
          "count": 1
        }, {
          "id": "Denominator_1",
          "code": {
            "coding": [ {
              "system": "http://terminology.hl7.org/CodeSystem/measure-population",
              "code": "denominator",
              "display": "Denominator"
            } ]
          },
          "count": 1
        }, {
          "id": "Numerator_1",
          "code": {
            "coding": [ {
              "system": "http://terminology.hl7.org/CodeSystem/measure-population",
              "code": "numerator",
              "display": "Numerator"
            } ]
          },
          "count": 0
        }, {
          "id": "NumeratorExclusion_1",
          "code": {
            "coding": [ {
              "system": "http://terminology.hl7.org/CodeSystem/measure-population",
              "code": "numerator-exclusion",
              "display": "Numerator Exclusion"
            } ]
          },
          "count": 0
        } ],
        "measureScore": {
          "value": 0.0
        }
      }, {
        "id": "Group_2",
        "population": [ {
          "id": "InitialPopulation_2",
          "code": {
            "coding": [ {
              "system": "http://terminology.hl7.org/CodeSystem/measure-population",
              "code": "initial-population",
              "display": "Initial Population"
            } ]
          },
          "count": 1
        }, {
          "id": "Denominator_2",
          "code": {
            "coding": [ {
              "system": "http://terminology.hl7.org/CodeSystem/measure-population",
              "code": "denominator",
              "display": "Denominator"
            } ]
          },
          "count": 1
        }, {
          "id": "Numerator_2",
          "code": {
            "coding": [ {
              "system": "http://terminology.hl7.org/CodeSystem/measure-population",
              "code": "numerator",
              "display": "Numerator"
            } ]
          },
          "count": 0
        }, {
          "id": "NumeratorExclusion_2",
          "code": {
            "coding": [ {
              "system": "http://terminology.hl7.org/CodeSystem/measure-population",
              "code": "numerator-exclusion",
              "display": "Numerator Exclusion"
            } ]
          },
          "count": 0
        } ],
        "measureScore": {
          "value": 0.0
        }
      } ],
      "evaluatedResource": [ {
        "reference": "Patient/9bd6f62a-8e96-441f-b3a4-d189a58589ae"
      }, {
        "reference": "Observation/34a6fafb-dd13-4df1-b002-7549bc25b8b8"
      }, {
        "reference": "Observation/d9a9558d-8a42-4927-8593-724c98d2f6b5"
      }, {
        "reference": "Encounter/900a9170-bbdc-4c59-9c68-175dc117e2f1"
      }, {
        "reference": "Procedure/8023e19b-24d0-499e-8283-4c2cf6dc73c9"
      }, {
        "reference": "Coverage/71afeb63-ec66-49be-8f6b-80868162ccb8"
      }, {
        "reference": "Organization/83aad1d9-d1e6-4561-a421-c53b6e12dfec"
      }, {
        "reference": "Practitioner/716ec3c5-3d64-4833-8b6e-ab4380da9a81"
      } ]
    },
    "request": {
      "method": "PUT",
      "url": "MeasureReport/f1572af7-c5f4-4f45-b584-ddd9a208fa38"
    }
  } ]
}