{
  "resourceType": "Bundle",
  "id": "tests-NUMERPass-1Enc2ResultsLT40UsedRelevantPeriod-bundle",
  "type": "transaction",
  "entry": [ {
    "fullUrl": "https://madie.cms.gov/Encounter/03fddc0c-a0e7-42ce-9d3e-c32093473b97",
    "resource": {
      "resourceType": "Encounter",
      "id": "03fddc0c-a0e7-42ce-9d3e-c32093473b97",
      "meta": {
        "profile": [ "http://hl7.org/fhir/us/qicore/StructureDefinition/qicore-encounter" ]
      },
      "status": "finished",
      "class": {
        "system": "http://terminology.hl7.org/CodeSystem/v3-ActCode",
        "code": "IMP",
        "display": "Inpatient encounter"
      },
      "type": [ {
        "coding": [ {
          "system": "http://snomed.info/sct",
          "code": "183452005",
          "display": "Inpatient encounter"
        } ]
      } ],
      "period": {
        "start": "2026-02-03T08:00:00.000+00:00",
        "end": "2026-02-06T08:15:00.000+00:00"
      }
    },
    "request": {
      "method": "PUT",
      "url": "Encounter/03fddc0c-a0e7-42ce-9d3e-c32093473b97"
    }
  }, {
    "fullUrl": "https://madie.cms.gov/MedicationAdministration/f2d8e438-3a88-4aee-9e1f-451e35e83f36",
    "resource": {
      "resourceType": "MedicationAdministration",
      "id": "f2d8e438-3a88-4aee-9e1f-451e35e83f36",
      "meta": {
        "profile": [ "http://hl7.org/fhir/us/qicore/StructureDefinition/qicore-medicationadministration" ]
      },
      "status": "completed",
      "medicationCodeableConcept": {
        "coding": [ {
          "system": "http://www.nlm.nih.gov/research/umls/rxnorm",
          "code": "1652239",
          "display": "Hypoglycemics Severe Hypoglycemia"
        } ]
      },
      "subject": {
        "reference": "Patient/339a989b-722c-4452-9d25-454e2d53eea8"
      },
      "effectivePeriod": {
        "start": "2026-02-04T08:00:00.000+00:00",
        "end": "2026-02-04T08:15:00.000+00:00"
      }
    },
    "request": {
      "method": "PUT",
      "url": "MedicationAdministration/f2d8e438-3a88-4aee-9e1f-451e35e83f36"
    }
  }, {
    "fullUrl": "https://madie.cms.gov/Observation/9bfbf70a-0ea4-4558-b39c-98ec9bce783a",
    "resource": {
      "resourceType": "Observation",
      "id": "9bfbf70a-0ea4-4558-b39c-98ec9bce783a",
      "meta": {
        "profile": [ "http://hl7.org/fhir/us/qicore/StructureDefinition/qicore-observation-lab" ]
      },
      "status": "final",
      "code": {
        "coding": [ {
          "system": "http://loinc.org",
          "code": "1556-0",
          "display": "Glucose Lab Test Mass Per Volume"
        } ]
      },
      "subject": {
        "reference": "Patient/339a989b-722c-4452-9d25-454e2d53eea8"
      },
      "effectivePeriod": {
        "start": "2026-02-04T10:06:00.000+00:00",
        "end": "2026-02-04T10:07:00.000+00:00"
      },
      "issued": "2026-02-04T10:06:00.000+00:00",
      "valueQuantity": {
        "value": 90,
        "unit": "mg/dL"
      }
    },
    "request": {
      "method": "PUT",
      "url": "Observation/9bfbf70a-0ea4-4558-b39c-98ec9bce783a"
    }
  }, {
    "fullUrl": "https://madie.cms.gov/Observation/9b36248a-cd2f-48aa-addd-07d9852c7a6c",
    "resource": {
      "resourceType": "Observation",
      "id": "9b36248a-cd2f-48aa-addd-07d9852c7a6c",
      "meta": {
        "profile": [ "http://hl7.org/fhir/us/qicore/StructureDefinition/qicore-observation-lab" ]
      },
      "status": "final",
      "code": {
        "coding": [ {
          "system": "http://loinc.org",
          "code": "1556-0",
          "display": "Glucose Lab Test Mass Per Volume"
        } ]
      },
      "subject": {
        "reference": "Patient/339a989b-722c-4452-9d25-454e2d53eea8"
      },
      "effectivePeriod": {
        "start": "2026-02-04T11:45:00.000+00:00",
        "end": "2026-02-04T11:45:00.000+00:00"
      },
      "issued": "2026-02-04T11:45:00.000+00:00",
      "valueQuantity": {
        "value": 30,
        "unit": "mg/dL"
      }
    },
    "request": {
      "method": "PUT",
      "url": "Observation/9b36248a-cd2f-48aa-addd-07d9852c7a6c"
    }
  }, {
    "fullUrl": "https://madie.cms.gov/Observation/420a8d16-6b25-4c83-b2a0-98998ca71816",
    "resource": {
      "resourceType": "Observation",
      "id": "420a8d16-6b25-4c83-b2a0-98998ca71816",
      "meta": {
        "profile": [ "http://hl7.org/fhir/us/qicore/StructureDefinition/qicore-observation-lab" ]
      },
      "status": "final",
      "code": {
        "coding": [ {
          "system": "http://loinc.org",
          "code": "1556-0",
          "display": "Glucose Lab Test Mass Per Volume"
        } ]
      },
      "subject": {
        "reference": "Patient/339a989b-722c-4452-9d25-454e2d53eea8"
      },
      "effectivePeriod": {
        "start": "2026-02-04T10:00:00.000+00:00",
        "end": "2026-02-04T10:00:00.000+00:00"
      },
      "issued": "2026-02-04T10:00:00.000+00:00",
      "valueQuantity": {
        "value": 39,
        "unit": "mg/dL"
      }
    },
    "request": {
      "method": "PUT",
      "url": "Observation/420a8d16-6b25-4c83-b2a0-98998ca71816"
    }
  }, {
    "fullUrl": "https://madie.cms.gov/Patient/339a989b-722c-4452-9d25-454e2d53eea8",
    "resource": {
      "resourceType": "Patient",
      "id": "339a989b-722c-4452-9d25-454e2d53eea8",
      "meta": {
        "profile": [ "http://hl7.org/fhir/us/qicore/StructureDefinition/qicore-patient" ]
      },
      "extension": [ {
        "url": "http://hl7.org/fhir/us/core/StructureDefinition/us-core-race",
        "extension": [ {
          "url": "ombCategory",
          "valueCoding": {
            "system": "urn:oid:2.16.840.1.113883.6.238",
            "code": "2106-3",
            "display": "White"
          }
        }, {
          "url": "text",
          "valueString": "White"
        } ]
      }, {
        "url": "http://hl7.org/fhir/us/core/StructureDefinition/us-core-ethnicity",
        "extension": [ {
          "url": "ombCategory",
          "valueCoding": {
            "system": "urn:oid:2.16.840.1.113883.6.238",
            "code": "2135-2",
            "display": "Hispanic or Latino"
          }
        }, {
          "url": "text",
          "valueString": "Hispanic or Latino"
        } ]
      }, {
        "url": "http://hl7.org/fhir/us/core/StructureDefinition/us-core-sex",
        "valueCode": "248153007"
      } ],
      "identifier": [ {
        "system": "http://hospital.smarthealthit.org",
        "value": "999999999"
      } ],
      "name": [ {
        "family": "Example",
        "given": [ "Patient" ]
      } ],
      "gender": "female",
      "birthDate": "2000-02-03"
    },
    "request": {
      "method": "PUT",
      "url": "Patient/339a989b-722c-4452-9d25-454e2d53eea8"
    }
  }, {
    "fullUrl": "https://madie.cms.gov/MeasureReport/1f48c160-8aba-4e86-bd5d-c5c4bdef1afd",
    "resource": {
      "resourceType": "MeasureReport",
      "id": "1f48c160-8aba-4e86-bd5d-c5c4bdef1afd",
      "meta": {
        "profile": [ "http://hl7.org/fhir/us/cqfmeasures/StructureDefinition/test-case-cqfm" ]
      },
      "contained": [ {
        "resourceType": "Parameters",
        "id": "ee279e82-f890-4ab5-aa2a-13cd401cd2e5-parameters",
        "parameter": [ {
          "name": "subject",
          "valueString": "339a989b-722c-4452-9d25-454e2d53eea8"
        } ]
      } ],
      "extension": [ {
        "url": "http://hl7.org/fhir/StructureDefinition/cqf-inputParameters",
        "valueReference": {
          "reference": "#ee279e82-f890-4ab5-aa2a-13cd401cd2e5-parameters"
        }
      }, {
        "url": "http://hl7.org/fhir/us/cqfmeasures/StructureDefinition/cqfm-testCaseDescription",
        "valueMarkdown": "Encounter with meds and 3 glucose labs. Two are <40, one is >80 but is not within 5 minutes of other labs. Meets num. = 1 harm. Used start of relevant period for lab test timings"
      } ],
      "modifierExtension": [ {
        "url": "http://hl7.org/fhir/us/cqfmeasures/StructureDefinition/cqfm-isTestCase",
        "valueBoolean": true
      } ],
      "status": "complete",
      "type": "individual",
      "measure": "https://madie.cms.gov/Measure/CMS816FHIRHHHypo",
      "period": {
        "start": "2026-01-01",
        "end": "2026-12-31"
      },
      "group": [ {
        "id": "Group_1",
        "population": [ {
          "id": "InitialPopulation_1",
          "code": {
            "coding": [ {
              "system": "http://terminology.hl7.org/CodeSystem/measure-population",
              "code": "initial-population",
              "display": "Initial Population"
            } ]
          },
          "count": 1
        }, {
          "id": "Denominator_1",
          "code": {
            "coding": [ {
              "system": "http://terminology.hl7.org/CodeSystem/measure-population",
              "code": "denominator",
              "display": "Denominator"
            } ]
          },
          "count": 1
        }, {
          "id": "Numerator_1",
          "code": {
            "coding": [ {
              "system": "http://terminology.hl7.org/CodeSystem/measure-population",
              "code": "numerator",
              "display": "Numerator"
            } ]
          },
          "count": 1
        } ],
        "measureScore": {
          "value": 0.0
        }
      } ],
      "evaluatedResource": [ {
        "reference": "Encounter/03fddc0c-a0e7-42ce-9d3e-c32093473b97"
      }, {
        "reference": "MedicationAdministration/f2d8e438-3a88-4aee-9e1f-451e35e83f36"
      }, {
        "reference": "Observation/9bfbf70a-0ea4-4558-b39c-98ec9bce783a"
      }, {
        "reference": "Observation/9b36248a-cd2f-48aa-addd-07d9852c7a6c"
      }, {
        "reference": "Observation/420a8d16-6b25-4c83-b2a0-98998ca71816"
      }, {
        "reference": "Patient/339a989b-722c-4452-9d25-454e2d53eea8"
      } ]
    },
    "request": {
      "method": "PUT",
      "url": "MeasureReport/1f48c160-8aba-4e86-bd5d-c5c4bdef1afd"
    }
  } ]
}