{
  "resourceType": "Bundle",
  "id": "63487c2f0968f801225401a2",
  "type": "transaction",
  "entry": [ {
    "fullUrl": "https://madie.cms.gov/Patient/f75e88bd-763c-45ee-9926-da176be47cd9",
    "resource": {
      "resourceType": "Patient",
      "id": "f75e88bd-763c-45ee-9926-da176be47cd9",
      "meta": {
        "profile": [ "http://hl7.org/fhir/us/qicore/StructureDefinition/qicore-patient" ]
      },
      "text": {
        "status": "generated",
        "div": "<div xmlns=\"http://www.w3.org/1999/xhtml\"><div class=\"hapiHeaderText\">EGABadUnit<b>DENOMFail</b></div><table class=\"hapiPropertyTable\"><tbody><tr><td>Identifier</td><td>73d161bbd72a0b8d656073de21758ea0022c984462702bb844daf97a7291f479</td></tr><tr><td>Date of birth</td><td><span>14 February 1985</span></td></tr></tbody></table></div>"
      },
      "extension": [ {
        "url": "http://hl7.org/fhir/us/core/StructureDefinition/us-core-race",
        "extension": [ {
          "url": "ombCategory",
          "valueCoding": {
            "system": "urn:oid:2.16.840.1.113883.6.238",
            "code": "1002-5",
            "display": "American Indian or Alaska Native",
            "userSelected": true
          }
        }, {
          "url": "text",
          "valueString": "American Indian or Alaska Native"
        } ]
      }, {
        "url": "http://hl7.org/fhir/us/core/StructureDefinition/us-core-ethnicity",
        "extension": [ {
          "url": "ombCategory",
          "valueCoding": {
            "system": "urn:oid:2.16.840.1.113883.6.238",
            "code": "2135-2",
            "display": "Hispanic or Latino",
            "userSelected": true
          }
        }, {
          "url": "text",
          "valueString": "Hispanic or Latino"
        } ]
      } ],
      "identifier": [ {
        "type": {
          "coding": [ {
            "system": "http://terminology.hl7.org/CodeSystem/v2-0203",
            "code": "MR"
          } ]
        },
        "system": "https://bonnie-fhir.healthit.gov/",
        "value": "63487c2f0968f801225401a2"
      } ],
      "active": true,
      "name": [ {
        "use": "usual",
        "family": "DENOMFail",
        "given": [ "EGABadUnit" ]
      } ],
      "gender": "female",
      "birthDate": "1998-02-14"
    },
    "request": {
      "method": "PUT",
      "url": "Patient/f75e88bd-763c-45ee-9926-da176be47cd9"
    }
  }, {
    "fullUrl": "https://madie.cms.gov/Observation/1fccf551-252b-418d-b915-367adb052dd9",
    "resource": {
      "resourceType": "Observation",
      "id": "1fccf551-252b-418d-b915-367adb052dd9",
      "meta": {
        "profile": [ "http://hl7.org/fhir/us/qicore/StructureDefinition/qicore-simple-observation" ]
      },
      "status": "final",
      "category": [ {
        "coding": [ {
          "system": "http://terminology.hl7.org/CodeSystem/observation-category",
          "code": "exam",
          "display": "exam",
          "userSelected": true
        } ]
      } ],
      "code": {
        "coding": [ {
          "system": "http://loinc.org",
          "code": "11996-6"
        } ]
      },
      "subject": {
        "reference": "Patient/f75e88bd-763c-45ee-9926-da176be47cd9"
      },
      "effectiveDateTime": "2026-06-08T08:00:00.000+00:00",
      "performer": [ {
        "reference": "Organization/example1",
        "display": "Hendricks Country Hospital"
      } ],
      "valueInteger": 1
    },
    "request": {
      "method": "PUT",
      "url": "Observation/1fccf551-252b-418d-b915-367adb052dd9"
    }
  }, {
    "fullUrl": "https://madie.cms.gov/Observation/eff54f62-ce67-426d-89d5-0b01bed38ab4",
    "resource": {
      "resourceType": "Observation",
      "id": "eff54f62-ce67-426d-89d5-0b01bed38ab4",
      "meta": {
        "profile": [ "http://hl7.org/fhir/us/qicore/StructureDefinition/qicore-simple-observation" ]
      },
      "status": "final",
      "category": [ {
        "coding": [ {
          "system": "http://terminology.hl7.org/CodeSystem/observation-category",
          "code": "exam",
          "display": "exam",
          "userSelected": true
        } ]
      } ],
      "code": {
        "coding": [ {
          "system": "http://loinc.org",
          "code": "11884-4"
        } ]
      },
      "subject": {
        "reference": "Patient/f75e88bd-763c-45ee-9926-da176be47cd9"
      },
      "effectiveDateTime": "2026-06-08T09:15:00.000+00:00",
      "performer": [ {
        "reference": "Organization/example1",
        "display": "Hendricks Country Hospital"
      } ],
      "valueQuantity": {
        "value": 37,
        "system": "http://unitsofmeasure.org",
        "code": "cm"
      }
    },
    "request": {
      "method": "PUT",
      "url": "Observation/eff54f62-ce67-426d-89d5-0b01bed38ab4"
    }
  }, {
    "fullUrl": "https://madie.cms.gov/Observation/803c1755-b525-4991-be62-8ace29f66a40",
    "resource": {
      "resourceType": "Observation",
      "id": "803c1755-b525-4991-be62-8ace29f66a40",
      "meta": {
        "profile": [ "http://hl7.org/fhir/us/qicore/StructureDefinition/qicore-simple-observation" ]
      },
      "status": "final",
      "category": [ {
        "coding": [ {
          "system": "http://terminology.hl7.org/CodeSystem/observation-category",
          "code": "exam",
          "display": "exam",
          "userSelected": true
        } ]
      } ],
      "code": {
        "coding": [ {
          "system": "http://loinc.org",
          "code": "93857-1"
        } ]
      },
      "subject": {
        "reference": "Patient/f75e88bd-763c-45ee-9926-da176be47cd9"
      },
      "effectiveDateTime": "2026-06-08T09:15:00.000+00:00",
      "performer": [ {
        "reference": "Organization/example1",
        "display": "Hendricks Country Hospital"
      } ],
      "valueDateTime": "2026-06-08T09:15:00.000+00:00"
    },
    "request": {
      "method": "PUT",
      "url": "Observation/803c1755-b525-4991-be62-8ace29f66a40"
    }
  }, {
    "fullUrl": "https://madie.cms.gov/Encounter/2b7df8d0-caa9-41b8-8bf4-9140f5489173",
    "resource": {
      "resourceType": "Encounter",
      "id": "2b7df8d0-caa9-41b8-8bf4-9140f5489173",
      "meta": {
        "profile": [ "http://hl7.org/fhir/us/qicore/StructureDefinition/qicore-encounter" ]
      },
      "status": "finished",
      "class": {
        "system": "http://terminology.hl7.org/CodeSystem/v3-ActCode",
        "code": "IMP",
        "display": "inpatient encounter"
      },
      "type": [ {
        "coding": [ {
          "system": "http://snomed.info/sct",
          "code": "183452005"
        } ]
      } ],
      "subject": {
        "reference": "Patient/f75e88bd-763c-45ee-9926-da176be47cd9"
      },
      "period": {
        "start": "2026-06-08T08:00:00.000+00:00",
        "end": "2026-06-10T08:15:00.000+00:00"
      },
      "length": {
        "value": 2,
        "unit": "days"
      },
      "reasonCode": [ {
        "coding": [ {
          "system": "http://snomed.info/sct",
          "code": "169826009",
          "display": "Single live birth from singleton pregnancy (finding)"
        } ]
      } ]
    },
    "request": {
      "method": "PUT",
      "url": "Encounter/2b7df8d0-caa9-41b8-8bf4-9140f5489173"
    }
  }, {
    "fullUrl": "https://madie.cms.gov/Procedure/c26d3164-e951-42ff-bbb9-8425c6558d6a",
    "resource": {
      "resourceType": "Procedure",
      "id": "c26d3164-e951-42ff-bbb9-8425c6558d6a",
      "meta": {
        "profile": [ "http://hl7.org/fhir/us/qicore/StructureDefinition/qicore-procedure" ]
      },
      "extension": [ {
        "url": "http://hl7.org/fhir/us/qicore/StructureDefinition/qicore-recorded",
        "valueDateTime": "2014-04-05T13:35:00.000+00:00"
      } ],
      "status": "completed",
      "code": {
        "coding": [ {
          "system": "http://www.cms.gov/Medicare/Coding/ICD10",
          "code": "10D00Z0"
        } ]
      },
      "subject": {
        "reference": "Patient/f75e88bd-763c-45ee-9926-da176be47cd9"
      },
      "performedPeriod": {
        "start": "2026-06-08T08:00:00.000+00:00",
        "end": "2026-06-08T09:15:00.000+00:00"
      }
    },
    "request": {
      "method": "PUT",
      "url": "Procedure/c26d3164-e951-42ff-bbb9-8425c6558d6a"
    }
  }, {
    "fullUrl": "https://madie.cms.gov/Condition/d7fc21d7-eb64-4b5a-9ba5-db27ab0db695",
    "resource": {
      "resourceType": "Condition",
      "id": "d7fc21d7-eb64-4b5a-9ba5-db27ab0db695",
      "meta": {
        "profile": [ "http://hl7.org/fhir/us/qicore/StructureDefinition/qicore-condition" ]
      },
      "category": [ {
        "coding": [ {
          "system": "http://terminology.hl7.org/CodeSystem/condition-category",
          "code": "encounter-diagnosis",
          "display": "Encounter Diagnosis"
        } ]
      } ],
      "code": {
        "coding": [ {
          "system": "http://snomed.info/sct",
          "version": "2022-09",
          "code": "169826009",
          "display": "Single live birth (finding)",
          "userSelected": true
        } ]
      },
      "subject": {
        "reference": "Patient/f75e88bd-763c-45ee-9926-da176be47cd9"
      },
      "recordedDate": "2026-10-21T08:00:00.000+00:00"
    },
    "request": {
      "method": "PUT",
      "url": "Condition/d7fc21d7-eb64-4b5a-9ba5-db27ab0db695"
    }
  }, {
    "fullUrl": "https://madie.cms.gov/Coverage/89595427-d3ac-47a4-9ffc-3e4700433b5a",
    "resource": {
      "resourceType": "Coverage",
      "id": "89595427-d3ac-47a4-9ffc-3e4700433b5a",
      "meta": {
        "profile": [ "http://hl7.org/fhir/us/qicore/StructureDefinition/qicore-coverage" ]
      },
      "status": "active",
      "subscriberId": "523435",
      "beneficiary": {
        "reference": "Patient/f75e88bd-763c-45ee-9926-da176be47cd9"
      },
      "relationship": {
        "coding": [ {
          "system": "http://terminology.hl7.org/CodeSystem/subscriber-relationship",
          "code": "self"
        } ]
      },
      "payor": [ {
        "reference": "Organization/7e70addb-3372-42c5-bee6-5da656b338e5"
      } ]
    },
    "request": {
      "method": "PUT",
      "url": "Coverage/89595427-d3ac-47a4-9ffc-3e4700433b5a"
    }
  }, {
    "fullUrl": "https://madie.cms.gov/Organization/7e70addb-3372-42c5-bee6-5da656b338e5",
    "resource": {
      "resourceType": "Organization",
      "id": "7e70addb-3372-42c5-bee6-5da656b338e5",
      "meta": {
        "profile": [ "http://hl7.org/fhir/us/qicore/StructureDefinition/qicore-organization" ]
      },
      "identifier": [ {
        "use": "temp",
        "system": "urn:oid:2.16.840.1.113883.4.4",
        "value": "21-3259825"
      } ],
      "active": true,
      "type": [ {
        "coding": [ {
          "system": "http://terminology.hl7.org/CodeSystem/organization-type",
          "code": "pay",
          "display": "Payer"
        } ]
      } ],
      "name": "Blue Cross Blue Shield of Texas",
      "telecom": [ {
        "system": "phone",
        "value": "(+1) 972-766-6900"
      } ],
      "address": [ {
        "use": "billing",
        "type": "postal",
        "line": [ "P.O. Box 660044" ],
        "city": "Dallas",
        "state": "TX",
        "postalCode": "75266-0044",
        "country": "USA"
      } ]
    },
    "request": {
      "method": "PUT",
      "url": "Organization/7e70addb-3372-42c5-bee6-5da656b338e5"
    }
  }, {
    "fullUrl": "https://madie.cms.gov/Practitioner/d0e32f57-884b-45b3-a290-853c0f6759e5",
    "resource": {
      "resourceType": "Practitioner",
      "id": "d0e32f57-884b-45b3-a290-853c0f6759e5",
      "meta": {
        "profile": [ "http://hl7.org/fhir/us/qicore/StructureDefinition/qicore-practitioner" ]
      },
      "identifier": [ {
        "system": "http://hl7.org/fhir/sid/us-npi",
        "value": "1234567890"
      } ],
      "name": [ {
        "family": "Evil",
        "prefix": [ "Dr" ]
      } ]
    },
    "request": {
      "method": "PUT",
      "url": "Practitioner/d0e32f57-884b-45b3-a290-853c0f6759e5"
    }
  }, {
    "fullUrl": "https://madie.cms.gov/MeasureReport/4e497be9-bb10-41af-960d-60e346c48f5a",
    "resource": {
      "resourceType": "MeasureReport",
      "id": "4e497be9-bb10-41af-960d-60e346c48f5a",
      "meta": {
        "profile": [ "http://hl7.org/fhir/us/cqfmeasures/StructureDefinition/test-case-cqfm" ]
      },
      "contained": [ {
        "resourceType": "Parameters",
        "id": "f6cbde30-b900-47c9-aac1-a28bd7fc828a-parameters",
        "parameter": [ {
          "name": "subject",
          "valueString": "f75e88bd-763c-45ee-9926-da176be47cd9"
        } ]
      } ],
      "extension": [ {
        "url": "http://hl7.org/fhir/StructureDefinition/cqf-inputParameters",
        "valueReference": {
          "reference": "#f6cbde30-b900-47c9-aac1-a28bd7fc828a-parameters"
        }
      }, {
        "url": "http://hl7.org/fhir/us/cqfmeasures/StructureDefinition/cqfm-testCaseDescription",
        "valueMarkdown": "Passes: IP, Fails DENOM  Pt is 27 years of age,  encounter dx of delivery of singleton, gravida, EGA @ 37 but the units are bad (not wk or weeks)\n"
      } ],
      "modifierExtension": [ {
        "url": "http://hl7.org/fhir/us/cqfmeasures/StructureDefinition/cqfm-isTestCase",
        "valueBoolean": true
      } ],
      "status": "complete",
      "type": "individual",
      "measure": "https://madie.cms.gov/Measure/CMS0334FHIRPCCesareanBirth",
      "period": {
        "start": "2026-01-01",
        "end": "2026-12-31"
      },
      "group": [ {
        "id": "Group_1",
        "population": [ {
          "id": "InitialPopulation_1",
          "code": {
            "coding": [ {
              "system": "http://terminology.hl7.org/CodeSystem/measure-population",
              "code": "initial-population",
              "display": "Initial Population"
            } ]
          },
          "count": 1
        }, {
          "id": "Denominator_1",
          "code": {
            "coding": [ {
              "system": "http://terminology.hl7.org/CodeSystem/measure-population",
              "code": "denominator",
              "display": "Denominator"
            } ]
          },
          "count": 0
        }, {
          "id": "DenominatorExclusion_1",
          "code": {
            "coding": [ {
              "system": "http://terminology.hl7.org/CodeSystem/measure-population",
              "code": "denominator-exclusion",
              "display": "Denominator Exclusion"
            } ]
          },
          "count": 0
        }, {
          "id": "Numerator_1",
          "code": {
            "coding": [ {
              "system": "http://terminology.hl7.org/CodeSystem/measure-population",
              "code": "numerator",
              "display": "Numerator"
            } ]
          },
          "count": 0
        } ],
        "measureScore": {
          "value": 0.0
        }
      } ],
      "evaluatedResource": [ {
        "reference": "Patient/f75e88bd-763c-45ee-9926-da176be47cd9"
      }, {
        "reference": "Observation/1fccf551-252b-418d-b915-367adb052dd9"
      }, {
        "reference": "Observation/eff54f62-ce67-426d-89d5-0b01bed38ab4"
      }, {
        "reference": "Observation/803c1755-b525-4991-be62-8ace29f66a40"
      }, {
        "reference": "Encounter/2b7df8d0-caa9-41b8-8bf4-9140f5489173"
      }, {
        "reference": "Procedure/c26d3164-e951-42ff-bbb9-8425c6558d6a"
      }, {
        "reference": "Condition/d7fc21d7-eb64-4b5a-9ba5-db27ab0db695"
      }, {
        "reference": "Coverage/89595427-d3ac-47a4-9ffc-3e4700433b5a"
      }, {
        "reference": "Organization/7e70addb-3372-42c5-bee6-5da656b338e5"
      }, {
        "reference": "Practitioner/d0e32f57-884b-45b3-a290-853c0f6759e5"
      } ]
    },
    "request": {
      "method": "PUT",
      "url": "MeasureReport/4e497be9-bb10-41af-960d-60e346c48f5a"
    }
  } ]
}