{
  "resourceType": "Bundle",
  "id": "NUMERFail-PROMIS29MissingFSA",
  "type": "collection",
  "entry": [ {
    "fullUrl": "https://madie.cms.gov/Patient/4e4f5a2a-46f4-4dce-89cd-89079b72cde5",
    "resource": {
      "resourceType": "Patient",
      "id": "4e4f5a2a-46f4-4dce-89cd-89079b72cde5",
      "meta": {
        "profile": [ "http://hl7.org/fhir/us/qicore/StructureDefinition/qicore-patient" ]
      },
      "extension": [ {
        "url": "http://hl7.org/fhir/us/core/StructureDefinition/us-core-race",
        "extension": [ {
          "url": "ombCategory",
          "valueCoding": {
            "system": "urn:oid:2.16.840.1.113883.6.238",
            "code": "2028-9",
            "display": "Asian"
          }
        }, {
          "url": "text",
          "valueString": "Asian"
        } ]
      }, {
        "url": "http://hl7.org/fhir/us/core/StructureDefinition/us-core-ethnicity",
        "extension": [ {
          "url": "ombCategory",
          "valueCoding": {
            "system": "urn:oid:2.16.840.1.113883.6.238",
            "code": "2135-2",
            "display": "Hispanic or Latino"
          }
        }, {
          "url": "text",
          "valueString": "Hispanic or Latino"
        } ]
      } ],
      "identifier": [ {
        "system": "http://hospital.smarthealthit.org",
        "value": "999999995"
      } ],
      "name": [ {
        "family": "Bertha",
        "given": [ "Betty" ]
      } ],
      "gender": "female",
      "birthDate": "2008-01-01"
    }
  }, {
    "fullUrl": "https://madie.cms.gov/Encounter/06ef7da7-12d1-4ee1-b6dc-39c62a3986fc",
    "resource": {
      "resourceType": "Encounter",
      "id": "06ef7da7-12d1-4ee1-b6dc-39c62a3986fc",
      "meta": {
        "profile": [ "http://hl7.org/fhir/us/qicore/StructureDefinition/qicore-encounter" ]
      },
      "status": "finished",
      "class": {
        "system": "http://terminology.hl7.org/CodeSystem/v3-ActCode",
        "code": "AMB",
        "display": "ambulatory"
      },
      "type": [ {
        "coding": [ {
          "system": "http://snomed.info/sct",
          "code": "185317003",
          "display": "Telephone encounter (procedure)"
        } ]
      } ],
      "subject": {
        "reference": "Patient/4e4f5a2a-46f4-4dce-89cd-89079b72cde5"
      },
      "period": {
        "start": "2026-01-01T01:00:00.000+00:00",
        "end": "2026-01-01T01:15:00.000+00:00"
      }
    }
  }, {
    "fullUrl": "https://madie.cms.gov/Encounter/63d5fe2f-95cb-4240-8422-eb374144cd3f",
    "resource": {
      "resourceType": "Encounter",
      "id": "63d5fe2f-95cb-4240-8422-eb374144cd3f",
      "meta": {
        "profile": [ "http://hl7.org/fhir/us/qicore/StructureDefinition/qicore-encounter" ]
      },
      "status": "finished",
      "class": {
        "system": "http://terminology.hl7.org/CodeSystem/v3-ActCode",
        "code": "AMB",
        "display": "ambulatory"
      },
      "type": [ {
        "coding": [ {
          "system": "http://snomed.info/sct",
          "code": "185317003",
          "display": "Telephone encounter (procedure)"
        } ]
      } ],
      "subject": {
        "reference": "Patient/4e4f5a2a-46f4-4dce-89cd-89079b72cde5"
      },
      "period": {
        "start": "2026-01-02T01:00:00.000+00:00",
        "end": "2026-01-02T01:15:00.000+00:00"
      }
    }
  }, {
    "fullUrl": "https://madie.cms.gov/Condition/dc5221da-30e3-48ea-b572-e13667014aa2",
    "resource": {
      "resourceType": "Condition",
      "id": "dc5221da-30e3-48ea-b572-e13667014aa2",
      "meta": {
        "profile": [ "http://hl7.org/fhir/us/qicore/StructureDefinition/qicore-condition-problems-health-concerns" ]
      },
      "clinicalStatus": {
        "coding": [ {
          "system": "http://terminology.hl7.org/CodeSystem/condition-clinical",
          "code": "active"
        } ]
      },
      "category": [ {
        "coding": [ {
          "system": "http://terminology.hl7.org/CodeSystem/condition-category",
          "code": "problem-list-item",
          "display": "Problem List Item"
        } ]
      } ],
      "code": {
        "coding": [ {
          "system": "http://snomed.info/sct",
          "version": "http://snomed.info/sct/731000124108/version/20250301",
          "code": "10091002",
          "display": "High output heart failure (disorder)"
        } ]
      },
      "subject": {
        "reference": "Patient/4e4f5a2a-46f4-4dce-89cd-89079b72cde5"
      },
      "onsetDateTime": "2025-12-31T23:59:00.000+00:00"
    }
  }, {
    "fullUrl": "https://madie.cms.gov/Observation/86c5fb6a-b2a9-4517-afd3-f1a1b057fd74",
    "resource": {
      "resourceType": "Observation",
      "id": "86c5fb6a-b2a9-4517-afd3-f1a1b057fd74",
      "meta": {
        "profile": [ "http://hl7.org/fhir/us/qicore/StructureDefinition/qicore-observation-screening-assessment" ]
      },
      "status": "final",
      "category": [ {
        "coding": [ {
          "system": "http://terminology.hl7.org/CodeSystem/observation-category",
          "code": "survey",
          "display": "survey"
        } ],
        "text": "survey"
      } ],
      "code": {
        "coding": [ {
          "system": "http://loinc.org",
          "code": "71955-9",
          "display": "PROMIS-29 Sleep disturbance score T-score"
        } ]
      },
      "subject": {
        "reference": "Patient/4e4f5a2a-46f4-4dce-89cd-89079b72cde5"
      },
      "effectivePeriod": {
        "start": "2026-01-01T23:00:00.000+00:00",
        "end": "2026-01-01T23:59:00.000+00:00"
      },
      "valueInteger": 1
    }
  }, {
    "fullUrl": "https://madie.cms.gov/Observation/9d8f89e6-0a02-41d6-832a-da3548acf496",
    "resource": {
      "resourceType": "Observation",
      "id": "9d8f89e6-0a02-41d6-832a-da3548acf496",
      "meta": {
        "profile": [ "http://hl7.org/fhir/us/qicore/StructureDefinition/qicore-observation-screening-assessment" ]
      },
      "status": "final",
      "category": [ {
        "coding": [ {
          "system": "http://terminology.hl7.org/CodeSystem/observation-category",
          "code": "survey",
          "display": "survey"
        } ],
        "text": "survey"
      } ],
      "code": {
        "coding": [ {
          "system": "http://loinc.org",
          "code": "71957-5",
          "display": "PROMIS-29 Satisfaction with participation in social roles score T-score"
        } ]
      },
      "subject": {
        "reference": "Patient/4e4f5a2a-46f4-4dce-89cd-89079b72cde5"
      },
      "effectivePeriod": {
        "start": "2026-01-01T23:00:00.000+00:00",
        "end": "2026-01-01T23:59:00.000+00:00"
      },
      "valueInteger": 2
    }
  }, {
    "fullUrl": "https://madie.cms.gov/Observation/06968d27-814c-4168-8f3e-6bf8042ea053",
    "resource": {
      "resourceType": "Observation",
      "id": "06968d27-814c-4168-8f3e-6bf8042ea053",
      "meta": {
        "profile": [ "http://hl7.org/fhir/us/qicore/StructureDefinition/qicore-observation-screening-assessment" ]
      },
      "status": "final",
      "category": [ {
        "coding": [ {
          "system": "http://terminology.hl7.org/CodeSystem/observation-category",
          "code": "survey",
          "display": "survey"
        } ],
        "text": "survey"
      } ],
      "code": {
        "coding": [ {
          "system": "http://loinc.org",
          "code": "71955-9",
          "display": "PROMIS-29 Sleep disturbance score T-score"
        } ]
      },
      "subject": {
        "reference": "Patient/4e4f5a2a-46f4-4dce-89cd-89079b72cde5"
      },
      "effectivePeriod": {
        "start": "2026-01-31T23:00:00.000+00:00",
        "end": "2026-01-31T23:59:00.000+00:00"
      },
      "valueInteger": 3
    }
  }, {
    "fullUrl": "https://madie.cms.gov/Observation/b28aa470-ec63-4d29-b575-3da5125ca404",
    "resource": {
      "resourceType": "Observation",
      "id": "b28aa470-ec63-4d29-b575-3da5125ca404",
      "meta": {
        "profile": [ "http://hl7.org/fhir/us/qicore/StructureDefinition/qicore-observation-screening-assessment" ]
      },
      "status": "final",
      "category": [ {
        "coding": [ {
          "system": "http://terminology.hl7.org/CodeSystem/observation-category",
          "code": "survey",
          "display": "survey"
        } ],
        "text": "survey"
      } ],
      "code": {
        "coding": [ {
          "system": "http://loinc.org",
          "code": "71957-5",
          "display": "PROMIS-29 Satisfaction with participation in social roles score T-score"
        } ]
      },
      "subject": {
        "reference": "Patient/4e4f5a2a-46f4-4dce-89cd-89079b72cde5"
      },
      "effectivePeriod": {
        "start": "2026-01-31T23:00:00.000+00:00",
        "end": "2026-01-31T23:59:00.000+00:00"
      },
      "valueInteger": 4
    }
  }, {
    "fullUrl": "https://madie.cms.gov/Observation/3808a050-5cdf-4793-8843-41a6d4a76b34",
    "resource": {
      "resourceType": "Observation",
      "id": "3808a050-5cdf-4793-8843-41a6d4a76b34",
      "meta": {
        "profile": [ "http://hl7.org/fhir/us/qicore/StructureDefinition/qicore-observation-screening-assessment" ]
      },
      "status": "final",
      "category": [ {
        "coding": [ {
          "system": "http://terminology.hl7.org/CodeSystem/observation-category",
          "code": "survey",
          "display": "survey"
        } ],
        "text": "survey"
      } ],
      "code": {
        "coding": [ {
          "system": "http://loinc.org",
          "code": "71959-1",
          "display": "PROMIS-29 Physical function score T-score"
        } ]
      },
      "subject": {
        "reference": "Patient/4e4f5a2a-46f4-4dce-89cd-89079b72cde5"
      },
      "effectivePeriod": {
        "start": "2026-01-01T23:00:00.000+00:00",
        "end": "2026-01-01T23:59:00.000+00:00"
      },
      "valueInteger": 4
    }
  }, {
    "fullUrl": "https://madie.cms.gov/Observation/58166715-4566-43cf-9d96-d7e5316e9f83",
    "resource": {
      "resourceType": "Observation",
      "id": "58166715-4566-43cf-9d96-d7e5316e9f83",
      "meta": {
        "profile": [ "http://hl7.org/fhir/us/qicore/StructureDefinition/qicore-observation-screening-assessment" ]
      },
      "status": "final",
      "category": [ {
        "coding": [ {
          "system": "http://terminology.hl7.org/CodeSystem/observation-category",
          "code": "survey",
          "display": "survey"
        } ],
        "text": "survey"
      } ],
      "code": {
        "coding": [ {
          "system": "http://loinc.org",
          "code": "71959-1",
          "display": "PROMIS-29 Physical function score T-score"
        } ]
      },
      "subject": {
        "reference": "Patient/4e4f5a2a-46f4-4dce-89cd-89079b72cde5"
      },
      "effectivePeriod": {
        "start": "2026-01-31T23:00:00.000+00:00",
        "end": "2026-01-31T23:59:00.000+00:00"
      },
      "valueInteger": 4
    }
  }, {
    "fullUrl": "https://madie.cms.gov/Observation/c398f45e-cd07-48bf-b560-ed6960cb7cfd",
    "resource": {
      "resourceType": "Observation",
      "id": "c398f45e-cd07-48bf-b560-ed6960cb7cfd",
      "meta": {
        "profile": [ "http://hl7.org/fhir/us/qicore/StructureDefinition/qicore-observation-screening-assessment" ]
      },
      "status": "final",
      "category": [ {
        "coding": [ {
          "system": "http://terminology.hl7.org/CodeSystem/observation-category",
          "code": "survey",
          "display": "survey"
        } ],
        "text": "survey"
      } ],
      "code": {
        "coding": [ {
          "system": "http://loinc.org",
          "code": "71961-7",
          "display": "PROMIS-29 Pain interference score T-score"
        } ]
      },
      "subject": {
        "reference": "Patient/4e4f5a2a-46f4-4dce-89cd-89079b72cde5"
      },
      "effectivePeriod": {
        "start": "2026-01-01T23:00:00.000+00:00",
        "end": "2026-01-01T23:59:00.000+00:00"
      },
      "valueInteger": 4
    }
  }, {
    "fullUrl": "https://madie.cms.gov/Observation/caaf1a6b-8c11-487b-8117-190a730660b1",
    "resource": {
      "resourceType": "Observation",
      "id": "caaf1a6b-8c11-487b-8117-190a730660b1",
      "meta": {
        "profile": [ "http://hl7.org/fhir/us/qicore/StructureDefinition/qicore-observation-screening-assessment" ]
      },
      "status": "final",
      "category": [ {
        "coding": [ {
          "system": "http://terminology.hl7.org/CodeSystem/observation-category",
          "code": "survey",
          "display": "survey"
        } ],
        "text": "survey"
      } ],
      "code": {
        "coding": [ {
          "system": "http://loinc.org",
          "code": "71961-7",
          "display": "PROMIS-29 Pain interference score T-score"
        } ]
      },
      "subject": {
        "reference": "Patient/4e4f5a2a-46f4-4dce-89cd-89079b72cde5"
      },
      "effectivePeriod": {
        "start": "2026-01-31T23:00:00.000+00:00",
        "end": "2026-01-31T23:59:00.000+00:00"
      },
      "valueInteger": 4
    }
  }, {
    "fullUrl": "https://madie.cms.gov/Observation/9ab872c4-0aae-4a41-b313-b6e69fe55750",
    "resource": {
      "resourceType": "Observation",
      "id": "9ab872c4-0aae-4a41-b313-b6e69fe55750",
      "meta": {
        "profile": [ "http://hl7.org/fhir/us/qicore/StructureDefinition/qicore-observation-screening-assessment" ]
      },
      "status": "final",
      "category": [ {
        "coding": [ {
          "system": "http://terminology.hl7.org/CodeSystem/observation-category",
          "code": "survey",
          "display": "survey"
        } ],
        "text": "survey"
      } ],
      "code": {
        "coding": [ {
          "system": "http://loinc.org",
          "code": "71963-3",
          "display": "PROMIS-29 Fatigue score T-score"
        } ]
      },
      "subject": {
        "reference": "Patient/4e4f5a2a-46f4-4dce-89cd-89079b72cde5"
      },
      "effectivePeriod": {
        "start": "2026-01-01T23:00:00.000+00:00",
        "end": "2026-01-01T23:59:00.000+00:00"
      },
      "valueInteger": 4
    }
  }, {
    "fullUrl": "https://madie.cms.gov/Observation/cde23363-ad7c-4a6c-8734-3852916c4b66",
    "resource": {
      "resourceType": "Observation",
      "id": "cde23363-ad7c-4a6c-8734-3852916c4b66",
      "meta": {
        "profile": [ "http://hl7.org/fhir/us/qicore/StructureDefinition/qicore-observation-screening-assessment" ]
      },
      "status": "final",
      "category": [ {
        "coding": [ {
          "system": "http://terminology.hl7.org/CodeSystem/observation-category",
          "code": "survey",
          "display": "survey"
        } ],
        "text": "survey"
      } ],
      "code": {
        "coding": [ {
          "system": "http://loinc.org",
          "code": "71963-3",
          "display": "PROMIS-29 Fatigue score T-score"
        } ]
      },
      "subject": {
        "reference": "Patient/4e4f5a2a-46f4-4dce-89cd-89079b72cde5"
      },
      "effectivePeriod": {
        "start": "2026-01-31T23:00:00.000+00:00",
        "end": "2026-01-31T23:59:00.000+00:00"
      },
      "valueInteger": 4
    }
  }, {
    "fullUrl": "https://madie.cms.gov/Observation/560c7309-aa22-4016-9565-debb27d8389e",
    "resource": {
      "resourceType": "Observation",
      "id": "560c7309-aa22-4016-9565-debb27d8389e",
      "meta": {
        "profile": [ "http://hl7.org/fhir/us/qicore/StructureDefinition/qicore-observation-screening-assessment" ]
      },
      "status": "final",
      "category": [ {
        "coding": [ {
          "system": "http://terminology.hl7.org/CodeSystem/observation-category",
          "code": "survey",
          "display": "survey"
        } ],
        "text": "survey"
      } ],
      "code": {
        "coding": [ {
          "system": "http://loinc.org",
          "code": "71965-8",
          "display": "PROMIS-29 Depression score T-score"
        } ]
      },
      "subject": {
        "reference": "Patient/4e4f5a2a-46f4-4dce-89cd-89079b72cde5"
      },
      "effectivePeriod": {
        "start": "2026-01-01T23:00:00.000+00:00",
        "end": "2026-01-01T23:59:00.000+00:00"
      },
      "valueInteger": 4
    }
  }, {
    "fullUrl": "https://madie.cms.gov/Observation/99631d00-b6f4-4d33-a7e8-71e3de504d05",
    "resource": {
      "resourceType": "Observation",
      "id": "99631d00-b6f4-4d33-a7e8-71e3de504d05",
      "meta": {
        "profile": [ "http://hl7.org/fhir/us/qicore/StructureDefinition/qicore-observation-screening-assessment" ]
      },
      "status": "final",
      "category": [ {
        "coding": [ {
          "system": "http://terminology.hl7.org/CodeSystem/observation-category",
          "code": "survey",
          "display": "survey"
        } ],
        "text": "survey"
      } ],
      "code": {
        "coding": [ {
          "system": "http://loinc.org",
          "code": "71965-8",
          "display": "PROMIS-29 Depression score T-score"
        } ]
      },
      "subject": {
        "reference": "Patient/4e4f5a2a-46f4-4dce-89cd-89079b72cde5"
      },
      "effectivePeriod": {
        "start": "2026-01-31T23:00:00.000+00:00",
        "end": "2026-01-31T23:59:00.000+00:00"
      },
      "valueInteger": 4
    }
  }, {
    "fullUrl": "https://madie.cms.gov/MeasureReport/a4a37146-57d1-454a-9f52-0cbd498c5072",
    "resource": {
      "resourceType": "MeasureReport",
      "id": "a4a37146-57d1-454a-9f52-0cbd498c5072",
      "meta": {
        "profile": [ "http://hl7.org/fhir/us/cqfmeasures/StructureDefinition/test-case-cqfm" ]
      },
      "contained": [ {
        "resourceType": "Parameters",
        "id": "18a443da-24b5-4b08-bd46-3800567031da-parameters",
        "parameter": [ {
          "name": "subject",
          "valueString": "4e4f5a2a-46f4-4dce-89cd-89079b72cde5"
        } ]
      } ],
      "extension": [ {
        "url": "http://hl7.org/fhir/StructureDefinition/cqf-inputParameters",
        "valueReference": {
          "reference": "#18a443da-24b5-4b08-bd46-3800567031da-parameters"
        }
      }, {
        "url": "http://hl7.org/fhir/us/cqfmeasures/StructureDefinition/cqfm-testCaseDescription",
        "valueMarkdown": "Patient has all FSA except for one PROMIS-29 Anxiety score T-score."
      } ],
      "modifierExtension": [ {
        "url": "http://hl7.org/fhir/us/cqfmeasures/StructureDefinition/cqfm-isTestCase",
        "valueBoolean": true
      } ],
      "status": "complete",
      "type": "individual",
      "measure": "https://madie.cms.gov/Measure/CMS90FHIRFSAforHeartFailure",
      "period": {
        "start": "2026-01-01",
        "end": "2026-12-31"
      },
      "group": [ {
        "id": "Group_1",
        "population": [ {
          "id": "InitialPopulation_1",
          "code": {
            "coding": [ {
              "system": "http://terminology.hl7.org/CodeSystem/measure-population",
              "code": "initial-population",
              "display": "Initial Population"
            } ]
          },
          "count": 1
        }, {
          "id": "Denominator_1",
          "code": {
            "coding": [ {
              "system": "http://terminology.hl7.org/CodeSystem/measure-population",
              "code": "denominator",
              "display": "Denominator"
            } ]
          },
          "count": 1
        }, {
          "id": "DenominatorExclusion_1",
          "code": {
            "coding": [ {
              "system": "http://terminology.hl7.org/CodeSystem/measure-population",
              "code": "denominator-exclusion",
              "display": "Denominator Exclusion"
            } ]
          },
          "count": 0
        }, {
          "id": "Numerator_1",
          "code": {
            "coding": [ {
              "system": "http://terminology.hl7.org/CodeSystem/measure-population",
              "code": "numerator",
              "display": "Numerator"
            } ]
          },
          "count": 0
        } ],
        "measureScore": {
          "value": 1.0
        }
      } ],
      "evaluatedResource": [ {
        "reference": "Patient/4e4f5a2a-46f4-4dce-89cd-89079b72cde5"
      }, {
        "reference": "Encounter/06ef7da7-12d1-4ee1-b6dc-39c62a3986fc"
      }, {
        "reference": "Encounter/63d5fe2f-95cb-4240-8422-eb374144cd3f"
      }, {
        "reference": "Condition/dc5221da-30e3-48ea-b572-e13667014aa2"
      }, {
        "reference": "Observation/86c5fb6a-b2a9-4517-afd3-f1a1b057fd74"
      }, {
        "reference": "Observation/9d8f89e6-0a02-41d6-832a-da3548acf496"
      }, {
        "reference": "Observation/06968d27-814c-4168-8f3e-6bf8042ea053"
      }, {
        "reference": "Observation/b28aa470-ec63-4d29-b575-3da5125ca404"
      }, {
        "reference": "Observation/3808a050-5cdf-4793-8843-41a6d4a76b34"
      }, {
        "reference": "Observation/58166715-4566-43cf-9d96-d7e5316e9f83"
      }, {
        "reference": "Observation/c398f45e-cd07-48bf-b560-ed6960cb7cfd"
      }, {
        "reference": "Observation/caaf1a6b-8c11-487b-8117-190a730660b1"
      }, {
        "reference": "Observation/9ab872c4-0aae-4a41-b313-b6e69fe55750"
      }, {
        "reference": "Observation/cde23363-ad7c-4a6c-8734-3852916c4b66"
      }, {
        "reference": "Observation/560c7309-aa22-4016-9565-debb27d8389e"
      }, {
        "reference": "Observation/99631d00-b6f4-4d33-a7e8-71e3de504d05"
      } ]
    }
  } ]
}