{
  "resourceType": "Bundle",
  "id": "633b3f9f0968f80122503cdb",
  "type": "transaction",
  "entry": [ {
    "fullUrl": "https://madie.cms.gov/Patient/5ef8fd93-3a42-4729-b2a7-7975aa4743d8",
    "resource": {
      "resourceType": "Patient",
      "id": "5ef8fd93-3a42-4729-b2a7-7975aa4743d8",
      "meta": {
        "profile": [ "http://hl7.org/fhir/us/qicore/StructureDefinition/qicore-patient" ]
      },
      "text": {
        "status": "generated",
        "div": "<div xmlns=\"http://www.w3.org/1999/xhtml\"><div class=\"hapiHeaderText\">HystInED12HrAftOnSameDayAsDelAndDelEncEnd<b>NUMERFail</b></div><table class=\"hapiPropertyTable\"><tbody><tr><td>Date of birth</td><td><span>01 February 2004</span></td></tr></tbody></table></div>"
      },
      "extension": [ {
        "url": "http://hl7.org/fhir/us/core/StructureDefinition/us-core-race",
        "extension": [ {
          "url": "ombCategory",
          "valueCoding": {
            "system": "urn:oid:2.16.840.1.113883.6.238",
            "code": "1002-5",
            "display": "American Indian or Alaska Native",
            "userSelected": true
          }
        }, {
          "url": "text",
          "valueString": "American Indian or Alaska Native"
        } ]
      }, {
        "url": "http://hl7.org/fhir/us/core/StructureDefinition/us-core-ethnicity",
        "extension": [ {
          "url": "ombCategory",
          "valueCoding": {
            "system": "urn:oid:2.16.840.1.113883.6.238",
            "code": "2135-2",
            "display": "Hispanic or Latino",
            "userSelected": true
          }
        }, {
          "url": "text",
          "valueString": "Hispanic or Latino"
        } ]
      } ],
      "identifier": [ {
        "type": {
          "coding": [ {
            "system": "http://terminology.hl7.org/CodeSystem/v2-0203",
            "code": "MR"
          } ]
        },
        "system": "https://bonnie-fhir.healthit.gov/",
        "value": "633b3f9f0968f80122503cdb"
      } ],
      "active": true,
      "name": [ {
        "use": "usual",
        "family": "NUMERFail",
        "given": [ "HystInED12HrAftOnSameDayAsDelAndDelEncEnd" ]
      } ],
      "gender": "female",
      "birthDate": "2005-02-01"
    },
    "request": {
      "method": "PUT",
      "url": "Patient/5ef8fd93-3a42-4729-b2a7-7975aa4743d8"
    }
  }, {
    "fullUrl": "https://madie.cms.gov/Observation/f31fd6fb-5f79-4fd0-8e4a-b2ce0bcf748d",
    "resource": {
      "resourceType": "Observation",
      "id": "f31fd6fb-5f79-4fd0-8e4a-b2ce0bcf748d",
      "meta": {
        "profile": [ "http://hl7.org/fhir/us/qicore/StructureDefinition/qicore-simple-observation" ]
      },
      "status": "final",
      "category": [ {
        "coding": [ {
          "system": "http://terminology.hl7.org/CodeSystem/observation-category",
          "code": "exam",
          "display": "exam",
          "userSelected": true
        } ]
      } ],
      "code": {
        "coding": [ {
          "system": "http://loinc.org",
          "code": "93857-1"
        } ]
      },
      "subject": {
        "reference": "Patient/5ef8fd93-3a42-4729-b2a7-7975aa4743d8"
      },
      "effectiveDateTime": "2026-02-05T08:00:00.000+00:00",
      "performer": [ {
        "reference": "Organization/example1",
        "display": "Hendricks Country Hospital"
      } ],
      "valueDateTime": "2026-02-05T08:00:00.000+00:00"
    },
    "request": {
      "method": "PUT",
      "url": "Observation/f31fd6fb-5f79-4fd0-8e4a-b2ce0bcf748d"
    }
  }, {
    "fullUrl": "https://madie.cms.gov/Observation/27011c5f-0d2e-410b-9fd1-2d7fad1e5151",
    "resource": {
      "resourceType": "Observation",
      "id": "27011c5f-0d2e-410b-9fd1-2d7fad1e5151",
      "meta": {
        "profile": [ "http://hl7.org/fhir/us/qicore/StructureDefinition/qicore-simple-observation" ]
      },
      "status": "final",
      "category": [ {
        "coding": [ {
          "system": "http://terminology.hl7.org/CodeSystem/observation-category",
          "code": "exam",
          "display": "exam",
          "userSelected": true
        } ]
      } ],
      "code": {
        "coding": [ {
          "system": "http://loinc.org",
          "code": "11884-4"
        } ]
      },
      "subject": {
        "reference": "Patient/5ef8fd93-3a42-4729-b2a7-7975aa4743d8"
      },
      "effectiveDateTime": "2026-02-05T08:00:00.000+00:00",
      "performer": [ {
        "reference": "Organization/example1",
        "display": "Hendricks Country Hospital"
      } ],
      "valueQuantity": {
        "value": 21,
        "system": "http://unitsofmeasure.org",
        "code": "wk"
      }
    },
    "request": {
      "method": "PUT",
      "url": "Observation/27011c5f-0d2e-410b-9fd1-2d7fad1e5151"
    }
  }, {
    "fullUrl": "https://madie.cms.gov/Condition/3c309be7-9453-40c6-bd0e-6072d071da12",
    "resource": {
      "resourceType": "Condition",
      "id": "3c309be7-9453-40c6-bd0e-6072d071da12",
      "meta": {
        "profile": [ "http://hl7.org/fhir/us/qicore/StructureDefinition/qicore-condition-encounter-diagnosis" ]
      },
      "category": [ {
        "coding": [ {
          "system": "http://terminology.hl7.org/CodeSystem/condition-category",
          "code": "encounter-diagnosis",
          "display": "Encounter Diagnosis"
        } ]
      } ],
      "code": {
        "coding": [ {
          "system": "http://hl7.org/fhir/sid/icd-10-cm",
          "version": "2023",
          "code": "Z3A.21",
          "display": "21 weeks gestation",
          "userSelected": true
        } ]
      },
      "subject": {
        "reference": "Patient/5ef8fd93-3a42-4729-b2a7-7975aa4743d8"
      },
      "recordedDate": "2026-10-26T08:00:00.000+00:00"
    },
    "request": {
      "method": "PUT",
      "url": "Condition/3c309be7-9453-40c6-bd0e-6072d071da12"
    }
  }, {
    "fullUrl": "https://madie.cms.gov/Encounter/b639be5d-3abd-44f7-9a14-8193177bdf41",
    "resource": {
      "resourceType": "Encounter",
      "id": "b639be5d-3abd-44f7-9a14-8193177bdf41",
      "meta": {
        "profile": [ "http://hl7.org/fhir/us/qicore/StructureDefinition/qicore-encounter" ]
      },
      "status": "finished",
      "class": {
        "system": "http://terminology.hl7.org/CodeSystem/v3-ActCode",
        "code": "IMP",
        "display": "inpatient encounter"
      },
      "type": [ {
        "coding": [ {
          "system": "http://snomed.info/sct",
          "code": "183452005"
        } ]
      } ],
      "subject": {
        "reference": "Patient/5ef8fd93-3a42-4729-b2a7-7975aa4743d8"
      },
      "period": {
        "start": "2026-02-01T08:00:00.000+00:00",
        "end": "2026-02-05T08:15:00.000+00:00"
      },
      "reasonReference": [ {
        "reference": "Condition/3c309be7-9453-40c6-bd0e-6072d071da12"
      } ]
    },
    "request": {
      "method": "PUT",
      "url": "Encounter/b639be5d-3abd-44f7-9a14-8193177bdf41"
    }
  }, {
    "fullUrl": "https://madie.cms.gov/Coverage/0951ea29-a538-4ab1-a649-32fa8296aa29",
    "resource": {
      "resourceType": "Coverage",
      "id": "0951ea29-a538-4ab1-a649-32fa8296aa29",
      "status": "active",
      "subscriberId": "523435",
      "beneficiary": {
        "reference": "Patient/5ef8fd93-3a42-4729-b2a7-7975aa4743d8"
      },
      "relationship": {
        "coding": [ {
          "system": "http://terminology.hl7.org/CodeSystem/subscriber-relationship",
          "code": "self"
        } ]
      },
      "period": {
        "start": "2005-02-01T08:00:00.000+00:00"
      },
      "payor": [ {
        "reference": "Organization/a14ff5a9-a83c-4b16-83c6-b8b6402eaca1"
      } ]
    },
    "request": {
      "method": "PUT",
      "url": "Coverage/0951ea29-a538-4ab1-a649-32fa8296aa29"
    }
  }, {
    "fullUrl": "https://madie.cms.gov/Procedure/e738b209-881d-48d2-9cbd-9b7f7d7ff125",
    "resource": {
      "resourceType": "Procedure",
      "id": "e738b209-881d-48d2-9cbd-9b7f7d7ff125",
      "meta": {
        "profile": [ "http://hl7.org/fhir/us/qicore/StructureDefinition/qicore-procedure" ]
      },
      "extension": [ {
        "url": "http://hl7.org/fhir/us/qicore/StructureDefinition/qicore-recorded",
        "valueDateTime": "2014-04-05T13:35:00.000+00:00"
      } ],
      "status": "completed",
      "code": {
        "coding": [ {
          "system": "http://snomed.info/sct",
          "code": "10745001"
        } ]
      },
      "subject": {
        "reference": "Patient/5ef8fd93-3a42-4729-b2a7-7975aa4743d8"
      },
      "performedPeriod": {
        "start": "2026-02-01T08:00:00.000+00:00",
        "end": "2026-02-01T08:15:00.000+00:00"
      }
    },
    "request": {
      "method": "PUT",
      "url": "Procedure/e738b209-881d-48d2-9cbd-9b7f7d7ff125"
    }
  }, {
    "fullUrl": "https://madie.cms.gov/Encounter/0cacedcb-e99c-4681-8e02-ced1f6a0c6af",
    "resource": {
      "resourceType": "Encounter",
      "id": "0cacedcb-e99c-4681-8e02-ced1f6a0c6af",
      "meta": {
        "profile": [ "http://hl7.org/fhir/us/qicore/StructureDefinition/qicore-encounter" ]
      },
      "status": "finished",
      "class": {
        "system": "http://terminology.hl7.org/CodeSystem/v3-ActCode",
        "code": "IMP",
        "display": "inpatient encounter"
      },
      "type": [ {
        "coding": [ {
          "system": "http://snomed.info/sct",
          "code": "183452005"
        } ]
      } ],
      "subject": {
        "reference": "Patient/5ef8fd93-3a42-4729-b2a7-7975aa4743d8"
      },
      "period": {
        "start": "2026-02-05T19:00:00.000+00:00",
        "end": "2026-02-06T08:15:00.000+00:00"
      },
      "diagnosis": [ {
        "extension": [ {
          "url": "http://hl7.org/fhir/us/qicore/StructureDefinition/qicore-encounter-diagnosisPresentOnAdmission",
          "valueCodeableConcept": {
            "coding": [ {
              "system": "https://www.cms.gov/Medicare/Medicare-Fee-for-Service-Payment/HospitalAcqCond/Coding",
              "code": "N"
            } ]
          }
        } ],
        "condition": {
          "reference": "Condition/severe-maternal-morbidity-diagnoses-adc2"
        }
      } ]
    },
    "request": {
      "method": "PUT",
      "url": "Encounter/0cacedcb-e99c-4681-8e02-ced1f6a0c6af"
    }
  }, {
    "fullUrl": "https://madie.cms.gov/Procedure/357aa5e4-42c6-49f8-b739-82745b6028aa",
    "resource": {
      "resourceType": "Procedure",
      "id": "357aa5e4-42c6-49f8-b739-82745b6028aa",
      "meta": {
        "profile": [ "http://hl7.org/fhir/us/qicore/StructureDefinition/qicore-procedure" ]
      },
      "extension": [ {
        "url": "http://hl7.org/fhir/us/qicore/StructureDefinition/qicore-recorded",
        "valueDateTime": "2026-02-06T00:00:00.000+00:00"
      } ],
      "status": "completed",
      "code": {
        "coding": [ {
          "system": "http://snomed.info/sct",
          "code": "11050006"
        } ]
      },
      "subject": {
        "reference": "Patient/5ef8fd93-3a42-4729-b2a7-7975aa4743d8"
      },
      "performedPeriod": {
        "start": "2026-02-05T20:00:00.000+00:00",
        "end": "2026-02-05T21:00:00.000+00:00"
      }
    },
    "request": {
      "method": "PUT",
      "url": "Procedure/357aa5e4-42c6-49f8-b739-82745b6028aa"
    }
  }, {
    "fullUrl": "https://madie.cms.gov/Organization/a14ff5a9-a83c-4b16-83c6-b8b6402eaca1",
    "resource": {
      "resourceType": "Organization",
      "id": "a14ff5a9-a83c-4b16-83c6-b8b6402eaca1",
      "meta": {
        "profile": [ "http://hl7.org/fhir/us/qicore/StructureDefinition/qicore-organization" ]
      },
      "identifier": [ {
        "use": "temp",
        "system": "urn:oid:2.16.840.1.113883.4.4",
        "value": "21-3259825"
      } ],
      "active": true,
      "type": [ {
        "coding": [ {
          "system": "http://terminology.hl7.org/CodeSystem/organization-type",
          "code": "pay",
          "display": "Payer"
        } ]
      } ],
      "name": "Blue Cross Blue Shield of Texas",
      "telecom": [ {
        "system": "phone",
        "value": "(+1) 972-766-6900"
      } ],
      "address": [ {
        "use": "billing",
        "type": "postal",
        "line": [ "P.O. Box 660044" ],
        "city": "Dallas",
        "state": "TX",
        "postalCode": "75266-0044",
        "country": "USA"
      } ]
    },
    "request": {
      "method": "PUT",
      "url": "Organization/a14ff5a9-a83c-4b16-83c6-b8b6402eaca1"
    }
  }, {
    "fullUrl": "https://madie.cms.gov/Practitioner/6b60405c-a99d-4638-8533-b8078117f164",
    "resource": {
      "resourceType": "Practitioner",
      "id": "6b60405c-a99d-4638-8533-b8078117f164",
      "meta": {
        "profile": [ "http://hl7.org/fhir/us/qicore/StructureDefinition/qicore-practitioner" ]
      },
      "identifier": [ {
        "system": "http://hl7.org/fhir/sid/us-npi",
        "value": "9999999896"
      } ],
      "name": [ {
        "family": "Evil",
        "prefix": [ "Dr" ]
      } ]
    },
    "request": {
      "method": "PUT",
      "url": "Practitioner/6b60405c-a99d-4638-8533-b8078117f164"
    }
  }, {
    "fullUrl": "https://madie.cms.gov/MeasureReport/a274fbaa-287f-48ed-8bc6-570ab1271eeb",
    "resource": {
      "resourceType": "MeasureReport",
      "id": "a274fbaa-287f-48ed-8bc6-570ab1271eeb",
      "meta": {
        "profile": [ "http://hl7.org/fhir/us/cqfmeasures/StructureDefinition/test-case-cqfm" ]
      },
      "contained": [ {
        "resourceType": "Parameters",
        "id": "50934e11-8022-4463-b90d-754f8beacc30-parameters",
        "parameter": [ {
          "name": "subject",
          "valueString": "5ef8fd93-3a42-4729-b2a7-7975aa4743d8"
        } ]
      } ],
      "extension": [ {
        "url": "http://hl7.org/fhir/StructureDefinition/cqf-inputParameters",
        "valueReference": {
          "reference": "#50934e11-8022-4463-b90d-754f8beacc30-parameters"
        }
      }, {
        "url": "http://hl7.org/fhir/us/cqfmeasures/StructureDefinition/cqfm-testCaseDescription",
        "valueMarkdown": "Hysterectomy in ED 12 hours after, on same day as delivery encounter ends"
      } ],
      "modifierExtension": [ {
        "url": "http://hl7.org/fhir/us/cqfmeasures/StructureDefinition/cqfm-isTestCase",
        "valueBoolean": true
      } ],
      "status": "complete",
      "type": "individual",
      "measure": "https://madie.cms.gov/Measure/CMS1028FHIRPCSevereOBComps",
      "period": {
        "start": "2026-01-01",
        "end": "2026-12-31"
      },
      "group": [ {
        "id": "Group_1",
        "population": [ {
          "id": "InitialPopulation_1",
          "code": {
            "coding": [ {
              "system": "http://terminology.hl7.org/CodeSystem/measure-population",
              "code": "initial-population",
              "display": "Initial Population"
            } ]
          },
          "count": 1
        }, {
          "id": "Denominator_1",
          "code": {
            "coding": [ {
              "system": "http://terminology.hl7.org/CodeSystem/measure-population",
              "code": "denominator",
              "display": "Denominator"
            } ]
          },
          "count": 1
        }, {
          "id": "Numerator_1",
          "code": {
            "coding": [ {
              "system": "http://terminology.hl7.org/CodeSystem/measure-population",
              "code": "numerator",
              "display": "Numerator"
            } ]
          },
          "count": 0
        }, {
          "id": "NumeratorExclusion_1",
          "code": {
            "coding": [ {
              "system": "http://terminology.hl7.org/CodeSystem/measure-population",
              "code": "numerator-exclusion",
              "display": "Numerator Exclusion"
            } ]
          },
          "count": 0
        } ],
        "measureScore": {
          "value": 0.0
        }
      }, {
        "id": "Group_2",
        "population": [ {
          "id": "InitialPopulation_2",
          "code": {
            "coding": [ {
              "system": "http://terminology.hl7.org/CodeSystem/measure-population",
              "code": "initial-population",
              "display": "Initial Population"
            } ]
          },
          "count": 1
        }, {
          "id": "Denominator_2",
          "code": {
            "coding": [ {
              "system": "http://terminology.hl7.org/CodeSystem/measure-population",
              "code": "denominator",
              "display": "Denominator"
            } ]
          },
          "count": 1
        }, {
          "id": "Numerator_2",
          "code": {
            "coding": [ {
              "system": "http://terminology.hl7.org/CodeSystem/measure-population",
              "code": "numerator",
              "display": "Numerator"
            } ]
          },
          "count": 0
        }, {
          "id": "NumeratorExclusion_2",
          "code": {
            "coding": [ {
              "system": "http://terminology.hl7.org/CodeSystem/measure-population",
              "code": "numerator-exclusion",
              "display": "Numerator Exclusion"
            } ]
          },
          "count": 0
        } ],
        "measureScore": {
          "value": 0.0
        }
      } ],
      "evaluatedResource": [ {
        "reference": "Patient/5ef8fd93-3a42-4729-b2a7-7975aa4743d8"
      }, {
        "reference": "Observation/f31fd6fb-5f79-4fd0-8e4a-b2ce0bcf748d"
      }, {
        "reference": "Observation/27011c5f-0d2e-410b-9fd1-2d7fad1e5151"
      }, {
        "reference": "Condition/3c309be7-9453-40c6-bd0e-6072d071da12"
      }, {
        "reference": "Encounter/b639be5d-3abd-44f7-9a14-8193177bdf41"
      }, {
        "reference": "Coverage/0951ea29-a538-4ab1-a649-32fa8296aa29"
      }, {
        "reference": "Procedure/e738b209-881d-48d2-9cbd-9b7f7d7ff125"
      }, {
        "reference": "Encounter/0cacedcb-e99c-4681-8e02-ced1f6a0c6af"
      }, {
        "reference": "Procedure/357aa5e4-42c6-49f8-b739-82745b6028aa"
      }, {
        "reference": "Organization/a14ff5a9-a83c-4b16-83c6-b8b6402eaca1"
      }, {
        "reference": "Practitioner/6b60405c-a99d-4638-8533-b8078117f164"
      } ]
    },
    "request": {
      "method": "PUT",
      "url": "MeasureReport/a274fbaa-287f-48ed-8bc6-570ab1271eeb"
    }
  } ]
}