{
  "resourceType": "Bundle",
  "id": "NUMPass-InitHOOS90DaysB4THAFUHOOS425DaysAfterTHA",
  "type": "collection",
  "entry": [ {
    "fullUrl": "https://madie.cms.gov/Patient/8efd6c8c-cefb-4a85-828d-ed59d8a9e8f2",
    "resource": {
      "resourceType": "Patient",
      "id": "8efd6c8c-cefb-4a85-828d-ed59d8a9e8f2",
      "meta": {
        "profile": [ "http://hl7.org/fhir/us/qicore/StructureDefinition/qicore-patient" ]
      },
      "extension": [ {
        "url": "http://hl7.org/fhir/us/core/StructureDefinition/us-core-race",
        "extension": [ {
          "url": "ombCategory",
          "valueCoding": {
            "system": "urn:oid:2.16.840.1.113883.6.238",
            "code": "2028-9",
            "display": "Asian"
          }
        }, {
          "url": "text",
          "valueString": "Asian"
        } ]
      }, {
        "url": "http://hl7.org/fhir/us/core/StructureDefinition/us-core-ethnicity",
        "extension": [ {
          "url": "ombCategory",
          "valueCoding": {
            "system": "urn:oid:2.16.840.1.113883.6.238",
            "code": "2135-2",
            "display": "Hispanic or Latino"
          }
        }, {
          "url": "text",
          "valueString": "Hispanic or Latino"
        } ]
      } ],
      "identifier": [ {
        "system": "http://hospital.smarthealthit.org",
        "value": "999999995"
      } ],
      "name": [ {
        "family": "Bertha",
        "given": [ "Betty" ]
      } ],
      "gender": "female",
      "birthDate": "2007-01-01"
    }
  }, {
    "fullUrl": "https://madie.cms.gov/Procedure/370b2bbf-aaa0-4cdc-b2ff-525824b85241",
    "resource": {
      "resourceType": "Procedure",
      "id": "370b2bbf-aaa0-4cdc-b2ff-525824b85241",
      "meta": {
        "profile": [ "http://hl7.org/fhir/us/qicore/StructureDefinition/qicore-procedure" ]
      },
      "extension": [ {
        "url": "http://hl7.org/fhir/us/qicore/StructureDefinition/qicore-recorded",
        "valueDateTime": "2024-11-01T00:00:00.000+00:00"
      } ],
      "status": "completed",
      "code": {
        "coding": [ {
          "system": "http://www.cms.gov/Medicare/Coding/ICD10",
          "code": "0SR9019",
          "display": "Replacement of Right Hip Joint with Metal Synthetic Substitute, Cemented, Open Approach"
        } ]
      },
      "subject": {
        "reference": "Patient/8efd6c8c-cefb-4a85-828d-ed59d8a9e8f2"
      },
      "performedPeriod": {
        "start": "2024-11-01T00:00:00.000+00:00",
        "end": "2024-11-01T01:00:00.000+00:00"
      }
    }
  }, {
    "fullUrl": "https://madie.cms.gov/Encounter/119d9764-adcc-4326-9531-05d7d0b80013",
    "resource": {
      "resourceType": "Encounter",
      "id": "119d9764-adcc-4326-9531-05d7d0b80013",
      "meta": {
        "profile": [ "http://hl7.org/fhir/us/qicore/StructureDefinition/qicore-encounter" ]
      },
      "status": "finished",
      "class": {
        "system": "http://terminology.hl7.org/CodeSystem/v3-ActCode",
        "code": "AMB",
        "display": "ambulatory"
      },
      "type": [ {
        "coding": [ {
          "system": "http://snomed.info/sct",
          "version": "http://snomed.info/sct/731000124108/version/20250301",
          "code": "281036007",
          "display": "Follow-up consultation (procedure)"
        } ]
      } ],
      "subject": {
        "reference": "Patient/8efd6c8c-cefb-4a85-828d-ed59d8a9e8f2"
      },
      "period": {
        "start": "2025-11-01T00:00:00.000+00:00",
        "end": "2025-11-01T01:15:00.000+00:00"
      }
    }
  }, {
    "fullUrl": "https://madie.cms.gov/Observation/2d158774-7ff1-4062-a132-277936da6cc0",
    "resource": {
      "resourceType": "Observation",
      "id": "2d158774-7ff1-4062-a132-277936da6cc0",
      "meta": {
        "profile": [ "http://hl7.org/fhir/us/qicore/StructureDefinition/qicore-observation-screening-assessment" ]
      },
      "status": "final",
      "category": [ {
        "coding": [ {
          "system": "http://terminology.hl7.org/CodeSystem/observation-category",
          "code": "survey"
        } ]
      } ],
      "code": {
        "coding": [ {
          "system": "http://loinc.org",
          "code": "72093-8",
          "display": "Quality of life score [HOOS]"
        } ]
      },
      "subject": {
        "reference": "Patient/8efd6c8c-cefb-4a85-828d-ed59d8a9e8f2"
      },
      "effectivePeriod": {
        "start": "2024-08-03T00:00:00.000+00:00",
        "end": "2024-08-03T01:00:00.000+00:00"
      },
      "valueInteger": 60
    }
  }, {
    "fullUrl": "https://madie.cms.gov/Observation/432a85da-85a8-4425-82f5-2ee94a821a3c",
    "resource": {
      "resourceType": "Observation",
      "id": "432a85da-85a8-4425-82f5-2ee94a821a3c",
      "meta": {
        "profile": [ "http://hl7.org/fhir/us/qicore/StructureDefinition/qicore-observation-screening-assessment" ]
      },
      "status": "final",
      "category": [ {
        "coding": [ {
          "system": "http://terminology.hl7.org/CodeSystem/observation-category",
          "code": "survey"
        } ]
      } ],
      "code": {
        "coding": [ {
          "system": "http://loinc.org",
          "code": "72094-6",
          "display": "Sport-recreation score [HOOS]"
        } ]
      },
      "subject": {
        "reference": "Patient/8efd6c8c-cefb-4a85-828d-ed59d8a9e8f2"
      },
      "effectivePeriod": {
        "start": "2024-08-03T00:00:00.000+00:00",
        "end": "2024-08-03T01:00:00.000+00:00"
      },
      "valueInteger": 60
    }
  }, {
    "fullUrl": "https://madie.cms.gov/Observation/1c50627d-3812-43ee-8d52-66d6c1a2e9c2",
    "resource": {
      "resourceType": "Observation",
      "id": "1c50627d-3812-43ee-8d52-66d6c1a2e9c2",
      "meta": {
        "profile": [ "http://hl7.org/fhir/us/qicore/StructureDefinition/qicore-observation-screening-assessment" ]
      },
      "status": "final",
      "category": [ {
        "coding": [ {
          "system": "http://terminology.hl7.org/CodeSystem/observation-category",
          "code": "survey"
        } ]
      } ],
      "code": {
        "coding": [ {
          "system": "http://loinc.org",
          "code": "72095-3",
          "display": "Activities of daily living score [HOOS]"
        } ]
      },
      "subject": {
        "reference": "Patient/8efd6c8c-cefb-4a85-828d-ed59d8a9e8f2"
      },
      "effectivePeriod": {
        "start": "2024-08-03T00:00:00.000+00:00",
        "end": "2024-08-03T01:00:00.000+00:00"
      },
      "valueInteger": 60
    }
  }, {
    "fullUrl": "https://madie.cms.gov/Observation/259188f6-d954-4a53-9fce-f85e4b38d76f",
    "resource": {
      "resourceType": "Observation",
      "id": "259188f6-d954-4a53-9fce-f85e4b38d76f",
      "meta": {
        "profile": [ "http://hl7.org/fhir/us/qicore/StructureDefinition/qicore-observation-screening-assessment" ]
      },
      "status": "final",
      "category": [ {
        "coding": [ {
          "system": "http://terminology.hl7.org/CodeSystem/observation-category",
          "code": "survey"
        } ]
      } ],
      "code": {
        "coding": [ {
          "system": "http://loinc.org",
          "code": "72096-1",
          "display": "Symptoms score [HOOS]"
        } ]
      },
      "subject": {
        "reference": "Patient/8efd6c8c-cefb-4a85-828d-ed59d8a9e8f2"
      },
      "effectivePeriod": {
        "start": "2024-08-03T00:00:00.000+00:00",
        "end": "2024-08-03T01:00:00.000+00:00"
      },
      "valueInteger": 60
    }
  }, {
    "fullUrl": "https://madie.cms.gov/Observation/63270388-9851-4450-a10f-bde34c882680",
    "resource": {
      "resourceType": "Observation",
      "id": "63270388-9851-4450-a10f-bde34c882680",
      "meta": {
        "profile": [ "http://hl7.org/fhir/us/qicore/StructureDefinition/qicore-observation-screening-assessment" ]
      },
      "status": "final",
      "category": [ {
        "coding": [ {
          "system": "http://terminology.hl7.org/CodeSystem/observation-category",
          "code": "survey"
        } ]
      } ],
      "code": {
        "coding": [ {
          "system": "http://loinc.org",
          "code": "72097-9",
          "display": "Pain score [HOOS]"
        } ]
      },
      "subject": {
        "reference": "Patient/8efd6c8c-cefb-4a85-828d-ed59d8a9e8f2"
      },
      "effectivePeriod": {
        "start": "2024-08-03T00:00:00.000+00:00",
        "end": "2024-08-03T01:00:00.000+00:00"
      },
      "valueInteger": 60
    }
  }, {
    "fullUrl": "https://madie.cms.gov/Observation/e8233e05-855c-4c56-971a-a06970a16e08",
    "resource": {
      "resourceType": "Observation",
      "id": "e8233e05-855c-4c56-971a-a06970a16e08",
      "meta": {
        "profile": [ "http://hl7.org/fhir/us/qicore/StructureDefinition/qicore-observation-screening-assessment" ]
      },
      "status": "final",
      "category": [ {
        "coding": [ {
          "system": "http://terminology.hl7.org/CodeSystem/observation-category",
          "code": "survey"
        } ]
      } ],
      "code": {
        "coding": [ {
          "system": "http://loinc.org",
          "code": "72093-8",
          "display": "Quality of life score [HOOS]"
        } ]
      },
      "subject": {
        "reference": "Patient/8efd6c8c-cefb-4a85-828d-ed59d8a9e8f2"
      },
      "effectivePeriod": {
        "start": "2025-12-30T00:00:00.000+00:00",
        "end": "2025-12-30T01:00:00.000+00:00"
      },
      "valueInteger": 60
    }
  }, {
    "fullUrl": "https://madie.cms.gov/Observation/48d4aa1c-013a-4db3-999d-ff0310186cf1",
    "resource": {
      "resourceType": "Observation",
      "id": "48d4aa1c-013a-4db3-999d-ff0310186cf1",
      "meta": {
        "profile": [ "http://hl7.org/fhir/us/qicore/StructureDefinition/qicore-observation-screening-assessment" ]
      },
      "status": "final",
      "category": [ {
        "coding": [ {
          "system": "http://terminology.hl7.org/CodeSystem/observation-category",
          "code": "survey"
        } ]
      } ],
      "code": {
        "coding": [ {
          "system": "http://loinc.org",
          "code": "72094-6",
          "display": "Sport-recreation score [HOOS]"
        } ]
      },
      "subject": {
        "reference": "Patient/8efd6c8c-cefb-4a85-828d-ed59d8a9e8f2"
      },
      "effectivePeriod": {
        "start": "2025-12-30T00:00:00.000+00:00",
        "end": "2025-12-30T01:00:00.000+00:00"
      },
      "valueInteger": 60
    }
  }, {
    "fullUrl": "https://madie.cms.gov/Observation/19feffb5-bad2-467a-b468-6e6b6f6603ee",
    "resource": {
      "resourceType": "Observation",
      "id": "19feffb5-bad2-467a-b468-6e6b6f6603ee",
      "meta": {
        "profile": [ "http://hl7.org/fhir/us/qicore/StructureDefinition/qicore-observation-screening-assessment" ]
      },
      "status": "final",
      "category": [ {
        "coding": [ {
          "system": "http://terminology.hl7.org/CodeSystem/observation-category",
          "code": "survey"
        } ]
      } ],
      "code": {
        "coding": [ {
          "system": "http://loinc.org",
          "code": "72095-3",
          "display": "Activities of daily living score [HOOS]"
        } ]
      },
      "subject": {
        "reference": "Patient/8efd6c8c-cefb-4a85-828d-ed59d8a9e8f2"
      },
      "effectivePeriod": {
        "start": "2025-12-30T00:00:00.000+00:00",
        "end": "2025-12-30T01:00:00.000+00:00"
      },
      "valueInteger": 60
    }
  }, {
    "fullUrl": "https://madie.cms.gov/Observation/c3462228-ac0a-4f61-b3ee-5b759b9a9477",
    "resource": {
      "resourceType": "Observation",
      "id": "c3462228-ac0a-4f61-b3ee-5b759b9a9477",
      "meta": {
        "profile": [ "http://hl7.org/fhir/us/qicore/StructureDefinition/qicore-observation-screening-assessment" ]
      },
      "status": "final",
      "category": [ {
        "coding": [ {
          "system": "http://terminology.hl7.org/CodeSystem/observation-category",
          "code": "survey"
        } ]
      } ],
      "code": {
        "coding": [ {
          "system": "http://loinc.org",
          "code": "72096-1",
          "display": "Symptoms score [HOOS]"
        } ]
      },
      "subject": {
        "reference": "Patient/8efd6c8c-cefb-4a85-828d-ed59d8a9e8f2"
      },
      "effectivePeriod": {
        "start": "2025-12-30T00:00:00.000+00:00",
        "end": "2025-12-30T01:00:00.000+00:00"
      },
      "valueInteger": 60
    }
  }, {
    "fullUrl": "https://madie.cms.gov/Observation/48ef4de1-053a-4bb5-8694-6af28c5ab446",
    "resource": {
      "resourceType": "Observation",
      "id": "48ef4de1-053a-4bb5-8694-6af28c5ab446",
      "meta": {
        "profile": [ "http://hl7.org/fhir/us/qicore/StructureDefinition/qicore-observation-screening-assessment" ]
      },
      "status": "final",
      "category": [ {
        "coding": [ {
          "system": "http://terminology.hl7.org/CodeSystem/observation-category",
          "code": "survey"
        } ]
      } ],
      "code": {
        "coding": [ {
          "system": "http://loinc.org",
          "code": "72097-9",
          "display": "Pain score [HOOS]"
        } ]
      },
      "subject": {
        "reference": "Patient/8efd6c8c-cefb-4a85-828d-ed59d8a9e8f2"
      },
      "effectivePeriod": {
        "start": "2025-12-30T00:00:00.000+00:00",
        "end": "2025-12-30T01:00:00.000+00:00"
      },
      "valueInteger": 60
    }
  }, {
    "fullUrl": "https://madie.cms.gov/MeasureReport/8f065fdb-20dc-4ae3-bcb6-0307976dc0cb",
    "resource": {
      "resourceType": "MeasureReport",
      "id": "8f065fdb-20dc-4ae3-bcb6-0307976dc0cb",
      "meta": {
        "profile": [ "http://hl7.org/fhir/us/cqfmeasures/StructureDefinition/test-case-cqfm" ]
      },
      "contained": [ {
        "resourceType": "Parameters",
        "id": "894f17f7-eadf-4fc6-9f20-9a6547c50152-parameters",
        "parameter": [ {
          "name": "subject",
          "valueString": "8efd6c8c-cefb-4a85-828d-ed59d8a9e8f2"
        } ]
      } ],
      "extension": [ {
        "url": "http://hl7.org/fhir/StructureDefinition/cqf-inputParameters",
        "valueReference": {
          "reference": "#894f17f7-eadf-4fc6-9f20-9a6547c50152-parameters"
        }
      }, {
        "url": "http://hl7.org/fhir/us/cqfmeasures/StructureDefinition/cqfm-testCaseDescription",
        "valueMarkdown": "Patient w/ a THA Procedure 11/1, Initial Hip Assessment 90 days before THA Procedure(8/3), and FollowUp Hip Assessment HOOS 425 days after THA Procedure (12/30)"
      } ],
      "modifierExtension": [ {
        "url": "http://hl7.org/fhir/us/cqfmeasures/StructureDefinition/cqfm-isTestCase",
        "valueBoolean": true
      } ],
      "status": "complete",
      "type": "individual",
      "measure": "https://madie.cms.gov/Measure/CMS56FHIRFuncStatHipReplacement",
      "period": {
        "start": "2026-01-01",
        "end": "2026-12-31"
      },
      "group": [ {
        "id": "Group_1",
        "population": [ {
          "id": "InitialPopulation_1",
          "code": {
            "coding": [ {
              "system": "http://terminology.hl7.org/CodeSystem/measure-population",
              "code": "initial-population",
              "display": "Initial Population"
            } ]
          },
          "count": 1
        }, {
          "id": "Denominator_1",
          "code": {
            "coding": [ {
              "system": "http://terminology.hl7.org/CodeSystem/measure-population",
              "code": "denominator",
              "display": "Denominator"
            } ]
          },
          "count": 1
        }, {
          "id": "DenominatorExclusion_1",
          "code": {
            "coding": [ {
              "system": "http://terminology.hl7.org/CodeSystem/measure-population",
              "code": "denominator-exclusion",
              "display": "Denominator Exclusion"
            } ]
          },
          "count": 0
        }, {
          "id": "Numerator_1",
          "code": {
            "coding": [ {
              "system": "http://terminology.hl7.org/CodeSystem/measure-population",
              "code": "numerator",
              "display": "Numerator"
            } ]
          },
          "count": 1
        } ],
        "measureScore": {
          "value": 1.0
        }
      } ],
      "evaluatedResource": [ {
        "reference": "Patient/8efd6c8c-cefb-4a85-828d-ed59d8a9e8f2"
      }, {
        "reference": "Procedure/370b2bbf-aaa0-4cdc-b2ff-525824b85241"
      }, {
        "reference": "Encounter/119d9764-adcc-4326-9531-05d7d0b80013"
      }, {
        "reference": "Observation/2d158774-7ff1-4062-a132-277936da6cc0"
      }, {
        "reference": "Observation/432a85da-85a8-4425-82f5-2ee94a821a3c"
      }, {
        "reference": "Observation/1c50627d-3812-43ee-8d52-66d6c1a2e9c2"
      }, {
        "reference": "Observation/259188f6-d954-4a53-9fce-f85e4b38d76f"
      }, {
        "reference": "Observation/63270388-9851-4450-a10f-bde34c882680"
      }, {
        "reference": "Observation/e8233e05-855c-4c56-971a-a06970a16e08"
      }, {
        "reference": "Observation/48d4aa1c-013a-4db3-999d-ff0310186cf1"
      }, {
        "reference": "Observation/19feffb5-bad2-467a-b468-6e6b6f6603ee"
      }, {
        "reference": "Observation/c3462228-ac0a-4f61-b3ee-5b759b9a9477"
      }, {
        "reference": "Observation/48ef4de1-053a-4bb5-8694-6af28c5ab446"
      } ]
    }
  } ]
}