{
  "resourceType": "Bundle",
  "id": "63487c300968f801225401cb",
  "type": "transaction",
  "entry": [ {
    "fullUrl": "https://madie.cms.gov/Patient/6b0bd714-e832-4b86-85ba-7a860e8cc4f0",
    "resource": {
      "resourceType": "Patient",
      "id": "6b0bd714-e832-4b86-85ba-7a860e8cc4f0",
      "meta": {
        "profile": [ "http://hl7.org/fhir/us/qicore/StructureDefinition/qicore-patient" ]
      },
      "text": {
        "status": "generated",
        "div": "<div xmlns=\"http://www.w3.org/1999/xhtml\"><div class=\"hapiHeaderText\">AssessGResultIsNull<b>DENOMFail</b></div><table class=\"hapiPropertyTable\"><tbody><tr><td>Identifier</td><td>1708e167118eb3c6ba503e3f4dd6b33e8139c84285201cfc9988c13f48ee7f27</td></tr><tr><td>Date of birth</td><td><span>14 February 1985</span></td></tr></tbody></table></div>"
      },
      "extension": [ {
        "url": "http://hl7.org/fhir/us/core/StructureDefinition/us-core-race",
        "extension": [ {
          "url": "ombCategory",
          "valueCoding": {
            "system": "urn:oid:2.16.840.1.113883.6.238",
            "code": "1002-5",
            "display": "American Indian or Alaska Native",
            "userSelected": true
          }
        }, {
          "url": "text",
          "valueString": "American Indian or Alaska Native"
        } ]
      }, {
        "url": "http://hl7.org/fhir/us/core/StructureDefinition/us-core-ethnicity",
        "extension": [ {
          "url": "ombCategory",
          "valueCoding": {
            "system": "urn:oid:2.16.840.1.113883.6.238",
            "code": "2135-2",
            "display": "Hispanic or Latino",
            "userSelected": true
          }
        }, {
          "url": "text",
          "valueString": "Hispanic or Latino"
        } ]
      } ],
      "identifier": [ {
        "type": {
          "coding": [ {
            "system": "http://terminology.hl7.org/CodeSystem/v2-0203",
            "code": "MR"
          } ]
        },
        "system": "https://bonnie-fhir.healthit.gov/",
        "value": "63487c300968f801225401cb"
      } ],
      "active": true,
      "name": [ {
        "use": "usual",
        "family": "DENOMFail",
        "given": [ "AssessGResultIsNull" ]
      } ],
      "gender": "female",
      "birthDate": "1998-02-14"
    },
    "request": {
      "method": "PUT",
      "url": "Patient/6b0bd714-e832-4b86-85ba-7a860e8cc4f0"
    }
  }, {
    "fullUrl": "https://madie.cms.gov/Observation/9f6a73d7-dd59-47d7-b497-753df54e33a2",
    "resource": {
      "resourceType": "Observation",
      "id": "9f6a73d7-dd59-47d7-b497-753df54e33a2",
      "meta": {
        "profile": [ "http://hl7.org/fhir/us/qicore/StructureDefinition/qicore-simple-observation" ]
      },
      "status": "final",
      "category": [ {
        "coding": [ {
          "system": "http://terminology.hl7.org/CodeSystem/observation-category",
          "code": "exam",
          "display": "exam",
          "userSelected": true
        } ]
      } ],
      "code": {
        "coding": [ {
          "system": "http://loinc.org",
          "code": "11884-4"
        } ]
      },
      "subject": {
        "reference": "Patient/6b0bd714-e832-4b86-85ba-7a860e8cc4f0"
      },
      "effectiveDateTime": "2026-06-08T09:15:00.000+00:00",
      "valueQuantity": {
        "value": 38,
        "system": "http://unitsofmeasure.org",
        "code": "wk"
      }
    },
    "request": {
      "method": "PUT",
      "url": "Observation/9f6a73d7-dd59-47d7-b497-753df54e33a2"
    }
  }, {
    "fullUrl": "https://madie.cms.gov/Observation/e0d9b41a-57fb-4a02-a1bc-5a3300df6f14",
    "resource": {
      "resourceType": "Observation",
      "id": "e0d9b41a-57fb-4a02-a1bc-5a3300df6f14",
      "meta": {
        "profile": [ "http://hl7.org/fhir/us/qicore/StructureDefinition/qicore-simple-observation" ]
      },
      "status": "final",
      "category": [ {
        "coding": [ {
          "system": "http://terminology.hl7.org/CodeSystem/observation-category",
          "code": "exam",
          "display": "exam",
          "userSelected": true
        } ]
      } ],
      "code": {
        "coding": [ {
          "system": "http://loinc.org",
          "code": "11996-6"
        } ]
      },
      "subject": {
        "reference": "Patient/6b0bd714-e832-4b86-85ba-7a860e8cc4f0"
      },
      "effectiveDateTime": "2026-06-08T19:00:00.000+00:00"
    },
    "request": {
      "method": "PUT",
      "url": "Observation/e0d9b41a-57fb-4a02-a1bc-5a3300df6f14"
    }
  }, {
    "fullUrl": "https://madie.cms.gov/Observation/5e28db22-9032-4903-be7f-60f0b2c38cac",
    "resource": {
      "resourceType": "Observation",
      "id": "5e28db22-9032-4903-be7f-60f0b2c38cac",
      "meta": {
        "profile": [ "http://hl7.org/fhir/us/qicore/StructureDefinition/qicore-simple-observation" ]
      },
      "status": "final",
      "category": [ {
        "coding": [ {
          "system": "http://terminology.hl7.org/CodeSystem/observation-category",
          "code": "exam",
          "display": "exam",
          "userSelected": true
        } ]
      } ],
      "code": {
        "coding": [ {
          "system": "http://loinc.org",
          "code": "93857-1"
        } ]
      },
      "subject": {
        "reference": "Patient/6b0bd714-e832-4b86-85ba-7a860e8cc4f0"
      },
      "effectiveDateTime": "2026-06-08T20:00:00.000+00:00",
      "valueDateTime": "2026-06-08T20:00:00.000+00:00"
    },
    "request": {
      "method": "PUT",
      "url": "Observation/5e28db22-9032-4903-be7f-60f0b2c38cac"
    }
  }, {
    "fullUrl": "https://madie.cms.gov/Encounter/8aa7c5c4-99d7-49bd-a039-f94da4e5d19a",
    "resource": {
      "resourceType": "Encounter",
      "id": "8aa7c5c4-99d7-49bd-a039-f94da4e5d19a",
      "meta": {
        "profile": [ "http://hl7.org/fhir/us/qicore/StructureDefinition/qicore-encounter" ]
      },
      "status": "finished",
      "class": {
        "system": "http://terminology.hl7.org/CodeSystem/v3-ActCode",
        "code": "IMP",
        "display": "inpatient encounter"
      },
      "type": [ {
        "coding": [ {
          "system": "http://snomed.info/sct",
          "code": "183452005"
        } ]
      } ],
      "subject": {
        "reference": "Patient/6b0bd714-e832-4b86-85ba-7a860e8cc4f0"
      },
      "period": {
        "start": "2026-06-08T08:00:00.000+00:00",
        "end": "2026-06-10T08:15:00.000+00:00"
      },
      "length": {
        "value": 2,
        "unit": "days"
      },
      "reasonReference": [ {
        "reference": "Condition/c5cf9414-e69e-42d0-988b-745d93073a88"
      } ]
    },
    "request": {
      "method": "PUT",
      "url": "Encounter/8aa7c5c4-99d7-49bd-a039-f94da4e5d19a"
    }
  }, {
    "fullUrl": "https://madie.cms.gov/Procedure/0c445fcc-5147-4dc1-9843-8d951e4f6a16",
    "resource": {
      "resourceType": "Procedure",
      "id": "0c445fcc-5147-4dc1-9843-8d951e4f6a16",
      "meta": {
        "profile": [ "http://hl7.org/fhir/us/qicore/StructureDefinition/qicore-procedure" ]
      },
      "extension": [ {
        "url": "http://hl7.org/fhir/us/qicore/StructureDefinition/qicore-recorded",
        "valueDateTime": "2014-04-05T13:35:00.000+00:00"
      } ],
      "status": "completed",
      "code": {
        "coding": [ {
          "system": "http://www.cms.gov/Medicare/Coding/ICD10",
          "code": "10D07Z3"
        } ]
      },
      "subject": {
        "reference": "Patient/6b0bd714-e832-4b86-85ba-7a860e8cc4f0"
      },
      "performedPeriod": {
        "start": "2026-06-08T08:10:00.000+00:00",
        "end": "2026-06-08T09:14:00.000+00:00"
      }
    },
    "request": {
      "method": "PUT",
      "url": "Procedure/0c445fcc-5147-4dc1-9843-8d951e4f6a16"
    }
  }, {
    "fullUrl": "https://madie.cms.gov/Condition/c5cf9414-e69e-42d0-988b-745d93073a88",
    "resource": {
      "resourceType": "Condition",
      "id": "c5cf9414-e69e-42d0-988b-745d93073a88",
      "meta": {
        "profile": [ "http://hl7.org/fhir/us/qicore/StructureDefinition/qicore-condition-encounter-diagnosis" ]
      },
      "category": [ {
        "coding": [ {
          "system": "http://terminology.hl7.org/CodeSystem/condition-category",
          "code": "encounter-diagnosis",
          "display": "Encounter Diagnosis"
        } ]
      } ],
      "code": {
        "coding": [ {
          "system": "http://snomed.info/sct",
          "version": "2022-09",
          "code": "169826009",
          "display": "Single live birth from singleton pregnancy (finding)",
          "userSelected": true
        } ]
      },
      "subject": {
        "reference": "Patient/6b0bd714-e832-4b86-85ba-7a860e8cc4f0"
      },
      "encounter": {
        "reference": "Encounter/8aa7c5c4-99d7-49bd-a039-f94da4e5d19a"
      },
      "recordedDate": "2026-10-21T08:00:00.000+00:00"
    },
    "request": {
      "method": "PUT",
      "url": "Condition/c5cf9414-e69e-42d0-988b-745d93073a88"
    }
  }, {
    "fullUrl": "https://madie.cms.gov/Coverage/c76332ed-f525-4c26-ac88-67148c56bbf2",
    "resource": {
      "resourceType": "Coverage",
      "id": "c76332ed-f525-4c26-ac88-67148c56bbf2",
      "meta": {
        "profile": [ "http://hl7.org/fhir/us/qicore/StructureDefinition/qicore-coverage" ]
      },
      "status": "active",
      "subscriberId": "523435",
      "beneficiary": {
        "reference": "Patient/6b0bd714-e832-4b86-85ba-7a860e8cc4f0"
      },
      "relationship": {
        "coding": [ {
          "system": "http://terminology.hl7.org/CodeSystem/subscriber-relationship",
          "code": "self"
        } ]
      },
      "payor": [ {
        "reference": "Organization/60bea3b1-1421-48bf-a390-ab29b8a57190"
      } ]
    },
    "request": {
      "method": "PUT",
      "url": "Coverage/c76332ed-f525-4c26-ac88-67148c56bbf2"
    }
  }, {
    "fullUrl": "https://madie.cms.gov/Organization/60bea3b1-1421-48bf-a390-ab29b8a57190",
    "resource": {
      "resourceType": "Organization",
      "id": "60bea3b1-1421-48bf-a390-ab29b8a57190",
      "meta": {
        "profile": [ "http://hl7.org/fhir/us/qicore/StructureDefinition/qicore-organization" ]
      },
      "identifier": [ {
        "use": "temp",
        "system": "urn:oid:2.16.840.1.113883.4.4",
        "value": "21-3259825"
      } ],
      "active": true,
      "type": [ {
        "coding": [ {
          "system": "http://terminology.hl7.org/CodeSystem/organization-type",
          "code": "pay",
          "display": "Payer"
        } ]
      } ],
      "name": "Blue Cross Blue Shield of Texas",
      "telecom": [ {
        "system": "phone",
        "value": "(+1) 972-766-6900"
      } ],
      "address": [ {
        "use": "billing",
        "type": "postal",
        "line": [ "P.O. Box 660044" ],
        "city": "Dallas",
        "state": "TX",
        "postalCode": "75266-0044",
        "country": "USA"
      } ]
    },
    "request": {
      "method": "PUT",
      "url": "Organization/60bea3b1-1421-48bf-a390-ab29b8a57190"
    }
  }, {
    "fullUrl": "https://madie.cms.gov/Practitioner/7bc1a4c6-9878-4909-9b57-7c63da5e1f74",
    "resource": {
      "resourceType": "Practitioner",
      "id": "7bc1a4c6-9878-4909-9b57-7c63da5e1f74",
      "meta": {
        "profile": [ "http://hl7.org/fhir/us/qicore/StructureDefinition/qicore-practitioner" ]
      },
      "identifier": [ {
        "system": "http://hl7.org/fhir/sid/us-npi",
        "value": "1234567890"
      } ],
      "name": [ {
        "family": "Evil",
        "prefix": [ "Dr" ]
      } ]
    },
    "request": {
      "method": "PUT",
      "url": "Practitioner/7bc1a4c6-9878-4909-9b57-7c63da5e1f74"
    }
  }, {
    "fullUrl": "https://madie.cms.gov/MeasureReport/7dc77e35-8efa-4043-9b07-1f0982c47ed6",
    "resource": {
      "resourceType": "MeasureReport",
      "id": "7dc77e35-8efa-4043-9b07-1f0982c47ed6",
      "meta": {
        "profile": [ "http://hl7.org/fhir/us/cqfmeasures/StructureDefinition/test-case-cqfm" ]
      },
      "contained": [ {
        "resourceType": "Parameters",
        "id": "744873f6-269c-4bdd-967a-1ce9c7d0e80e-parameters",
        "parameter": [ {
          "name": "subject",
          "valueString": "6b0bd714-e832-4b86-85ba-7a860e8cc4f0"
        } ]
      } ],
      "extension": [ {
        "url": "http://hl7.org/fhir/StructureDefinition/cqf-inputParameters",
        "valueReference": {
          "reference": "#744873f6-269c-4bdd-967a-1ce9c7d0e80e-parameters"
        }
      }, {
        "url": "http://hl7.org/fhir/us/cqfmeasures/StructureDefinition/cqfm-testCaseDescription",
        "valueMarkdown": " Pt is 27 years of age,  encounter dx delivery of singleton, gravida rel date/time 42 weeks or less before time of delivery.  This fails because  gravida Result is Null\n"
      } ],
      "modifierExtension": [ {
        "url": "http://hl7.org/fhir/us/cqfmeasures/StructureDefinition/cqfm-isTestCase",
        "valueBoolean": true
      } ],
      "status": "complete",
      "type": "individual",
      "measure": "https://madie.cms.gov/Measure/CMS0334FHIRPCCesareanBirth",
      "period": {
        "start": "2026-01-01",
        "end": "2026-12-31"
      },
      "group": [ {
        "id": "Group_1",
        "population": [ {
          "id": "InitialPopulation_1",
          "code": {
            "coding": [ {
              "system": "http://terminology.hl7.org/CodeSystem/measure-population",
              "code": "initial-population",
              "display": "Initial Population"
            } ]
          },
          "count": 1
        }, {
          "id": "Denominator_1",
          "code": {
            "coding": [ {
              "system": "http://terminology.hl7.org/CodeSystem/measure-population",
              "code": "denominator",
              "display": "Denominator"
            } ]
          },
          "count": 0
        }, {
          "id": "DenominatorExclusion_1",
          "code": {
            "coding": [ {
              "system": "http://terminology.hl7.org/CodeSystem/measure-population",
              "code": "denominator-exclusion",
              "display": "Denominator Exclusion"
            } ]
          },
          "count": 0
        }, {
          "id": "Numerator_1",
          "code": {
            "coding": [ {
              "system": "http://terminology.hl7.org/CodeSystem/measure-population",
              "code": "numerator",
              "display": "Numerator"
            } ]
          },
          "count": 0
        } ],
        "measureScore": {
          "value": 0.0
        }
      } ],
      "evaluatedResource": [ {
        "reference": "Patient/6b0bd714-e832-4b86-85ba-7a860e8cc4f0"
      }, {
        "reference": "Observation/9f6a73d7-dd59-47d7-b497-753df54e33a2"
      }, {
        "reference": "Observation/e0d9b41a-57fb-4a02-a1bc-5a3300df6f14"
      }, {
        "reference": "Observation/5e28db22-9032-4903-be7f-60f0b2c38cac"
      }, {
        "reference": "Encounter/8aa7c5c4-99d7-49bd-a039-f94da4e5d19a"
      }, {
        "reference": "Procedure/0c445fcc-5147-4dc1-9843-8d951e4f6a16"
      }, {
        "reference": "Condition/c5cf9414-e69e-42d0-988b-745d93073a88"
      }, {
        "reference": "Coverage/c76332ed-f525-4c26-ac88-67148c56bbf2"
      }, {
        "reference": "Organization/60bea3b1-1421-48bf-a390-ab29b8a57190"
      }, {
        "reference": "Practitioner/7bc1a4c6-9878-4909-9b57-7c63da5e1f74"
      } ]
    },
    "request": {
      "method": "PUT",
      "url": "MeasureReport/7dc77e35-8efa-4043-9b07-1f0982c47ed6"
    }
  } ]
}