{
  "resourceType": "Bundle",
  "id": "6499b67ff75cf8dae8f2f3db",
  "type": "collection",
  "entry": [ {
    "fullUrl": "https://madie.cms.gov/Patient/15c4c2c5-9cdb-4eed-b27a-22462692881a",
    "resource": {
      "resourceType": "Patient",
      "id": "15c4c2c5-9cdb-4eed-b27a-22462692881a",
      "meta": {
        "profile": [ "http://hl7.org/fhir/us/qicore/StructureDefinition/qicore-patient" ]
      },
      "extension": [ {
        "url": "http://hl7.org/fhir/us/core/StructureDefinition/us-core-race",
        "extension": [ {
          "url": "ombCategory",
          "valueCoding": {
            "system": "urn:oid:2.16.840.1.113883.6.238",
            "code": "2028-9",
            "display": "Asian",
            "userSelected": true
          }
        }, {
          "url": "text",
          "valueString": "Asian"
        } ]
      }, {
        "url": "http://hl7.org/fhir/us/core/StructureDefinition/us-core-ethnicity",
        "extension": [ {
          "url": "ombCategory",
          "valueCoding": {
            "system": "urn:oid:2.16.840.1.113883.6.238",
            "code": "2186-5",
            "display": "Not Hispanic or Latino",
            "userSelected": true
          }
        }, {
          "url": "text",
          "valueString": "Not Hispanic or Latino"
        } ]
      } ],
      "identifier": [ {
        "type": {
          "coding": [ {
            "system": "http://terminology.hl7.org/CodeSystem/v2-0203",
            "code": "MR"
          } ]
        },
        "system": "https://bonnie-fhir.healthit.gov/",
        "value": "6499b67ff75cf8dae8f2f3db"
      } ],
      "name": [ {
        "family": "NumPass",
        "given": [ "TestDuringMPResult199" ]
      } ],
      "gender": "female",
      "birthDate": "1987-05-25"
    }
  }, {
    "fullUrl": "https://madie.cms.gov/Condition/671ebc7d-1aab-4d5b-be4b-8d8079f6f36c",
    "resource": {
      "resourceType": "Condition",
      "id": "671ebc7d-1aab-4d5b-be4b-8d8079f6f36c",
      "meta": {
        "profile": [ "http://hl7.org/fhir/us/qicore/StructureDefinition/qicore-condition-problems-health-concerns" ]
      },
      "clinicalStatus": {
        "coding": [ {
          "system": "http://terminology.hl7.org/CodeSystem/condition-clinical",
          "code": "active",
          "display": "active",
          "userSelected": true
        } ]
      },
      "category": [ {
        "coding": [ {
          "system": "http://terminology.hl7.org/CodeSystem/condition-category",
          "code": "problem-list-item",
          "display": "Problem List Item"
        } ]
      } ],
      "code": {
        "coding": [ {
          "system": "http://hl7.org/fhir/sid/icd-9-cm",
          "version": "2013",
          "code": "042",
          "display": "Human immunodeficiency virus [HIV] disease",
          "userSelected": true
        }, {
          "system": "http://snomed.info/sct",
          "version": "http://snomed.info/sct/731000124108/version/20250301",
          "code": "165816005",
          "userSelected": true
        } ]
      },
      "subject": {
        "reference": "Patient/15c4c2c5-9cdb-4eed-b27a-22462692881a"
      },
      "onsetDateTime": "2020-12-02T12:00:00.000+00:00",
      "recordedDate": "2020-12-02T12:00:00.000+00:00"
    }
  }, {
    "fullUrl": "https://madie.cms.gov/Encounter/2be046df-019c-4089-aadd-662df66b9c24",
    "resource": {
      "resourceType": "Encounter",
      "id": "2be046df-019c-4089-aadd-662df66b9c24",
      "meta": {
        "profile": [ "http://hl7.org/fhir/us/qicore/StructureDefinition/qicore-encounter" ]
      },
      "status": "finished",
      "class": {
        "system": "http://terminology.hl7.org/CodeSystem/v3-ActCode",
        "code": "AMB",
        "display": "ambulatory"
      },
      "type": [ {
        "coding": [ {
          "system": "http://www.ama-assn.org/go/cpt",
          "code": "99386",
          "userSelected": true
        } ]
      } ],
      "subject": {
        "reference": "Patient/15c4c2c5-9cdb-4eed-b27a-22462692881a"
      },
      "period": {
        "start": "2026-08-29T15:02:00.000+00:00",
        "end": "2026-08-29T15:55:00.000+00:00"
      }
    }
  }, {
    "fullUrl": "https://madie.cms.gov/Observation/49320b7d-e9c1-4ed3-96ab-4dcf7230c75a",
    "resource": {
      "resourceType": "Observation",
      "id": "49320b7d-e9c1-4ed3-96ab-4dcf7230c75a",
      "meta": {
        "profile": [ "http://hl7.org/fhir/us/qicore/StructureDefinition/qicore-observation-lab" ]
      },
      "status": "final",
      "category": [ {
        "coding": [ {
          "system": "http://terminology.hl7.org/CodeSystem/observation-category",
          "code": "laboratory",
          "display": "Laboratory"
        } ]
      }, {
        "coding": [ {
          "system": "http://terminology.hl7.org/CodeSystem/observation-category",
          "code": "survey"
        } ]
      } ],
      "code": {
        "coding": [ {
          "system": "http://loinc.org",
          "version": "2.73",
          "code": "10351-5",
          "display": "HIV 1 RNA [Units/volume] (viral load) in Serum or Plasma by Probe with amplification",
          "userSelected": true
        } ]
      },
      "subject": {
        "reference": "Patient/15c4c2c5-9cdb-4eed-b27a-22462692881a"
      },
      "effectiveDateTime": "2026-08-28T09:02:00.000+00:00",
      "issued": "2026-08-28T09:02:00.000+00:00",
      "valueQuantity": {
        "value": 199,
        "unit": "{copies}/mL"
      }
    }
  }, {
    "fullUrl": "https://madie.cms.gov/Coverage/08b3de3e-480b-4ac5-8464-f00f3abeba37",
    "resource": {
      "resourceType": "Coverage",
      "id": "08b3de3e-480b-4ac5-8464-f00f3abeba37",
      "meta": {
        "profile": [ "http://hl7.org/fhir/us/qicore/StructureDefinition/qicore-coverage" ]
      },
      "status": "active",
      "subscriberId": "123456",
      "beneficiary": {
        "reference": "Patient/15c4c2c5-9cdb-4eed-b27a-22462692881a"
      },
      "relationship": {
        "coding": [ {
          "system": "http://terminology.hl7.org/CodeSystem/subscriber-relationship",
          "code": "self",
          "display": "Self"
        } ]
      },
      "payor": [ {
        "reference": "Organization/2bde4d03-3013-41c2-ba10-eac46426f49d"
      } ]
    }
  }, {
    "fullUrl": "https://madie.cms.gov/Organization/2bde4d03-3013-41c2-ba10-eac46426f49d",
    "resource": {
      "resourceType": "Organization",
      "id": "2bde4d03-3013-41c2-ba10-eac46426f49d",
      "meta": {
        "profile": [ "http://hl7.org/fhir/us/qicore/StructureDefinition/qicore-organization" ]
      },
      "identifier": [ {
        "use": "temp",
        "system": "urn:oid:2.16.840.1.113883.4.4",
        "value": "21-3259825"
      } ],
      "active": true,
      "type": [ {
        "coding": [ {
          "system": "http://terminology.hl7.org/CodeSystem/organization-type",
          "code": "pay",
          "display": "Payer"
        } ]
      } ],
      "name": "Blue Cross Blue Shield of Texas",
      "telecom": [ {
        "system": "phone",
        "value": "(+1) 972-766-6900"
      } ],
      "address": [ {
        "use": "billing",
        "type": "postal",
        "line": [ "P.O. Box 660044" ],
        "city": "Dallas",
        "state": "TX",
        "postalCode": "75266-0044",
        "country": "USA"
      } ]
    }
  }, {
    "fullUrl": "https://madie.cms.gov/Practitioner/c3ce8d37-887c-4e47-a489-8fddb6de2b06",
    "resource": {
      "resourceType": "Practitioner",
      "id": "c3ce8d37-887c-4e47-a489-8fddb6de2b06",
      "meta": {
        "profile": [ "http://hl7.org/fhir/us/qicore/StructureDefinition/qicore-practitioner" ]
      },
      "identifier": [ {
        "system": "http://hl7.org/fhir/sid/us-npi",
        "value": "1689411712"
      } ],
      "name": [ {
        "family": "Evil",
        "prefix": [ "Dr" ]
      } ]
    }
  }, {
    "fullUrl": "https://madie.cms.gov/MeasureReport/aed25b16-d140-4a97-a506-20a61471302a",
    "resource": {
      "resourceType": "MeasureReport",
      "id": "aed25b16-d140-4a97-a506-20a61471302a",
      "meta": {
        "profile": [ "http://hl7.org/fhir/us/cqfmeasures/StructureDefinition/test-case-cqfm" ]
      },
      "contained": [ {
        "resourceType": "Parameters",
        "id": "30a5ca03-a6f0-445e-979f-370eb979749d-parameters",
        "parameter": [ {
          "name": "subject",
          "valueString": "15c4c2c5-9cdb-4eed-b27a-22462692881a"
        } ]
      } ],
      "extension": [ {
        "url": "http://hl7.org/fhir/StructureDefinition/cqf-inputParameters",
        "valueReference": {
          "reference": "#30a5ca03-a6f0-445e-979f-370eb979749d-parameters"
        }
      }, {
        "url": "http://hl7.org/fhir/us/cqfmeasures/StructureDefinition/cqfm-testCaseDescription",
        "valueMarkdown": "Patient with a diagnosis of HIV  years before start of the MP and a qualifying encounter on inside 240 day edge of the MP AND a viral load test during the MP with a result of 199"
      } ],
      "modifierExtension": [ {
        "url": "http://hl7.org/fhir/us/cqfmeasures/StructureDefinition/cqfm-isTestCase",
        "valueBoolean": true
      } ],
      "status": "complete",
      "type": "individual",
      "measure": "https://madie.cms.gov/Measure/CMS314FHIRHIVViralSuppression",
      "period": {
        "start": "2026-01-01",
        "end": "2026-12-31"
      },
      "group": [ {
        "id": "Group_1",
        "population": [ {
          "id": "InitialPopulation_1",
          "code": {
            "coding": [ {
              "system": "http://terminology.hl7.org/CodeSystem/measure-population",
              "code": "initial-population",
              "display": "Initial Population"
            } ]
          },
          "count": 1
        }, {
          "id": "Denominator_1",
          "code": {
            "coding": [ {
              "system": "http://terminology.hl7.org/CodeSystem/measure-population",
              "code": "denominator",
              "display": "Denominator"
            } ]
          },
          "count": 1
        }, {
          "id": "Numerator_1",
          "code": {
            "coding": [ {
              "system": "http://terminology.hl7.org/CodeSystem/measure-population",
              "code": "numerator",
              "display": "Numerator"
            } ]
          },
          "count": 1
        } ],
        "measureScore": {
          "value": 1.0
        }
      } ],
      "evaluatedResource": [ {
        "reference": "Patient/15c4c2c5-9cdb-4eed-b27a-22462692881a"
      }, {
        "reference": "Condition/671ebc7d-1aab-4d5b-be4b-8d8079f6f36c"
      }, {
        "reference": "Encounter/2be046df-019c-4089-aadd-662df66b9c24"
      }, {
        "reference": "Observation/49320b7d-e9c1-4ed3-96ab-4dcf7230c75a"
      }, {
        "reference": "Coverage/08b3de3e-480b-4ac5-8464-f00f3abeba37"
      }, {
        "reference": "Organization/2bde4d03-3013-41c2-ba10-eac46426f49d"
      }, {
        "reference": "Practitioner/c3ce8d37-887c-4e47-a489-8fddb6de2b06"
      } ]
    }
  } ]
}