{
  "resourceType": "Bundle",
  "id": "tests-NUMERPass-LabTest2Equals80-bundle",
  "type": "transaction",
  "entry": [ {
    "fullUrl": "https://madie.cms.gov/Patient/1d298cf0-aa38-4943-ba4c-f7209cf59e63",
    "resource": {
      "resourceType": "Patient",
      "id": "1d298cf0-aa38-4943-ba4c-f7209cf59e63",
      "meta": {
        "profile": [ "http://hl7.org/fhir/us/qicore/StructureDefinition/qicore-patient" ]
      },
      "identifier": [ {
        "use": "official",
        "system": "http://hospital.smarthealthit.or",
        "value": "12345"
      } ],
      "name": [ {
        "use": "official",
        "family": "Doe",
        "given": [ "John" ]
      } ],
      "gender": "male",
      "birthDate": "1980-01-01"
    },
    "request": {
      "method": "PUT",
      "url": "Patient/1d298cf0-aa38-4943-ba4c-f7209cf59e63"
    }
  }, {
    "fullUrl": "https://madie.cms.gov/Encounter/e07c8d64-650f-4954-b790-da8c65d2104a",
    "resource": {
      "resourceType": "Encounter",
      "id": "e07c8d64-650f-4954-b790-da8c65d2104a",
      "meta": {
        "profile": [ "http://hl7.org/fhir/us/qicore/StructureDefinition/qicore-encounter" ]
      },
      "status": "finished",
      "class": {
        "system": "http://terminology.hl7.org/CodeSystem/v3-ActCode",
        "code": "IMP",
        "display": "Inpatient encounter"
      },
      "type": [ {
        "coding": [ {
          "system": "http://snomed.info/sct",
          "code": "183452005",
          "display": "Emergency hospital admission"
        } ]
      } ],
      "subject": {
        "reference": "Patient/1d298cf0-aa38-4943-ba4c-f7209cf59e63"
      },
      "period": {
        "start": "2026-07-11T08:00:00.000+00:00",
        "end": "2026-07-16T21:00:00.000+00:00"
      }
    },
    "request": {
      "method": "PUT",
      "url": "Encounter/e07c8d64-650f-4954-b790-da8c65d2104a"
    }
  }, {
    "fullUrl": "https://madie.cms.gov/MedicationAdministration/636bf80b-3e32-4b2a-8839-fe1a740d67f0",
    "resource": {
      "resourceType": "MedicationAdministration",
      "id": "636bf80b-3e32-4b2a-8839-fe1a740d67f0",
      "meta": {
        "profile": [ "http://hl7.org/fhir/us/qicore/StructureDefinition/qicore-medicationadministration" ]
      },
      "status": "completed",
      "medicationCodeableConcept": {
        "coding": [ {
          "system": "http://www.nlm.nih.gov/research/umls/rxnorm",
          "code": "1653202",
          "display": "3 ML insulin aspart, human 100 UNT/ML Pen Injector"
        } ]
      },
      "subject": {
        "reference": "Patient/1d298cf0-aa38-4943-ba4c-f7209cf59e63"
      },
      "effectivePeriod": {
        "start": "2026-07-11T08:00:00.000+00:00",
        "end": "2026-07-11T09:00:00.000+00:00"
      }
    },
    "request": {
      "method": "PUT",
      "url": "MedicationAdministration/636bf80b-3e32-4b2a-8839-fe1a740d67f0"
    }
  }, {
    "fullUrl": "https://madie.cms.gov/Observation/e12c2065-5b61-4f38-8066-b5fd80f5251d",
    "resource": {
      "resourceType": "Observation",
      "id": "e12c2065-5b61-4f38-8066-b5fd80f5251d",
      "meta": {
        "profile": [ "http://hl7.org/fhir/us/qicore/StructureDefinition/qicore-observation-lab" ]
      },
      "status": "final",
      "category": [ {
        "coding": [ {
          "system": "http://terminology.hl7.org/CodeSystem/observation-category",
          "code": "laboratory",
          "display": "Laboratory"
        } ]
      } ],
      "code": {
        "coding": [ {
          "system": "http://loinc.org",
          "code": "1556-0",
          "display": "Fasting glucose [Mass/volume] in Capillary blood"
        } ]
      },
      "subject": {
        "reference": "Patient/1d298cf0-aa38-4943-ba4c-f7209cf59e63"
      },
      "effectivePeriod": {
        "start": "2026-07-11T08:00:00.000+00:00",
        "end": "2026-07-11T08:00:00.000+00:00"
      },
      "issued": "2026-07-11T08:00:00.000+00:00",
      "valueQuantity": {
        "value": 35,
        "unit": "mg/dL"
      }
    },
    "request": {
      "method": "PUT",
      "url": "Observation/e12c2065-5b61-4f38-8066-b5fd80f5251d"
    }
  }, {
    "fullUrl": "https://madie.cms.gov/Observation/cae95a33-f65d-4555-8d28-14f17682524e",
    "resource": {
      "resourceType": "Observation",
      "id": "cae95a33-f65d-4555-8d28-14f17682524e",
      "meta": {
        "profile": [ "http://hl7.org/fhir/us/qicore/StructureDefinition/qicore-observation-lab" ]
      },
      "status": "final",
      "category": [ {
        "coding": [ {
          "system": "http://terminology.hl7.org/CodeSystem/observation-category",
          "code": "laboratory",
          "display": "Laboratory"
        } ]
      } ],
      "code": {
        "coding": [ {
          "system": "http://loinc.org",
          "code": "1556-0",
          "display": "Fasting glucose [Mass/volume] in Capillary blood"
        } ]
      },
      "subject": {
        "reference": "Patient/1d298cf0-aa38-4943-ba4c-f7209cf59e63"
      },
      "effectivePeriod": {
        "start": "2026-07-11T08:05:00.000+00:00",
        "end": "2026-07-11T08:05:00.000+00:00"
      },
      "issued": "2026-07-11T08:05:00.000+00:00",
      "valueQuantity": {
        "value": 80,
        "unit": "mg/dL"
      }
    },
    "request": {
      "method": "PUT",
      "url": "Observation/cae95a33-f65d-4555-8d28-14f17682524e"
    }
  }, {
    "fullUrl": "https://madie.cms.gov/MeasureReport/930c7e3c-9400-4f9f-8c21-4106df79bade",
    "resource": {
      "resourceType": "MeasureReport",
      "id": "930c7e3c-9400-4f9f-8c21-4106df79bade",
      "meta": {
        "profile": [ "http://hl7.org/fhir/us/cqfmeasures/StructureDefinition/test-case-cqfm" ]
      },
      "contained": [ {
        "resourceType": "Parameters",
        "id": "d5df4606-491f-4f01-bc28-cedf61419b3c-parameters",
        "parameter": [ {
          "name": "subject",
          "valueString": "1d298cf0-aa38-4943-ba4c-f7209cf59e63"
        } ]
      } ],
      "extension": [ {
        "url": "http://hl7.org/fhir/StructureDefinition/cqf-inputParameters",
        "valueReference": {
          "reference": "#d5df4606-491f-4f01-bc28-cedf61419b3c-parameters"
        }
      }, {
        "url": "http://hl7.org/fhir/us/cqfmeasures/StructureDefinition/cqfm-testCaseDescription",
        "valueMarkdown": "Encounter, meds administered, lab test 1 = 35, lab 2 result = exactly 80 within 5 minutes of first lab. "
      } ],
      "modifierExtension": [ {
        "url": "http://hl7.org/fhir/us/cqfmeasures/StructureDefinition/cqfm-isTestCase",
        "valueBoolean": true
      } ],
      "status": "complete",
      "type": "individual",
      "measure": "https://madie.cms.gov/Measure/CMS816FHIRHHHypo",
      "period": {
        "start": "2026-01-01",
        "end": "2026-12-31"
      },
      "group": [ {
        "id": "Group_1",
        "population": [ {
          "id": "InitialPopulation_1",
          "code": {
            "coding": [ {
              "system": "http://terminology.hl7.org/CodeSystem/measure-population",
              "code": "initial-population",
              "display": "Initial Population"
            } ]
          },
          "count": 1
        }, {
          "id": "Denominator_1",
          "code": {
            "coding": [ {
              "system": "http://terminology.hl7.org/CodeSystem/measure-population",
              "code": "denominator",
              "display": "Denominator"
            } ]
          },
          "count": 1
        }, {
          "id": "Numerator_1",
          "code": {
            "coding": [ {
              "system": "http://terminology.hl7.org/CodeSystem/measure-population",
              "code": "numerator",
              "display": "Numerator"
            } ]
          },
          "count": 1
        } ],
        "measureScore": {
          "value": 0.0
        }
      } ],
      "evaluatedResource": [ {
        "reference": "Patient/1d298cf0-aa38-4943-ba4c-f7209cf59e63"
      }, {
        "reference": "Encounter/e07c8d64-650f-4954-b790-da8c65d2104a"
      }, {
        "reference": "MedicationAdministration/636bf80b-3e32-4b2a-8839-fe1a740d67f0"
      }, {
        "reference": "Observation/e12c2065-5b61-4f38-8066-b5fd80f5251d"
      }, {
        "reference": "Observation/cae95a33-f65d-4555-8d28-14f17682524e"
      } ]
    },
    "request": {
      "method": "PUT",
      "url": "MeasureReport/930c7e3c-9400-4f9f-8c21-4106df79bade"
    }
  } ]
}