{
  "resourceType": "Bundle",
  "id": "633b3f9f0968f80122503cdb",
  "type": "transaction",
  "entry": [ {
    "fullUrl": "https://madie.cms.gov/Patient/d5f10590-7e71-43ec-86c9-b0c73dd78394",
    "resource": {
      "resourceType": "Patient",
      "id": "d5f10590-7e71-43ec-86c9-b0c73dd78394",
      "meta": {
        "profile": [ "http://hl7.org/fhir/us/qicore/StructureDefinition/qicore-patient" ]
      },
      "text": {
        "status": "generated",
        "div": "<div xmlns=\"http://www.w3.org/1999/xhtml\"><div class=\"hapiHeaderText\">BldTxRelvDtTimeDuringEDOBTriageHosp<b>NUMPass</b></div><table class=\"hapiPropertyTable\"><tbody><tr><td>Date of birth</td><td><span>01 February 2004</span></td></tr></tbody></table></div>"
      },
      "extension": [ {
        "url": "http://hl7.org/fhir/us/core/StructureDefinition/us-core-race",
        "extension": [ {
          "url": "ombCategory",
          "valueCoding": {
            "system": "urn:oid:2.16.840.1.113883.6.238",
            "code": "1002-5",
            "display": "American Indian or Alaska Native",
            "userSelected": true
          }
        }, {
          "url": "text",
          "valueString": "American Indian or Alaska Native"
        } ]
      }, {
        "url": "http://hl7.org/fhir/us/core/StructureDefinition/us-core-ethnicity",
        "extension": [ {
          "url": "ombCategory",
          "valueCoding": {
            "system": "urn:oid:2.16.840.1.113883.6.238",
            "code": "2135-2",
            "display": "Hispanic or Latino",
            "userSelected": true
          }
        }, {
          "url": "text",
          "valueString": "Hispanic or Latino"
        } ]
      } ],
      "identifier": [ {
        "type": {
          "coding": [ {
            "system": "http://terminology.hl7.org/CodeSystem/v2-0203",
            "code": "MR"
          } ]
        },
        "system": "https://bonnie-fhir.healthit.gov/",
        "value": "633b3f9f0968f80122503cdb"
      } ],
      "active": true,
      "name": [ {
        "use": "usual",
        "family": "NUMPass",
        "given": [ "BldTxRelvDtTimeDuringEDOBTriageHosp" ]
      } ],
      "gender": "female",
      "birthDate": "2005-02-01"
    },
    "request": {
      "method": "PUT",
      "url": "Patient/d5f10590-7e71-43ec-86c9-b0c73dd78394"
    }
  }, {
    "fullUrl": "https://madie.cms.gov/Observation/8db46edc-1359-4eab-bfd1-b88110c4ff79",
    "resource": {
      "resourceType": "Observation",
      "id": "8db46edc-1359-4eab-bfd1-b88110c4ff79",
      "meta": {
        "profile": [ "http://hl7.org/fhir/us/qicore/StructureDefinition/qicore-simple-observation" ]
      },
      "status": "final",
      "category": [ {
        "coding": [ {
          "system": "http://terminology.hl7.org/CodeSystem/observation-category",
          "code": "exam",
          "display": "exam",
          "userSelected": true
        } ]
      } ],
      "code": {
        "coding": [ {
          "system": "http://loinc.org",
          "code": "93857-1"
        } ]
      },
      "subject": {
        "reference": "Patient/d5f10590-7e71-43ec-86c9-b0c73dd78394"
      },
      "effectiveDateTime": "2026-02-01T08:00:00.000+00:00",
      "performer": [ {
        "reference": "Organization/example1",
        "display": "Hendricks Country Hospital"
      } ],
      "valueDateTime": "2026-02-01T08:00:00.000+00:00"
    },
    "request": {
      "method": "PUT",
      "url": "Observation/8db46edc-1359-4eab-bfd1-b88110c4ff79"
    }
  }, {
    "fullUrl": "https://madie.cms.gov/Observation/edccdc6c-f19d-4ed7-839d-2b68bc079e42",
    "resource": {
      "resourceType": "Observation",
      "id": "edccdc6c-f19d-4ed7-839d-2b68bc079e42",
      "meta": {
        "profile": [ "http://hl7.org/fhir/us/qicore/StructureDefinition/qicore-simple-observation" ]
      },
      "status": "final",
      "category": [ {
        "coding": [ {
          "system": "http://terminology.hl7.org/CodeSystem/observation-category",
          "code": "exam",
          "display": "exam",
          "userSelected": true
        } ]
      } ],
      "code": {
        "coding": [ {
          "system": "http://loinc.org",
          "code": "11884-4"
        } ]
      },
      "subject": {
        "reference": "Patient/d5f10590-7e71-43ec-86c9-b0c73dd78394"
      },
      "effectiveDateTime": "2026-02-01T08:00:00.000+00:00",
      "performer": [ {
        "reference": "Organization/example1",
        "display": "Hendricks Country Hospital"
      } ],
      "valueQuantity": {
        "value": 20,
        "system": "http://unitsofmeasure.org",
        "code": "wk"
      }
    },
    "request": {
      "method": "PUT",
      "url": "Observation/edccdc6c-f19d-4ed7-839d-2b68bc079e42"
    }
  }, {
    "fullUrl": "https://madie.cms.gov/Observation/d0ca6f47-7463-4c61-a50e-88ccd9a3032b",
    "resource": {
      "resourceType": "Observation",
      "id": "d0ca6f47-7463-4c61-a50e-88ccd9a3032b",
      "meta": {
        "profile": [ "http://hl7.org/fhir/us/qicore/StructureDefinition/qicore-simple-observation" ]
      },
      "status": "final",
      "category": [ {
        "coding": [ {
          "system": "http://terminology.hl7.org/CodeSystem/observation-category",
          "code": "exam",
          "display": "exam",
          "userSelected": true
        } ]
      } ],
      "code": {
        "coding": [ {
          "system": "http://loinc.org",
          "code": "11884-4"
        } ]
      },
      "subject": {
        "reference": "Patient/d5f10590-7e71-43ec-86c9-b0c73dd78394"
      },
      "effectiveDateTime": "2026-02-01T08:01:00.000+00:00",
      "performer": [ {
        "reference": "Organization/example1",
        "display": "Hendricks Country Hospital"
      } ]
    },
    "request": {
      "method": "PUT",
      "url": "Observation/d0ca6f47-7463-4c61-a50e-88ccd9a3032b"
    }
  }, {
    "fullUrl": "https://madie.cms.gov/Encounter/93c0d569-f574-48bf-bea3-fee32238e4d3",
    "resource": {
      "resourceType": "Encounter",
      "id": "93c0d569-f574-48bf-bea3-fee32238e4d3",
      "meta": {
        "profile": [ "http://hl7.org/fhir/us/qicore/StructureDefinition/qicore-encounter" ]
      },
      "status": "finished",
      "class": {
        "system": "http://terminology.hl7.org/CodeSystem/v3-ActCode",
        "code": "IMP",
        "display": "inpatient encounter"
      },
      "type": [ {
        "coding": [ {
          "system": "http://snomed.info/sct",
          "code": "183452005"
        } ]
      } ],
      "subject": {
        "reference": "Patient/d5f10590-7e71-43ec-86c9-b0c73dd78394"
      },
      "period": {
        "start": "2026-02-01T08:00:00.000+00:00",
        "end": "2026-02-05T08:15:00.000+00:00"
      }
    },
    "request": {
      "method": "PUT",
      "url": "Encounter/93c0d569-f574-48bf-bea3-fee32238e4d3"
    }
  }, {
    "fullUrl": "https://madie.cms.gov/Coverage/b745f148-9b22-4116-93a3-8fef15394be4",
    "resource": {
      "resourceType": "Coverage",
      "id": "b745f148-9b22-4116-93a3-8fef15394be4",
      "status": "active",
      "subscriberId": "523435",
      "beneficiary": {
        "reference": "Patient/d5f10590-7e71-43ec-86c9-b0c73dd78394"
      },
      "relationship": {
        "coding": [ {
          "system": "http://terminology.hl7.org/CodeSystem/subscriber-relationship",
          "code": "self"
        } ]
      },
      "period": {
        "start": "2005-02-01T08:00:00.000+00:00"
      },
      "payor": [ {
        "reference": "Organization/71a08c1f-7497-4dde-aa79-9e760aad14bf"
      } ]
    },
    "request": {
      "method": "PUT",
      "url": "Coverage/b745f148-9b22-4116-93a3-8fef15394be4"
    }
  }, {
    "fullUrl": "https://madie.cms.gov/Procedure/ee465cd4-dc2a-4496-94eb-eb200f0a0e49",
    "resource": {
      "resourceType": "Procedure",
      "id": "ee465cd4-dc2a-4496-94eb-eb200f0a0e49",
      "meta": {
        "profile": [ "http://hl7.org/fhir/us/qicore/StructureDefinition/qicore-procedure" ]
      },
      "extension": [ {
        "url": "http://hl7.org/fhir/us/qicore/StructureDefinition/qicore-recorded",
        "valueDateTime": "2014-04-05T13:35:00.000+00:00"
      } ],
      "status": "completed",
      "code": {
        "coding": [ {
          "system": "http://snomed.info/sct",
          "code": "10745001"
        } ]
      },
      "subject": {
        "reference": "Patient/d5f10590-7e71-43ec-86c9-b0c73dd78394"
      },
      "performedPeriod": {
        "start": "2026-02-01T08:00:00.000+00:00",
        "end": "2026-02-05T08:15:00.000+00:00"
      }
    },
    "request": {
      "method": "PUT",
      "url": "Procedure/ee465cd4-dc2a-4496-94eb-eb200f0a0e49"
    }
  }, {
    "fullUrl": "https://madie.cms.gov/Procedure/b58d69de-0ffd-4765-8754-66e13fe4f779",
    "resource": {
      "resourceType": "Procedure",
      "id": "b58d69de-0ffd-4765-8754-66e13fe4f779",
      "meta": {
        "profile": [ "http://hl7.org/fhir/us/qicore/StructureDefinition/qicore-procedure" ]
      },
      "extension": [ {
        "url": "http://hl7.org/fhir/us/qicore/StructureDefinition/qicore-recorded",
        "valueDateTime": "2026-02-01T04:01:00.000+00:00"
      } ],
      "status": "completed",
      "code": {
        "coding": [ {
          "system": "http://snomed.info/sct",
          "code": "11397000"
        } ]
      },
      "subject": {
        "reference": "Patient/d5f10590-7e71-43ec-86c9-b0c73dd78394"
      },
      "performedPeriod": {
        "start": "2026-02-02T11:59:00.000+00:00",
        "end": "2026-02-02T14:00:00.000+00:00"
      }
    },
    "request": {
      "method": "PUT",
      "url": "Procedure/b58d69de-0ffd-4765-8754-66e13fe4f779"
    }
  }, {
    "fullUrl": "https://madie.cms.gov/Organization/71a08c1f-7497-4dde-aa79-9e760aad14bf",
    "resource": {
      "resourceType": "Organization",
      "id": "71a08c1f-7497-4dde-aa79-9e760aad14bf",
      "meta": {
        "profile": [ "http://hl7.org/fhir/us/qicore/StructureDefinition/qicore-organization" ]
      },
      "identifier": [ {
        "use": "temp",
        "system": "urn:oid:2.16.840.1.113883.4.4",
        "value": "21-3259825"
      } ],
      "active": true,
      "type": [ {
        "coding": [ {
          "system": "http://terminology.hl7.org/CodeSystem/organization-type",
          "code": "pay",
          "display": "Payer"
        } ]
      } ],
      "name": "Blue Cross Blue Shield of Texas",
      "telecom": [ {
        "system": "phone",
        "value": "(+1) 972-766-6900"
      } ],
      "address": [ {
        "use": "billing",
        "type": "postal",
        "line": [ "P.O. Box 660044" ],
        "city": "Dallas",
        "state": "TX",
        "postalCode": "75266-0044",
        "country": "USA"
      } ]
    },
    "request": {
      "method": "PUT",
      "url": "Organization/71a08c1f-7497-4dde-aa79-9e760aad14bf"
    }
  }, {
    "fullUrl": "https://madie.cms.gov/Practitioner/41115ab6-1550-479e-bd27-5b9530279720",
    "resource": {
      "resourceType": "Practitioner",
      "id": "41115ab6-1550-479e-bd27-5b9530279720",
      "meta": {
        "profile": [ "http://hl7.org/fhir/us/qicore/StructureDefinition/qicore-practitioner" ]
      },
      "identifier": [ {
        "system": "http://hl7.org/fhir/sid/us-npi",
        "value": "1234567890"
      } ],
      "name": [ {
        "family": "Evil",
        "prefix": [ "Dr" ]
      } ]
    },
    "request": {
      "method": "PUT",
      "url": "Practitioner/41115ab6-1550-479e-bd27-5b9530279720"
    }
  }, {
    "fullUrl": "https://madie.cms.gov/MeasureReport/35a0ef5b-3dcb-4173-b5ae-cb20bb06dd7e",
    "resource": {
      "resourceType": "MeasureReport",
      "id": "35a0ef5b-3dcb-4173-b5ae-cb20bb06dd7e",
      "meta": {
        "profile": [ "http://hl7.org/fhir/us/cqfmeasures/StructureDefinition/test-case-cqfm" ]
      },
      "contained": [ {
        "resourceType": "Parameters",
        "id": "2c9fc817-d7b9-429e-bfe0-d5481f80aae3-parameters",
        "parameter": [ {
          "name": "subject",
          "valueString": "d5f10590-7e71-43ec-86c9-b0c73dd78394"
        } ]
      } ],
      "extension": [ {
        "url": "http://hl7.org/fhir/StructureDefinition/cqf-inputParameters",
        "valueReference": {
          "reference": "#2c9fc817-d7b9-429e-bfe0-d5481f80aae3-parameters"
        }
      }, {
        "url": "http://hl7.org/fhir/us/cqfmeasures/StructureDefinition/cqfm-testCaseDescription",
        "valueMarkdown": "Blood Transfusion Relevant Date Time During ED Triage Hosp\n"
      } ],
      "modifierExtension": [ {
        "url": "http://hl7.org/fhir/us/cqfmeasures/StructureDefinition/cqfm-isTestCase",
        "valueBoolean": true
      } ],
      "status": "complete",
      "type": "individual",
      "measure": "https://madie.cms.gov/Measure/CMS1028FHIRPCSevereOBComps",
      "period": {
        "start": "2026-01-01",
        "end": "2026-12-31"
      },
      "group": [ {
        "id": "Group_1",
        "population": [ {
          "id": "InitialPopulation_1",
          "code": {
            "coding": [ {
              "system": "http://terminology.hl7.org/CodeSystem/measure-population",
              "code": "initial-population",
              "display": "Initial Population"
            } ]
          },
          "count": 1
        }, {
          "id": "Denominator_1",
          "code": {
            "coding": [ {
              "system": "http://terminology.hl7.org/CodeSystem/measure-population",
              "code": "denominator",
              "display": "Denominator"
            } ]
          },
          "count": 1
        }, {
          "id": "Numerator_1",
          "code": {
            "coding": [ {
              "system": "http://terminology.hl7.org/CodeSystem/measure-population",
              "code": "numerator",
              "display": "Numerator"
            } ]
          },
          "count": 1
        }, {
          "id": "NumeratorExclusion_1",
          "code": {
            "coding": [ {
              "system": "http://terminology.hl7.org/CodeSystem/measure-population",
              "code": "numerator-exclusion",
              "display": "Numerator Exclusion"
            } ]
          },
          "count": 0
        } ],
        "measureScore": {
          "value": 0.0
        }
      }, {
        "id": "Group_2",
        "population": [ {
          "id": "InitialPopulation_2",
          "code": {
            "coding": [ {
              "system": "http://terminology.hl7.org/CodeSystem/measure-population",
              "code": "initial-population",
              "display": "Initial Population"
            } ]
          },
          "count": 1
        }, {
          "id": "Denominator_2",
          "code": {
            "coding": [ {
              "system": "http://terminology.hl7.org/CodeSystem/measure-population",
              "code": "denominator",
              "display": "Denominator"
            } ]
          },
          "count": 1
        }, {
          "id": "Numerator_2",
          "code": {
            "coding": [ {
              "system": "http://terminology.hl7.org/CodeSystem/measure-population",
              "code": "numerator",
              "display": "Numerator"
            } ]
          },
          "count": 0
        }, {
          "id": "NumeratorExclusion_2",
          "code": {
            "coding": [ {
              "system": "http://terminology.hl7.org/CodeSystem/measure-population",
              "code": "numerator-exclusion",
              "display": "Numerator Exclusion"
            } ]
          },
          "count": 0
        } ],
        "measureScore": {
          "value": 0.0
        }
      } ],
      "evaluatedResource": [ {
        "reference": "Patient/d5f10590-7e71-43ec-86c9-b0c73dd78394"
      }, {
        "reference": "Observation/8db46edc-1359-4eab-bfd1-b88110c4ff79"
      }, {
        "reference": "Observation/edccdc6c-f19d-4ed7-839d-2b68bc079e42"
      }, {
        "reference": "Observation/d0ca6f47-7463-4c61-a50e-88ccd9a3032b"
      }, {
        "reference": "Encounter/93c0d569-f574-48bf-bea3-fee32238e4d3"
      }, {
        "reference": "Coverage/b745f148-9b22-4116-93a3-8fef15394be4"
      }, {
        "reference": "Procedure/ee465cd4-dc2a-4496-94eb-eb200f0a0e49"
      }, {
        "reference": "Procedure/b58d69de-0ffd-4765-8754-66e13fe4f779"
      }, {
        "reference": "Organization/71a08c1f-7497-4dde-aa79-9e760aad14bf"
      }, {
        "reference": "Practitioner/41115ab6-1550-479e-bd27-5b9530279720"
      } ]
    },
    "request": {
      "method": "PUT",
      "url": "MeasureReport/35a0ef5b-3dcb-4173-b5ae-cb20bb06dd7e"
    }
  } ]
}