{
  "resourceType": "Bundle",
  "id": "610d828c37a47d6ac0116a12",
  "type": "collection",
  "entry": [ {
    "fullUrl": "https://madie.cms.gov/Patient/a3867482-15a8-42fd-8d78-dff5db0d40f4",
    "resource": {
      "resourceType": "Patient",
      "id": "a3867482-15a8-42fd-8d78-dff5db0d40f4",
      "meta": {
        "profile": [ "http://hl7.org/fhir/us/qicore/StructureDefinition/qicore-patient" ]
      },
      "extension": [ {
        "url": "http://hl7.org/fhir/us/core/StructureDefinition/us-core-race",
        "extension": [ {
          "url": "ombCategory",
          "valueCoding": {
            "system": "urn:oid:2.16.840.1.113883.6.238",
            "code": "2054-5",
            "display": "Black or African American",
            "userSelected": true
          }
        }, {
          "url": "text",
          "valueString": "Black or African American"
        } ]
      }, {
        "url": "http://hl7.org/fhir/us/core/StructureDefinition/us-core-ethnicity",
        "extension": [ {
          "url": "ombCategory",
          "valueCoding": {
            "system": "urn:oid:2.16.840.1.113883.6.238",
            "code": "2186-5",
            "display": "Not Hispanic or Latino",
            "userSelected": true
          }
        }, {
          "url": "text",
          "valueString": "Not Hispanic or Latino"
        } ]
      } ],
      "identifier": [ {
        "type": {
          "coding": [ {
            "system": "http://terminology.hl7.org/CodeSystem/v2-0203",
            "code": "MR"
          } ]
        },
        "system": "https://goodhealth.com/",
        "value": "610d828c37a47d6ac0116a12"
      } ],
      "name": [ {
        "family": "DENEXCEPPass",
        "given": [ "AssessmentNotDonePatientReason1MinB4EncEdge" ]
      } ],
      "gender": "male",
      "birthDate": "1976-01-10"
    }
  }, {
    "fullUrl": "https://madie.cms.gov/Encounter/8eb6f92a-19af-48fa-a334-c3299831fbbd",
    "resource": {
      "resourceType": "Encounter",
      "id": "8eb6f92a-19af-48fa-a334-c3299831fbbd",
      "meta": {
        "profile": [ "http://hl7.org/fhir/us/qicore/StructureDefinition/qicore-encounter" ]
      },
      "status": "finished",
      "class": {
        "system": "http://terminology.hl7.org/CodeSystem/v3-ActCode",
        "code": "AMB",
        "display": "ambulatory",
        "userSelected": true
      },
      "type": [ {
        "coding": [ {
          "system": "http://snomed.info/sct",
          "version": "http://snomed.info/sct/731000124108/version/202303",
          "code": "185460008",
          "display": "Home visit request by patient (procedure)",
          "userSelected": true
        } ]
      } ],
      "subject": {
        "reference": "Patient/a3867482-15a8-42fd-8d78-dff5db0d40f4"
      },
      "period": {
        "start": "2026-08-06T08:00:00.000+00:00",
        "end": "2026-08-06T09:00:00.000+00:00"
      }
    }
  }, {
    "fullUrl": "https://madie.cms.gov/Condition/709fe50d-a6e5-457f-9f4b-c1236bb980db",
    "resource": {
      "resourceType": "Condition",
      "id": "709fe50d-a6e5-457f-9f4b-c1236bb980db",
      "meta": {
        "profile": [ "http://hl7.org/fhir/us/qicore/StructureDefinition/qicore-condition-problems-health-concerns" ]
      },
      "clinicalStatus": {
        "coding": [ {
          "system": "http://terminology.hl7.org/CodeSystem/condition-clinical",
          "code": "active",
          "display": "active",
          "userSelected": true
        } ]
      },
      "category": [ {
        "coding": [ {
          "system": "http://terminology.hl7.org/CodeSystem/condition-clinical",
          "code": "active",
          "display": "active",
          "userSelected": true
        } ]
      }, {
        "coding": [ {
          "system": "http://terminology.hl7.org/CodeSystem/condition-category",
          "code": "problem-list-item",
          "display": "Problem List Item"
        } ]
      } ],
      "code": {
        "coding": [ {
          "system": "http://snomed.info/sct",
          "version": "http://snomed.info/sct/731000124108/version/20250301",
          "code": "191451009",
          "display": "Uncomplicated presenile dementia (disorder)",
          "userSelected": true
        } ]
      },
      "subject": {
        "reference": "Patient/a3867482-15a8-42fd-8d78-dff5db0d40f4"
      },
      "onsetDateTime": "2025-05-06T08:00:00.000+00:00",
      "recordedDate": "2025-05-06T08:00:00.000+00:00"
    }
  }, {
    "fullUrl": "https://madie.cms.gov/Encounter/aee2351c-bd5d-4e7e-8366-c7c91953692e",
    "resource": {
      "resourceType": "Encounter",
      "id": "aee2351c-bd5d-4e7e-8366-c7c91953692e",
      "meta": {
        "profile": [ "http://hl7.org/fhir/us/qicore/StructureDefinition/qicore-encounter" ]
      },
      "status": "finished",
      "class": {
        "system": "http://terminology.hl7.org/CodeSystem/v3-ActCode",
        "code": "AMB",
        "display": "ambulatory",
        "userSelected": true
      },
      "type": [ {
        "coding": [ {
          "system": "http://snomed.info/sct",
          "version": "http://snomed.info/sct/731000124108/version/202303",
          "code": "185316007",
          "display": "Indirect encounter (procedure)",
          "userSelected": true
        } ]
      } ],
      "subject": {
        "reference": "Patient/a3867482-15a8-42fd-8d78-dff5db0d40f4"
      },
      "period": {
        "start": "2026-05-06T08:00:00.000+00:00",
        "end": "2026-05-06T08:15:00.000+00:00"
      }
    }
  }, {
    "fullUrl": "https://madie.cms.gov/Procedure/c09c3eba-3c71-4ff1-aaea-8067c12f54f8",
    "resource": {
      "resourceType": "Procedure",
      "id": "c09c3eba-3c71-4ff1-aaea-8067c12f54f8",
      "meta": {
        "profile": [ "http://hl7.org/fhir/us/qicore/StructureDefinition/qicore-procedure" ]
      },
      "extension": [ {
        "url": "http://hl7.org/fhir/us/qicore/StructureDefinition/qicore-recorded",
        "valueDateTime": "2026-05-05T13:35:00.000+00:00"
      } ],
      "status": "completed",
      "category": {
        "coding": [ {
          "system": "http://loinc.org",
          "version": "2.73",
          "code": "58151-2",
          "display": "Prior assessment Brief Interview for Mental Status (BIMS) summary score [MDSv3]",
          "userSelected": true
        } ]
      },
      "code": {
        "coding": [ {
          "system": "http://snomed.info/sct",
          "version": "http://snomed.info/sct/731000124108/version/202303",
          "code": "113024001",
          "display": "Assessment and interpretation of higher cerebral function, cognitive testing (procedure)",
          "userSelected": true
        } ]
      },
      "subject": {
        "reference": "Patient/a3867482-15a8-42fd-8d78-dff5db0d40f4"
      },
      "encounter": {
        "reference": "Encounter/home-healthcare-services-8b61"
      },
      "performedDateTime": "2026-05-06T08:00:00.000+00:00"
    }
  }, {
    "fullUrl": "https://madie.cms.gov/Observation/fb3de661-cc4c-4779-89a7-233c489c1ec4",
    "resource": {
      "resourceType": "Observation",
      "id": "fb3de661-cc4c-4779-89a7-233c489c1ec4",
      "meta": {
        "profile": [ "http://hl7.org/fhir/us/qicore/StructureDefinition/qicore-observationcancelled" ]
      },
      "extension": [ {
        "url": "http://hl7.org/fhir/us/qicore/StructureDefinition/qicore-notDoneReason",
        "valueCodeableConcept": {
          "coding": [ {
            "system": "http://snomed.info/sct",
            "version": "http://snomed.info/sct/731000124108/version/20230301",
            "code": "275936005",
            "display": "Patient noncompliance - general (situation)"
          } ]
        }
      } ],
      "status": "cancelled",
      "category": [ {
        "coding": [ {
          "system": "http://snomed.info/sct",
          "version": "http://snomed.info/sct/731000124108/version/202303",
          "code": "113024001",
          "display": "Assessment and interpretation of higher cerebral function, cognitive testing (procedure)",
          "userSelected": true
        } ]
      }, {
        "coding": [ {
          "system": "http://terminology.hl7.org/CodeSystem/observation-category",
          "code": "survey"
        } ]
      } ],
      "code": {
        "coding": [ {
          "system": "http://snomed.info/sct",
          "version": "http://snomed.info/sct/731000124108/version/20250301",
          "code": "113024001",
          "display": "Assessment and interpretation of higher cerebral function, cognitive testing (procedure)"
        } ]
      },
      "subject": {
        "reference": "Patient/a3867482-15a8-42fd-8d78-dff5db0d40f4"
      },
      "effectiveDateTime": "2026-05-06T08:00:00.000+00:00",
      "issued": "2026-08-06T08:59:00.000+00:00",
      "dataAbsentReason": {
        "coding": [ {
          "system": "http://terminology.hl7.org/CodeSystem/data-absent-reason",
          "code": "unknown",
          "display": "Unknown"
        } ]
      }
    }
  }, {
    "fullUrl": "https://madie.cms.gov/MeasureReport/79fe3f48-d256-4f74-84ea-58c9cdf5519f",
    "resource": {
      "resourceType": "MeasureReport",
      "id": "79fe3f48-d256-4f74-84ea-58c9cdf5519f",
      "meta": {
        "profile": [ "http://hl7.org/fhir/us/cqfmeasures/StructureDefinition/test-case-cqfm" ]
      },
      "contained": [ {
        "resourceType": "Parameters",
        "id": "81b84c61-04ca-4584-be97-cf0142317254-parameters",
        "parameter": [ {
          "name": "subject",
          "valueString": "a3867482-15a8-42fd-8d78-dff5db0d40f4"
        } ]
      } ],
      "extension": [ {
        "url": "http://hl7.org/fhir/StructureDefinition/cqf-inputParameters",
        "valueReference": {
          "reference": "#81b84c61-04ca-4584-be97-cf0142317254-parameters"
        }
      }, {
        "url": "http://hl7.org/fhir/us/cqfmeasures/StructureDefinition/cqfm-testCaseDescription",
        "valueMarkdown": "Patient Reason for not performing Cognitive Assessment is effective one minute before end of Encounter"
      } ],
      "modifierExtension": [ {
        "url": "http://hl7.org/fhir/us/cqfmeasures/StructureDefinition/cqfm-isTestCase",
        "valueBoolean": true
      } ],
      "status": "complete",
      "type": "individual",
      "measure": "https://madie.cms.gov/Measure/CMS149FHIRDementiaCognitiveAssess",
      "period": {
        "start": "2026-01-01",
        "end": "2026-12-31"
      },
      "group": [ {
        "id": "Group_1",
        "population": [ {
          "id": "InitialPopulation_1",
          "code": {
            "coding": [ {
              "system": "http://terminology.hl7.org/CodeSystem/measure-population",
              "code": "initial-population",
              "display": "Initial Population"
            } ]
          },
          "count": 1
        }, {
          "id": "Denominator_1",
          "code": {
            "coding": [ {
              "system": "http://terminology.hl7.org/CodeSystem/measure-population",
              "code": "denominator",
              "display": "Denominator"
            } ]
          },
          "count": 1
        }, {
          "id": "Numerator_1",
          "code": {
            "coding": [ {
              "system": "http://terminology.hl7.org/CodeSystem/measure-population",
              "code": "numerator",
              "display": "Numerator"
            } ]
          },
          "count": 0
        }, {
          "id": "DenominatorException_1",
          "code": {
            "coding": [ {
              "system": "http://terminology.hl7.org/CodeSystem/measure-population",
              "code": "denominator-exception",
              "display": "Denominator Exception"
            } ]
          },
          "count": 1
        } ],
        "measureScore": {
          "value": 1.0
        }
      } ],
      "evaluatedResource": [ {
        "reference": "Patient/a3867482-15a8-42fd-8d78-dff5db0d40f4"
      }, {
        "reference": "Encounter/8eb6f92a-19af-48fa-a334-c3299831fbbd"
      }, {
        "reference": "Condition/709fe50d-a6e5-457f-9f4b-c1236bb980db"
      }, {
        "reference": "Encounter/aee2351c-bd5d-4e7e-8366-c7c91953692e"
      }, {
        "reference": "Procedure/c09c3eba-3c71-4ff1-aaea-8067c12f54f8"
      }, {
        "reference": "Observation/fb3de661-cc4c-4779-89a7-233c489c1ec4"
      } ]
    }
  } ]
}