{
  "resourceType": "Bundle",
  "id": "6109650598086b538055a0e0",
  "type": "transaction",
  "entry": [ {
    "fullUrl": "https://madie.cms.gov/Patient/0416cf1c-4224-4fd1-a91e-45e294489fbe",
    "resource": {
      "resourceType": "Patient",
      "id": "0416cf1c-4224-4fd1-a91e-45e294489fbe",
      "meta": {
        "profile": [ "http://hl7.org/fhir/us/qicore/StructureDefinition/qicore-patient" ]
      },
      "text": {
        "status": "generated",
        "div": "<div xmlns=\"http://www.w3.org/1999/xhtml\"><div class=\"hapiHeaderText\">AgeLessThan6OneDayBeforeEnc <b>IPPFAIL </b></div><table class=\"hapiPropertyTable\"><tbody><tr><td>Identifier</td><td>0a77611c25e04fb905831b43a3b32b12</td></tr><tr><td>Date of birth</td><td><span>31 December 2006</span></td></tr></tbody></table></div>"
      },
      "extension": [ {
        "url": "http://hl7.org/fhir/us/core/StructureDefinition/us-core-race",
        "extension": [ {
          "url": "ombCategory",
          "valueCoding": {
            "system": "urn:oid:2.16.840.1.113883.6.238",
            "code": "1002-5",
            "display": "American Indian or Alaska Native",
            "userSelected": true
          }
        }, {
          "url": "text",
          "valueString": "American Indian or Alaska Native"
        } ]
      }, {
        "url": "http://hl7.org/fhir/us/core/StructureDefinition/us-core-ethnicity",
        "extension": [ {
          "url": "ombCategory",
          "valueCoding": {
            "system": "urn:oid:2.16.840.1.113883.6.238",
            "code": "2135-2",
            "display": "Hispanic or Latino",
            "userSelected": true
          }
        }, {
          "url": "text",
          "valueString": "Hispanic or Latino"
        } ]
      } ],
      "identifier": [ {
        "type": {
          "coding": [ {
            "system": "http://terminology.hl7.org/CodeSystem/v2-0203",
            "code": "MR"
          } ]
        },
        "system": "https://bonnie-fhir.healthit.gov/",
        "value": "6109650598086b538055a0e0"
      } ],
      "active": true,
      "name": [ {
        "use": "usual",
        "family": "IPFail",
        "given": [ "AgeLessThan6OneDayBeforeEnc" ]
      } ],
      "gender": "male",
      "birthDate": "2019-12-31"
    },
    "request": {
      "method": "PUT",
      "url": "Patient/0416cf1c-4224-4fd1-a91e-45e294489fbe"
    }
  }, {
    "fullUrl": "https://madie.cms.gov/Encounter/378b4a4c-a4c1-45fa-b17b-ded58586c87d",
    "resource": {
      "resourceType": "Encounter",
      "id": "378b4a4c-a4c1-45fa-b17b-ded58586c87d",
      "status": "finished",
      "class": {
        "system": "http://terminology.hl7.org/CodeSystem/v3-ActCode",
        "code": "AMB",
        "display": "ambulatory",
        "userSelected": true
      },
      "type": [ {
        "coding": [ {
          "system": "http://snomed.info/sct",
          "code": "281036007"
        } ]
      } ],
      "subject": {
        "reference": "Patient/0416cf1c-4224-4fd1-a91e-45e294489fbe"
      },
      "period": {
        "start": "2025-02-17T08:00:00.000+00:00",
        "end": "2025-02-17T08:15:00.000+00:00"
      },
      "diagnosis": [ {
        "condition": {
          "reference": "Condition/c76f570e-d191-4c0f-bff8-d6cff3ae5b3c"
        },
        "use": {
          "coding": [ {
            "system": "http://snomed.info/sct",
            "version": "2022-09",
            "code": "10811161000119107",
            "display": "Major depressive disorder in mother complicating pregnancy (disorder)",
            "userSelected": true
          } ]
        }
      } ]
    },
    "request": {
      "method": "PUT",
      "url": "Encounter/378b4a4c-a4c1-45fa-b17b-ded58586c87d"
    }
  }, {
    "fullUrl": "https://madie.cms.gov/Condition/c76f570e-d191-4c0f-bff8-d6cff3ae5b3c",
    "resource": {
      "resourceType": "Condition",
      "id": "c76f570e-d191-4c0f-bff8-d6cff3ae5b3c",
      "category": [ {
        "coding": [ {
          "system": "http://terminology.hl7.org/CodeSystem/condition-category",
          "code": "encounter-diagnosis",
          "display": "Encounter Diagnosis"
        } ]
      } ],
      "code": {
        "coding": [ {
          "system": "http://snomed.info/sct",
          "version": "2022-09",
          "code": "10811121000119102",
          "display": "Major depressive disorder in mother complicating childbirth (disorder)",
          "userSelected": true
        } ]
      },
      "subject": {
        "reference": "Patient/0416cf1c-4224-4fd1-a91e-45e294489fbe"
      },
      "recordedDate": "2025-02-17T08:00:00.000+00:00"
    },
    "request": {
      "method": "PUT",
      "url": "Condition/c76f570e-d191-4c0f-bff8-d6cff3ae5b3c"
    }
  }, {
    "fullUrl": "https://madie.cms.gov/Coverage/e81d3510-33cc-4781-9382-da42a4e69a86",
    "resource": {
      "resourceType": "Coverage",
      "id": "e81d3510-33cc-4781-9382-da42a4e69a86",
      "meta": {
        "profile": [ "http://hl7.org/fhir/us/qicore/StructureDefinition/qicore-coverage" ]
      },
      "status": "active",
      "beneficiary": {
        "reference": "Patient/0416cf1c-4224-4fd1-a91e-45e294489fbe"
      },
      "payor": [ {
        "reference": "Organization/3c1350e2-8830-4613-9a2f-662c56e5db0e"
      } ]
    },
    "request": {
      "method": "PUT",
      "url": "Coverage/e81d3510-33cc-4781-9382-da42a4e69a86"
    }
  }, {
    "fullUrl": "https://madie.cms.gov/Organization/3c1350e2-8830-4613-9a2f-662c56e5db0e",
    "resource": {
      "resourceType": "Organization",
      "id": "3c1350e2-8830-4613-9a2f-662c56e5db0e",
      "meta": {
        "profile": [ "http://hl7.org/fhir/us/qicore/StructureDefinition/qicore-organization" ]
      },
      "identifier": [ {
        "use": "temp",
        "system": "urn:oid:2.16.840.1.113883.4.4",
        "value": "21-3259825"
      } ],
      "active": true,
      "type": [ {
        "coding": [ {
          "system": "http://terminology.hl7.org/CodeSystem/organization-type",
          "code": "pay",
          "display": "Payer"
        } ]
      } ],
      "name": "Blue Cross Blue Shield of Texas",
      "telecom": [ {
        "system": "phone",
        "value": "(+1) 972-766-6900"
      } ],
      "address": [ {
        "use": "billing",
        "type": "postal",
        "line": [ "P.O. Box 660044" ],
        "city": "Dallas",
        "state": "TX",
        "postalCode": "75266-0044",
        "country": "USA"
      } ]
    },
    "request": {
      "method": "PUT",
      "url": "Organization/3c1350e2-8830-4613-9a2f-662c56e5db0e"
    }
  }, {
    "fullUrl": "https://madie.cms.gov/Practitioner/ab9836ff-0330-48ee-9329-06074d5568d9",
    "resource": {
      "resourceType": "Practitioner",
      "id": "ab9836ff-0330-48ee-9329-06074d5568d9",
      "identifier": [ {
        "system": "http://hl7.org/fhir/sid/us-npi",
        "value": "123456"
      } ],
      "name": [ {
        "family": "Evil",
        "prefix": [ "Dr" ]
      } ]
    },
    "request": {
      "method": "PUT",
      "url": "Practitioner/ab9836ff-0330-48ee-9329-06074d5568d9"
    }
  }, {
    "fullUrl": "https://madie.cms.gov/MeasureReport/059817db-1162-4548-ac90-1046c04fdfac",
    "resource": {
      "resourceType": "MeasureReport",
      "id": "059817db-1162-4548-ac90-1046c04fdfac",
      "meta": {
        "profile": [ "http://hl7.org/fhir/us/cqfmeasures/StructureDefinition/test-case-cqfm" ]
      },
      "contained": [ {
        "resourceType": "Parameters",
        "id": "ce485b77-2f2b-404a-9c83-b6f0d2d82c67-parameters",
        "parameter": [ {
          "name": "subject",
          "valueString": "0416cf1c-4224-4fd1-a91e-45e294489fbe"
        } ]
      } ],
      "extension": [ {
        "url": "http://hl7.org/fhir/StructureDefinition/cqf-inputParameters",
        "valueReference": {
          "reference": "#ce485b77-2f2b-404a-9c83-b6f0d2d82c67-parameters"
        }
      }, {
        "url": "http://hl7.org/fhir/us/cqfmeasures/StructureDefinition/cqfm-testCaseDescription",
        "valueMarkdown": "Patient is under 6 years on Dec 31 and completed an Outpatient Visit encounter during MP"
      } ],
      "modifierExtension": [ {
        "url": "http://hl7.org/fhir/us/cqfmeasures/StructureDefinition/cqfm-isTestCase",
        "valueBoolean": true
      } ],
      "status": "complete",
      "type": "individual",
      "measure": "https://madie.cms.gov/Measure/CMS177FHIRChildMDDSuicideAssmt",
      "period": {
        "start": "2026-01-01",
        "end": "2026-12-31"
      },
      "group": [ {
        "id": "Group_1",
        "population": [ {
          "id": "InitialPopulation_1",
          "code": {
            "coding": [ {
              "system": "http://terminology.hl7.org/CodeSystem/measure-population",
              "code": "initial-population",
              "display": "Initial Population"
            } ]
          },
          "count": 0
        }, {
          "id": "Denominator_1",
          "code": {
            "coding": [ {
              "system": "http://terminology.hl7.org/CodeSystem/measure-population",
              "code": "denominator",
              "display": "Denominator"
            } ]
          },
          "count": 0
        }, {
          "id": "Numerator_1",
          "code": {
            "coding": [ {
              "system": "http://terminology.hl7.org/CodeSystem/measure-population",
              "code": "numerator",
              "display": "Numerator"
            } ]
          },
          "count": 0
        } ],
        "measureScore": {
          "value": 0.0
        }
      } ],
      "evaluatedResource": [ {
        "reference": "Patient/0416cf1c-4224-4fd1-a91e-45e294489fbe"
      }, {
        "reference": "Encounter/378b4a4c-a4c1-45fa-b17b-ded58586c87d"
      }, {
        "reference": "Condition/c76f570e-d191-4c0f-bff8-d6cff3ae5b3c"
      }, {
        "reference": "Coverage/e81d3510-33cc-4781-9382-da42a4e69a86"
      }, {
        "reference": "Organization/3c1350e2-8830-4613-9a2f-662c56e5db0e"
      }, {
        "reference": "Practitioner/ab9836ff-0330-48ee-9329-06074d5568d9"
      } ]
    },
    "request": {
      "method": "PUT",
      "url": "MeasureReport/059817db-1162-4548-ac90-1046c04fdfac"
    }
  } ]
}