{
  "resourceType": "Bundle",
  "id": "62c880ec0111a60120dc220d",
  "type": "transaction",
  "entry": [ {
    "fullUrl": "https://madie.cms.gov/Patient/28f57404-e619-4b1e-905f-5d89fffeffcd",
    "resource": {
      "resourceType": "Patient",
      "id": "28f57404-e619-4b1e-905f-5d89fffeffcd",
      "meta": {
        "profile": [ "http://hl7.org/fhir/us/qicore/StructureDefinition/qicore-patient" ]
      },
      "text": {
        "status": "generated",
        "div": "<div xmlns=\"http://www.w3.org/1999/xhtml\"><div class=\"hapiHeaderText\">TwiceDailyChemo<b>DENOMPASSPOP1</b></div><table class=\"hapiPropertyTable\"><tbody><tr><td>Date of birth</td><td><span>12 February 1978</span></td></tr></tbody></table></div>"
      },
      "extension": [ {
        "url": "http://hl7.org/fhir/us/core/StructureDefinition/us-core-race",
        "extension": [ {
          "url": "ombCategory",
          "valueCoding": {
            "system": "urn:oid:2.16.840.1.113883.6.238",
            "code": "1002-5",
            "display": "American Indian or Alaska Native",
            "userSelected": true
          }
        }, {
          "url": "text",
          "valueString": "American Indian or Alaska Native"
        } ]
      }, {
        "url": "http://hl7.org/fhir/us/core/StructureDefinition/us-core-ethnicity",
        "extension": [ {
          "url": "ombCategory",
          "valueCoding": {
            "system": "urn:oid:2.16.840.1.113883.6.238",
            "code": "2135-2",
            "display": "Hispanic or Latino",
            "userSelected": true
          }
        }, {
          "url": "text",
          "valueString": "Hispanic or Latino"
        } ]
      } ],
      "identifier": [ {
        "type": {
          "coding": [ {
            "system": "http://terminology.hl7.org/CodeSystem/v2-0203",
            "code": "MR"
          } ]
        },
        "system": "https://bonnie-fhir.healthit.gov/",
        "value": "62c880ec0111a60120dc220d"
      } ],
      "active": true,
      "name": [ {
        "use": "usual",
        "family": "DENOMFailPop1",
        "given": [ "TwiceDailyChemo" ]
      } ],
      "gender": "female",
      "birthDate": "1979-02-12"
    },
    "request": {
      "method": "PUT",
      "url": "Patient/28f57404-e619-4b1e-905f-5d89fffeffcd"
    }
  }, {
    "fullUrl": "https://madie.cms.gov/Condition/69175780-26d2-43a2-9cbb-997451986986",
    "resource": {
      "resourceType": "Condition",
      "id": "69175780-26d2-43a2-9cbb-997451986986",
      "meta": {
        "profile": [ "http://hl7.org/fhir/us/qicore/StructureDefinition/qicore-condition" ]
      },
      "clinicalStatus": {
        "coding": [ {
          "system": "http://terminology.hl7.org/CodeSystem/condition-clinical",
          "code": "active",
          "display": "active",
          "userSelected": true
        } ]
      },
      "category": [ {
        "coding": [ {
          "system": "http://terminology.hl7.org/CodeSystem/condition-category",
          "code": "problem-list-item",
          "display": "Problem List Item"
        } ]
      } ],
      "code": {
        "coding": [ {
          "system": "http://snomed.info/sct",
          "code": "107691000119101"
        } ]
      },
      "subject": {
        "reference": "Patient/28f57404-e619-4b1e-905f-5d89fffeffcd"
      },
      "onsetDateTime": "2026-01-31T08:00:00.000+00:00"
    },
    "request": {
      "method": "PUT",
      "url": "Condition/69175780-26d2-43a2-9cbb-997451986986"
    }
  }, {
    "fullUrl": "https://madie.cms.gov/Encounter/e673c7b0-b3ad-452b-b9ab-15cebb016bdf",
    "resource": {
      "resourceType": "Encounter",
      "id": "e673c7b0-b3ad-452b-b9ab-15cebb016bdf",
      "meta": {
        "profile": [ "http://hl7.org/fhir/us/qicore/StructureDefinition/qicore-encounter" ]
      },
      "status": "finished",
      "class": {
        "system": "http://terminology.hl7.org/CodeSystem/v3-ActCode",
        "code": "AMB",
        "display": "ambulatory",
        "userSelected": true
      },
      "type": [ {
        "coding": [ {
          "system": "http://snomed.info/sct",
          "code": "185463005"
        } ]
      } ],
      "subject": {
        "reference": "Patient/28f57404-e619-4b1e-905f-5d89fffeffcd"
      },
      "period": {
        "start": "2026-01-31T08:00:00.000+00:00",
        "end": "2026-01-31T08:15:00.000+00:00"
      }
    },
    "request": {
      "method": "PUT",
      "url": "Encounter/e673c7b0-b3ad-452b-b9ab-15cebb016bdf"
    }
  }, {
    "fullUrl": "https://madie.cms.gov/Encounter/0e6012a9-6df0-451b-896d-d991b08ed27f",
    "resource": {
      "resourceType": "Encounter",
      "id": "0e6012a9-6df0-451b-896d-d991b08ed27f",
      "meta": {
        "profile": [ "http://hl7.org/fhir/us/qicore/StructureDefinition/qicore-encounter" ]
      },
      "status": "finished",
      "class": {
        "system": "http://terminology.hl7.org/CodeSystem/v3-ActCode",
        "code": "AMB",
        "display": "ambulatory",
        "userSelected": true
      },
      "type": [ {
        "coding": [ {
          "system": "http://snomed.info/sct",
          "code": "185463005"
        } ]
      } ],
      "subject": {
        "reference": "Patient/28f57404-e619-4b1e-905f-5d89fffeffcd"
      },
      "period": {
        "start": "2026-02-09T08:00:00.000+00:00",
        "end": "2026-02-09T08:15:00.000+00:00"
      }
    },
    "request": {
      "method": "PUT",
      "url": "Encounter/0e6012a9-6df0-451b-896d-d991b08ed27f"
    }
  }, {
    "fullUrl": "https://madie.cms.gov/Coverage/880cd2e8-689f-4e95-8c54-5fc5550953fd",
    "resource": {
      "resourceType": "Coverage",
      "id": "880cd2e8-689f-4e95-8c54-5fc5550953fd",
      "meta": {
        "profile": [ "http://hl7.org/fhir/us/qicore/StructureDefinition/qicore-coverage" ]
      },
      "status": "active",
      "beneficiary": {
        "reference": "Patient/28f57404-e619-4b1e-905f-5d89fffeffcd"
      },
      "period": {
        "start": "1979-02-12T08:00:00.000+00:00"
      },
      "payor": [ {
        "reference": "Organization/d60b64d4-ff89-4909-a196-203017aa6cf5"
      } ]
    },
    "request": {
      "method": "PUT",
      "url": "Coverage/880cd2e8-689f-4e95-8c54-5fc5550953fd"
    }
  }, {
    "fullUrl": "https://madie.cms.gov/Procedure/9a27d46b-5c96-4e5f-9878-35e75c5ccae4",
    "resource": {
      "resourceType": "Procedure",
      "id": "9a27d46b-5c96-4e5f-9878-35e75c5ccae4",
      "meta": {
        "profile": [ "http://hl7.org/fhir/us/qicore/StructureDefinition/qicore-procedure" ]
      },
      "extension": [ {
        "url": "http://hl7.org/fhir/us/qicore/StructureDefinition/qicore-recorded",
        "valueDateTime": "2026-02-09T12:35:00.000+00:00"
      } ],
      "status": "completed",
      "code": {
        "coding": [ {
          "system": "http://snomed.info/sct",
          "code": "169396008"
        } ]
      },
      "subject": {
        "reference": "Patient/28f57404-e619-4b1e-905f-5d89fffeffcd"
      },
      "performedPeriod": {
        "start": "2026-02-09T08:00:00.000+00:00",
        "end": "2026-02-09T08:15:00.000+00:00"
      }
    },
    "request": {
      "method": "PUT",
      "url": "Procedure/9a27d46b-5c96-4e5f-9878-35e75c5ccae4"
    }
  }, {
    "fullUrl": "https://madie.cms.gov/Procedure/d0b70796-1ac9-40f9-b507-1799e6e3f9f9",
    "resource": {
      "resourceType": "Procedure",
      "id": "d0b70796-1ac9-40f9-b507-1799e6e3f9f9",
      "meta": {
        "profile": [ "http://hl7.org/fhir/us/qicore/StructureDefinition/qicore-procedure" ]
      },
      "extension": [ {
        "url": "http://hl7.org/fhir/us/qicore/StructureDefinition/qicore-recorded",
        "valueDateTime": "2026-02-09T12:35:00.000+00:00"
      } ],
      "status": "completed",
      "code": {
        "coding": [ {
          "system": "http://snomed.info/sct",
          "code": "169396008"
        } ]
      },
      "subject": {
        "reference": "Patient/28f57404-e619-4b1e-905f-5d89fffeffcd"
      },
      "performedPeriod": {
        "start": "2026-02-09T08:00:00.000+00:00",
        "end": "2026-02-09T08:15:00.000+00:00"
      }
    },
    "request": {
      "method": "PUT",
      "url": "Procedure/d0b70796-1ac9-40f9-b507-1799e6e3f9f9"
    }
  }, {
    "fullUrl": "https://madie.cms.gov/Organization/d60b64d4-ff89-4909-a196-203017aa6cf5",
    "resource": {
      "resourceType": "Organization",
      "id": "d60b64d4-ff89-4909-a196-203017aa6cf5",
      "meta": {
        "profile": [ "http://hl7.org/fhir/us/qicore/StructureDefinition/qicore-organization" ]
      },
      "identifier": [ {
        "use": "temp",
        "system": "urn:oid:2.16.840.1.113883.4.4",
        "value": "21-3259825"
      } ],
      "active": true,
      "type": [ {
        "coding": [ {
          "system": "http://terminology.hl7.org/CodeSystem/organization-type",
          "code": "pay",
          "display": "Payer"
        } ]
      } ],
      "name": "Blue Cross Blue Shield of Texas",
      "telecom": [ {
        "system": "phone",
        "value": "(+1) 972-766-6900"
      } ],
      "address": [ {
        "use": "billing",
        "type": "postal",
        "line": [ "P.O. Box 660044" ],
        "city": "Dallas",
        "state": "TX",
        "postalCode": "75266-0044",
        "country": "USA"
      } ]
    },
    "request": {
      "method": "PUT",
      "url": "Organization/d60b64d4-ff89-4909-a196-203017aa6cf5"
    }
  }, {
    "fullUrl": "https://madie.cms.gov/Practitioner/c8509fbb-3bc5-467c-b612-d04b14c3b7e2",
    "resource": {
      "resourceType": "Practitioner",
      "id": "c8509fbb-3bc5-467c-b612-d04b14c3b7e2",
      "meta": {
        "profile": [ "http://hl7.org/fhir/us/qicore/StructureDefinition/qicore-practitioner" ]
      },
      "identifier": [ {
        "system": "http://hl7.org/fhir/sid/us-npi",
        "value": "123456"
      } ],
      "name": [ {
        "family": "Evil",
        "prefix": [ "Dr" ]
      } ]
    },
    "request": {
      "method": "PUT",
      "url": "Practitioner/c8509fbb-3bc5-467c-b612-d04b14c3b7e2"
    }
  }, {
    "fullUrl": "https://madie.cms.gov/MeasureReport/8a9240b3-a691-4c0e-a467-6badd9ca600c",
    "resource": {
      "resourceType": "MeasureReport",
      "id": "8a9240b3-a691-4c0e-a467-6badd9ca600c",
      "meta": {
        "profile": [ "http://hl7.org/fhir/us/cqfmeasures/StructureDefinition/test-case-cqfm" ]
      },
      "contained": [ {
        "resourceType": "Parameters",
        "id": "3dd42298-8bc9-4892-869e-20d4364ace58-parameters",
        "parameter": [ {
          "name": "subject",
          "valueString": "28f57404-e619-4b1e-905f-5d89fffeffcd"
        } ]
      } ],
      "extension": [ {
        "url": "http://hl7.org/fhir/StructureDefinition/cqf-inputParameters",
        "valueReference": {
          "reference": "#3dd42298-8bc9-4892-869e-20d4364ace58-parameters"
        }
      }, {
        "url": "http://hl7.org/fhir/us/cqfmeasures/StructureDefinition/cqfm-testCaseDescription",
        "valueMarkdown": "Patient with cancer diagnosis that overlaps the office visits during measurement period. Patient received twice daily chemotherapy. \n"
      } ],
      "modifierExtension": [ {
        "url": "http://hl7.org/fhir/us/cqfmeasures/StructureDefinition/cqfm-isTestCase",
        "valueBoolean": true
      } ],
      "status": "complete",
      "type": "individual",
      "measure": "https://madie.cms.gov/Measure/CMS157FHIRPainIntensityQuantified",
      "period": {
        "start": "2026-01-01",
        "end": "2026-12-31"
      },
      "group": [ {
        "id": "Group_1",
        "population": [ {
          "id": "InitialPopulation_1",
          "code": {
            "coding": [ {
              "system": "http://terminology.hl7.org/CodeSystem/measure-population",
              "code": "initial-population",
              "display": "Initial Population"
            } ]
          },
          "count": 0
        }, {
          "id": "Denominator_1",
          "code": {
            "coding": [ {
              "system": "http://terminology.hl7.org/CodeSystem/measure-population",
              "code": "denominator",
              "display": "Denominator"
            } ]
          },
          "count": 0
        }, {
          "id": "Numerator_1",
          "code": {
            "coding": [ {
              "system": "http://terminology.hl7.org/CodeSystem/measure-population",
              "code": "numerator",
              "display": "Numerator"
            } ]
          },
          "count": 0
        } ],
        "measureScore": {
          "value": 0.0
        }
      }, {
        "id": "Group_2",
        "population": [ {
          "id": "InitialPopulation_2",
          "code": {
            "coding": [ {
              "system": "http://terminology.hl7.org/CodeSystem/measure-population",
              "code": "initial-population",
              "display": "Initial Population"
            } ]
          },
          "count": 0
        }, {
          "id": "Denominator_2",
          "code": {
            "coding": [ {
              "system": "http://terminology.hl7.org/CodeSystem/measure-population",
              "code": "denominator",
              "display": "Denominator"
            } ]
          },
          "count": 0
        }, {
          "id": "Numerator_2",
          "code": {
            "coding": [ {
              "system": "http://terminology.hl7.org/CodeSystem/measure-population",
              "code": "numerator",
              "display": "Numerator"
            } ]
          },
          "count": 0
        } ],
        "measureScore": {
          "value": 0.0
        }
      } ],
      "evaluatedResource": [ {
        "reference": "Patient/28f57404-e619-4b1e-905f-5d89fffeffcd"
      }, {
        "reference": "Condition/69175780-26d2-43a2-9cbb-997451986986"
      }, {
        "reference": "Encounter/e673c7b0-b3ad-452b-b9ab-15cebb016bdf"
      }, {
        "reference": "Encounter/0e6012a9-6df0-451b-896d-d991b08ed27f"
      }, {
        "reference": "Coverage/880cd2e8-689f-4e95-8c54-5fc5550953fd"
      }, {
        "reference": "Procedure/9a27d46b-5c96-4e5f-9878-35e75c5ccae4"
      }, {
        "reference": "Procedure/d0b70796-1ac9-40f9-b507-1799e6e3f9f9"
      }, {
        "reference": "Organization/d60b64d4-ff89-4909-a196-203017aa6cf5"
      }, {
        "reference": "Practitioner/c8509fbb-3bc5-467c-b612-d04b14c3b7e2"
      } ]
    },
    "request": {
      "method": "PUT",
      "url": "MeasureReport/8a9240b3-a691-4c0e-a467-6badd9ca600c"
    }
  } ]
}