{
  "resourceType": "Bundle",
  "id": "64136a994b11b147841ab8b2",
  "type": "transaction",
  "entry": [ {
    "fullUrl": "https://madie.cms.gov/Patient/b1e68658-d64f-4ca4-a4ee-89c64e4536fa",
    "resource": {
      "resourceType": "Patient",
      "id": "b1e68658-d64f-4ca4-a4ee-89c64e4536fa",
      "meta": {
        "profile": [ "http://hl7.org/fhir/us/qicore/StructureDefinition/qicore-patient" ]
      },
      "extension": [ {
        "url": "http://hl7.org/fhir/us/core/StructureDefinition/us-core-race",
        "extension": [ {
          "url": "ombCategory",
          "valueCoding": {
            "system": "urn:oid:2.16.840.1.113883.6.238",
            "code": "2054-5",
            "display": "Black or African American",
            "userSelected": true
          }
        }, {
          "url": "text",
          "valueString": "Black or African American"
        } ]
      }, {
        "url": "http://hl7.org/fhir/us/core/StructureDefinition/us-core-ethnicity",
        "extension": [ {
          "url": "ombCategory",
          "valueCoding": {
            "system": "urn:oid:2.16.840.1.113883.6.238",
            "code": "2186-5",
            "display": "Not Hispanic or Latino",
            "userSelected": true
          }
        }, {
          "url": "text",
          "valueString": "Not Hispanic or Latino"
        } ]
      } ],
      "identifier": [ {
        "type": {
          "coding": [ {
            "system": "http://terminology.hl7.org/CodeSystem/v2-0203",
            "code": "MR"
          } ]
        },
        "system": "https://bonnie-fhir.healthit.gov/",
        "value": "64136a994b11b147841ab8b2"
      } ],
      "name": [ {
        "family": "DENEXPass",
        "given": [ "HospiceCareDiagnosis" ]
      } ],
      "gender": "male",
      "birthDate": "1971-08-22"
    },
    "request": {
      "method": "PUT",
      "url": "Patient/b1e68658-d64f-4ca4-a4ee-89c64e4536fa"
    }
  }, {
    "fullUrl": "https://madie.cms.gov/Condition/ae09d61f-35b0-48b5-8265-761a9c19bc0f",
    "resource": {
      "resourceType": "Condition",
      "id": "ae09d61f-35b0-48b5-8265-761a9c19bc0f",
      "meta": {
        "profile": [ "http://hl7.org/fhir/us/qicore/StructureDefinition/qicore-condition-encounter-diagnosis" ]
      },
      "clinicalStatus": {
        "coding": [ {
          "system": "http://terminology.hl7.org/CodeSystem/condition-clinical",
          "code": "active",
          "display": "active",
          "userSelected": true
        } ]
      },
      "category": [ {
        "coding": [ {
          "system": "http://terminology.hl7.org/CodeSystem/condition-category",
          "code": "encounter-diagnosis",
          "display": "Encounter Diagnosis",
          "userSelected": true
        } ]
      } ],
      "code": {
        "coding": [ {
          "system": "http://snomed.info/sct",
          "version": "2021-09",
          "code": "102781000119107",
          "display": "Sensory neuropathy due to type 1 diabetes mellitus (disorder)",
          "userSelected": true
        } ]
      },
      "subject": {
        "reference": "Patient/b1e68658-d64f-4ca4-a4ee-89c64e4536fa"
      },
      "onsetDateTime": "2025-03-01T08:00:00.000+00:00"
    },
    "request": {
      "method": "PUT",
      "url": "Condition/ae09d61f-35b0-48b5-8265-761a9c19bc0f"
    }
  }, {
    "fullUrl": "https://madie.cms.gov/Encounter/203f65bb-4a24-47bb-8a81-f0d336f300c5",
    "resource": {
      "resourceType": "Encounter",
      "id": "203f65bb-4a24-47bb-8a81-f0d336f300c5",
      "meta": {
        "profile": [ "http://hl7.org/fhir/us/qicore/StructureDefinition/qicore-encounter" ]
      },
      "status": "finished",
      "class": {
        "system": "http://terminology.hl7.org/CodeSystem/v3-ActCode",
        "code": "AMB",
        "display": "ambulatory",
        "userSelected": true
      },
      "type": [ {
        "coding": [ {
          "system": "http://snomed.info/sct",
          "version": "2021-09",
          "code": "444971000124105",
          "display": "Annual wellness visit (procedure)",
          "userSelected": true
        } ]
      } ],
      "subject": {
        "reference": "Patient/b1e68658-d64f-4ca4-a4ee-89c64e4536fa"
      },
      "period": {
        "start": "2026-03-07T08:00:00.000+00:00",
        "end": "2026-03-07T08:15:00.000+00:00"
      }
    },
    "request": {
      "method": "PUT",
      "url": "Encounter/203f65bb-4a24-47bb-8a81-f0d336f300c5"
    }
  }, {
    "fullUrl": "https://madie.cms.gov/Procedure/6611e096-34b1-4597-9528-43c4439558b1",
    "resource": {
      "resourceType": "Procedure",
      "id": "6611e096-34b1-4597-9528-43c4439558b1",
      "meta": {
        "profile": [ "http://hl7.org/fhir/us/qicore/StructureDefinition/qicore-procedure" ]
      },
      "extension": [ {
        "url": "http://hl7.org/fhir/us/qicore/StructureDefinition/qicore-recorded",
        "valueDateTime": "2026-03-16T08:00:00.000+00:00"
      } ],
      "status": "completed",
      "category": {
        "coding": [ {
          "system": "http://snomed.info/sct",
          "code": "103693007",
          "display": "Diagnostic procedure",
          "userSelected": true
        } ]
      },
      "code": {
        "coding": [ {
          "system": "http://snomed.info/sct",
          "version": "2021-09",
          "code": "170935008",
          "display": "Full care by hospice (finding)",
          "userSelected": true
        }, {
          "system": "http://snomed.info/sct",
          "code": "385765002",
          "userSelected": true
        } ]
      },
      "subject": {
        "reference": "Patient/b1e68658-d64f-4ca4-a4ee-89c64e4536fa"
      },
      "performedDateTime": "2026-03-16T08:00:00.000+00:00"
    },
    "request": {
      "method": "PUT",
      "url": "Procedure/6611e096-34b1-4597-9528-43c4439558b1"
    }
  }, {
    "fullUrl": "https://madie.cms.gov/Condition/e2d95e1f-66c3-45f1-bbd0-40cbd2b45e4c",
    "resource": {
      "resourceType": "Condition",
      "id": "e2d95e1f-66c3-45f1-bbd0-40cbd2b45e4c",
      "meta": {
        "profile": [ "http://hl7.org/fhir/us/qicore/StructureDefinition/qicore-condition-problems-health-concerns" ]
      },
      "clinicalStatus": {
        "coding": [ {
          "system": "http://terminology.hl7.org/CodeSystem/condition-clinical",
          "code": "active"
        } ]
      },
      "category": [ {
        "coding": [ {
          "system": "http://terminology.hl7.org/CodeSystem/condition-category",
          "code": "problem-list-item",
          "display": "Problem List Item"
        } ]
      } ],
      "code": {
        "coding": [ {
          "system": "http://snomed.info/sct",
          "version": "2021-09",
          "code": "170935008",
          "display": "Full care by hospice (finding)"
        } ]
      },
      "subject": {
        "reference": "Patient/b1e68658-d64f-4ca4-a4ee-89c64e4536fa"
      },
      "onsetDateTime": "2026-01-01T00:00:00.000+00:00"
    },
    "request": {
      "method": "PUT",
      "url": "Condition/e2d95e1f-66c3-45f1-bbd0-40cbd2b45e4c"
    }
  }, {
    "fullUrl": "https://madie.cms.gov/Condition/f5ef8c63-b4b2-474f-8f54-5f0fab150553",
    "resource": {
      "resourceType": "Condition",
      "id": "f5ef8c63-b4b2-474f-8f54-5f0fab150553",
      "meta": {
        "profile": [ "http://hl7.org/fhir/us/qicore/StructureDefinition/qicore-condition-encounter-diagnosis" ]
      },
      "clinicalStatus": {
        "coding": [ {
          "system": "http://terminology.hl7.org/CodeSystem/condition-clinical",
          "code": "active"
        } ]
      },
      "category": [ {
        "coding": [ {
          "system": "http://terminology.hl7.org/CodeSystem/condition-category",
          "code": "encounter-diagnosis",
          "display": "Encounter Diagnosis"
        } ]
      } ],
      "code": {
        "coding": [ {
          "system": "http://snomed.info/sct",
          "version": "2021-09",
          "code": "170935008",
          "display": "Full care by hospice (finding)"
        } ]
      },
      "subject": {
        "reference": "Patient/b1e68658-d64f-4ca4-a4ee-89c64e4536fa"
      },
      "onsetDateTime": "2026-01-01T00:00:00.000+00:00"
    },
    "request": {
      "method": "PUT",
      "url": "Condition/f5ef8c63-b4b2-474f-8f54-5f0fab150553"
    }
  }, {
    "fullUrl": "https://madie.cms.gov/MeasureReport/96db6705-7dc4-4be6-90be-7adb58d9e3a5",
    "resource": {
      "resourceType": "MeasureReport",
      "id": "96db6705-7dc4-4be6-90be-7adb58d9e3a5",
      "meta": {
        "profile": [ "http://hl7.org/fhir/us/cqfmeasures/StructureDefinition/test-case-cqfm" ]
      },
      "contained": [ {
        "resourceType": "Parameters",
        "id": "c16696ee-187d-4635-853f-88eabe620225-parameters",
        "parameter": [ {
          "name": "subject",
          "valueString": "b1e68658-d64f-4ca4-a4ee-89c64e4536fa"
        } ]
      } ],
      "extension": [ {
        "url": "http://hl7.org/fhir/StructureDefinition/cqf-inputParameters",
        "valueReference": {
          "reference": "#c16696ee-187d-4635-853f-88eabe620225-parameters"
        }
      }, {
        "url": "http://hl7.org/fhir/us/cqfmeasures/StructureDefinition/cqfm-testCaseDescription",
        "valueMarkdown": "This patient is 65 years old with a qualifying encounter and active diabetes diagnosis, with a Hospice Care Diagnosis. This case tests the denominator exclusion criteria."
      } ],
      "modifierExtension": [ {
        "url": "http://hl7.org/fhir/us/cqfmeasures/StructureDefinition/cqfm-isTestCase",
        "valueBoolean": true
      } ],
      "status": "complete",
      "type": "individual",
      "measure": "https://madie.cms.gov/Measure/CMS951FHIRKidneyHealthEval",
      "period": {
        "start": "2026-01-01",
        "end": "2026-12-31"
      },
      "group": [ {
        "id": "Group_1",
        "population": [ {
          "id": "InitialPopulation_1",
          "code": {
            "coding": [ {
              "system": "http://terminology.hl7.org/CodeSystem/measure-population",
              "code": "initial-population",
              "display": "Initial Population"
            } ]
          },
          "count": 1
        }, {
          "id": "Denominator_1",
          "code": {
            "coding": [ {
              "system": "http://terminology.hl7.org/CodeSystem/measure-population",
              "code": "denominator",
              "display": "Denominator"
            } ]
          },
          "count": 1
        }, {
          "id": "DenominatorExclusion_1",
          "code": {
            "coding": [ {
              "system": "http://terminology.hl7.org/CodeSystem/measure-population",
              "code": "denominator-exclusion",
              "display": "Denominator Exclusion"
            } ]
          },
          "count": 1
        }, {
          "id": "Numerator_1",
          "code": {
            "coding": [ {
              "system": "http://terminology.hl7.org/CodeSystem/measure-population",
              "code": "numerator",
              "display": "Numerator"
            } ]
          },
          "count": 0
        } ],
        "measureScore": {
          "value": 1.0
        }
      } ],
      "evaluatedResource": [ {
        "reference": "Patient/b1e68658-d64f-4ca4-a4ee-89c64e4536fa"
      }, {
        "reference": "Condition/ae09d61f-35b0-48b5-8265-761a9c19bc0f"
      }, {
        "reference": "Encounter/203f65bb-4a24-47bb-8a81-f0d336f300c5"
      }, {
        "reference": "Procedure/6611e096-34b1-4597-9528-43c4439558b1"
      }, {
        "reference": "Condition/e2d95e1f-66c3-45f1-bbd0-40cbd2b45e4c"
      }, {
        "reference": "Condition/f5ef8c63-b4b2-474f-8f54-5f0fab150553"
      } ]
    },
    "request": {
      "method": "PUT",
      "url": "MeasureReport/96db6705-7dc4-4be6-90be-7adb58d9e3a5"
    }
  } ]
}