{
  "resourceType": "Bundle",
  "id": "DENEXPass-HospiceProcedureStartsDuringMP",
  "type": "transaction",
  "entry": [ {
    "fullUrl": "https://madie.cms.gov/Patient/0e867903-400d-4d71-a7fd-dc9b96d94a17",
    "resource": {
      "resourceType": "Patient",
      "id": "0e867903-400d-4d71-a7fd-dc9b96d94a17",
      "meta": {
        "profile": [ "http://hl7.org/fhir/us/qicore/StructureDefinition/qicore-patient" ]
      },
      "extension": [ {
        "url": "http://hl7.org/fhir/us/core/StructureDefinition/us-core-race",
        "extension": [ {
          "url": "ombCategory",
          "valueCoding": {
            "system": "urn:oid:2.16.840.1.113883.6.238",
            "code": "2028-9",
            "display": "Asian"
          }
        }, {
          "url": "text",
          "valueString": "Asian"
        } ]
      }, {
        "url": "http://hl7.org/fhir/us/core/StructureDefinition/us-core-ethnicity",
        "extension": [ {
          "url": "ombCategory",
          "valueCoding": {
            "system": "urn:oid:2.16.840.1.113883.6.238",
            "code": "2135-2",
            "display": "Hispanic or Latino"
          }
        }, {
          "url": "text",
          "valueString": "Hispanic or Latino"
        } ]
      } ],
      "identifier": [ {
        "system": "http://hospital.smarthealthit.org",
        "value": "999999995"
      } ],
      "name": [ {
        "family": "DENEXPass",
        "given": [ "HospiceProcedureStartsDuringMP" ]
      } ],
      "gender": "female",
      "birthDate": "2007-12-31"
    },
    "request": {
      "method": "PUT",
      "url": "Patient/0e867903-400d-4d71-a7fd-dc9b96d94a17"
    }
  }, {
    "fullUrl": "https://madie.cms.gov/Encounter/5b5cbffd-4946-4c81-816f-3a22aaf9f79c",
    "resource": {
      "resourceType": "Encounter",
      "id": "5b5cbffd-4946-4c81-816f-3a22aaf9f79c",
      "meta": {
        "profile": [ "http://hl7.org/fhir/us/qicore/StructureDefinition/qicore-encounter" ]
      },
      "status": "finished",
      "class": {
        "system": "http://terminology.hl7.org/CodeSystem/v3-ActCode",
        "code": "AMB",
        "display": "ambulatory"
      },
      "type": [ {
        "coding": [ {
          "system": "http://snomed.info/sct",
          "code": "3391000175108",
          "display": "Office visit for pediatric care and assessment (procedure)"
        } ]
      } ],
      "subject": {
        "reference": "Patient/0e867903-400d-4d71-a7fd-dc9b96d94a17"
      },
      "period": {
        "start": "2026-01-01T00:00:00.000+00:00",
        "end": "2026-01-01T01:00:00.000+00:00"
      }
    },
    "request": {
      "method": "PUT",
      "url": "Encounter/5b5cbffd-4946-4c81-816f-3a22aaf9f79c"
    }
  }, {
    "fullUrl": "https://madie.cms.gov/Condition/1cb16b61-ecab-4888-8c17-ebde779c4aaa",
    "resource": {
      "resourceType": "Condition",
      "id": "1cb16b61-ecab-4888-8c17-ebde779c4aaa",
      "meta": {
        "profile": [ "http://hl7.org/fhir/us/qicore/StructureDefinition/qicore-condition-encounter-diagnosis" ]
      },
      "clinicalStatus": {
        "coding": [ {
          "system": "http://terminology.hl7.org/CodeSystem/condition-clinical",
          "code": "active"
        } ]
      },
      "category": [ {
        "coding": [ {
          "system": "http://terminology.hl7.org/CodeSystem/condition-category",
          "code": "encounter-diagnosis",
          "display": "Encounter Diagnosis"
        } ]
      } ],
      "code": {
        "coding": [ {
          "system": "http://snomed.info/sct",
          "code": "371125006",
          "display": "Labile essential hypertension (disorder)"
        } ]
      },
      "subject": {
        "reference": "Patient/0e867903-400d-4d71-a7fd-dc9b96d94a17"
      },
      "onsetDateTime": "2026-06-30T23:59:59.000+00:00"
    },
    "request": {
      "method": "PUT",
      "url": "Condition/1cb16b61-ecab-4888-8c17-ebde779c4aaa"
    }
  }, {
    "fullUrl": "https://madie.cms.gov/Procedure/93b1237d-f576-4723-aac8-4be0c08fbde1",
    "resource": {
      "resourceType": "Procedure",
      "id": "93b1237d-f576-4723-aac8-4be0c08fbde1",
      "meta": {
        "profile": [ "http://hl7.org/fhir/us/qicore/StructureDefinition/qicore-procedure" ]
      },
      "extension": [ {
        "url": "http://hl7.org/fhir/us/qicore/StructureDefinition/qicore-recorded",
        "valueDateTime": "2026-12-31T00:00:00.000+00:00"
      } ],
      "status": "completed",
      "code": {
        "coding": [ {
          "system": "http://snomed.info/sct",
          "code": "385763009",
          "display": "Hospice care (regime/therapy)"
        } ]
      },
      "subject": {
        "reference": "Patient/0e867903-400d-4d71-a7fd-dc9b96d94a17"
      },
      "performedPeriod": {
        "start": "2026-12-31T00:00:00.000+00:00",
        "end": "2026-12-31T23:59:59.000+00:00"
      }
    },
    "request": {
      "method": "PUT",
      "url": "Procedure/93b1237d-f576-4723-aac8-4be0c08fbde1"
    }
  }, {
    "fullUrl": "https://madie.cms.gov/MeasureReport/24439e57-9c88-474c-baf8-4d424d40153e",
    "resource": {
      "resourceType": "MeasureReport",
      "id": "24439e57-9c88-474c-baf8-4d424d40153e",
      "meta": {
        "profile": [ "http://hl7.org/fhir/us/cqfmeasures/StructureDefinition/test-case-cqfm" ]
      },
      "contained": [ {
        "resourceType": "Parameters",
        "id": "8196c0b5-59cf-4e0c-b585-c9ae8f4b9192-parameters",
        "parameter": [ {
          "name": "subject",
          "valueString": "0e867903-400d-4d71-a7fd-dc9b96d94a17"
        } ]
      } ],
      "extension": [ {
        "url": "http://hl7.org/fhir/StructureDefinition/cqf-inputParameters",
        "valueReference": {
          "reference": "#8196c0b5-59cf-4e0c-b585-c9ae8f4b9192-parameters"
        }
      }, {
        "url": "http://hl7.org/fhir/us/cqfmeasures/StructureDefinition/cqfm-testCaseDescription",
        "valueMarkdown": "Hospice procedure starts during MP"
      } ],
      "modifierExtension": [ {
        "url": "http://hl7.org/fhir/us/cqfmeasures/StructureDefinition/cqfm-isTestCase",
        "valueBoolean": true
      } ],
      "status": "complete",
      "type": "individual",
      "measure": "https://madie.cms.gov/Measure/CMS165FHIRControllingHighBP",
      "period": {
        "start": "2026-01-01",
        "end": "2026-12-31"
      },
      "group": [ {
        "id": "Group_1",
        "population": [ {
          "id": "InitialPopulation_1",
          "code": {
            "coding": [ {
              "system": "http://terminology.hl7.org/CodeSystem/measure-population",
              "code": "initial-population",
              "display": "Initial Population"
            } ]
          },
          "count": 1
        }, {
          "id": "Denominator_1",
          "code": {
            "coding": [ {
              "system": "http://terminology.hl7.org/CodeSystem/measure-population",
              "code": "denominator",
              "display": "Denominator"
            } ]
          },
          "count": 1
        }, {
          "id": "DenominatorExclusion_1",
          "code": {
            "coding": [ {
              "system": "http://terminology.hl7.org/CodeSystem/measure-population",
              "code": "denominator-exclusion",
              "display": "Denominator Exclusion"
            } ]
          },
          "count": 1
        }, {
          "id": "Numerator_1",
          "code": {
            "coding": [ {
              "system": "http://terminology.hl7.org/CodeSystem/measure-population",
              "code": "numerator",
              "display": "Numerator"
            } ]
          },
          "count": 0
        } ],
        "measureScore": {
          "value": 1.0
        }
      } ],
      "evaluatedResource": [ {
        "reference": "Patient/0e867903-400d-4d71-a7fd-dc9b96d94a17"
      }, {
        "reference": "Encounter/5b5cbffd-4946-4c81-816f-3a22aaf9f79c"
      }, {
        "reference": "Condition/1cb16b61-ecab-4888-8c17-ebde779c4aaa"
      }, {
        "reference": "Procedure/93b1237d-f576-4723-aac8-4be0c08fbde1"
      } ]
    },
    "request": {
      "method": "PUT",
      "url": "MeasureReport/24439e57-9c88-474c-baf8-4d424d40153e"
    }
  } ]
}