{
  "resourceType": "Bundle",
  "id": "617c00401289f5673c8cefff",
  "type": "transaction",
  "entry": [ {
    "fullUrl": "https://madie.cms.gov/Patient/64b49dbf-ca61-4e12-a99c-b2bfb95c53fb",
    "resource": {
      "resourceType": "Patient",
      "id": "64b49dbf-ca61-4e12-a99c-b2bfb95c53fb",
      "meta": {
        "profile": [ "http://hl7.org/fhir/us/qicore/StructureDefinition/qicore-patient" ]
      },
      "extension": [ {
        "url": "http://hl7.org/fhir/us/core/StructureDefinition/us-core-race",
        "extension": [ {
          "url": "ombCategory",
          "valueCoding": {
            "system": "urn:oid:2.16.840.1.113883.6.238",
            "code": "2076-8",
            "display": "Native Hawaiian or Other Pacific Islander",
            "userSelected": true
          }
        }, {
          "url": "text",
          "valueString": "Native Hawaiian or Other Pacific Islander"
        } ]
      }, {
        "url": "http://hl7.org/fhir/us/core/StructureDefinition/us-core-ethnicity",
        "extension": [ {
          "url": "ombCategory",
          "valueCoding": {
            "system": "urn:oid:2.16.840.1.113883.6.238",
            "code": "2186-5",
            "display": "Not Hispanic or Latino",
            "userSelected": true
          }
        }, {
          "url": "text",
          "valueString": "Not Hispanic or Latino"
        } ]
      }, {
        "url": "http://hl7.org/fhir/us/core/StructureDefinition/us-core-sex",
        "valueCode": "248152002"
      } ],
      "identifier": [ {
        "type": {
          "coding": [ {
            "system": "http://terminology.hl7.org/CodeSystem/v2-0203",
            "code": "MR"
          } ]
        },
        "system": "https://bonnie-fhir.healthit.gov/",
        "value": "617c00401289f5673c8cefff"
      } ],
      "name": [ {
        "family": "DenExcl5Pass",
        "given": [ "PxStarts8DBeforeEDEndsDuringED" ]
      } ],
      "gender": "female",
      "birthDate": "1985-12-02"
    },
    "request": {
      "method": "PUT",
      "url": "Patient/64b49dbf-ca61-4e12-a99c-b2bfb95c53fb"
    }
  }, {
    "fullUrl": "https://madie.cms.gov/Encounter/bc3711e7-50c9-4b90-8c73-f738d706c234",
    "resource": {
      "resourceType": "Encounter",
      "id": "bc3711e7-50c9-4b90-8c73-f738d706c234",
      "meta": {
        "profile": [ "http://hl7.org/fhir/us/qicore/StructureDefinition/qicore-encounter" ]
      },
      "status": "finished",
      "class": {
        "system": "http://terminology.hl7.org/CodeSystem/v3-ActCode",
        "code": "EMER",
        "display": "emergency",
        "userSelected": true
      },
      "type": [ {
        "coding": [ {
          "system": "http://snomed.info/sct",
          "version": "2020-09",
          "code": "4525004",
          "display": "Emergency department patient visit (procedure)",
          "userSelected": true
        } ]
      } ],
      "subject": {
        "reference": "Patient/64b49dbf-ca61-4e12-a99c-b2bfb95c53fb"
      },
      "period": {
        "start": "2026-10-09T08:05:00.000+00:00",
        "end": "2026-10-10T07:15:00.000+00:00"
      },
      "reasonReference": [ {
        "reference": "Condition/1042f522-dffc-42bf-ae8c-f7e2b4534f38"
      } ]
    },
    "request": {
      "method": "PUT",
      "url": "Encounter/bc3711e7-50c9-4b90-8c73-f738d706c234"
    }
  }, {
    "fullUrl": "https://madie.cms.gov/Condition/1042f522-dffc-42bf-ae8c-f7e2b4534f38",
    "resource": {
      "resourceType": "Condition",
      "id": "1042f522-dffc-42bf-ae8c-f7e2b4534f38",
      "meta": {
        "profile": [ "http://hl7.org/fhir/us/qicore/StructureDefinition/qicore-condition-problems-health-concerns" ]
      },
      "clinicalStatus": {
        "coding": [ {
          "system": "http://terminology.hl7.org/CodeSystem/condition-clinical",
          "code": "active",
          "display": "active",
          "userSelected": true
        } ]
      },
      "category": [ {
        "coding": [ {
          "system": "http://terminology.hl7.org/CodeSystem/condition-category",
          "code": "problem-list-item",
          "display": "Problem List Item",
          "userSelected": true
        } ]
      } ],
      "code": {
        "coding": [ {
          "system": "http://snomed.info/sct",
          "version": "2020-09",
          "code": "401303003",
          "display": "Acute ST segment elevation myocardial infarction (disorder)",
          "userSelected": true
        } ]
      },
      "subject": {
        "reference": "Patient/64b49dbf-ca61-4e12-a99c-b2bfb95c53fb"
      },
      "onsetDateTime": "2026-10-09T08:30:00.000+00:00"
    },
    "request": {
      "method": "PUT",
      "url": "Condition/1042f522-dffc-42bf-ae8c-f7e2b4534f38"
    }
  }, {
    "fullUrl": "https://madie.cms.gov/Procedure/7c6763d5-884b-478e-883c-4a85a7e8b2e7",
    "resource": {
      "resourceType": "Procedure",
      "id": "7c6763d5-884b-478e-883c-4a85a7e8b2e7",
      "meta": {
        "profile": [ "http://hl7.org/fhir/us/qicore/StructureDefinition/qicore-procedure" ]
      },
      "extension": [ {
        "url": "http://hl7.org/fhir/us/qicore/StructureDefinition/qicore-recorded",
        "valueDateTime": "2026-10-09T10:15:00.000+00:00"
      } ],
      "status": "completed",
      "category": {
        "coding": [ {
          "system": "http://snomed.info/sct",
          "code": "387713003",
          "display": "Surgical procedure",
          "userSelected": true
        } ]
      },
      "code": {
        "coding": [ {
          "system": "http://www.cms.gov/Medicare/Coding/ICD10",
          "version": "2021",
          "code": "00500ZZ",
          "display": "Destruction of Brain, Open Approach",
          "userSelected": true
        } ]
      },
      "subject": {
        "reference": "Patient/64b49dbf-ca61-4e12-a99c-b2bfb95c53fb"
      },
      "performedPeriod": {
        "start": "2026-10-01T08:00:00.000+00:00",
        "end": "2026-10-09T10:15:00.000+00:00"
      }
    },
    "request": {
      "method": "PUT",
      "url": "Procedure/7c6763d5-884b-478e-883c-4a85a7e8b2e7"
    }
  }, {
    "fullUrl": "https://madie.cms.gov/MeasureReport/366f0460-f42d-4c88-9592-b3b5083199ef",
    "resource": {
      "resourceType": "MeasureReport",
      "id": "366f0460-f42d-4c88-9592-b3b5083199ef",
      "meta": {
        "profile": [ "http://hl7.org/fhir/us/cqfmeasures/StructureDefinition/test-case-cqfm" ]
      },
      "contained": [ {
        "resourceType": "Parameters",
        "id": "40111dab-051a-4f9d-93e3-79f6f9bab62c-parameters",
        "parameter": [ {
          "name": "subject",
          "valueString": "64b49dbf-ca61-4e12-a99c-b2bfb95c53fb"
        } ]
      } ],
      "extension": [ {
        "url": "http://hl7.org/fhir/StructureDefinition/cqf-inputParameters",
        "valueReference": {
          "reference": "#40111dab-051a-4f9d-93e3-79f6f9bab62c-parameters"
        }
      }, {
        "url": "http://hl7.org/fhir/us/cqfmeasures/StructureDefinition/cqfm-testCaseDescription",
        "valueMarkdown": "Patient has Intracranial or Intraspinal Surgery (exclusion Px) starts 8 days before ED visit and ends during ED\n**need to select codes to test this logic as value set overlaps with major surgical procedure**"
      } ],
      "modifierExtension": [ {
        "url": "http://hl7.org/fhir/us/cqfmeasures/StructureDefinition/cqfm-isTestCase",
        "valueBoolean": true
      } ],
      "status": "complete",
      "type": "individual",
      "measure": "https://madie.cms.gov/Measure/CMS996FHIRAptTxforSTEMI",
      "period": {
        "start": "2026-01-01",
        "end": "2026-12-31"
      },
      "group": [ {
        "id": "Group_1",
        "population": [ {
          "id": "InitialPopulation_1",
          "code": {
            "coding": [ {
              "system": "http://terminology.hl7.org/CodeSystem/measure-population",
              "code": "initial-population",
              "display": "Initial Population"
            } ]
          },
          "count": 1
        }, {
          "id": "Denominator_1",
          "code": {
            "coding": [ {
              "system": "http://terminology.hl7.org/CodeSystem/measure-population",
              "code": "denominator",
              "display": "Denominator"
            } ]
          },
          "count": 1
        }, {
          "id": "DenominatorExclusion_1",
          "code": {
            "coding": [ {
              "system": "http://terminology.hl7.org/CodeSystem/measure-population",
              "code": "denominator-exclusion",
              "display": "Denominator Exclusion"
            } ]
          },
          "count": 1
        }, {
          "id": "Numerator_1",
          "code": {
            "coding": [ {
              "system": "http://terminology.hl7.org/CodeSystem/measure-population",
              "code": "numerator",
              "display": "Numerator"
            } ]
          },
          "count": 0
        }, {
          "id": "DenominatorException_1",
          "code": {
            "coding": [ {
              "system": "http://terminology.hl7.org/CodeSystem/measure-population",
              "code": "denominator-exception",
              "display": "Denominator Exception"
            } ]
          },
          "count": 0
        } ],
        "measureScore": {
          "value": 0.0
        }
      } ],
      "evaluatedResource": [ {
        "reference": "Patient/64b49dbf-ca61-4e12-a99c-b2bfb95c53fb"
      }, {
        "reference": "Encounter/bc3711e7-50c9-4b90-8c73-f738d706c234"
      }, {
        "reference": "Condition/1042f522-dffc-42bf-ae8c-f7e2b4534f38"
      }, {
        "reference": "Procedure/7c6763d5-884b-478e-883c-4a85a7e8b2e7"
      } ]
    },
    "request": {
      "method": "PUT",
      "url": "MeasureReport/366f0460-f42d-4c88-9592-b3b5083199ef"
    }
  } ]
}