{
  "resourceType": "Bundle",
  "id": "649f3dcc585d003d2ac643cd",
  "type": "collection",
  "entry": [ {
    "fullUrl": "https://madie.cms.gov/Patient/b7cb0363-3581-4627-a684-a4a1e2f34f42",
    "resource": {
      "resourceType": "Patient",
      "id": "b7cb0363-3581-4627-a684-a4a1e2f34f42",
      "meta": {
        "profile": [ "http://hl7.org/fhir/us/qicore/StructureDefinition/qicore-patient" ]
      },
      "extension": [ {
        "url": "http://hl7.org/fhir/us/core/StructureDefinition/us-core-race",
        "extension": [ {
          "url": "ombCategory",
          "valueCoding": {
            "system": "urn:oid:2.16.840.1.113883.6.238",
            "code": "2054-5",
            "display": "Black or African American",
            "userSelected": true
          }
        }, {
          "url": "text",
          "valueString": "Black or African American"
        } ]
      }, {
        "url": "http://hl7.org/fhir/us/core/StructureDefinition/us-core-ethnicity",
        "extension": [ {
          "url": "ombCategory",
          "valueCoding": {
            "system": "urn:oid:2.16.840.1.113883.6.238",
            "code": "2186-5",
            "display": "Not Hispanic or Latino",
            "userSelected": true
          }
        }, {
          "url": "text",
          "valueString": "Not Hispanic or Latino"
        } ]
      } ],
      "identifier": [ {
        "type": {
          "coding": [ {
            "system": "http://terminology.hl7.org/CodeSystem/v2-0203",
            "code": "MR"
          } ]
        },
        "system": "https://bonnie-fhir.healthit.gov/",
        "value": "649f3dcc585d003d2ac643cd"
      } ],
      "name": [ {
        "family": "NUMFail",
        "given": [ "3LabAfterMP" ]
      } ],
      "gender": "female",
      "birthDate": "2001-02-04"
    }
  }, {
    "fullUrl": "https://madie.cms.gov/Condition/663812b2-9dab-4b8f-89c6-55aa39f75324",
    "resource": {
      "resourceType": "Condition",
      "id": "663812b2-9dab-4b8f-89c6-55aa39f75324",
      "meta": {
        "profile": [ "http://hl7.org/fhir/us/qicore/StructureDefinition/qicore-condition-problems-health-concerns" ]
      },
      "clinicalStatus": {
        "coding": [ {
          "system": "http://terminology.hl7.org/CodeSystem/condition-clinical",
          "code": "active",
          "display": "active",
          "userSelected": true
        } ]
      },
      "category": [ {
        "coding": [ {
          "system": "http://terminology.hl7.org/CodeSystem/condition-category",
          "code": "problem-list-item",
          "display": "Problem List Item"
        } ]
      } ],
      "code": {
        "coding": [ {
          "system": "http://hl7.org/fhir/sid/icd-9-cm",
          "version": "2013",
          "code": "042",
          "display": "Human immunodeficiency virus [HIV] disease",
          "userSelected": true
        }, {
          "system": "http://snomed.info/sct",
          "version": "http://snomed.info/sct/731000124108/version/20250301",
          "code": "165816005",
          "userSelected": true
        } ]
      },
      "subject": {
        "reference": "Patient/b7cb0363-3581-4627-a684-a4a1e2f34f42"
      },
      "onsetDateTime": "2018-09-28T08:00:00.000+00:00",
      "recordedDate": "2018-09-28T08:00:00.000+00:00"
    }
  }, {
    "fullUrl": "https://madie.cms.gov/Encounter/3b268c2d-cafd-4831-bfa0-6b848ed4f7d5",
    "resource": {
      "resourceType": "Encounter",
      "id": "3b268c2d-cafd-4831-bfa0-6b848ed4f7d5",
      "meta": {
        "profile": [ "http://hl7.org/fhir/us/qicore/StructureDefinition/qicore-encounter" ]
      },
      "status": "finished",
      "class": {
        "system": "http://terminology.hl7.org/CodeSystem/v3-ActCode",
        "code": "AMB",
        "display": "ambulatory"
      },
      "type": [ {
        "coding": [ {
          "system": "http://www.ama-assn.org/go/cpt",
          "version": "2023",
          "code": "99381",
          "display": "Initial comprehensive preventive medicine evaluation and management of an individual including an age and gender appropriate history, examination, counseling/anticipatory guidance/risk factor reduction interventions, and the ordering of laboratory/diagnostic procedures, new patient; infant (age younger than 1 year)",
          "userSelected": true
        } ]
      } ],
      "subject": {
        "reference": "Patient/b7cb0363-3581-4627-a684-a4a1e2f34f42"
      },
      "period": {
        "start": "2026-09-28T08:00:00.000+00:00",
        "end": "2026-09-28T08:30:00.000+00:00"
      }
    }
  }, {
    "fullUrl": "https://madie.cms.gov/Observation/1d250f6d-15ed-4f17-b53f-66a670092b04",
    "resource": {
      "resourceType": "Observation",
      "id": "1d250f6d-15ed-4f17-b53f-66a670092b04",
      "meta": {
        "profile": [ "http://hl7.org/fhir/us/qicore/StructureDefinition/qicore-observation-lab" ]
      },
      "status": "final",
      "category": [ {
        "coding": [ {
          "system": "http://terminology.hl7.org/CodeSystem/observation-category",
          "code": "laboratory",
          "display": "Laboratory"
        } ]
      }, {
        "coding": [ {
          "system": "http://terminology.hl7.org/CodeSystem/observation-category",
          "code": "survey"
        } ]
      } ],
      "code": {
        "coding": [ {
          "system": "http://loinc.org",
          "version": "2.73",
          "code": "11084-1",
          "display": "Reagin Ab [Titer] in Serum",
          "userSelected": true
        } ]
      },
      "subject": {
        "reference": "Patient/b7cb0363-3581-4627-a684-a4a1e2f34f42"
      },
      "effectiveDateTime": "2027-10-31T08:16:00.000+00:00",
      "issued": "2027-10-31T08:16:00.000+00:00",
      "valueQuantity": {
        "value": 18
      }
    }
  }, {
    "fullUrl": "https://madie.cms.gov/Observation/079629f4-2074-4333-855c-1327ea18f9a8",
    "resource": {
      "resourceType": "Observation",
      "id": "079629f4-2074-4333-855c-1327ea18f9a8",
      "meta": {
        "profile": [ "http://hl7.org/fhir/us/qicore/StructureDefinition/qicore-observation-lab" ]
      },
      "status": "final",
      "category": [ {
        "coding": [ {
          "system": "http://terminology.hl7.org/CodeSystem/observation-category",
          "code": "laboratory",
          "display": "Laboratory"
        } ]
      }, {
        "coding": [ {
          "system": "http://terminology.hl7.org/CodeSystem/observation-category",
          "code": "survey"
        } ]
      } ],
      "code": {
        "coding": [ {
          "system": "http://loinc.org",
          "version": "2.73",
          "code": "21414-8",
          "display": "Neisseria gonorrhoeae DNA [Presence] in Cervical mucus by NAA with probe detection",
          "userSelected": true
        } ]
      },
      "subject": {
        "reference": "Patient/b7cb0363-3581-4627-a684-a4a1e2f34f42"
      },
      "effectiveDateTime": "2027-01-31T08:00:00.000+00:00",
      "issued": "2027-01-31T08:00:00.000+00:00",
      "valueQuantity": {
        "value": 18
      }
    }
  }, {
    "fullUrl": "https://madie.cms.gov/Observation/fcc0a152-593e-46ea-8b99-4c4417f6685b",
    "resource": {
      "resourceType": "Observation",
      "id": "fcc0a152-593e-46ea-8b99-4c4417f6685b",
      "meta": {
        "profile": [ "http://hl7.org/fhir/us/qicore/StructureDefinition/qicore-observation-lab" ]
      },
      "status": "final",
      "category": [ {
        "coding": [ {
          "system": "http://terminology.hl7.org/CodeSystem/observation-category",
          "code": "laboratory",
          "display": "Laboratory"
        } ]
      }, {
        "coding": [ {
          "system": "http://terminology.hl7.org/CodeSystem/observation-category",
          "code": "survey"
        } ]
      } ],
      "code": {
        "coding": [ {
          "system": "http://loinc.org",
          "version": "2.73",
          "code": "14463-4",
          "display": "Chlamydia trachomatis [Presence] in Cervix by Organism specific culture",
          "userSelected": true
        } ]
      },
      "subject": {
        "reference": "Patient/b7cb0363-3581-4627-a684-a4a1e2f34f42"
      },
      "effectivePeriod": {
        "start": "2027-10-31T08:16:00.000+00:00",
        "end": "2027-10-31T08:17:00.000+00:00"
      },
      "issued": "2026-10-31T08:16:00.000+00:00",
      "valueQuantity": {
        "value": 18
      }
    }
  }, {
    "fullUrl": "https://madie.cms.gov/Coverage/397750d3-88b6-4899-a73c-b44c36f94137",
    "resource": {
      "resourceType": "Coverage",
      "id": "397750d3-88b6-4899-a73c-b44c36f94137",
      "meta": {
        "profile": [ "http://hl7.org/fhir/us/qicore/StructureDefinition/qicore-coverage" ]
      },
      "status": "active",
      "subscriberId": "123456",
      "beneficiary": {
        "reference": "Patient/b7cb0363-3581-4627-a684-a4a1e2f34f42"
      },
      "relationship": {
        "coding": [ {
          "system": "http://terminology.hl7.org/CodeSystem/subscriber-relationship",
          "code": "self",
          "display": "Self"
        } ]
      },
      "payor": [ {
        "reference": "Organization/5bfee816-468a-4f4d-a662-7bd040af159a"
      } ]
    }
  }, {
    "fullUrl": "https://madie.cms.gov/Organization/5bfee816-468a-4f4d-a662-7bd040af159a",
    "resource": {
      "resourceType": "Organization",
      "id": "5bfee816-468a-4f4d-a662-7bd040af159a",
      "meta": {
        "profile": [ "http://hl7.org/fhir/us/qicore/StructureDefinition/qicore-organization" ]
      },
      "identifier": [ {
        "use": "temp",
        "system": "urn:oid:2.16.840.1.113883.4.4",
        "value": "21-3259825"
      } ],
      "active": true,
      "type": [ {
        "coding": [ {
          "system": "http://terminology.hl7.org/CodeSystem/organization-type",
          "code": "pay",
          "display": "Payer"
        } ]
      } ],
      "name": "Blue Cross Blue Shield of Texas",
      "telecom": [ {
        "system": "phone",
        "value": "(+1) 972-766-6900"
      } ],
      "address": [ {
        "use": "billing",
        "type": "postal",
        "line": [ "P.O. Box 660044" ],
        "city": "Dallas",
        "state": "TX",
        "postalCode": "75266-0044",
        "country": "USA"
      } ]
    }
  }, {
    "fullUrl": "https://madie.cms.gov/Practitioner/29c447f1-e164-4d82-9d7f-55c2a023c58d",
    "resource": {
      "resourceType": "Practitioner",
      "id": "29c447f1-e164-4d82-9d7f-55c2a023c58d",
      "meta": {
        "profile": [ "http://hl7.org/fhir/us/qicore/StructureDefinition/qicore-practitioner" ]
      },
      "identifier": [ {
        "system": "http://hl7.org/fhir/sid/us-npi",
        "value": "1689411712"
      } ],
      "name": [ {
        "family": "Evil",
        "prefix": [ "Dr" ]
      } ]
    }
  }, {
    "fullUrl": "https://madie.cms.gov/MeasureReport/18671a7c-3020-4adf-abb3-d5ceeaacdd20",
    "resource": {
      "resourceType": "MeasureReport",
      "id": "18671a7c-3020-4adf-abb3-d5ceeaacdd20",
      "meta": {
        "profile": [ "http://hl7.org/fhir/us/cqfmeasures/StructureDefinition/test-case-cqfm" ]
      },
      "contained": [ {
        "resourceType": "Parameters",
        "id": "474a7d45-ddb9-4c7f-92be-edb542be6c7f-parameters",
        "parameter": [ {
          "name": "subject",
          "valueString": "b7cb0363-3581-4627-a684-a4a1e2f34f42"
        } ]
      } ],
      "extension": [ {
        "url": "http://hl7.org/fhir/StructureDefinition/cqf-inputParameters",
        "valueReference": {
          "reference": "#474a7d45-ddb9-4c7f-92be-edb542be6c7f-parameters"
        }
      }, {
        "url": "http://hl7.org/fhir/us/cqfmeasures/StructureDefinition/cqfm-testCaseDescription",
        "valueMarkdown": "Patient is over 13 years old with an encounter - 3 STI screen after MP, 0 STI screen during MP"
      } ],
      "modifierExtension": [ {
        "url": "http://hl7.org/fhir/us/cqfmeasures/StructureDefinition/cqfm-isTestCase",
        "valueBoolean": true
      } ],
      "status": "complete",
      "type": "individual",
      "measure": "https://madie.cms.gov/Measure/CMS1188FHIRHIVSTITesting",
      "period": {
        "start": "2026-01-01",
        "end": "2026-12-31"
      },
      "group": [ {
        "id": "Group_1",
        "population": [ {
          "id": "InitialPopulation_1",
          "code": {
            "coding": [ {
              "system": "http://terminology.hl7.org/CodeSystem/measure-population",
              "code": "initial-population",
              "display": "Initial Population"
            } ]
          },
          "count": 1
        }, {
          "id": "Denominator_1",
          "code": {
            "coding": [ {
              "system": "http://terminology.hl7.org/CodeSystem/measure-population",
              "code": "denominator",
              "display": "Denominator"
            } ]
          },
          "count": 1
        }, {
          "id": "Numerator_1",
          "code": {
            "coding": [ {
              "system": "http://terminology.hl7.org/CodeSystem/measure-population",
              "code": "numerator",
              "display": "Numerator"
            } ]
          },
          "count": 0
        } ],
        "measureScore": {
          "value": 1.0
        }
      } ],
      "evaluatedResource": [ {
        "reference": "Patient/b7cb0363-3581-4627-a684-a4a1e2f34f42"
      }, {
        "reference": "Condition/663812b2-9dab-4b8f-89c6-55aa39f75324"
      }, {
        "reference": "Encounter/3b268c2d-cafd-4831-bfa0-6b848ed4f7d5"
      }, {
        "reference": "Observation/1d250f6d-15ed-4f17-b53f-66a670092b04"
      }, {
        "reference": "Observation/079629f4-2074-4333-855c-1327ea18f9a8"
      }, {
        "reference": "Observation/fcc0a152-593e-46ea-8b99-4c4417f6685b"
      }, {
        "reference": "Coverage/397750d3-88b6-4899-a73c-b44c36f94137"
      }, {
        "reference": "Organization/5bfee816-468a-4f4d-a662-7bd040af159a"
      }, {
        "reference": "Practitioner/29c447f1-e164-4d82-9d7f-55c2a023c58d"
      } ]
    }
  } ]
}