{
  "resourceType": "Bundle",
  "id": "FallNullPOAInjuryNullPOA",
  "type": "transaction",
  "entry": [ {
    "fullUrl": "https://madie.cms.gov/Claim/4ca38c86-adaf-47c9-8515-98323e806e9e",
    "resource": {
      "resourceType": "Claim",
      "id": "4ca38c86-adaf-47c9-8515-98323e806e9e",
      "meta": {
        "profile": [ "http://hl7.org/fhir/us/qicore/StructureDefinition/qicore-claim" ]
      },
      "status": "active",
      "type": {
        "coding": [ {
          "system": "http://terminology.hl7.org/CodeSystem/claim-type",
          "code": "professional",
          "display": "Professional"
        } ]
      },
      "use": "claim",
      "patient": {
        "reference": "Patient/966cc666-8f6e-4d6e-93a9-0c4b6345e966"
      },
      "created": "2026-11-12",
      "provider": {
        "reference": "Practitioner/b379560c-0dbe-47a1-be28-b7aa170fa961"
      },
      "priority": {
        "coding": [ {
          "system": "http://terminology.hl7.org/CodeSystem/processpriority",
          "code": "normal"
        } ]
      },
      "diagnosis": [ {
        "sequence": 1,
        "diagnosisReference": {
          "reference": "Condition/8df61237-7230-429b-8951-96e93c766bec"
        }
      } ],
      "insurance": [ {
        "sequence": 1,
        "focal": true,
        "coverage": {
          "reference": "Coverage/7aa3d259-2f31-46ef-a417-0c361add31f8"
        }
      } ],
      "item": [ {
        "sequence": 1,
        "diagnosisSequence": [ 1, 2 ],
        "productOrService": {
          "coding": [ {
            "system": "http://terminology.hl7.org/CodeSystem/ex-USCLS",
            "code": "1101"
          } ]
        },
        "encounter": [ {
          "reference": "Encounter/65f4b7aa-84d2-47b4-a774-350cd34ede67"
        } ]
      } ]
    },
    "request": {
      "method": "PUT",
      "url": "Claim/4ca38c86-adaf-47c9-8515-98323e806e9e"
    }
  }, {
    "fullUrl": "https://madie.cms.gov/Claim/7d95b475-3774-429b-8d50-2f604893441c",
    "resource": {
      "resourceType": "Claim",
      "id": "7d95b475-3774-429b-8d50-2f604893441c",
      "meta": {
        "profile": [ "http://hl7.org/fhir/us/qicore/StructureDefinition/qicore-claim" ]
      },
      "status": "active",
      "type": {
        "coding": [ {
          "system": "http://terminology.hl7.org/CodeSystem/claim-type",
          "code": "professional",
          "display": "Professional"
        } ]
      },
      "use": "claim",
      "patient": {
        "reference": "Patient/966cc666-8f6e-4d6e-93a9-0c4b6345e966"
      },
      "created": "2026-11-12",
      "provider": {
        "reference": "Practitioner/b379560c-0dbe-47a1-be28-b7aa170fa961"
      },
      "priority": {
        "coding": [ {
          "system": "http://terminology.hl7.org/CodeSystem/processpriority",
          "code": "normal"
        } ]
      },
      "diagnosis": [ {
        "sequence": 2,
        "diagnosisReference": {
          "reference": "Condition/5671bb30-793b-4bbb-9a7d-5105369622b9"
        }
      } ],
      "insurance": [ {
        "sequence": 1,
        "focal": true,
        "coverage": {
          "reference": "Coverage/7aa3d259-2f31-46ef-a417-0c361add31f8"
        }
      } ],
      "item": [ {
        "sequence": 1,
        "diagnosisSequence": [ 1, 2 ],
        "productOrService": {
          "coding": [ {
            "system": "http://terminology.hl7.org/CodeSystem/ex-USCLS",
            "code": "1101"
          } ]
        },
        "encounter": [ {
          "reference": "Encounter/65f4b7aa-84d2-47b4-a774-350cd34ede67"
        } ]
      } ]
    },
    "request": {
      "method": "PUT",
      "url": "Claim/7d95b475-3774-429b-8d50-2f604893441c"
    }
  }, {
    "fullUrl": "https://madie.cms.gov/Encounter/65f4b7aa-84d2-47b4-a774-350cd34ede67",
    "resource": {
      "resourceType": "Encounter",
      "id": "65f4b7aa-84d2-47b4-a774-350cd34ede67",
      "meta": {
        "profile": [ "http://hl7.org/fhir/us/qicore/StructureDefinition/qicore-encounter" ]
      },
      "status": "finished",
      "class": {
        "system": "http://terminology.hl7.org/CodeSystem/v3-ActCode",
        "code": "IMP",
        "display": "inpatient encounter"
      },
      "type": [ {
        "coding": [ {
          "system": "http://snomed.info/sct",
          "code": "183452005"
        } ]
      } ],
      "subject": {
        "reference": "Patient/966cc666-8f6e-4d6e-93a9-0c4b6345e966"
      },
      "period": {
        "start": "2026-11-09T11:00:00.000+00:00",
        "end": "2026-11-13T08:15:00.000+00:00"
      },
      "reasonReference": [ {
        "reference": "Condition/8df61237-7230-429b-8951-96e93c766bec"
      }, {
        "reference": "Condition/5671bb30-793b-4bbb-9a7d-5105369622b9"
      } ]
    },
    "request": {
      "method": "PUT",
      "url": "Encounter/65f4b7aa-84d2-47b4-a774-350cd34ede67"
    }
  }, {
    "fullUrl": "https://madie.cms.gov/Encounter/3d2fb01b-d64f-463f-9767-e74e7c9cbbbc",
    "resource": {
      "resourceType": "Encounter",
      "id": "3d2fb01b-d64f-463f-9767-e74e7c9cbbbc",
      "meta": {
        "profile": [ "http://hl7.org/fhir/us/qicore/StructureDefinition/qicore-encounter" ]
      },
      "status": "finished",
      "class": {
        "system": "http://terminology.hl7.org/CodeSystem/v3-ActCode",
        "code": "IMP",
        "display": "inpatient encounter"
      },
      "type": [ {
        "coding": [ {
          "system": "http://snomed.info/sct",
          "code": "4525004"
        } ]
      } ],
      "subject": {
        "reference": "Patient/966cc666-8f6e-4d6e-93a9-0c4b6345e966"
      },
      "period": {
        "start": "2026-11-09T08:00:00.000+00:00",
        "end": "2026-11-09T10:15:00.000+00:00"
      }
    },
    "request": {
      "method": "PUT",
      "url": "Encounter/3d2fb01b-d64f-463f-9767-e74e7c9cbbbc"
    }
  }, {
    "fullUrl": "https://madie.cms.gov/Condition/5671bb30-793b-4bbb-9a7d-5105369622b9",
    "resource": {
      "resourceType": "Condition",
      "id": "5671bb30-793b-4bbb-9a7d-5105369622b9",
      "meta": {
        "profile": [ "http://hl7.org/fhir/us/qicore/StructureDefinition/qicore-condition-encounter-diagnosis" ]
      },
      "clinicalStatus": {
        "coding": [ {
          "system": "http://terminology.hl7.org/CodeSystem/condition-clinical",
          "code": "active"
        } ]
      },
      "verificationStatus": {
        "coding": [ {
          "system": "http://terminology.hl7.org/CodeSystem/condition-ver-status",
          "code": "confirmed"
        } ]
      },
      "category": [ {
        "coding": [ {
          "system": "http://terminology.hl7.org/CodeSystem/condition-category",
          "code": "encounter-diagnosis",
          "display": "Encounter Diagnosis"
        } ]
      } ],
      "code": {
        "coding": [ {
          "system": "http://hl7.org/fhir/sid/icd-10-cm",
          "code": "W19.XXXA"
        } ]
      },
      "subject": {
        "reference": "Patient/966cc666-8f6e-4d6e-93a9-0c4b6345e966"
      },
      "encounter": {
        "reference": "Encounter/65f4b7aa-84d2-47b4-a774-350cd34ede67"
      }
    },
    "request": {
      "method": "PUT",
      "url": "Condition/5671bb30-793b-4bbb-9a7d-5105369622b9"
    }
  }, {
    "fullUrl": "https://madie.cms.gov/Condition/8df61237-7230-429b-8951-96e93c766bec",
    "resource": {
      "resourceType": "Condition",
      "id": "8df61237-7230-429b-8951-96e93c766bec",
      "meta": {
        "profile": [ "http://hl7.org/fhir/us/qicore/StructureDefinition/qicore-condition-encounter-diagnosis" ]
      },
      "clinicalStatus": {
        "coding": [ {
          "system": "http://terminology.hl7.org/CodeSystem/condition-clinical",
          "code": "active"
        } ]
      },
      "verificationStatus": {
        "coding": [ {
          "system": "http://terminology.hl7.org/CodeSystem/condition-ver-status",
          "code": "confirmed"
        } ]
      },
      "category": [ {
        "coding": [ {
          "system": "http://terminology.hl7.org/CodeSystem/condition-category",
          "code": "encounter-diagnosis",
          "display": "Encounter Diagnosis"
        } ]
      } ],
      "code": {
        "coding": [ {
          "system": "http://hl7.org/fhir/sid/icd-10-cm",
          "code": "M80.00XA"
        } ]
      },
      "subject": {
        "reference": "Patient/966cc666-8f6e-4d6e-93a9-0c4b6345e966"
      },
      "encounter": {
        "reference": "Encounter/65f4b7aa-84d2-47b4-a774-350cd34ede67"
      }
    },
    "request": {
      "method": "PUT",
      "url": "Condition/8df61237-7230-429b-8951-96e93c766bec"
    }
  }, {
    "fullUrl": "https://madie.cms.gov/Patient/966cc666-8f6e-4d6e-93a9-0c4b6345e966",
    "resource": {
      "resourceType": "Patient",
      "id": "966cc666-8f6e-4d6e-93a9-0c4b6345e966",
      "meta": {
        "profile": [ "http://hl7.org/fhir/us/qicore/StructureDefinition/qicore-patient" ]
      },
      "extension": [ {
        "url": "http://hl7.org/fhir/us/core/StructureDefinition/us-core-race",
        "extension": [ {
          "url": "ombCategory",
          "valueCoding": {
            "system": "urn:oid:2.16.840.1.113883.6.238",
            "code": "2028-9",
            "display": "Asian",
            "userSelected": true
          }
        }, {
          "url": "text",
          "valueString": "Asian"
        } ]
      }, {
        "url": "http://hl7.org/fhir/us/core/StructureDefinition/us-core-ethnicity",
        "extension": [ {
          "url": "ombCategory",
          "valueCoding": {
            "system": "urn:oid:2.16.840.1.113883.6.238",
            "code": "2186-5",
            "display": "Not Hispanic or Latino",
            "userSelected": true
          }
        }, {
          "url": "text",
          "valueString": "Not Hispanic or Latino"
        } ]
      } ],
      "identifier": [ {
        "type": {
          "coding": [ {
            "system": "http://terminology.hl7.org/CodeSystem/v2-0203",
            "code": "MR"
          } ]
        },
        "system": "https://bonnie-fhir.healthit.gov/",
        "value": "61152a3b98086b7a79cbd7c1"
      } ],
      "active": true,
      "name": [ {
        "use": "usual",
        "family": "NUMERPass",
        "given": [ "FallNullPOAInjuryNullPOA" ]
      } ],
      "gender": "male",
      "birthDate": "2000-09-09"
    },
    "request": {
      "method": "PUT",
      "url": "Patient/966cc666-8f6e-4d6e-93a9-0c4b6345e966"
    }
  }, {
    "fullUrl": "https://madie.cms.gov/Practitioner/b379560c-0dbe-47a1-be28-b7aa170fa961",
    "resource": {
      "resourceType": "Practitioner",
      "id": "b379560c-0dbe-47a1-be28-b7aa170fa961",
      "identifier": [ {
        "system": "http://www.cms.gov/identifiers/pracitioners",
        "value": "P12345"
      } ],
      "name": [ {
        "use": "official",
        "family": "Smith",
        "given": [ "John" ]
      } ],
      "qualification": [ {
        "identifier": [ {
          "system": "http://hl7.org/fhir/sid/us-npi",
          "value": "1234567890"
        } ],
        "code": {
          "coding": [ {
            "system": "http://terminology.hl7.org/CodeSystem/v2-0203",
            "code": "MD",
            "display": "Medical License number"
          } ]
        }
      } ]
    },
    "request": {
      "method": "PUT",
      "url": "Practitioner/b379560c-0dbe-47a1-be28-b7aa170fa961"
    }
  }, {
    "fullUrl": "https://madie.cms.gov/Coverage/7aa3d259-2f31-46ef-a417-0c361add31f8",
    "resource": {
      "resourceType": "Coverage",
      "id": "7aa3d259-2f31-46ef-a417-0c361add31f8",
      "status": "active",
      "beneficiary": {
        "reference": "Patient/966cc666-8f6e-4d6e-93a9-0c4b6345e966"
      },
      "payor": [ {
        "reference": "Organization/b84e11b4-4d2a-4e81-8864-acc089603b01"
      } ]
    },
    "request": {
      "method": "PUT",
      "url": "Coverage/7aa3d259-2f31-46ef-a417-0c361add31f8"
    }
  }, {
    "fullUrl": "https://madie.cms.gov/Organization/b84e11b4-4d2a-4e81-8864-acc089603b01",
    "resource": {
      "resourceType": "Organization",
      "id": "b84e11b4-4d2a-4e81-8864-acc089603b01",
      "identifier": [ {
        "system": "http://cms.gov/insurance-ids",
        "value": "AET12345"
      } ],
      "type": [ {
        "coding": [ {
          "system": "http://terminology.hl7.org/CodeSystem/organization-type",
          "code": "prov",
          "display": "Healthcare Provider"
        } ]
      } ],
      "name": "Aetna Insurance",
      "telecom": [ {
        "system": "phone",
        "value": "+1-800-123-4567"
      } ],
      "address": [ {
        "line": [ "123 Main Street" ],
        "city": "Cityville",
        "state": "CA",
        "postalCode": "12345",
        "country": "USA"
      } ]
    },
    "request": {
      "method": "PUT",
      "url": "Organization/b84e11b4-4d2a-4e81-8864-acc089603b01"
    }
  }, {
    "fullUrl": "https://madie.cms.gov/MeasureReport/a43ccb17-9884-413b-9d84-b5e095be1599",
    "resource": {
      "resourceType": "MeasureReport",
      "id": "a43ccb17-9884-413b-9d84-b5e095be1599",
      "meta": {
        "profile": [ "http://hl7.org/fhir/us/cqfmeasures/StructureDefinition/test-case-cqfm" ]
      },
      "contained": [ {
        "resourceType": "Parameters",
        "id": "2da2eb92-d757-4150-a192-229bc8de896f-parameters",
        "parameter": [ {
          "name": "subject",
          "valueString": "966cc666-8f6e-4d6e-93a9-0c4b6345e966"
        } ]
      } ],
      "extension": [ {
        "url": "http://hl7.org/fhir/StructureDefinition/cqf-inputParameters",
        "valueReference": {
          "reference": "#2da2eb92-d757-4150-a192-229bc8de896f-parameters"
        }
      }, {
        "url": "http://hl7.org/fhir/us/cqfmeasures/StructureDefinition/cqfm-testCaseDescription",
        "valueMarkdown": "Encounter with Fall diag and injury diag both w/null POA flags. Unless POA flags explicitly indicate POA (e.g., N or U) then diagnosis is assumed to be not present on admission. \nMeets Numerator. "
      } ],
      "modifierExtension": [ {
        "url": "http://hl7.org/fhir/us/cqfmeasures/StructureDefinition/cqfm-isTestCase",
        "valueBoolean": true
      } ],
      "status": "complete",
      "type": "individual",
      "measure": "https://madie.cms.gov/Measure/CMS1017FHIRHHFI",
      "period": {
        "start": "2026-01-01",
        "end": "2026-12-31"
      },
      "group": [ {
        "id": "Group_1",
        "population": [ {
          "id": "InitialPopulation_1",
          "code": {
            "coding": [ {
              "system": "http://terminology.hl7.org/CodeSystem/measure-population",
              "code": "initial-population",
              "display": "Initial Population"
            } ]
          },
          "count": 1
        }, {
          "id": "Denominator_1",
          "code": {
            "coding": [ {
              "system": "http://terminology.hl7.org/CodeSystem/measure-population",
              "code": "denominator",
              "display": "Denominator"
            } ]
          },
          "count": 1
        }, {
          "id": "DenominatorExclusion_1",
          "code": {
            "coding": [ {
              "system": "http://terminology.hl7.org/CodeSystem/measure-population",
              "code": "denominator-exclusion",
              "display": "Denominator Exclusion"
            } ]
          },
          "count": 0
        }, {
          "id": "Numerator_1",
          "code": {
            "coding": [ {
              "system": "http://terminology.hl7.org/CodeSystem/measure-population",
              "code": "numerator",
              "display": "Numerator"
            } ]
          },
          "count": 1
        }, {
          "id": "NumeratorExclusion_1",
          "code": {
            "coding": [ {
              "system": "http://terminology.hl7.org/CodeSystem/measure-population",
              "code": "numerator-exclusion",
              "display": "Numerator Exclusion"
            } ]
          },
          "count": 0
        }, {
          "id": "MeasureObservation_1_1_1",
          "code": {
            "coding": [ {
              "system": "http://terminology.hl7.org/CodeSystem/measure-population",
              "code": "measure-observation",
              "display": "Measure Observation"
            } ]
          },
          "count": 4
        }, {
          "id": "MeasureObservation_1_2_1",
          "code": {
            "coding": [ {
              "system": "http://terminology.hl7.org/CodeSystem/measure-population",
              "code": "measure-observation",
              "display": "Measure Observation"
            } ]
          },
          "count": 1
        } ],
        "measureScore": {
          "value": 0.0
        }
      } ],
      "evaluatedResource": [ {
        "reference": "Claim/4ca38c86-adaf-47c9-8515-98323e806e9e"
      }, {
        "reference": "Claim/7d95b475-3774-429b-8d50-2f604893441c"
      }, {
        "reference": "Encounter/65f4b7aa-84d2-47b4-a774-350cd34ede67"
      }, {
        "reference": "Encounter/3d2fb01b-d64f-463f-9767-e74e7c9cbbbc"
      }, {
        "reference": "Condition/5671bb30-793b-4bbb-9a7d-5105369622b9"
      }, {
        "reference": "Condition/8df61237-7230-429b-8951-96e93c766bec"
      }, {
        "reference": "Patient/966cc666-8f6e-4d6e-93a9-0c4b6345e966"
      }, {
        "reference": "Practitioner/b379560c-0dbe-47a1-be28-b7aa170fa961"
      }, {
        "reference": "Coverage/7aa3d259-2f31-46ef-a417-0c361add31f8"
      }, {
        "reference": "Organization/b84e11b4-4d2a-4e81-8864-acc089603b01"
      } ]
    },
    "request": {
      "method": "PUT",
      "url": "MeasureReport/a43ccb17-9884-413b-9d84-b5e095be1599"
    }
  } ]
}