{
  "resourceType": "Bundle",
  "id": "612e6b7802c62a011f2edd94",
  "type": "transaction",
  "entry": [ {
    "fullUrl": "https://madie.cms.gov/Patient/52790be5-0f6e-4ebd-85f5-57f35db8b56b",
    "resource": {
      "resourceType": "Patient",
      "id": "52790be5-0f6e-4ebd-85f5-57f35db8b56b",
      "meta": {
        "profile": [ "http://hl7.org/fhir/us/qicore/StructureDefinition/qicore-patient" ]
      },
      "text": {
        "status": "generated",
        "div": "<div xmlns=\"http://www.w3.org/1999/xhtml\"><div class=\"hapiHeaderText\">MA_InjXa_AnesEndTime <b>NUMERPASS </b></div><table class=\"hapiPropertyTable\"><tbody><tr><td>Identifier</td><td>68fdbac80fad91f1aff86d5fdd2da67c</td></tr><tr><td>Date of birth</td><td><span>02 January 1974</span></td></tr></tbody></table></div>"
      },
      "extension": [ {
        "url": "http://hl7.org/fhir/us/core/StructureDefinition/us-core-race",
        "extension": [ {
          "url": "ombCategory",
          "valueCoding": {
            "system": "urn:oid:2.16.840.1.113883.6.238",
            "code": "1002-5",
            "display": "American Indian or Alaska Native",
            "userSelected": true
          }
        }, {
          "url": "text",
          "valueString": "American Indian or Alaska Native"
        } ]
      }, {
        "url": "http://hl7.org/fhir/us/core/StructureDefinition/us-core-ethnicity",
        "extension": [ {
          "url": "ombCategory",
          "valueCoding": {
            "system": "urn:oid:2.16.840.1.113883.6.238",
            "code": "2135-2",
            "display": "Hispanic or Latino",
            "userSelected": true
          }
        }, {
          "url": "text",
          "valueString": "Hispanic or Latino"
        } ]
      } ],
      "identifier": [ {
        "type": {
          "coding": [ {
            "system": "http://terminology.hl7.org/CodeSystem/v2-0203",
            "code": "MR"
          } ]
        },
        "system": "https://bonnie-fhir.healthit.gov/",
        "value": "612e6b7802c62a011f2edd94"
      } ],
      "active": true,
      "name": [ {
        "use": "usual",
        "family": "NUMERPass",
        "given": [ "MAInjXaAnesEndTime" ]
      } ],
      "gender": "male",
      "birthDate": "1975-01-02"
    },
    "request": {
      "method": "PUT",
      "url": "Patient/52790be5-0f6e-4ebd-85f5-57f35db8b56b"
    }
  }, {
    "fullUrl": "https://madie.cms.gov/Encounter/747d0155-aea5-452e-8c6e-4e7757e88264",
    "resource": {
      "resourceType": "Encounter",
      "id": "747d0155-aea5-452e-8c6e-4e7757e88264",
      "meta": {
        "profile": [ "http://hl7.org/fhir/us/qicore/StructureDefinition/qicore-encounter" ]
      },
      "status": "finished",
      "class": {
        "system": "http://terminology.hl7.org/CodeSystem/v3-ActCode",
        "code": "IMP",
        "display": "inpatient encounter"
      },
      "type": [ {
        "coding": [ {
          "system": "http://snomed.info/sct",
          "code": "8715000"
        } ]
      } ],
      "subject": {
        "reference": "Patient/52790be5-0f6e-4ebd-85f5-57f35db8b56b"
      },
      "period": {
        "start": "2026-11-01T00:00:00.000+00:00",
        "end": "2026-11-30T23:59:00.000+00:00"
      },
      "length": {
        "value": 29,
        "unit": "days"
      }
    },
    "request": {
      "method": "PUT",
      "url": "Encounter/747d0155-aea5-452e-8c6e-4e7757e88264"
    }
  }, {
    "fullUrl": "https://madie.cms.gov/Coverage/b9f6561c-fe26-4643-a5eb-a78584ffff64",
    "resource": {
      "resourceType": "Coverage",
      "id": "b9f6561c-fe26-4643-a5eb-a78584ffff64",
      "status": "active",
      "beneficiary": {
        "reference": "Patient/52790be5-0f6e-4ebd-85f5-57f35db8b56b"
      },
      "period": {
        "start": "1975-01-02T08:00:00.000+00:00"
      },
      "payor": [ {
        "reference": "Organization/aec98df7-c66b-4ad4-b722-c4695df7d1bf"
      } ]
    },
    "request": {
      "method": "PUT",
      "url": "Coverage/b9f6561c-fe26-4643-a5eb-a78584ffff64"
    }
  }, {
    "fullUrl": "https://madie.cms.gov/MedicationAdministration/7d55b948-fc48-410e-989c-072d9ac38e4f",
    "resource": {
      "resourceType": "MedicationAdministration",
      "id": "7d55b948-fc48-410e-989c-072d9ac38e4f",
      "meta": {
        "profile": [ "http://hl7.org/fhir/us/qicore/StructureDefinition/qicore-medicationadministration" ]
      },
      "status": "completed",
      "medicationCodeableConcept": {
        "coding": [ {
          "system": "http://www.nlm.nih.gov/research/umls/rxnorm",
          "code": "861356"
        } ]
      },
      "subject": {
        "reference": "Patient/52790be5-0f6e-4ebd-85f5-57f35db8b56b"
      },
      "effectivePeriod": {
        "start": "2026-11-01T01:00:00.000+00:00"
      }
    },
    "request": {
      "method": "PUT",
      "url": "MedicationAdministration/7d55b948-fc48-410e-989c-072d9ac38e4f"
    }
  }, {
    "fullUrl": "https://madie.cms.gov/Procedure/22f204d5-6446-413c-8796-5617581bbb1e",
    "resource": {
      "resourceType": "Procedure",
      "id": "22f204d5-6446-413c-8796-5617581bbb1e",
      "meta": {
        "profile": [ "http://hl7.org/fhir/us/qicore/StructureDefinition/qicore-procedure" ]
      },
      "extension": [ {
        "url": "http://hl7.org/fhir/us/qicore/StructureDefinition/qicore-recorded",
        "valueDateTime": "2013-11-01T13:35:00.000+00:00"
      } ],
      "status": "completed",
      "code": {
        "coding": [ {
          "system": "http://www.icd10data.com/icd10pcs",
          "code": "3E030FZ"
        }, {
          "system": "http://snomed.info/sct",
          "code": "18946005"
        } ]
      },
      "subject": {
        "reference": "Patient/52790be5-0f6e-4ebd-85f5-57f35db8b56b"
      },
      "performedPeriod": {
        "start": "2026-11-01T00:00:00.000+00:00",
        "end": "2026-11-01T01:00:00.000+00:00"
      }
    },
    "request": {
      "method": "PUT",
      "url": "Procedure/22f204d5-6446-413c-8796-5617581bbb1e"
    }
  }, {
    "fullUrl": "https://madie.cms.gov/Organization/aec98df7-c66b-4ad4-b722-c4695df7d1bf",
    "resource": {
      "resourceType": "Organization",
      "id": "aec98df7-c66b-4ad4-b722-c4695df7d1bf",
      "meta": {
        "profile": [ "http://hl7.org/fhir/us/qicore/StructureDefinition/qicore-organization" ]
      },
      "identifier": [ {
        "use": "temp",
        "system": "urn:oid:2.16.840.1.113883.4.4",
        "value": "21-3259825"
      } ],
      "active": true,
      "type": [ {
        "coding": [ {
          "system": "http://terminology.hl7.org/CodeSystem/organization-type",
          "code": "pay",
          "display": "Payer"
        } ]
      } ],
      "name": "Blue Cross Blue Shield of Texas",
      "telecom": [ {
        "system": "phone",
        "value": "(+1) 972-766-6900"
      } ],
      "address": [ {
        "use": "billing",
        "type": "postal",
        "line": [ "P.O. Box 660044" ],
        "city": "Dallas",
        "state": "TX",
        "postalCode": "75266-0044",
        "country": "USA"
      } ]
    },
    "request": {
      "method": "PUT",
      "url": "Organization/aec98df7-c66b-4ad4-b722-c4695df7d1bf"
    }
  }, {
    "fullUrl": "https://madie.cms.gov/Practitioner/52ba0e17-a619-43cb-b44c-b6990297b1c8",
    "resource": {
      "resourceType": "Practitioner",
      "id": "52ba0e17-a619-43cb-b44c-b6990297b1c8",
      "identifier": [ {
        "system": "http://hl7.org/fhir/sid/us-npi",
        "value": "123456"
      } ],
      "name": [ {
        "family": "Evil",
        "prefix": [ "Dr" ]
      } ]
    },
    "request": {
      "method": "PUT",
      "url": "Practitioner/52ba0e17-a619-43cb-b44c-b6990297b1c8"
    }
  }, {
    "fullUrl": "https://madie.cms.gov/MeasureReport/4db0b667-ea27-4777-bdde-8faef55b9f86",
    "resource": {
      "resourceType": "MeasureReport",
      "id": "4db0b667-ea27-4777-bdde-8faef55b9f86",
      "meta": {
        "profile": [ "http://hl7.org/fhir/us/cqfmeasures/StructureDefinition/test-case-cqfm" ]
      },
      "contained": [ {
        "resourceType": "Parameters",
        "id": "9fbbff4e-0b2f-4e1e-9b66-e6738be2869a-parameters",
        "parameter": [ {
          "name": "subject",
          "valueString": "52790be5-0f6e-4ebd-85f5-57f35db8b56b"
        } ]
      } ],
      "extension": [ {
        "url": "http://hl7.org/fhir/StructureDefinition/cqf-inputParameters",
        "valueReference": {
          "reference": "#9fbbff4e-0b2f-4e1e-9b66-e6738be2869a-parameters"
        }
      }, {
        "url": "http://hl7.org/fhir/us/cqfmeasures/StructureDefinition/cqfm-testCaseDescription",
        "valueMarkdown": "Patient received injectable factor Xa med concurrent with anesthesia.end\n"
      } ],
      "modifierExtension": [ {
        "url": "http://hl7.org/fhir/us/cqfmeasures/StructureDefinition/cqfm-isTestCase",
        "valueBoolean": true
      } ],
      "status": "complete",
      "type": "individual",
      "measure": "https://madie.cms.gov/Measure/CMS108FHIRVTEProphylaxis",
      "period": {
        "start": "2026-01-01",
        "end": "2026-12-31"
      },
      "group": [ {
        "id": "Group_1",
        "population": [ {
          "id": "InitialPopulation_1",
          "code": {
            "coding": [ {
              "system": "http://terminology.hl7.org/CodeSystem/measure-population",
              "code": "initial-population",
              "display": "Initial Population"
            } ]
          },
          "count": 1
        }, {
          "id": "Denominator_1",
          "code": {
            "coding": [ {
              "system": "http://terminology.hl7.org/CodeSystem/measure-population",
              "code": "denominator",
              "display": "Denominator"
            } ]
          },
          "count": 1
        }, {
          "id": "DenominatorExclusion_1",
          "code": {
            "coding": [ {
              "system": "http://terminology.hl7.org/CodeSystem/measure-population",
              "code": "denominator-exclusion",
              "display": "Denominator Exclusion"
            } ]
          },
          "count": 0
        }, {
          "id": "Numerator_1",
          "code": {
            "coding": [ {
              "system": "http://terminology.hl7.org/CodeSystem/measure-population",
              "code": "numerator",
              "display": "Numerator"
            } ]
          },
          "count": 1
        } ],
        "measureScore": {
          "value": 0.0
        }
      } ],
      "evaluatedResource": [ {
        "reference": "Patient/52790be5-0f6e-4ebd-85f5-57f35db8b56b"
      }, {
        "reference": "Encounter/747d0155-aea5-452e-8c6e-4e7757e88264"
      }, {
        "reference": "Coverage/b9f6561c-fe26-4643-a5eb-a78584ffff64"
      }, {
        "reference": "MedicationAdministration/7d55b948-fc48-410e-989c-072d9ac38e4f"
      }, {
        "reference": "Procedure/22f204d5-6446-413c-8796-5617581bbb1e"
      }, {
        "reference": "Organization/aec98df7-c66b-4ad4-b722-c4695df7d1bf"
      }, {
        "reference": "Practitioner/52ba0e17-a619-43cb-b44c-b6990297b1c8"
      } ]
    },
    "request": {
      "method": "PUT",
      "url": "MeasureReport/4db0b667-ea27-4777-bdde-8faef55b9f86"
    }
  } ]
}