{
  "resourceType": "Bundle",
  "id": "63487c2d0968f80122540149",
  "type": "transaction",
  "entry": [ {
    "fullUrl": "https://madie.cms.gov/Patient/8f2a5cf4-2468-47cd-8efb-cbb1b95f78fe",
    "resource": {
      "resourceType": "Patient",
      "id": "8f2a5cf4-2468-47cd-8efb-cbb1b95f78fe",
      "meta": {
        "profile": [ "http://hl7.org/fhir/us/qicore/StructureDefinition/qicore-patient" ]
      },
      "text": {
        "status": "generated",
        "div": "<div xmlns=\"http://www.w3.org/1999/xhtml\"><div class=\"hapiHeaderText\">ProcDelivStart1MinAftEncInpEnds<b>IPOPFail</b></div><table class=\"hapiPropertyTable\"><tbody><tr><td>Identifier</td><td>d130de5f4e42b38bd935fc8ebcd660c0e5f442917fd322d307794dfacd0563d2</td></tr><tr><td>Date of birth</td><td><span>14 February 2004</span></td></tr></tbody></table></div>"
      },
      "extension": [ {
        "url": "http://hl7.org/fhir/us/core/StructureDefinition/us-core-race",
        "extension": [ {
          "url": "ombCategory",
          "valueCoding": {
            "system": "urn:oid:2.16.840.1.113883.6.238",
            "code": "1002-5",
            "display": "American Indian or Alaska Native",
            "userSelected": true
          }
        }, {
          "url": "text",
          "valueString": "American Indian or Alaska Native"
        } ]
      }, {
        "url": "http://hl7.org/fhir/us/core/StructureDefinition/us-core-ethnicity",
        "extension": [ {
          "url": "ombCategory",
          "valueCoding": {
            "system": "urn:oid:2.16.840.1.113883.6.238",
            "code": "2135-2",
            "display": "Hispanic or Latino",
            "userSelected": true
          }
        }, {
          "url": "text",
          "valueString": "Hispanic or Latino"
        } ]
      } ],
      "identifier": [ {
        "type": {
          "coding": [ {
            "system": "http://terminology.hl7.org/CodeSystem/v2-0203",
            "code": "MR"
          } ]
        },
        "system": "https://bonnie-fhir.healthit.gov/",
        "value": "63487c2d0968f80122540149"
      } ],
      "active": true,
      "name": [ {
        "use": "usual",
        "family": "IPOPFail",
        "given": [ "ProcDelivStart1MinAftEncInpEnds" ]
      } ],
      "gender": "female",
      "birthDate": "2017-02-14"
    },
    "request": {
      "method": "PUT",
      "url": "Patient/8f2a5cf4-2468-47cd-8efb-cbb1b95f78fe"
    }
  }, {
    "fullUrl": "https://madie.cms.gov/Encounter/13f08c37-dc13-43b5-840b-c6cd2e12f2e9",
    "resource": {
      "resourceType": "Encounter",
      "id": "13f08c37-dc13-43b5-840b-c6cd2e12f2e9",
      "meta": {
        "profile": [ "http://hl7.org/fhir/us/qicore/StructureDefinition/qicore-encounter" ]
      },
      "status": "finished",
      "class": {
        "system": "http://terminology.hl7.org/CodeSystem/v3-ActCode",
        "code": "IMP",
        "display": "inpatient encounter"
      },
      "type": [ {
        "coding": [ {
          "system": "http://snomed.info/sct",
          "code": "8715000"
        } ]
      } ],
      "subject": {
        "reference": "Patient/8f2a5cf4-2468-47cd-8efb-cbb1b95f78fe"
      },
      "period": {
        "start": "2026-11-28T08:00:00.000+00:00",
        "end": "2026-11-30T08:15:00.000+00:00"
      },
      "diagnosis": [ {
        "condition": {
          "reference": "Condition/Condition-2"
        },
        "use": {
          "coding": [ {
            "system": "http://snomed.info/sct",
            "code": "169826009",
            "display": "Single live birth from singleton pregnancy (finding)"
          } ]
        }
      } ]
    },
    "request": {
      "method": "PUT",
      "url": "Encounter/13f08c37-dc13-43b5-840b-c6cd2e12f2e9"
    }
  }, {
    "fullUrl": "https://madie.cms.gov/Procedure/0557f553-d694-4173-9770-e939f6d47e10",
    "resource": {
      "resourceType": "Procedure",
      "id": "0557f553-d694-4173-9770-e939f6d47e10",
      "meta": {
        "profile": [ "http://hl7.org/fhir/us/qicore/StructureDefinition/qicore-procedure" ]
      },
      "extension": [ {
        "url": "http://hl7.org/fhir/us/qicore/StructureDefinition/qicore-recorded",
        "valueDateTime": "2014-04-05T13:35:00.000+00:00"
      } ],
      "status": "completed",
      "code": {
        "coding": [ {
          "system": "http://snomed.info/sct",
          "version": "2022-09",
          "code": "10745001",
          "display": "Delivery of transverse presentation (procedure)",
          "userSelected": true
        } ]
      },
      "subject": {
        "reference": "Patient/8f2a5cf4-2468-47cd-8efb-cbb1b95f78fe"
      },
      "performedDateTime": "2026-11-30T08:16:00.000+00:00"
    },
    "request": {
      "method": "PUT",
      "url": "Procedure/0557f553-d694-4173-9770-e939f6d47e10"
    }
  }, {
    "fullUrl": "https://madie.cms.gov/Coverage/d7588d52-8831-4227-bfd0-b02fd01e2dd3",
    "resource": {
      "resourceType": "Coverage",
      "id": "d7588d52-8831-4227-bfd0-b02fd01e2dd3",
      "meta": {
        "profile": [ "http://hl7.org/fhir/us/qicore/StructureDefinition/qicore-coverage" ]
      },
      "status": "active",
      "type": {
        "coding": [ {
          "system": "http://www.nlm.nih.gov/research/umls/sop",
          "version": "9.2",
          "code": "1",
          "display": "MEDICARE",
          "userSelected": true
        } ]
      },
      "subscriberId": "523435",
      "beneficiary": {
        "reference": "Patient/8f2a5cf4-2468-47cd-8efb-cbb1b95f78fe"
      },
      "relationship": {
        "coding": [ {
          "system": "http://terminology.hl7.org/CodeSystem/subscriber-relationship",
          "code": "self"
        } ]
      },
      "period": {
        "start": "2026-11-28T08:00:00.000+00:00",
        "end": "2026-11-30T08:15:00.000+00:00"
      },
      "payor": [ {
        "reference": "Organization/87d62615-c974-43fc-85a3-0742bfb540b6"
      } ]
    },
    "request": {
      "method": "PUT",
      "url": "Coverage/d7588d52-8831-4227-bfd0-b02fd01e2dd3"
    }
  }, {
    "fullUrl": "https://madie.cms.gov/Organization/87d62615-c974-43fc-85a3-0742bfb540b6",
    "resource": {
      "resourceType": "Organization",
      "id": "87d62615-c974-43fc-85a3-0742bfb540b6",
      "meta": {
        "profile": [ "http://hl7.org/fhir/us/qicore/StructureDefinition/qicore-organization" ]
      },
      "identifier": [ {
        "use": "temp",
        "system": "urn:oid:2.16.840.1.113883.4.4",
        "value": "21-3259825"
      } ],
      "active": true,
      "type": [ {
        "coding": [ {
          "system": "http://terminology.hl7.org/CodeSystem/organization-type",
          "code": "pay",
          "display": "Payer"
        } ]
      } ],
      "name": "Blue Cross Blue Shield of Texas",
      "telecom": [ {
        "system": "phone",
        "value": "(+1) 972-766-6900"
      } ],
      "address": [ {
        "use": "billing",
        "type": "postal",
        "line": [ "P.O. Box 660044" ],
        "city": "Dallas",
        "state": "TX",
        "postalCode": "75266-0044",
        "country": "USA"
      } ]
    },
    "request": {
      "method": "PUT",
      "url": "Organization/87d62615-c974-43fc-85a3-0742bfb540b6"
    }
  }, {
    "fullUrl": "https://madie.cms.gov/Practitioner/8a045c7b-0189-44a5-b6e7-45e9563e667d",
    "resource": {
      "resourceType": "Practitioner",
      "id": "8a045c7b-0189-44a5-b6e7-45e9563e667d",
      "meta": {
        "profile": [ "http://hl7.org/fhir/us/qicore/StructureDefinition/qicore-practitioner" ]
      },
      "identifier": [ {
        "system": "http://hl7.org/fhir/sid/us-npi",
        "value": "1234567890"
      } ],
      "name": [ {
        "family": "Evil",
        "prefix": [ "Dr" ]
      } ]
    },
    "request": {
      "method": "PUT",
      "url": "Practitioner/8a045c7b-0189-44a5-b6e7-45e9563e667d"
    }
  }, {
    "fullUrl": "https://madie.cms.gov/MeasureReport/693cecd1-d118-4440-99b4-d6b37ab97d36",
    "resource": {
      "resourceType": "MeasureReport",
      "id": "693cecd1-d118-4440-99b4-d6b37ab97d36",
      "meta": {
        "profile": [ "http://hl7.org/fhir/us/cqfmeasures/StructureDefinition/test-case-cqfm" ]
      },
      "contained": [ {
        "resourceType": "Parameters",
        "id": "03bf82ee-211f-4bee-8576-9aa2fa387122-parameters",
        "parameter": [ {
          "name": "subject",
          "valueString": "8f2a5cf4-2468-47cd-8efb-cbb1b95f78fe"
        } ]
      } ],
      "extension": [ {
        "url": "http://hl7.org/fhir/StructureDefinition/cqf-inputParameters",
        "valueReference": {
          "reference": "#03bf82ee-211f-4bee-8576-9aa2fa387122-parameters"
        }
      }, {
        "url": "http://hl7.org/fhir/us/cqfmeasures/StructureDefinition/cqfm-testCaseDescription",
        "valueMarkdown": "Fails IP since Proc Deliv Start 1 minute after Inpt Enc Ends, not during encounter."
      } ],
      "modifierExtension": [ {
        "url": "http://hl7.org/fhir/us/cqfmeasures/StructureDefinition/cqfm-isTestCase",
        "valueBoolean": true
      } ],
      "status": "complete",
      "type": "individual",
      "measure": "https://madie.cms.gov/Measure/CMS0334FHIRPCCesareanBirth",
      "period": {
        "start": "2026-01-01",
        "end": "2026-12-31"
      },
      "group": [ {
        "id": "Group_1",
        "population": [ {
          "id": "InitialPopulation_1",
          "code": {
            "coding": [ {
              "system": "http://terminology.hl7.org/CodeSystem/measure-population",
              "code": "initial-population",
              "display": "Initial Population"
            } ]
          },
          "count": 0
        }, {
          "id": "Denominator_1",
          "code": {
            "coding": [ {
              "system": "http://terminology.hl7.org/CodeSystem/measure-population",
              "code": "denominator",
              "display": "Denominator"
            } ]
          },
          "count": 0
        }, {
          "id": "DenominatorExclusion_1",
          "code": {
            "coding": [ {
              "system": "http://terminology.hl7.org/CodeSystem/measure-population",
              "code": "denominator-exclusion",
              "display": "Denominator Exclusion"
            } ]
          },
          "count": 0
        }, {
          "id": "Numerator_1",
          "code": {
            "coding": [ {
              "system": "http://terminology.hl7.org/CodeSystem/measure-population",
              "code": "numerator",
              "display": "Numerator"
            } ]
          },
          "count": 0
        } ],
        "measureScore": {
          "value": 0.0
        }
      } ],
      "evaluatedResource": [ {
        "reference": "Patient/8f2a5cf4-2468-47cd-8efb-cbb1b95f78fe"
      }, {
        "reference": "Encounter/13f08c37-dc13-43b5-840b-c6cd2e12f2e9"
      }, {
        "reference": "Procedure/0557f553-d694-4173-9770-e939f6d47e10"
      }, {
        "reference": "Coverage/d7588d52-8831-4227-bfd0-b02fd01e2dd3"
      }, {
        "reference": "Organization/87d62615-c974-43fc-85a3-0742bfb540b6"
      }, {
        "reference": "Practitioner/8a045c7b-0189-44a5-b6e7-45e9563e667d"
      } ]
    },
    "request": {
      "method": "PUT",
      "url": "MeasureReport/693cecd1-d118-4440-99b4-d6b37ab97d36"
    }
  } ]
}