{
  "resourceType": "Bundle",
  "id": "tests-9d196de1-92ff-42f7-88a5-b0dfdfa36e57-bundle",
  "type": "transaction",
  "entry": [ {
    "fullUrl": "https://madie.cms.gov/Procedure/5eefaf32-65e9-4eaa-a196-037048445adf",
    "resource": {
      "resourceType": "Procedure",
      "id": "5eefaf32-65e9-4eaa-a196-037048445adf",
      "meta": {
        "profile": [ "http://hl7.org/fhir/us/qicore/StructureDefinition/qicore-procedure" ]
      },
      "extension": [ {
        "url": "http://hl7.org/fhir/us/qicore/StructureDefinition/qicore-recorded",
        "valueDateTime": "2026-04-11T10:30:00.000+00:00"
      } ],
      "status": "completed",
      "category": {
        "coding": [ {
          "system": "http://snomed.info/sct",
          "code": "18286008",
          "display": "General or neuraxial anesthesia"
        } ]
      },
      "code": {
        "coding": [ {
          "system": "http://snomed.info/sct",
          "code": "112943005",
          "display": "Epidural injection of anesthetic substance, diagnostic, caudal, continuous"
        } ]
      },
      "subject": {
        "reference": "Patient/9d196de1-92ff-42f7-88a5-b0dfdfa36e57"
      },
      "performedPeriod": {
        "start": "2026-04-11T08:00:00.000+00:00",
        "end": "2026-04-11T10:15:00.000+00:00"
      }
    },
    "request": {
      "method": "PUT",
      "url": "Procedure/5eefaf32-65e9-4eaa-a196-037048445adf"
    }
  }, {
    "fullUrl": "https://madie.cms.gov/Patient/9d196de1-92ff-42f7-88a5-b0dfdfa36e57",
    "resource": {
      "resourceType": "Patient",
      "id": "9d196de1-92ff-42f7-88a5-b0dfdfa36e57",
      "meta": {
        "profile": [ "http://hl7.org/fhir/us/qicore/StructureDefinition/qicore-patient" ]
      },
      "extension": [ {
        "url": "http://hl7.org/fhir/us/core/StructureDefinition/us-core-race",
        "extension": [ {
          "url": "ombCategory",
          "valueCoding": {
            "system": "urn:oid:2.16.840.1.113883.6.238",
            "code": "2054-5",
            "display": "Black or African American",
            "userSelected": true
          }
        }, {
          "url": "text",
          "valueString": "Black or African American"
        } ]
      }, {
        "url": "http://hl7.org/fhir/us/core/StructureDefinition/us-core-ethnicity",
        "extension": [ {
          "url": "ombCategory",
          "valueCoding": {
            "system": "urn:oid:2.16.840.1.113883.6.238",
            "code": "2186-5",
            "display": "Not Hispanic or Latino",
            "userSelected": true
          }
        }, {
          "url": "text",
          "valueString": "Not Hispanic or Latino"
        } ]
      } ],
      "identifier": [ {
        "type": {
          "coding": [ {
            "system": "http://terminology.hl7.org/CodeSystem/v2-0203",
            "code": "MR"
          } ]
        },
        "system": "https://bonnie-fhir.healthit.gov/",
        "value": "61152a3b98086b7a79cbd7c1"
      } ],
      "active": true,
      "name": [ {
        "use": "usual",
        "family": "DENEXFail",
        "given": [ "TracheostomyAfterFirstProcedure" ]
      } ],
      "gender": "female",
      "birthDate": "1966-07-12"
    },
    "request": {
      "method": "PUT",
      "url": "Patient/9d196de1-92ff-42f7-88a5-b0dfdfa36e57"
    }
  }, {
    "fullUrl": "https://madie.cms.gov/Encounter/06432305-39ba-411a-8e90-9943881cbc9a",
    "resource": {
      "resourceType": "Encounter",
      "id": "06432305-39ba-411a-8e90-9943881cbc9a",
      "meta": {
        "profile": [ "http://hl7.org/fhir/us/qicore/StructureDefinition/qicore-encounter" ]
      },
      "status": "finished",
      "class": {
        "system": "http://terminology.hl7.org/CodeSystem/v3-ActCode",
        "code": "IMP",
        "display": "inpatient encounter"
      },
      "type": [ {
        "coding": [ {
          "system": "http://snomed.info/sct",
          "code": "112689000",
          "display": "Hospital admission, elective, with complete pre-admission work-up"
        } ],
        "text": "Hospital admission, elective, with complete pre-admission work-up"
      } ],
      "priority": {
        "coding": [ {
          "system": "http://snomed.info/sct",
          "code": "103390000"
        } ]
      },
      "subject": {
        "reference": "Patient/9d196de1-92ff-42f7-88a5-b0dfdfa36e57"
      },
      "period": {
        "start": "2026-04-10T08:00:00.000+00:00",
        "end": "2026-04-14T08:15:00.000+00:00"
      }
    },
    "request": {
      "method": "PUT",
      "url": "Encounter/06432305-39ba-411a-8e90-9943881cbc9a"
    }
  }, {
    "fullUrl": "https://madie.cms.gov/Procedure/d462f452-5b00-4a53-ade4-0e0c7446eac8",
    "resource": {
      "resourceType": "Procedure",
      "id": "d462f452-5b00-4a53-ade4-0e0c7446eac8",
      "meta": {
        "profile": [ "http://hl7.org/fhir/us/qicore/StructureDefinition/qicore-procedure" ]
      },
      "extension": [ {
        "url": "http://hl7.org/fhir/us/qicore/StructureDefinition/qicore-recorded",
        "valueDateTime": "2026-04-12T08:20:00.000+00:00"
      } ],
      "status": "completed",
      "code": {
        "coding": [ {
          "system": "http://www.cms.gov/Medicare/Coding/ICD10",
          "code": "0BW10FZ",
          "display": "Revision of Tracheostomy Device in Trachea, Open Approach"
        } ],
        "text": "Revision of Tracheostomy Device in Trachea, Open Approach"
      },
      "subject": {
        "reference": "Patient/9d196de1-92ff-42f7-88a5-b0dfdfa36e57"
      },
      "performedPeriod": {
        "start": "2026-04-12T08:00:00.000+00:00",
        "end": "2026-04-12T08:15:00.000+00:00"
      }
    },
    "request": {
      "method": "PUT",
      "url": "Procedure/d462f452-5b00-4a53-ade4-0e0c7446eac8"
    }
  }, {
    "fullUrl": "https://madie.cms.gov/MeasureReport/a7bcd710-bdd0-4fbd-ad60-650e9b974dc6",
    "resource": {
      "resourceType": "MeasureReport",
      "id": "a7bcd710-bdd0-4fbd-ad60-650e9b974dc6",
      "meta": {
        "profile": [ "http://hl7.org/fhir/us/cqfmeasures/StructureDefinition/test-case-cqfm" ]
      },
      "contained": [ {
        "resourceType": "Parameters",
        "id": "18b3df30-0a9d-4a1f-a692-5bc0c2fcb005-parameters",
        "parameter": [ {
          "name": "subject",
          "valueString": "9d196de1-92ff-42f7-88a5-b0dfdfa36e57"
        } ]
      } ],
      "extension": [ {
        "url": "http://hl7.org/fhir/StructureDefinition/cqf-inputParameters",
        "valueReference": {
          "reference": "#18b3df30-0a9d-4a1f-a692-5bc0c2fcb005-parameters"
        }
      }, {
        "url": "http://hl7.org/fhir/us/cqfmeasures/StructureDefinition/cqfm-testCaseDescription",
        "valueMarkdown": "Elective hospitalization with procedure (general anesthesia) within first 3 days of encounter. Tracheostomy procedure also done, but done after the first instance of anesthesia. Does not meet exclusion.\n"
      } ],
      "modifierExtension": [ {
        "url": "http://hl7.org/fhir/us/cqfmeasures/StructureDefinition/cqfm-isTestCase",
        "valueBoolean": true
      } ],
      "status": "complete",
      "type": "individual",
      "measure": "https://madie.cms.gov/Measure/CMS1218FHIRHHRF",
      "period": {
        "start": "2026-01-01",
        "end": "2026-12-31"
      },
      "group": [ {
        "id": "Group_1",
        "population": [ {
          "id": "InitialPopulation_1",
          "code": {
            "coding": [ {
              "system": "http://terminology.hl7.org/CodeSystem/measure-population",
              "code": "initial-population",
              "display": "Initial Population"
            } ]
          },
          "count": 1
        }, {
          "id": "Denominator_1",
          "code": {
            "coding": [ {
              "system": "http://terminology.hl7.org/CodeSystem/measure-population",
              "code": "denominator",
              "display": "Denominator"
            } ]
          },
          "count": 1
        }, {
          "id": "DenominatorExclusion_1",
          "code": {
            "coding": [ {
              "system": "http://terminology.hl7.org/CodeSystem/measure-population",
              "code": "denominator-exclusion",
              "display": "Denominator Exclusion"
            } ]
          },
          "count": 0
        }, {
          "id": "Numerator_1",
          "code": {
            "coding": [ {
              "system": "http://terminology.hl7.org/CodeSystem/measure-population",
              "code": "numerator",
              "display": "Numerator"
            } ]
          },
          "count": 0
        } ],
        "measureScore": {
          "value": 0.0
        }
      } ],
      "evaluatedResource": [ {
        "reference": "Procedure/5eefaf32-65e9-4eaa-a196-037048445adf"
      }, {
        "reference": "Patient/9d196de1-92ff-42f7-88a5-b0dfdfa36e57"
      }, {
        "reference": "Encounter/06432305-39ba-411a-8e90-9943881cbc9a"
      }, {
        "reference": "Procedure/d462f452-5b00-4a53-ade4-0e0c7446eac8"
      } ]
    },
    "request": {
      "method": "PUT",
      "url": "MeasureReport/a7bcd710-bdd0-4fbd-ad60-650e9b974dc6"
    }
  } ]
}