{
  "resourceType": "Bundle",
  "id": "63ec096accb3770120fe9fa2",
  "type": "transaction",
  "entry": [ {
    "fullUrl": "https://madie.cms.gov/Patient/73b803bf-207c-411d-8db3-01908e5d9dda",
    "resource": {
      "resourceType": "Patient",
      "id": "73b803bf-207c-411d-8db3-01908e5d9dda",
      "meta": {
        "profile": [ "http://hl7.org/fhir/us/qicore/StructureDefinition/qicore-patient" ]
      },
      "text": {
        "status": "generated",
        "div": "<div xmlns=\"http://www.w3.org/1999/xhtml\"><div class=\"hapiHeaderText\">LT24beforeAndLT2after <b>WBCPASS </b></div><table class=\"hapiPropertyTable\"><tbody><tr><td>Identifier</td><td>02a3c13b70ccf5a73b893e80582952bdd83e9cabbf053902bb5eb341874dc5ec</td></tr><tr><td>Date of birth</td><td><span>15 June 1956</span></td></tr></tbody></table></div>"
      },
      "extension": [ {
        "url": "http://hl7.org/fhir/us/core/StructureDefinition/us-core-race",
        "extension": [ {
          "url": "ombCategory",
          "valueCoding": {
            "system": "urn:oid:2.16.840.1.113883.6.238",
            "code": "1002-5",
            "display": "American Indian or Alaska Native",
            "userSelected": true
          }
        }, {
          "url": "text",
          "valueString": "American Indian or Alaska Native"
        } ]
      }, {
        "url": "http://hl7.org/fhir/us/core/StructureDefinition/us-core-ethnicity",
        "extension": [ {
          "url": "ombCategory",
          "valueCoding": {
            "system": "urn:oid:2.16.840.1.113883.6.238",
            "code": "2186-5",
            "display": "Not Hispanic or Latino",
            "userSelected": true
          }
        }, {
          "url": "text",
          "valueString": "Not Hispanic or Latino"
        } ]
      }, {
        "url": "http://hl7.org/fhir/us/core/StructureDefinition/us-core-sex",
        "valueCode": "248153007"
      } ],
      "identifier": [ {
        "type": {
          "coding": [ {
            "system": "http://terminology.hl7.org/CodeSystem/v2-0203",
            "code": "MR"
          } ]
        },
        "system": "https://bonnie-fhir.healthit.gov/",
        "value": "63ec096accb3770120fe9fa2"
      } ],
      "active": true,
      "name": [ {
        "use": "usual",
        "family": "WhiteBloodCellPass",
        "given": [ "OneHourAfterAdmission" ]
      } ],
      "gender": "male",
      "birthDate": "1960-07-01"
    },
    "request": {
      "method": "PUT",
      "url": "Patient/73b803bf-207c-411d-8db3-01908e5d9dda"
    }
  }, {
    "fullUrl": "https://madie.cms.gov/Encounter/2a99f3fd-067e-40d3-84d8-ebae3509fc11",
    "resource": {
      "resourceType": "Encounter",
      "id": "2a99f3fd-067e-40d3-84d8-ebae3509fc11",
      "meta": {
        "profile": [ "http://hl7.org/fhir/us/qicore/StructureDefinition/qicore-encounter" ]
      },
      "status": "finished",
      "class": {
        "system": "http://terminology.hl7.org/CodeSystem/v3-ActCode",
        "code": "IMP",
        "display": "inpatient encounter",
        "userSelected": true
      },
      "type": [ {
        "coding": [ {
          "system": "http://snomed.info/sct",
          "code": "183452005"
        } ]
      } ],
      "subject": {
        "reference": "Patient/73b803bf-207c-411d-8db3-01908e5d9dda"
      },
      "period": {
        "start": "2026-07-01T08:00:00.000+00:00",
        "end": "2026-07-03T23:59:00.000+00:00"
      },
      "length": {
        "value": 1,
        "unit": "days"
      }
    },
    "request": {
      "method": "PUT",
      "url": "Encounter/2a99f3fd-067e-40d3-84d8-ebae3509fc11"
    }
  }, {
    "fullUrl": "https://madie.cms.gov/Coverage/c76e4f90-8b06-45c0-b1a4-3d2f09cbaaf6",
    "resource": {
      "resourceType": "Coverage",
      "id": "c76e4f90-8b06-45c0-b1a4-3d2f09cbaaf6",
      "meta": {
        "profile": [ "http://hl7.org/fhir/us/qicore/StructureDefinition/qicore-coverage" ]
      },
      "status": "active",
      "type": {
        "coding": [ {
          "system": "https://nahdo.org/sopt",
          "version": "1.0.1",
          "code": "1",
          "display": "MEDICARE",
          "userSelected": true
        } ]
      },
      "subscriberId": "AB9876",
      "beneficiary": {
        "reference": "Patient/73b803bf-207c-411d-8db3-01908e5d9dda"
      },
      "relationship": {
        "coding": [ {
          "system": "http://terminology.hl7.org/CodeSystem/subscriber-relationship",
          "code": "self"
        } ]
      },
      "payor": [ {
        "reference": "Organization/1ce23802-29d7-4d00-b62a-f33f62cc65e8"
      } ]
    },
    "request": {
      "method": "PUT",
      "url": "Coverage/c76e4f90-8b06-45c0-b1a4-3d2f09cbaaf6"
    }
  }, {
    "fullUrl": "https://madie.cms.gov/Observation/8915111e-2d60-4b8b-a6ab-a8742a73218e",
    "resource": {
      "resourceType": "Observation",
      "id": "8915111e-2d60-4b8b-a6ab-a8742a73218e",
      "meta": {
        "profile": [ "http://hl7.org/fhir/us/qicore/StructureDefinition/qicore-observation-lab" ]
      },
      "status": "amended",
      "category": [ {
        "coding": [ {
          "system": "http://terminology.hl7.org/CodeSystem/observation-category",
          "code": "laboratory",
          "display": "Laboratory",
          "userSelected": true
        } ]
      } ],
      "code": {
        "coding": [ {
          "system": "http://loinc.org",
          "version": "2.72",
          "code": "26464-8",
          "display": "Leukocytes [#/volume] in Blood"
        } ]
      },
      "subject": {
        "reference": "Patient/73b803bf-207c-411d-8db3-01908e5d9dda"
      },
      "effectiveDateTime": "2026-07-01T09:01:00.000+00:00",
      "issued": "2026-07-01T09:00:00.000+00:00",
      "performer": [ {
        "reference": "Organization/Organization-1"
      } ],
      "valueQuantity": {
        "value": 4500,
        "unit": "uL",
        "system": "http://unitsofmeasure.org",
        "code": "uL"
      }
    },
    "request": {
      "method": "PUT",
      "url": "Observation/8915111e-2d60-4b8b-a6ab-a8742a73218e"
    }
  }, {
    "fullUrl": "https://madie.cms.gov/Observation/00cf5f98-ce02-4973-be0e-bbafb853ba08",
    "resource": {
      "resourceType": "Observation",
      "id": "00cf5f98-ce02-4973-be0e-bbafb853ba08",
      "meta": {
        "profile": [ "http://hl7.org/fhir/us/qicore/StructureDefinition/qicore-observation-lab" ]
      },
      "status": "final",
      "category": [ {
        "coding": [ {
          "system": "http://terminology.hl7.org/CodeSystem/observation-category",
          "code": "laboratory",
          "display": "Laboratory",
          "userSelected": true
        } ]
      } ],
      "code": {
        "coding": [ {
          "system": "http://loinc.org",
          "version": "2.72",
          "code": "26464-8",
          "display": "Leukocytes [#/volume] in Blood"
        } ]
      },
      "subject": {
        "reference": "Patient/73b803bf-207c-411d-8db3-01908e5d9dda"
      },
      "effectiveDateTime": "2026-07-02T08:00:00.000+00:00",
      "issued": "2026-07-02T08:00:00.000+00:00",
      "performer": [ {
        "reference": "Organization/Organization-1"
      } ],
      "valueQuantity": {
        "value": 5000,
        "unit": "uL",
        "system": "http://unitsofmeasure.org",
        "code": "uL"
      }
    },
    "request": {
      "method": "PUT",
      "url": "Observation/00cf5f98-ce02-4973-be0e-bbafb853ba08"
    }
  }, {
    "fullUrl": "https://madie.cms.gov/Organization/1ce23802-29d7-4d00-b62a-f33f62cc65e8",
    "resource": {
      "resourceType": "Organization",
      "id": "1ce23802-29d7-4d00-b62a-f33f62cc65e8",
      "meta": {
        "profile": [ "http://hl7.org/fhir/us/qicore/StructureDefinition/qicore-organization" ]
      },
      "identifier": [ {
        "use": "temp",
        "system": "urn:oid:2.16.840.1.113883.4.4",
        "value": "21-3259825"
      } ],
      "active": true,
      "type": [ {
        "coding": [ {
          "system": "http://terminology.hl7.org/CodeSystem/organization-type",
          "code": "pay",
          "display": "Payer"
        } ]
      } ],
      "name": "Blue Cross Blue Shield of Texas",
      "telecom": [ {
        "system": "phone",
        "value": "(+1) 972-766-6900"
      } ],
      "address": [ {
        "use": "billing",
        "type": "postal",
        "line": [ "P.O. Box 660044" ],
        "city": "Dallas",
        "state": "TX",
        "postalCode": "75266-0044",
        "country": "USA"
      } ]
    },
    "request": {
      "method": "PUT",
      "url": "Organization/1ce23802-29d7-4d00-b62a-f33f62cc65e8"
    }
  }, {
    "fullUrl": "https://madie.cms.gov/Practitioner/6b6519c0-7e09-4393-9334-ddd4e3c2d81b",
    "resource": {
      "resourceType": "Practitioner",
      "id": "6b6519c0-7e09-4393-9334-ddd4e3c2d81b",
      "meta": {
        "profile": [ "http://hl7.org/fhir/us/qicore/StructureDefinition/qicore-practitioner" ]
      },
      "identifier": [ {
        "system": "http://hl7.org/fhir/sid/us-npi",
        "value": "0723660813"
      } ],
      "name": [ {
        "family": "Evil",
        "prefix": [ "Dr" ]
      } ]
    },
    "request": {
      "method": "PUT",
      "url": "Practitioner/6b6519c0-7e09-4393-9334-ddd4e3c2d81b"
    }
  }, {
    "fullUrl": "https://madie.cms.gov/MeasureReport/be1d452a-e677-4ae4-954f-8884e27eb2fe",
    "resource": {
      "resourceType": "MeasureReport",
      "id": "be1d452a-e677-4ae4-954f-8884e27eb2fe",
      "meta": {
        "profile": [ "http://hl7.org/fhir/us/cqfmeasures/StructureDefinition/test-case-cqfm" ]
      },
      "contained": [ {
        "resourceType": "Parameters",
        "id": "d7d69fc5-3572-422b-956b-662562bf20eb-parameters",
        "parameter": [ {
          "name": "subject",
          "valueString": "73b803bf-207c-411d-8db3-01908e5d9dda"
        } ]
      } ],
      "extension": [ {
        "url": "http://hl7.org/fhir/StructureDefinition/cqf-inputParameters",
        "valueReference": {
          "reference": "#d7d69fc5-3572-422b-956b-662562bf20eb-parameters"
        }
      }, {
        "url": "http://hl7.org/fhir/us/cqfmeasures/StructureDefinition/cqfm-testCaseDescription",
        "valueMarkdown": "Enc first day of MP (7/1) WBC were evaluated 1 hr and 24 hours after admission  "
      } ],
      "modifierExtension": [ {
        "url": "http://hl7.org/fhir/us/cqfmeasures/StructureDefinition/cqfm-isTestCase",
        "valueBoolean": true
      } ],
      "status": "complete",
      "type": "individual",
      "measure": "https://madie.cms.gov/Measure/CMSFHIR844HybridHospitalWideMortality",
      "period": {
        "start": "2026-07-01",
        "end": "2027-06-30"
      },
      "group": [ {
        "id": "Group_1",
        "population": [ {
          "id": "InitialPopulation_1",
          "code": {
            "coding": [ {
              "system": "http://terminology.hl7.org/CodeSystem/measure-population",
              "code": "initial-population",
              "display": "Initial Population"
            } ]
          },
          "count": 1
        } ],
        "measureScore": {
          "value": 0.0
        }
      } ],
      "evaluatedResource": [ {
        "reference": "Patient/73b803bf-207c-411d-8db3-01908e5d9dda"
      }, {
        "reference": "Encounter/2a99f3fd-067e-40d3-84d8-ebae3509fc11"
      }, {
        "reference": "Coverage/c76e4f90-8b06-45c0-b1a4-3d2f09cbaaf6"
      }, {
        "reference": "Observation/8915111e-2d60-4b8b-a6ab-a8742a73218e"
      }, {
        "reference": "Observation/00cf5f98-ce02-4973-be0e-bbafb853ba08"
      }, {
        "reference": "Organization/1ce23802-29d7-4d00-b62a-f33f62cc65e8"
      }, {
        "reference": "Practitioner/6b6519c0-7e09-4393-9334-ddd4e3c2d81b"
      } ]
    },
    "request": {
      "method": "PUT",
      "url": "MeasureReport/be1d452a-e677-4ae4-954f-8884e27eb2fe"
    }
  } ]
}