{
  "resourceType": "Bundle",
  "id": "62ec3038ea03a4ebacd6a088",
  "type": "collection",
  "entry": [ {
    "fullUrl": "https://madie.cms.gov/Patient/6f04cfd6-8557-4eff-84cb-9d3ed094dc4b",
    "resource": {
      "resourceType": "Patient",
      "id": "6f04cfd6-8557-4eff-84cb-9d3ed094dc4b",
      "meta": {
        "profile": [ "http://hl7.org/fhir/us/qicore/StructureDefinition/qicore-patient" ]
      },
      "extension": [ {
        "url": "http://hl7.org/fhir/us/core/StructureDefinition/us-core-race",
        "extension": [ {
          "url": "ombCategory",
          "valueCoding": {
            "system": "urn:oid:2.16.840.1.113883.6.238",
            "code": "1002-5",
            "display": "American Indian or Alaska Native",
            "userSelected": true
          }
        }, {
          "url": "text",
          "valueString": "American Indian or Alaska Native"
        } ]
      }, {
        "url": "http://hl7.org/fhir/us/core/StructureDefinition/us-core-ethnicity",
        "extension": [ {
          "url": "ombCategory",
          "valueCoding": {
            "system": "urn:oid:2.16.840.1.113883.6.238",
            "code": "2135-2",
            "display": "Hispanic or Latino",
            "userSelected": true
          }
        }, {
          "url": "text",
          "valueString": "Hispanic or Latino"
        } ]
      } ],
      "identifier": [ {
        "type": {
          "coding": [ {
            "system": "http://terminology.hl7.org/CodeSystem/v2-0203",
            "code": "MR"
          } ]
        },
        "system": "https://bonnie-fhir.healthit.gov/",
        "value": "62ec3038ea03a4ebacd6a088"
      } ],
      "name": [ {
        "family": "NumerFail",
        "given": [ "MedsNoDocStatusNotValid" ]
      } ],
      "gender": "unknown",
      "birthDate": "1967-01-19"
    }
  }, {
    "fullUrl": "https://madie.cms.gov/Encounter/7b8409de-4818-463a-93ae-1a00acdc8f68",
    "resource": {
      "resourceType": "Encounter",
      "id": "7b8409de-4818-463a-93ae-1a00acdc8f68",
      "meta": {
        "profile": [ "http://hl7.org/fhir/us/qicore/StructureDefinition/qicore-encounter" ]
      },
      "status": "finished",
      "class": {
        "system": "http://terminology.hl7.org/CodeSystem/v3-ActCode",
        "code": "IMP",
        "display": "inpatient encounter"
      },
      "type": [ {
        "coding": [ {
          "system": "http://snomed.info/sct",
          "code": "10197000",
          "display": "Psychiatric interview and evaluation (procedure)",
          "userSelected": true
        } ]
      } ],
      "subject": {
        "reference": "Patient/6f04cfd6-8557-4eff-84cb-9d3ed094dc4b"
      },
      "period": {
        "start": "2026-12-30T13:00:00.000+00:00",
        "end": "2026-12-30T14:15:00.000+00:00"
      }
    }
  }, {
    "fullUrl": "https://madie.cms.gov/Task/5523f979-0622-4300-8529-4ada7dc4ced4",
    "resource": {
      "resourceType": "Task",
      "id": "5523f979-0622-4300-8529-4ada7dc4ced4",
      "meta": {
        "profile": [ "http://hl7.org/fhir/us/qicore/StructureDefinition/qicore-task" ]
      },
      "identifier": [ {
        "use": "official",
        "system": "http:/goodhealth.org/identifiers",
        "value": "20170201-002"
      } ],
      "status": "ready",
      "intent": "proposal",
      "priority": "routine",
      "code": {
        "coding": [ {
          "system": "http://snomed.info/sct",
          "code": "428191000124101",
          "display": "Documentation of current medications (procedure)",
          "userSelected": true
        } ]
      },
      "for": {
        "reference": "Patient/6f04cfd6-8557-4eff-84cb-9d3ed094dc4b"
      },
      "executionPeriod": {
        "start": "2026-12-30T03:45:00.000+00:00"
      },
      "authoredOn": "2026-12-30T13:45:00.000+00:00"
    }
  }, {
    "fullUrl": "https://madie.cms.gov/MeasureReport/4c380c00-b808-4ca1-a90f-07f4127d2936",
    "resource": {
      "resourceType": "MeasureReport",
      "id": "4c380c00-b808-4ca1-a90f-07f4127d2936",
      "meta": {
        "profile": [ "http://hl7.org/fhir/us/cqfmeasures/StructureDefinition/test-case-cqfm" ]
      },
      "contained": [ {
        "resourceType": "Parameters",
        "id": "13cf22b6-dea7-4440-94f0-3d2c399677fe-parameters",
        "parameter": [ {
          "name": "subject",
          "valueString": "6f04cfd6-8557-4eff-84cb-9d3ed094dc4b"
        } ]
      } ],
      "extension": [ {
        "url": "http://hl7.org/fhir/StructureDefinition/cqf-inputParameters",
        "valueReference": {
          "reference": "#13cf22b6-dea7-4440-94f0-3d2c399677fe-parameters"
        }
      }, {
        "url": "http://hl7.org/fhir/us/cqfmeasures/StructureDefinition/cqfm-testCaseDescription",
        "valueMarkdown": "Qualifying encounter (status finished) during MP Start is after end. Medications documented before encounter period (edge test) status = accepted"
      } ],
      "modifierExtension": [ {
        "url": "http://hl7.org/fhir/us/cqfmeasures/StructureDefinition/cqfm-isTestCase",
        "valueBoolean": true
      } ],
      "status": "complete",
      "type": "individual",
      "measure": "https://madie.cms.gov/Measure/CMS68FHIRDocumentationCurrentMeds",
      "period": {
        "start": "2026-01-01",
        "end": "2026-12-31"
      },
      "group": [ {
        "id": "Group_1",
        "population": [ {
          "id": "InitialPopulation_1",
          "code": {
            "coding": [ {
              "system": "http://terminology.hl7.org/CodeSystem/measure-population",
              "code": "initial-population",
              "display": "Initial Population"
            } ]
          },
          "count": 1
        }, {
          "id": "Denominator_1",
          "code": {
            "coding": [ {
              "system": "http://terminology.hl7.org/CodeSystem/measure-population",
              "code": "denominator",
              "display": "Denominator"
            } ]
          },
          "count": 1
        }, {
          "id": "Numerator_1",
          "code": {
            "coding": [ {
              "system": "http://terminology.hl7.org/CodeSystem/measure-population",
              "code": "numerator",
              "display": "Numerator"
            } ]
          },
          "count": 0
        }, {
          "id": "DenominatorException_1",
          "code": {
            "coding": [ {
              "system": "http://terminology.hl7.org/CodeSystem/measure-population",
              "code": "denominator-exception",
              "display": "Denominator Exception"
            } ]
          },
          "count": 0
        } ],
        "measureScore": {
          "value": 0.0
        }
      } ],
      "evaluatedResource": [ {
        "reference": "Patient/6f04cfd6-8557-4eff-84cb-9d3ed094dc4b"
      }, {
        "reference": "Encounter/7b8409de-4818-463a-93ae-1a00acdc8f68"
      }, {
        "reference": "Task/5523f979-0622-4300-8529-4ada7dc4ced4"
      } ]
    }
  } ]
}