{
  "resourceType": "Bundle",
  "id": "612e6a5202c62a011f2e9a04",
  "type": "transaction",
  "entry": [ {
    "fullUrl": "https://madie.cms.gov/Patient/5648dea0-7f2d-4611-b87a-4bc5586c3780",
    "resource": {
      "resourceType": "Patient",
      "id": "5648dea0-7f2d-4611-b87a-4bc5586c3780",
      "meta": {
        "profile": [ "http://hl7.org/fhir/us/qicore/StructureDefinition/qicore-patient" ]
      },
      "text": {
        "status": "generated",
        "div": "<div xmlns=\"http://www.w3.org/1999/xhtml\"><div class=\"hapiHeaderText\">EncDxObstetricsRsnCode <b>IPPFAIL </b></div><table class=\"hapiPropertyTable\"><tbody><tr><td>Identifier</td><td>a822ec1a5dddc09a0f677a30161a3b30</td></tr><tr><td>Date of birth</td><td><span>02 January 1974</span></td></tr></tbody></table></div>"
      },
      "extension": [ {
        "url": "http://hl7.org/fhir/us/core/StructureDefinition/us-core-race",
        "extension": [ {
          "url": "ombCategory",
          "valueCoding": {
            "system": "urn:oid:2.16.840.1.113883.6.238",
            "code": "1002-5",
            "display": "American Indian or Alaska Native",
            "userSelected": true
          }
        }, {
          "url": "text",
          "valueString": "American Indian or Alaska Native"
        } ]
      }, {
        "url": "http://hl7.org/fhir/us/core/StructureDefinition/us-core-ethnicity",
        "extension": [ {
          "url": "ombCategory",
          "valueCoding": {
            "system": "urn:oid:2.16.840.1.113883.6.238",
            "code": "2135-2",
            "display": "Hispanic or Latino",
            "userSelected": true
          }
        }, {
          "url": "text",
          "valueString": "Hispanic or Latino"
        } ]
      } ],
      "identifier": [ {
        "type": {
          "coding": [ {
            "system": "http://terminology.hl7.org/CodeSystem/v2-0203",
            "code": "MR"
          } ]
        },
        "system": "https://bonnie-fhir.healthit.gov/",
        "value": "612e6a5202c62a011f2e9a04"
      } ],
      "active": true,
      "name": [ {
        "use": "usual",
        "family": "IPPFail",
        "given": [ "EncDxObstetricsRsnCode" ]
      } ],
      "gender": "male",
      "birthDate": "1975-01-02"
    },
    "request": {
      "method": "PUT",
      "url": "Patient/5648dea0-7f2d-4611-b87a-4bc5586c3780"
    }
  }, {
    "fullUrl": "https://madie.cms.gov/Encounter/167ca8c7-888a-46b1-88d7-af73c90034ee",
    "resource": {
      "resourceType": "Encounter",
      "id": "167ca8c7-888a-46b1-88d7-af73c90034ee",
      "meta": {
        "profile": [ "http://hl7.org/fhir/us/qicore/StructureDefinition/qicore-encounter" ]
      },
      "status": "finished",
      "class": {
        "system": "http://terminology.hl7.org/CodeSystem/v3-ActCode",
        "code": "IMP",
        "display": "inpatient encounter"
      },
      "type": [ {
        "coding": [ {
          "system": "http://snomed.info/sct",
          "code": "8715000"
        } ]
      } ],
      "subject": {
        "reference": "Patient/5648dea0-7f2d-4611-b87a-4bc5586c3780"
      },
      "period": {
        "start": "2026-11-01T08:00:00.000+00:00",
        "end": "2026-11-26T08:15:00.000+00:00"
      },
      "length": {
        "value": 25,
        "unit": "days"
      },
      "reasonCode": [ {
        "coding": [ {
          "system": "http://snomed.info/sct",
          "code": "10217006"
        } ]
      } ]
    },
    "request": {
      "method": "PUT",
      "url": "Encounter/167ca8c7-888a-46b1-88d7-af73c90034ee"
    }
  }, {
    "fullUrl": "https://madie.cms.gov/Coverage/685d58f9-fa2c-4388-abb4-c4455cdd30d5",
    "resource": {
      "resourceType": "Coverage",
      "id": "685d58f9-fa2c-4388-abb4-c4455cdd30d5",
      "status": "active",
      "beneficiary": {
        "reference": "Patient/5648dea0-7f2d-4611-b87a-4bc5586c3780"
      },
      "period": {
        "start": "1975-01-02T08:00:00.000+00:00"
      },
      "payor": [ {
        "reference": "Organization/5d439f74-84ea-4bcd-97e8-da60c3003f4f"
      } ]
    },
    "request": {
      "method": "PUT",
      "url": "Coverage/685d58f9-fa2c-4388-abb4-c4455cdd30d5"
    }
  }, {
    "fullUrl": "https://madie.cms.gov/Condition/d2d6fdb0-ff4d-449e-96a8-1656cd28023d",
    "resource": {
      "resourceType": "Condition",
      "id": "d2d6fdb0-ff4d-449e-96a8-1656cd28023d",
      "meta": {
        "profile": [ "http://hl7.org/fhir/us/qicore/StructureDefinition/qicore-condition-encounter-diagnosis" ]
      },
      "category": [ {
        "coding": [ {
          "system": "http://terminology.hl7.org/CodeSystem/condition-category",
          "code": "encounter-diagnosis",
          "display": "Encounter Diagnosis"
        } ]
      } ],
      "code": {
        "coding": [ {
          "system": "http://snomed.info/sct",
          "code": "10217006",
          "display": "Third degree perineal laceration (disorder)",
          "userSelected": true
        } ]
      },
      "subject": {
        "reference": "Patient/5648dea0-7f2d-4611-b87a-4bc5586c3780"
      },
      "encounter": {
        "reference": "Encounter/167ca8c7-888a-46b1-88d7-af73c90034ee"
      },
      "recordedDate": "2026-11-01T08:00:00.000+00:00"
    },
    "request": {
      "method": "PUT",
      "url": "Condition/d2d6fdb0-ff4d-449e-96a8-1656cd28023d"
    }
  }, {
    "fullUrl": "https://madie.cms.gov/Organization/5d439f74-84ea-4bcd-97e8-da60c3003f4f",
    "resource": {
      "resourceType": "Organization",
      "id": "5d439f74-84ea-4bcd-97e8-da60c3003f4f",
      "meta": {
        "profile": [ "http://hl7.org/fhir/us/qicore/StructureDefinition/qicore-organization" ]
      },
      "identifier": [ {
        "use": "temp",
        "system": "urn:oid:2.16.840.1.113883.4.4",
        "value": "21-3259825"
      } ],
      "active": true,
      "type": [ {
        "coding": [ {
          "system": "http://terminology.hl7.org/CodeSystem/organization-type",
          "code": "pay",
          "display": "Payer"
        } ]
      } ],
      "name": "Blue Cross Blue Shield of Texas",
      "telecom": [ {
        "system": "phone",
        "value": "(+1) 972-766-6900"
      } ],
      "address": [ {
        "use": "billing",
        "type": "postal",
        "line": [ "P.O. Box 660044" ],
        "city": "Dallas",
        "state": "TX",
        "postalCode": "75266-0044",
        "country": "USA"
      } ]
    },
    "request": {
      "method": "PUT",
      "url": "Organization/5d439f74-84ea-4bcd-97e8-da60c3003f4f"
    }
  }, {
    "fullUrl": "https://madie.cms.gov/Practitioner/593003eb-cab2-4f04-9875-5464a8c7c409",
    "resource": {
      "resourceType": "Practitioner",
      "id": "593003eb-cab2-4f04-9875-5464a8c7c409",
      "identifier": [ {
        "system": "http://hl7.org/fhir/sid/us-npi",
        "value": "123456"
      } ],
      "name": [ {
        "family": "Evil",
        "prefix": [ "Dr" ]
      } ]
    },
    "request": {
      "method": "PUT",
      "url": "Practitioner/593003eb-cab2-4f04-9875-5464a8c7c409"
    }
  }, {
    "fullUrl": "https://madie.cms.gov/MeasureReport/b6d2f4b8-1124-42ff-8336-d9ccc3df5545",
    "resource": {
      "resourceType": "MeasureReport",
      "id": "b6d2f4b8-1124-42ff-8336-d9ccc3df5545",
      "meta": {
        "profile": [ "http://hl7.org/fhir/us/cqfmeasures/StructureDefinition/test-case-cqfm" ]
      },
      "contained": [ {
        "resourceType": "Parameters",
        "id": "16a8440e-4398-4acb-b532-084f48be0036-parameters",
        "parameter": [ {
          "name": "subject",
          "valueString": "5648dea0-7f2d-4611-b87a-4bc5586c3780"
        } ]
      } ],
      "extension": [ {
        "url": "http://hl7.org/fhir/StructureDefinition/cqf-inputParameters",
        "valueReference": {
          "reference": "#16a8440e-4398-4acb-b532-084f48be0036-parameters"
        }
      }, {
        "url": "http://hl7.org/fhir/us/cqfmeasures/StructureDefinition/cqfm-testCaseDescription",
        "valueMarkdown": "Patient is > 18 years old, LOS < 120 days during MP with Obstetrics diagnosis in a reasonCode\n"
      } ],
      "modifierExtension": [ {
        "url": "http://hl7.org/fhir/us/cqfmeasures/StructureDefinition/cqfm-isTestCase",
        "valueBoolean": true
      } ],
      "status": "complete",
      "type": "individual",
      "measure": "https://madie.cms.gov/Measure/CMS108FHIRVTEProphylaxis",
      "period": {
        "start": "2026-01-01",
        "end": "2026-12-31"
      },
      "group": [ {
        "id": "Group_1",
        "population": [ {
          "id": "InitialPopulation_1",
          "code": {
            "coding": [ {
              "system": "http://terminology.hl7.org/CodeSystem/measure-population",
              "code": "initial-population",
              "display": "Initial Population"
            } ]
          },
          "count": 0
        }, {
          "id": "Denominator_1",
          "code": {
            "coding": [ {
              "system": "http://terminology.hl7.org/CodeSystem/measure-population",
              "code": "denominator",
              "display": "Denominator"
            } ]
          },
          "count": 0
        }, {
          "id": "DenominatorExclusion_1",
          "code": {
            "coding": [ {
              "system": "http://terminology.hl7.org/CodeSystem/measure-population",
              "code": "denominator-exclusion",
              "display": "Denominator Exclusion"
            } ]
          },
          "count": 0
        }, {
          "id": "Numerator_1",
          "code": {
            "coding": [ {
              "system": "http://terminology.hl7.org/CodeSystem/measure-population",
              "code": "numerator",
              "display": "Numerator"
            } ]
          },
          "count": 0
        } ],
        "measureScore": {
          "value": 0.0
        }
      } ],
      "evaluatedResource": [ {
        "reference": "Patient/5648dea0-7f2d-4611-b87a-4bc5586c3780"
      }, {
        "reference": "Encounter/167ca8c7-888a-46b1-88d7-af73c90034ee"
      }, {
        "reference": "Coverage/685d58f9-fa2c-4388-abb4-c4455cdd30d5"
      }, {
        "reference": "Condition/d2d6fdb0-ff4d-449e-96a8-1656cd28023d"
      }, {
        "reference": "Organization/5d439f74-84ea-4bcd-97e8-da60c3003f4f"
      }, {
        "reference": "Practitioner/593003eb-cab2-4f04-9875-5464a8c7c409"
      } ]
    },
    "request": {
      "method": "PUT",
      "url": "MeasureReport/b6d2f4b8-1124-42ff-8336-d9ccc3df5545"
    }
  } ]
}