{
  "resourceType": "Bundle",
  "id": "964313131",
  "type": "collection",
  "entry": [ {
    "fullUrl": "https://madie.cms.gov/Patient/8c717fb3-e820-44c6-b4ef-e9a7f46cd85b",
    "resource": {
      "resourceType": "Patient",
      "id": "8c717fb3-e820-44c6-b4ef-e9a7f46cd85b",
      "meta": {
        "profile": [ "http://hl7.org/fhir/us/qicore/StructureDefinition/qicore-patient" ]
      },
      "extension": [ {
        "url": "http://hl7.org/fhir/us/core/StructureDefinition/us-core-race",
        "extension": [ {
          "url": "ombCategory",
          "valueCoding": {
            "system": "urn:oid:2.16.840.1.113883.6.238",
            "code": "2054-5",
            "display": "Black or African American"
          }
        }, {
          "url": "text",
          "valueString": "Black or African American"
        } ]
      }, {
        "url": "http://hl7.org/fhir/us/core/StructureDefinition/us-core-ethnicity",
        "extension": [ {
          "url": "ombCategory",
          "valueCoding": {
            "system": "urn:oid:2.16.840.1.113883.6.238",
            "code": "2186-5",
            "display": "Not Hispanic or Latino"
          }
        }, {
          "url": "text",
          "valueString": "Not Hispanic or Latino"
        } ]
      } ],
      "identifier": [ {
        "type": {
          "coding": [ {
            "system": "http://terminology.hl7.org/CodeSystem/v2-0203",
            "code": "MR"
          } ]
        },
        "system": "https://bonnie-fhir.healthit.gov/",
        "value": "1351313131"
      } ],
      "active": true,
      "name": [ {
        "use": "usual",
        "family": "DENEXCEPPass",
        "given": [ "ArrhythmiaDxBeforeLastEnc" ]
      } ],
      "gender": "male",
      "birthDate": "1948-02-03"
    }
  }, {
    "fullUrl": "https://madie.cms.gov/Encounter/6ac58203-ff15-4bef-8d70-7240372214ad",
    "resource": {
      "resourceType": "Encounter",
      "id": "6ac58203-ff15-4bef-8d70-7240372214ad",
      "meta": {
        "profile": [ "http://hl7.org/fhir/us/qicore/StructureDefinition/qicore-encounter" ]
      },
      "status": "finished",
      "class": {
        "system": "http://terminology.hl7.org/CodeSystem/v3-ActCode",
        "code": "AMB",
        "display": "ambulatory"
      },
      "type": [ {
        "coding": [ {
          "system": "http://www.ama-assn.org/go/cpt",
          "version": "2024",
          "code": "99213"
        } ]
      } ],
      "subject": {
        "reference": "Patient/8c717fb3-e820-44c6-b4ef-e9a7f46cd85b"
      },
      "period": {
        "start": "2026-05-25T14:20:00.000+00:00",
        "end": "2026-05-25T14:40:00.000+00:00"
      }
    }
  }, {
    "fullUrl": "https://madie.cms.gov/Encounter/94f1f1e2-bb7e-4f83-bfbc-8083bfab7c3c",
    "resource": {
      "resourceType": "Encounter",
      "id": "94f1f1e2-bb7e-4f83-bfbc-8083bfab7c3c",
      "meta": {
        "profile": [ "http://hl7.org/fhir/us/qicore/StructureDefinition/qicore-encounter" ]
      },
      "status": "finished",
      "class": {
        "system": "http://terminology.hl7.org/CodeSystem/v3-ActCode",
        "code": "AMB",
        "display": "ambulatory"
      },
      "type": [ {
        "coding": [ {
          "system": "http://www.ama-assn.org/go/cpt",
          "version": "2024",
          "code": "99212"
        } ]
      } ],
      "subject": {
        "reference": "Patient/8c717fb3-e820-44c6-b4ef-e9a7f46cd85b"
      },
      "period": {
        "start": "2026-09-05T15:30:00.000+00:00",
        "end": "2026-09-05T15:50:00.000+00:00"
      }
    }
  }, {
    "fullUrl": "https://madie.cms.gov/Condition/72415ecd-cfbd-4717-a0c4-68230f6a6e2b",
    "resource": {
      "resourceType": "Condition",
      "id": "72415ecd-cfbd-4717-a0c4-68230f6a6e2b",
      "meta": {
        "profile": [ "http://hl7.org/fhir/us/qicore/StructureDefinition/qicore-condition-problems-health-concerns" ]
      },
      "clinicalStatus": {
        "coding": [ {
          "system": "http://terminology.hl7.org/CodeSystem/condition-clinical",
          "code": "active",
          "display": "active"
        } ]
      },
      "verificationStatus": {
        "coding": [ {
          "system": "http://terminology.hl7.org/CodeSystem/condition-ver-status",
          "code": "confirmed",
          "display": "Confirmed"
        } ]
      },
      "category": [ {
        "coding": [ {
          "system": "http://terminology.hl7.org/CodeSystem/condition-category",
          "code": "problem-list-item",
          "display": "problem list item"
        } ]
      } ],
      "code": {
        "coding": [ {
          "system": "http://snomed.info/sct",
          "version": "http://snomed.info/sct/731000124108/version/20250301",
          "code": "364006"
        } ]
      },
      "subject": {
        "reference": "Patient/8c717fb3-e820-44c6-b4ef-e9a7f46cd85b"
      },
      "onsetPeriod": {
        "start": "2026-06-27T10:00:00.000+00:00"
      }
    }
  }, {
    "fullUrl": "https://madie.cms.gov/Condition/a25a5af4-0835-4e2c-929d-2d128843e3ca",
    "resource": {
      "resourceType": "Condition",
      "id": "a25a5af4-0835-4e2c-929d-2d128843e3ca",
      "meta": {
        "profile": [ "http://hl7.org/fhir/us/qicore/StructureDefinition/qicore-condition-problems-health-concerns" ]
      },
      "clinicalStatus": {
        "coding": [ {
          "system": "http://terminology.hl7.org/CodeSystem/condition-clinical",
          "code": "active",
          "display": "active"
        } ]
      },
      "verificationStatus": {
        "coding": [ {
          "system": "http://terminology.hl7.org/CodeSystem/condition-ver-status",
          "code": "confirmed",
          "display": "Confirmed"
        } ]
      },
      "category": [ {
        "coding": [ {
          "system": "http://terminology.hl7.org/CodeSystem/condition-category",
          "code": "problem-list-item",
          "display": "problem list item"
        } ]
      } ],
      "severity": {
        "coding": [ {
          "system": "http://snomed.info/sct",
          "version": "http://snomed.info/sct/731000124108/version/20240301",
          "code": "24484000",
          "display": "Severe (severity modifier) (qualifier value)"
        } ]
      },
      "code": {
        "coding": [ {
          "system": "http://snomed.info/sct",
          "version": "http://snomed.info/sct/731000124108/version/20250301",
          "code": "134401001",
          "display": "Left ventricular systolic dysfunction (disorder)"
        } ]
      },
      "subject": {
        "reference": "Patient/8c717fb3-e820-44c6-b4ef-e9a7f46cd85b"
      },
      "onsetPeriod": {
        "start": "2026-08-11T23:50:00.000+00:00"
      }
    }
  }, {
    "fullUrl": "https://madie.cms.gov/Observation/09d8cc9f-4c33-4e9b-a6d9-6a1396261f0c",
    "resource": {
      "resourceType": "Observation",
      "id": "09d8cc9f-4c33-4e9b-a6d9-6a1396261f0c",
      "meta": {
        "profile": [ "http://hl7.org/fhir/us/core/StructureDefinition/us-core-heart-rate" ]
      },
      "status": "final",
      "category": [ {
        "coding": [ {
          "system": "http://terminology.hl7.org/CodeSystem/observation-category",
          "code": "imaging",
          "display": "Imaging"
        } ]
      }, {
        "coding": [ {
          "system": "http://terminology.hl7.org/CodeSystem/observation-category",
          "code": "vital-signs",
          "display": "Vital signs"
        } ]
      }, {
        "coding": [ {
          "system": "http://terminology.hl7.org/CodeSystem/observation-category",
          "code": "survey"
        } ]
      } ],
      "code": {
        "coding": [ {
          "system": "http://loinc.org",
          "version": "2.76",
          "code": "8867-4"
        } ]
      },
      "subject": {
        "reference": "Patient/8c717fb3-e820-44c6-b4ef-e9a7f46cd85b"
      },
      "effectiveDateTime": "2026-09-05T15:40:00.000+00:00",
      "valueQuantity": {
        "value": 30,
        "unit": "/min",
        "system": "http://unitsofmeasure.org",
        "code": "/min"
      }
    }
  }, {
    "fullUrl": "https://madie.cms.gov/Condition/91711203-34e3-4afb-aea3-815c34ec10dc",
    "resource": {
      "resourceType": "Condition",
      "id": "91711203-34e3-4afb-aea3-815c34ec10dc",
      "meta": {
        "profile": [ "http://hl7.org/fhir/us/qicore/StructureDefinition/qicore-condition-problems-health-concerns" ]
      },
      "clinicalStatus": {
        "coding": [ {
          "system": "http://terminology.hl7.org/CodeSystem/condition-clinical",
          "code": "active",
          "display": "active"
        } ]
      },
      "verificationStatus": {
        "coding": [ {
          "system": "http://terminology.hl7.org/CodeSystem/condition-ver-status",
          "code": "confirmed",
          "display": "Confirmed"
        } ]
      },
      "category": [ {
        "coding": [ {
          "system": "http://terminology.hl7.org/CodeSystem/condition-category",
          "code": "problem-list-item",
          "display": "problem list item"
        } ]
      } ],
      "code": {
        "coding": [ {
          "system": "http://snomed.info/sct",
          "version": "http://snomed.info/sct/731000124108/version/20250301",
          "code": "11849007",
          "display": "Atrioventricular junctional rhythm (disorder)"
        } ]
      },
      "subject": {
        "reference": "Patient/8c717fb3-e820-44c6-b4ef-e9a7f46cd85b"
      },
      "onsetPeriod": {
        "start": "2026-06-27T10:00:00.000+00:00"
      }
    }
  }, {
    "fullUrl": "https://madie.cms.gov/Observation/d805bcad-f59f-47aa-8c08-97871b20659c",
    "resource": {
      "resourceType": "Observation",
      "id": "d805bcad-f59f-47aa-8c08-97871b20659c",
      "meta": {
        "profile": [ "http://hl7.org/fhir/us/core/StructureDefinition/us-core-heart-rate" ]
      },
      "status": "final",
      "category": [ {
        "coding": [ {
          "system": "http://terminology.hl7.org/CodeSystem/observation-category",
          "code": "imaging",
          "display": "Imaging"
        } ]
      }, {
        "coding": [ {
          "system": "http://terminology.hl7.org/CodeSystem/observation-category",
          "code": "vital-signs",
          "display": "Vital signs"
        } ]
      }, {
        "coding": [ {
          "system": "http://terminology.hl7.org/CodeSystem/observation-category",
          "code": "survey"
        } ]
      } ],
      "code": {
        "coding": [ {
          "system": "http://loinc.org",
          "version": "2.76",
          "code": "8867-4"
        } ]
      },
      "subject": {
        "reference": "Patient/8c717fb3-e820-44c6-b4ef-e9a7f46cd85b"
      },
      "effectiveDateTime": "2026-09-05T15:35:00.000+00:00",
      "valueQuantity": {
        "value": 30,
        "unit": "/min",
        "system": "http://unitsofmeasure.org",
        "code": "/min"
      }
    }
  }, {
    "fullUrl": "https://madie.cms.gov/MeasureReport/5c36cccb-2bf5-4737-9a88-a531e21c6199",
    "resource": {
      "resourceType": "MeasureReport",
      "id": "5c36cccb-2bf5-4737-9a88-a531e21c6199",
      "meta": {
        "profile": [ "http://hl7.org/fhir/us/cqfmeasures/StructureDefinition/test-case-cqfm" ]
      },
      "contained": [ {
        "resourceType": "Parameters",
        "id": "6ae07c7c-b34d-4d68-81f1-330a6e3313a2-parameters",
        "parameter": [ {
          "name": "subject",
          "valueString": "8c717fb3-e820-44c6-b4ef-e9a7f46cd85b"
        } ]
      } ],
      "extension": [ {
        "url": "http://hl7.org/fhir/StructureDefinition/cqf-inputParameters",
        "valueReference": {
          "reference": "#6ae07c7c-b34d-4d68-81f1-330a6e3313a2-parameters"
        }
      }, {
        "url": "http://hl7.org/fhir/us/cqfmeasures/StructureDefinition/cqfm-testCaseDescription",
        "valueMarkdown": "Patient with arrhythmia starting before last encounter in measurement period. Patient excepted due to arrhythmia diagnosis before last encounter."
      } ],
      "modifierExtension": [ {
        "url": "http://hl7.org/fhir/us/cqfmeasures/StructureDefinition/cqfm-isTestCase",
        "valueBoolean": true
      } ],
      "status": "complete",
      "type": "individual",
      "measure": "https://madie.cms.gov/Measure/CMS144FHIRHFBetaBlockerForLVSD",
      "period": {
        "start": "2026-01-01",
        "end": "2026-12-31"
      },
      "group": [ {
        "id": "Group_1",
        "population": [ {
          "id": "InitialPopulation_1",
          "code": {
            "coding": [ {
              "system": "http://terminology.hl7.org/CodeSystem/measure-population",
              "code": "initial-population",
              "display": "Initial Population"
            } ]
          },
          "count": 1
        }, {
          "id": "Denominator_1",
          "code": {
            "coding": [ {
              "system": "http://terminology.hl7.org/CodeSystem/measure-population",
              "code": "denominator",
              "display": "Denominator"
            } ]
          },
          "count": 1
        }, {
          "id": "DenominatorExclusion_1",
          "code": {
            "coding": [ {
              "system": "http://terminology.hl7.org/CodeSystem/measure-population",
              "code": "denominator-exclusion",
              "display": "Denominator Exclusion"
            } ]
          },
          "count": 0
        }, {
          "id": "Numerator_1",
          "code": {
            "coding": [ {
              "system": "http://terminology.hl7.org/CodeSystem/measure-population",
              "code": "numerator",
              "display": "Numerator"
            } ]
          },
          "count": 0
        }, {
          "id": "DenominatorException_1",
          "code": {
            "coding": [ {
              "system": "http://terminology.hl7.org/CodeSystem/measure-population",
              "code": "denominator-exception",
              "display": "Denominator Exception"
            } ]
          },
          "count": 1
        } ],
        "measureScore": {
          "value": 1.0
        }
      } ],
      "evaluatedResource": [ {
        "reference": "Patient/8c717fb3-e820-44c6-b4ef-e9a7f46cd85b"
      }, {
        "reference": "Encounter/6ac58203-ff15-4bef-8d70-7240372214ad"
      }, {
        "reference": "Encounter/94f1f1e2-bb7e-4f83-bfbc-8083bfab7c3c"
      }, {
        "reference": "Condition/72415ecd-cfbd-4717-a0c4-68230f6a6e2b"
      }, {
        "reference": "Condition/a25a5af4-0835-4e2c-929d-2d128843e3ca"
      }, {
        "reference": "Observation/09d8cc9f-4c33-4e9b-a6d9-6a1396261f0c"
      }, {
        "reference": "Condition/91711203-34e3-4afb-aea3-815c34ec10dc"
      }, {
        "reference": "Observation/d805bcad-f59f-47aa-8c08-97871b20659c"
      } ]
    }
  } ]
}