{
  "resourceType": "Bundle",
  "id": "62d0327bd15ad008a13f69e5",
  "type": "collection",
  "entry": [ {
    "fullUrl": "https://madie.cms.gov/Patient/aabfb5d9-4d3d-4768-860d-160ee6e50045",
    "resource": {
      "resourceType": "Patient",
      "id": "aabfb5d9-4d3d-4768-860d-160ee6e50045",
      "meta": {
        "profile": [ "http://hl7.org/fhir/us/qicore/StructureDefinition/qicore-patient" ]
      },
      "extension": [ {
        "url": "http://hl7.org/fhir/us/core/StructureDefinition/us-core-race",
        "extension": [ {
          "url": "ombCategory",
          "valueCoding": {
            "system": "urn:oid:2.16.840.1.113883.6.238",
            "code": "2106-3",
            "display": "White",
            "userSelected": true
          }
        }, {
          "url": "text",
          "valueString": "White"
        } ]
      }, {
        "url": "http://hl7.org/fhir/us/core/StructureDefinition/us-core-ethnicity",
        "extension": [ {
          "url": "ombCategory",
          "valueCoding": {
            "system": "urn:oid:2.16.840.1.113883.6.238",
            "code": "2186-5",
            "display": "Not Hispanic or Latino",
            "userSelected": true
          }
        }, {
          "url": "text",
          "valueString": "Not Hispanic or Latino"
        } ]
      } ],
      "identifier": [ {
        "type": {
          "coding": [ {
            "system": "http://terminology.hl7.org/CodeSystem/v2-0203",
            "code": "MR"
          } ]
        },
        "system": "https://bonnie-fhir.healthit.gov/",
        "value": "62d0327bd15ad008a13f69e5"
      } ],
      "name": [ {
        "family": "NUMERPass",
        "given": [ "ElevatedBPReferred" ]
      } ],
      "gender": "male",
      "birthDate": "2006-01-31"
    }
  }, {
    "fullUrl": "https://madie.cms.gov/Encounter/f3cf108d-b778-4198-8b49-a87fd2993db9",
    "resource": {
      "resourceType": "Encounter",
      "id": "f3cf108d-b778-4198-8b49-a87fd2993db9",
      "meta": {
        "profile": [ "http://hl7.org/fhir/us/qicore/StructureDefinition/qicore-encounter" ]
      },
      "status": "finished",
      "class": {
        "system": "http://terminology.hl7.org/CodeSystem/v3-ActCode",
        "code": "AMB",
        "display": "ambulatory"
      },
      "type": [ {
        "coding": [ {
          "system": "http://snomed.info/sct",
          "version": "2022-03",
          "code": "103705002",
          "display": "Patient status observation (procedure)",
          "userSelected": true
        } ]
      } ],
      "subject": {
        "reference": "Patient/aabfb5d9-4d3d-4768-860d-160ee6e50045"
      },
      "period": {
        "start": "2026-01-01T08:00:00.000Z",
        "end": "2026-01-01T08:30:00.000Z"
      }
    }
  }, {
    "fullUrl": "https://madie.cms.gov/Observation/cb60ed36-02b8-47b8-bcb7-2542b2aaa8d8",
    "resource": {
      "resourceType": "Observation",
      "id": "cb60ed36-02b8-47b8-bcb7-2542b2aaa8d8",
      "meta": {
        "profile": [ "http://hl7.org/fhir/us/core/StructureDefinition/us-core-blood-pressure" ]
      },
      "status": "final",
      "category": [ {
        "coding": [ {
          "system": "http://terminology.hl7.org/CodeSystem/observation-category",
          "code": "vital-signs",
          "display": "Vital Signs"
        } ],
        "text": "Vital Signs"
      } ],
      "code": {
        "coding": [ {
          "system": "http://loinc.org",
          "code": "85354-9",
          "display": "Blood pressure panel with all children optional"
        } ]
      },
      "subject": {
        "reference": "Patient/aabfb5d9-4d3d-4768-860d-160ee6e50045"
      },
      "effectiveDateTime": "2026-01-01T08:05:00.000Z",
      "component": [ {
        "code": {
          "coding": [ {
            "system": "http://loinc.org",
            "code": "8480-6",
            "display": "Systolic blood pressure"
          } ]
        },
        "valueQuantity": {
          "value": 120,
          "unit": "mmHg",
          "system": "http://unitsofmeasure.org",
          "code": "mm[Hg]"
        }
      }, {
        "code": {
          "coding": [ {
            "system": "http://loinc.org",
            "code": "8462-4",
            "display": "Diastolic blood pressure"
          } ]
        },
        "valueQuantity": {
          "value": 79,
          "unit": "mmHg",
          "system": "http://unitsofmeasure.org",
          "code": "mm[Hg]"
        }
      } ]
    }
  }, {
    "fullUrl": "https://madie.cms.gov/ServiceRequest/ce80ba45-a17b-4ade-b3f1-532e9092a4a0",
    "resource": {
      "resourceType": "ServiceRequest",
      "id": "ce80ba45-a17b-4ade-b3f1-532e9092a4a0",
      "meta": {
        "profile": [ "http://hl7.org/fhir/us/qicore/StructureDefinition/qicore-servicerequest" ]
      },
      "status": "active",
      "intent": "order",
      "code": {
        "coding": [ {
          "system": "http://snomed.info/sct",
          "version": "2022-03",
          "code": "134403003",
          "display": "Urgent referral (procedure)",
          "userSelected": true
        } ]
      },
      "subject": {
        "reference": "Patient/aabfb5d9-4d3d-4768-860d-160ee6e50045"
      },
      "authoredOn": "2026-01-01T08:25:00.000Z",
      "reasonCode": [ {
        "coding": [ {
          "system": "http://hl7.org/fhir/sid/icd-10-cm",
          "code": "R03.0",
          "display": "Elevated blood-pressure reading, without diagnosis of hypertension",
          "userSelected": true
        } ]
      } ]
    }
  }, {
    "fullUrl": "https://madie.cms.gov/Coverage/607d8b44-33ac-4960-bb37-952f067ee3d6",
    "resource": {
      "resourceType": "Coverage",
      "id": "607d8b44-33ac-4960-bb37-952f067ee3d6",
      "meta": {
        "profile": [ "http://hl7.org/fhir/us/qicore/StructureDefinition/qicore-coverage" ]
      },
      "status": "active",
      "subscriberId": "23134532",
      "beneficiary": {
        "reference": "Patient/aabfb5d9-4d3d-4768-860d-160ee6e50045"
      },
      "relationship": {
        "coding": [ {
          "system": "http://terminology.hl7.org/CodeSystem/subscriber-relationship",
          "code": "self",
          "display": "Self"
        } ]
      },
      "payor": [ {
        "reference": "Organization/e5ce588d-1ff4-49bb-bf6e-3b68d223eebc"
      } ]
    }
  }, {
    "fullUrl": "https://madie.cms.gov/Organization/e5ce588d-1ff4-49bb-bf6e-3b68d223eebc",
    "resource": {
      "resourceType": "Organization",
      "id": "e5ce588d-1ff4-49bb-bf6e-3b68d223eebc",
      "meta": {
        "profile": [ "http://hl7.org/fhir/us/qicore/StructureDefinition/qicore-organization" ]
      },
      "identifier": [ {
        "use": "temp",
        "system": "urn:oid:2.16.840.1.113883.4.4",
        "value": "21-3259825"
      } ],
      "active": true,
      "type": [ {
        "coding": [ {
          "system": "http://terminology.hl7.org/CodeSystem/organization-type",
          "code": "pay",
          "display": "Payer"
        } ]
      } ],
      "name": "Blue Cross Blue Shield of Texas",
      "telecom": [ {
        "system": "phone",
        "value": "(+1) 972-766-6900"
      } ],
      "address": [ {
        "use": "billing",
        "type": "postal",
        "line": [ "P.O. Box 660044" ],
        "city": "Dallas",
        "state": "TX",
        "postalCode": "75266-0044",
        "country": "USA"
      } ]
    }
  }, {
    "fullUrl": "https://madie.cms.gov/MeasureReport/8ce2de6e-dc06-4ab0-ba8e-cac986607bc4",
    "resource": {
      "resourceType": "MeasureReport",
      "id": "8ce2de6e-dc06-4ab0-ba8e-cac986607bc4",
      "meta": {
        "profile": [ "http://hl7.org/fhir/us/cqfmeasures/StructureDefinition/test-case-cqfm" ]
      },
      "contained": [ {
        "resourceType": "Parameters",
        "id": "a1e46d43-83a3-436d-84b3-0797cd7158b9-parameters",
        "parameter": [ {
          "name": "subject",
          "valueString": "aabfb5d9-4d3d-4768-860d-160ee6e50045"
        } ]
      } ],
      "extension": [ {
        "url": "http://hl7.org/fhir/StructureDefinition/cqf-inputParameters",
        "valueReference": {
          "reference": "#a1e46d43-83a3-436d-84b3-0797cd7158b9-parameters"
        }
      }, {
        "url": "http://hl7.org/fhir/us/cqfmeasures/StructureDefinition/cqfm-testCaseDescription",
        "valueMarkdown": "Age 18 +, encounter 01/01 @0800 -0830 during MP, BP elevated, Elevated  BP 120/79 referred to other physician."
      } ],
      "modifierExtension": [ {
        "url": "http://hl7.org/fhir/us/cqfmeasures/StructureDefinition/cqfm-isTestCase",
        "valueBoolean": true
      } ],
      "status": "complete",
      "type": "individual",
      "measure": "https://madie.cms.gov/Measure/CMS22FHIRPCSBPScreeningFollowUp",
      "period": {
        "start": "2026-01-01",
        "end": "2026-12-31"
      },
      "group": [ {
        "id": "Group_1",
        "population": [ {
          "id": "InitialPopulation_1",
          "code": {
            "coding": [ {
              "system": "http://terminology.hl7.org/CodeSystem/measure-population",
              "code": "initial-population",
              "display": "Initial Population"
            } ]
          },
          "count": 1
        }, {
          "id": "Denominator_1",
          "code": {
            "coding": [ {
              "system": "http://terminology.hl7.org/CodeSystem/measure-population",
              "code": "denominator",
              "display": "Denominator"
            } ]
          },
          "count": 1
        }, {
          "id": "DenominatorExclusion_1",
          "code": {
            "coding": [ {
              "system": "http://terminology.hl7.org/CodeSystem/measure-population",
              "code": "denominator-exclusion",
              "display": "Denominator Exclusion"
            } ]
          },
          "count": 0
        }, {
          "id": "Numerator_1",
          "code": {
            "coding": [ {
              "system": "http://terminology.hl7.org/CodeSystem/measure-population",
              "code": "numerator",
              "display": "Numerator"
            } ]
          },
          "count": 1
        }, {
          "id": "DenominatorException_1",
          "code": {
            "coding": [ {
              "system": "http://terminology.hl7.org/CodeSystem/measure-population",
              "code": "denominator-exception",
              "display": "Denominator Exception"
            } ]
          },
          "count": 0
        } ],
        "measureScore": {
          "value": 0.0
        }
      } ],
      "evaluatedResource": [ {
        "reference": "Patient/aabfb5d9-4d3d-4768-860d-160ee6e50045"
      }, {
        "reference": "Encounter/f3cf108d-b778-4198-8b49-a87fd2993db9"
      }, {
        "reference": "Observation/cb60ed36-02b8-47b8-bcb7-2542b2aaa8d8"
      }, {
        "reference": "ServiceRequest/ce80ba45-a17b-4ade-b3f1-532e9092a4a0"
      }, {
        "reference": "Coverage/607d8b44-33ac-4960-bb37-952f067ee3d6"
      }, {
        "reference": "Organization/e5ce588d-1ff4-49bb-bf6e-3b68d223eebc"
      } ]
    }
  } ]
}