{
  "resourceType": "Bundle",
  "id": "tests-RiskVarPassFirstWhiteBloodCellCount-bundle",
  "type": "transaction",
  "entry": [ {
    "fullUrl": "https://madie.cms.gov/Encounter/533c0af2-4691-4e3a-820a-fcd007166142",
    "resource": {
      "resourceType": "Encounter",
      "id": "533c0af2-4691-4e3a-820a-fcd007166142",
      "meta": {
        "profile": [ "http://hl7.org/fhir/us/qicore/StructureDefinition/qicore-encounter" ]
      },
      "status": "finished",
      "class": {
        "system": "http://terminology.hl7.org/CodeSystem/v3-ActCode",
        "code": "IMP",
        "display": "inpatient encounter"
      },
      "type": [ {
        "coding": [ {
          "system": "http://snomed.info/sct",
          "code": "112689000",
          "display": "Hospital admission, elective, with complete pre-admission work-up"
        } ],
        "text": "Hospital admission, elective, with complete pre-admission work-up"
      } ],
      "priority": {
        "coding": [ {
          "system": "http://snomed.info/sct",
          "code": "103390000"
        } ]
      },
      "subject": {
        "reference": "Patient/c87a3d8c-6b6d-44d0-b701-27390c235991"
      },
      "period": {
        "start": "2026-04-10T08:00:00.000+00:00",
        "end": "2026-04-14T08:15:00.000+00:00"
      }
    },
    "request": {
      "method": "PUT",
      "url": "Encounter/533c0af2-4691-4e3a-820a-fcd007166142"
    }
  }, {
    "fullUrl": "https://madie.cms.gov/Patient/c87a3d8c-6b6d-44d0-b701-27390c235991",
    "resource": {
      "resourceType": "Patient",
      "id": "c87a3d8c-6b6d-44d0-b701-27390c235991",
      "meta": {
        "profile": [ "http://hl7.org/fhir/us/qicore/StructureDefinition/qicore-patient" ]
      },
      "extension": [ {
        "url": "http://hl7.org/fhir/us/core/StructureDefinition/us-core-race",
        "extension": [ {
          "url": "ombCategory",
          "valueCoding": {
            "system": "urn:oid:2.16.840.1.113883.6.238",
            "code": "2054-5",
            "display": "Black or African American",
            "userSelected": true
          }
        }, {
          "url": "text",
          "valueString": "Black or African American"
        } ]
      }, {
        "url": "http://hl7.org/fhir/us/core/StructureDefinition/us-core-ethnicity",
        "extension": [ {
          "url": "ombCategory",
          "valueCoding": {
            "system": "urn:oid:2.16.840.1.113883.6.238",
            "code": "2186-5",
            "display": "Not Hispanic or Latino",
            "userSelected": true
          }
        }, {
          "url": "text",
          "valueString": "Not Hispanic or Latino"
        } ]
      } ],
      "identifier": [ {
        "type": {
          "coding": [ {
            "system": "http://terminology.hl7.org/CodeSystem/v2-0203",
            "code": "MR"
          } ]
        },
        "system": "https://bonnie-fhir.healthit.gov/",
        "value": "61152a3b98086b7a79cbd7c1"
      } ],
      "active": true,
      "name": [ {
        "use": "usual",
        "family": "DENOMPass",
        "given": [ "RiskVariableASAClass" ]
      } ],
      "gender": "female",
      "birthDate": "1966-07-12"
    },
    "request": {
      "method": "PUT",
      "url": "Patient/c87a3d8c-6b6d-44d0-b701-27390c235991"
    }
  }, {
    "fullUrl": "https://madie.cms.gov/Observation/d7747e98-42cc-488a-a2dd-7460b665e366",
    "resource": {
      "resourceType": "Observation",
      "id": "d7747e98-42cc-488a-a2dd-7460b665e366",
      "meta": {
        "profile": [ "http://hl7.org/fhir/us/qicore/StructureDefinition/qicore-observation-lab" ]
      },
      "status": "final",
      "category": [ {
        "coding": [ {
          "system": "http://terminology.hl7.org/CodeSystem/observation-category",
          "code": "laboratory",
          "display": "Laboratory"
        } ],
        "text": "Laboratory"
      } ],
      "code": {
        "coding": [ {
          "system": "http://loinc.org",
          "code": "33256-9",
          "display": "Leukocytes [#/volume] corrected for nucleated erythrocytes in Blood by Automated count"
        } ],
        "text": "Leukocytes [#/volume] corrected for nucleated erythrocytes in Blood by Automated count"
      },
      "subject": {
        "reference": "Patient/c87a3d8c-6b6d-44d0-b701-27390c235991"
      },
      "encounter": {
        "reference": "Encounter/533c0af2-4691-4e3a-820a-fcd007166142"
      },
      "effectiveDateTime": "2026-04-11T09:00:00.000+00:00",
      "valueQuantity": {
        "value": 6,
        "unit": "K/ul",
        "system": "http://unitsofmeasure.org",
        "code": "K/ul"
      }
    },
    "request": {
      "method": "PUT",
      "url": "Observation/d7747e98-42cc-488a-a2dd-7460b665e366"
    }
  }, {
    "fullUrl": "https://madie.cms.gov/Observation/9c9eb9ee-b7cb-4050-8ee5-00abf1793c87",
    "resource": {
      "resourceType": "Observation",
      "id": "9c9eb9ee-b7cb-4050-8ee5-00abf1793c87",
      "meta": {
        "profile": [ "http://hl7.org/fhir/us/qicore/StructureDefinition/qicore-observation-lab" ]
      },
      "status": "final",
      "category": [ {
        "coding": [ {
          "system": "http://terminology.hl7.org/CodeSystem/observation-category",
          "code": "laboratory",
          "display": "Laboratory"
        } ],
        "text": "Laboratory"
      } ],
      "code": {
        "coding": [ {
          "system": "http://loinc.org",
          "code": "33256-9",
          "display": "Leukocytes [#/volume] corrected for nucleated erythrocytes in Blood by Automated count"
        } ],
        "text": "Leukocytes [#/volume] corrected for nucleated erythrocytes in Blood by Automated count"
      },
      "subject": {
        "reference": "Patient/c87a3d8c-6b6d-44d0-b701-27390c235991"
      },
      "encounter": {
        "reference": "Encounter/533c0af2-4691-4e3a-820a-fcd007166142"
      },
      "effectiveDateTime": "2026-04-11T08:00:00.000+00:00",
      "valueQuantity": {
        "value": 8.9,
        "unit": "K/ul",
        "system": "http://unitsofmeasure.org",
        "code": "K/ul"
      }
    },
    "request": {
      "method": "PUT",
      "url": "Observation/9c9eb9ee-b7cb-4050-8ee5-00abf1793c87"
    }
  }, {
    "fullUrl": "https://madie.cms.gov/Procedure/4349099d-bef2-4031-b2e3-ba95d1c824a6",
    "resource": {
      "resourceType": "Procedure",
      "id": "4349099d-bef2-4031-b2e3-ba95d1c824a6",
      "meta": {
        "profile": [ "http://hl7.org/fhir/us/qicore/StructureDefinition/qicore-procedure" ]
      },
      "extension": [ {
        "url": "http://hl7.org/fhir/us/qicore/StructureDefinition/qicore-recorded",
        "valueDateTime": "2026-04-11T10:30:00.000+00:00"
      } ],
      "status": "completed",
      "category": {
        "coding": [ {
          "system": "http://snomed.info/sct",
          "code": "18286008",
          "display": "General or neuraxial anesthesia"
        } ]
      },
      "code": {
        "coding": [ {
          "system": "http://snomed.info/sct",
          "code": "112943005",
          "display": "Epidural injection of anesthetic substance, diagnostic, caudal, continuous"
        } ]
      },
      "subject": {
        "reference": "Patient/c87a3d8c-6b6d-44d0-b701-27390c235991"
      },
      "performedPeriod": {
        "start": "2026-04-11T08:00:00.000+00:00",
        "end": "2026-04-11T10:15:00.000+00:00"
      }
    },
    "request": {
      "method": "PUT",
      "url": "Procedure/4349099d-bef2-4031-b2e3-ba95d1c824a6"
    }
  }, {
    "fullUrl": "https://madie.cms.gov/MeasureReport/822b4556-9ff6-44c2-a794-9713750666ba",
    "resource": {
      "resourceType": "MeasureReport",
      "id": "822b4556-9ff6-44c2-a794-9713750666ba",
      "meta": {
        "profile": [ "http://hl7.org/fhir/us/cqfmeasures/StructureDefinition/test-case-cqfm" ]
      },
      "contained": [ {
        "resourceType": "Parameters",
        "id": "c98c4ba9-9650-4355-983b-9142c06837bd-parameters",
        "parameter": [ {
          "name": "subject",
          "valueString": "c87a3d8c-6b6d-44d0-b701-27390c235991"
        } ]
      } ],
      "extension": [ {
        "url": "http://hl7.org/fhir/StructureDefinition/cqf-inputParameters",
        "valueReference": {
          "reference": "#c98c4ba9-9650-4355-983b-9142c06837bd-parameters"
        }
      }, {
        "url": "http://hl7.org/fhir/us/cqfmeasures/StructureDefinition/cqfm-testCaseDescription",
        "valueMarkdown": "DENOMPass satisfies First White Blood Cell Count risk variable"
      } ],
      "modifierExtension": [ {
        "url": "http://hl7.org/fhir/us/cqfmeasures/StructureDefinition/cqfm-isTestCase",
        "valueBoolean": true
      } ],
      "status": "complete",
      "type": "individual",
      "measure": "https://madie.cms.gov/Measure/CMS1218FHIRHHRF",
      "period": {
        "start": "2026-01-01",
        "end": "2026-12-31"
      },
      "group": [ {
        "id": "Group_1",
        "population": [ {
          "id": "InitialPopulation_1",
          "code": {
            "coding": [ {
              "system": "http://terminology.hl7.org/CodeSystem/measure-population",
              "code": "initial-population",
              "display": "Initial Population"
            } ]
          },
          "count": 1
        }, {
          "id": "Denominator_1",
          "code": {
            "coding": [ {
              "system": "http://terminology.hl7.org/CodeSystem/measure-population",
              "code": "denominator",
              "display": "Denominator"
            } ]
          },
          "count": 1
        }, {
          "id": "DenominatorExclusion_1",
          "code": {
            "coding": [ {
              "system": "http://terminology.hl7.org/CodeSystem/measure-population",
              "code": "denominator-exclusion",
              "display": "Denominator Exclusion"
            } ]
          },
          "count": 0
        }, {
          "id": "Numerator_1",
          "code": {
            "coding": [ {
              "system": "http://terminology.hl7.org/CodeSystem/measure-population",
              "code": "numerator",
              "display": "Numerator"
            } ]
          },
          "count": 0
        } ],
        "measureScore": {
          "value": 0.0
        }
      } ],
      "evaluatedResource": [ {
        "reference": "Encounter/533c0af2-4691-4e3a-820a-fcd007166142"
      }, {
        "reference": "Patient/c87a3d8c-6b6d-44d0-b701-27390c235991"
      }, {
        "reference": "Observation/d7747e98-42cc-488a-a2dd-7460b665e366"
      }, {
        "reference": "Observation/9c9eb9ee-b7cb-4050-8ee5-00abf1793c87"
      }, {
        "reference": "Procedure/4349099d-bef2-4031-b2e3-ba95d1c824a6"
      } ]
    },
    "request": {
      "method": "PUT",
      "url": "MeasureReport/822b4556-9ff6-44c2-a794-9713750666ba"
    }
  } ]
}