{
  "resourceType": "Bundle",
  "id": "4616513133030",
  "type": "collection",
  "entry": [ {
    "fullUrl": "https://madie.cms.gov/Patient/a918259c-530d-4645-9339-e71db94323a8",
    "resource": {
      "resourceType": "Patient",
      "id": "a918259c-530d-4645-9339-e71db94323a8",
      "meta": {
        "profile": [ "http://hl7.org/fhir/us/qicore/StructureDefinition/qicore-patient" ]
      },
      "extension": [ {
        "url": "http://hl7.org/fhir/us/core/StructureDefinition/us-core-race",
        "extension": [ {
          "url": "ombCategory",
          "valueCoding": {
            "system": "urn:oid:2.16.840.1.113883.6.238",
            "code": "2076-8",
            "display": "Native Hawaiian or Other Pacific Islander"
          }
        }, {
          "url": "text",
          "valueString": "Native Hawaiian or Other Pacific Islander"
        } ]
      }, {
        "url": "http://hl7.org/fhir/us/core/StructureDefinition/us-core-ethnicity",
        "extension": [ {
          "url": "ombCategory",
          "valueCoding": {
            "system": "urn:oid:2.16.840.1.113883.6.238",
            "code": "2186-5",
            "display": "Not Hispanic or Latino"
          }
        }, {
          "url": "text",
          "valueString": "Not Hispanic or Latino"
        } ]
      } ],
      "identifier": [ {
        "type": {
          "coding": [ {
            "system": "http://terminology.hl7.org/CodeSystem/v2-0203",
            "code": "MR"
          } ]
        },
        "system": "https://bonnie-fhir.healthit.gov/",
        "value": "60d4bda907206d58cd96b128"
      } ],
      "name": [ {
        "family": "NUMERFail",
        "given": [ "InitialDxStaging2023" ]
      } ],
      "gender": "female",
      "birthDate": "1951-12-25"
    }
  }, {
    "fullUrl": "https://madie.cms.gov/Encounter/2d1fc845-14df-44bb-bdba-44169277d3bb",
    "resource": {
      "resourceType": "Encounter",
      "id": "2d1fc845-14df-44bb-bdba-44169277d3bb",
      "meta": {
        "profile": [ "http://hl7.org/fhir/us/qicore/StructureDefinition/qicore-encounter" ]
      },
      "status": "finished",
      "class": {
        "system": "http://terminology.hl7.org/CodeSystem/v3-ActCode",
        "code": "AMB",
        "display": "ambulatory"
      },
      "type": [ {
        "coding": [ {
          "system": "http://snomed.info/sct",
          "version": "http://snomed.info/sct/731000124108/version/20240301",
          "code": "185463005",
          "display": "Visit out of hours (procedure)"
        } ]
      } ],
      "subject": {
        "reference": "Patient/a918259c-530d-4645-9339-e71db94323a8"
      },
      "period": {
        "start": "2026-04-12T08:00:00.000+00:00",
        "end": "2026-04-12T09:15:00.000+00:00"
      }
    }
  }, {
    "fullUrl": "https://madie.cms.gov/Condition/7e0221bb-836e-4618-b704-d39515751d1a",
    "resource": {
      "resourceType": "Condition",
      "id": "7e0221bb-836e-4618-b704-d39515751d1a",
      "meta": {
        "profile": [ "http://hl7.org/fhir/us/qicore/StructureDefinition/qicore-condition-problems-health-concerns" ]
      },
      "clinicalStatus": {
        "coding": [ {
          "system": "http://terminology.hl7.org/CodeSystem/condition-clinical",
          "code": "active",
          "display": "Active"
        } ]
      },
      "verificationStatus": {
        "coding": [ {
          "system": "http://terminology.hl7.org/CodeSystem/condition-ver-status",
          "code": "confirmed",
          "display": "Confirmed"
        } ]
      },
      "category": [ {
        "coding": [ {
          "system": "http://terminology.hl7.org/CodeSystem/condition-category",
          "code": "problem-list-item",
          "display": "Problem List Item"
        } ]
      } ],
      "code": {
        "coding": [ {
          "system": "http://hl7.org/fhir/sid/icd-10-cm",
          "version": "2024",
          "code": "C67.1",
          "display": "Malignant neoplasm of dome of bladder"
        } ]
      },
      "subject": {
        "reference": "Patient/a918259c-530d-4645-9339-e71db94323a8"
      },
      "onsetPeriod": {
        "start": "2026-04-12T08:00:00.000+00:00"
      }
    }
  }, {
    "fullUrl": "https://madie.cms.gov/Condition/143e52ba-62e8-4161-93e7-2517b8fed776",
    "resource": {
      "resourceType": "Condition",
      "id": "143e52ba-62e8-4161-93e7-2517b8fed776",
      "meta": {
        "profile": [ "http://hl7.org/fhir/us/qicore/StructureDefinition/qicore-condition-encounter-diagnosis" ]
      },
      "clinicalStatus": {
        "coding": [ {
          "system": "http://terminology.hl7.org/CodeSystem/condition-clinical",
          "code": "active",
          "display": "Active"
        } ]
      },
      "verificationStatus": {
        "coding": [ {
          "system": "http://terminology.hl7.org/CodeSystem/condition-ver-status",
          "code": "confirmed",
          "display": "Confirmed"
        } ]
      },
      "category": [ {
        "coding": [ {
          "system": "http://terminology.hl7.org/CodeSystem/condition-category",
          "code": "encounter-diagnosis",
          "display": "Encounter Diagnosis"
        } ]
      } ],
      "code": {
        "coding": [ {
          "system": "http://hl7.org/fhir/sid/icd-10-cm",
          "version": "2024",
          "code": "C67.1",
          "display": "Malignant neoplasm of dome of bladder"
        } ]
      },
      "subject": {
        "reference": "Patient/a918259c-530d-4645-9339-e71db94323a8"
      },
      "onsetPeriod": {
        "start": "2026-04-12T08:00:00.000+00:00"
      }
    }
  }, {
    "fullUrl": "https://madie.cms.gov/Procedure/ddf3c35d-7acc-4efb-b014-b920aa745d85",
    "resource": {
      "resourceType": "Procedure",
      "id": "ddf3c35d-7acc-4efb-b014-b920aa745d85",
      "meta": {
        "profile": [ "http://hl7.org/fhir/us/qicore/StructureDefinition/qicore-procedure" ]
      },
      "extension": [ {
        "url": "http://hl7.org/fhir/us/qicore/StructureDefinition/qicore-recorded",
        "valueDateTime": "2026-04-12T08:00:00.000+00:00"
      } ],
      "status": "completed",
      "code": {
        "coding": [ {
          "system": "http://snomed.info/sct",
          "version": "http://snomed.info/sct/731000124108/version/20250301",
          "code": "254292007",
          "display": "Tumor staging"
        } ]
      },
      "subject": {
        "reference": "Patient/a918259c-530d-4645-9339-e71db94323a8"
      },
      "performedPeriod": {
        "start": "2026-04-12T08:00:00.000+00:00",
        "end": "2026-04-12T08:15:00.000+00:00"
      }
    }
  }, {
    "fullUrl": "https://madie.cms.gov/Observation/5b3317ce-e05b-4101-82dc-c85ff27fd79d",
    "resource": {
      "resourceType": "Observation",
      "id": "5b3317ce-e05b-4101-82dc-c85ff27fd79d",
      "meta": {
        "profile": [ "http://hl7.org/fhir/us/qicore/StructureDefinition/qicore-observation-lab" ]
      },
      "partOf": [ {
        "reference": "Procedure/ddf3c35d-7acc-4efb-b014-b920aa745d85"
      } ],
      "status": "final",
      "category": [ {
        "coding": [ {
          "system": "http://terminology.hl7.org/CodeSystem/observation-category",
          "code": "procedure",
          "display": "Procedure"
        } ]
      }, {
        "coding": [ {
          "system": "http://terminology.hl7.org/CodeSystem/observation-category",
          "code": "laboratory",
          "display": "Laboratory"
        } ]
      } ],
      "code": {
        "coding": [ {
          "system": "http://loinc.org",
          "version": "2.76",
          "code": "21902-2",
          "display": "Stage group.pathology Cancer"
        } ]
      },
      "subject": {
        "reference": "Patient/a918259c-530d-4645-9339-e71db94323a8"
      },
      "effectivePeriod": {
        "start": "2025-06-01T08:00:00.000+00:00",
        "end": "2026-06-02T08:15:00.000+00:00"
      },
      "issued": "2026-06-02T08:15:00.000+00:00",
      "valueCodeableConcept": {
        "coding": [ {
          "system": "http://snomed.info/sct",
          "version": "http://snomed.info/sct/731000124108/version/20240301",
          "code": "1228883000",
          "display": "American Joint Committee on Cancer cTa (qualifier value)"
        } ]
      }
    }
  }, {
    "fullUrl": "https://madie.cms.gov/Observation/3368619d-d7dd-4139-8663-e4a6607da196",
    "resource": {
      "resourceType": "Observation",
      "id": "3368619d-d7dd-4139-8663-e4a6607da196",
      "meta": {
        "profile": [ "http://hl7.org/fhir/us/qicore/StructureDefinition/qicore-observation-lab" ]
      },
      "partOf": [ {
        "reference": "Procedure/64646103516435"
      } ],
      "status": "final",
      "category": [ {
        "coding": [ {
          "system": "http://terminology.hl7.org/CodeSystem/observation-category",
          "code": "procedure",
          "display": "Procedure"
        } ]
      }, {
        "coding": [ {
          "system": "http://terminology.hl7.org/CodeSystem/observation-category",
          "code": "laboratory",
          "display": "Laboratory"
        } ]
      } ],
      "code": {
        "coding": [ {
          "system": "http://loinc.org",
          "version": "2.76",
          "code": "21902-2",
          "display": "Stage group.pathology Cancer"
        } ]
      },
      "subject": {
        "reference": "Patient/a918259c-530d-4645-9339-e71db94323a8"
      },
      "effectivePeriod": {
        "start": "2025-12-01T08:00:00.000+00:00",
        "end": "2025-12-02T08:15:00.000+00:00"
      },
      "issued": "2025-12-02T08:15:00.000+00:00",
      "valueCodeableConcept": {
        "coding": [ {
          "system": "http://snomed.info/sct",
          "version": "http://snomed.info/sct/731000124108/version/20240301",
          "code": "369949005",
          "display": "Ta: Noninvasive papillary carcinoma (urinary tract) (finding)"
        } ]
      }
    }
  }, {
    "fullUrl": "https://madie.cms.gov/MedicationAdministration/63dad6cc-93e2-4f5a-8b0d-2c5f938e0608",
    "resource": {
      "resourceType": "MedicationAdministration",
      "id": "63dad6cc-93e2-4f5a-8b0d-2c5f938e0608",
      "meta": {
        "profile": [ "http://hl7.org/fhir/us/qicore/StructureDefinition/qicore-medicationadministration" ]
      },
      "status": "completed",
      "medicationCodeableConcept": {
        "coding": [ {
          "system": "http://www.nlm.nih.gov/research/umls/rxnorm",
          "version": "06052023",
          "code": "1653484",
          "display": "BCG, live, Tice strain 50 MG/ML Topical Suspension"
        } ]
      },
      "subject": {
        "reference": "Patient/a918259c-530d-4645-9339-e71db94323a8"
      },
      "effectivePeriod": {
        "start": "2026-04-02T08:00:00.000+00:00",
        "end": "2026-04-02T08:15:00.000+00:00"
      }
    }
  }, {
    "fullUrl": "https://madie.cms.gov/MeasureReport/5ab1a701-840f-44fe-9712-a1ef1bc843de",
    "resource": {
      "resourceType": "MeasureReport",
      "id": "5ab1a701-840f-44fe-9712-a1ef1bc843de",
      "meta": {
        "profile": [ "http://hl7.org/fhir/us/cqfmeasures/StructureDefinition/test-case-cqfm" ]
      },
      "contained": [ {
        "resourceType": "Parameters",
        "id": "a5032d6d-e314-4162-b938-a13810a770ac-parameters",
        "parameter": [ {
          "name": "subject",
          "valueString": "a918259c-530d-4645-9339-e71db94323a8"
        } ]
      } ],
      "extension": [ {
        "url": "http://hl7.org/fhir/StructureDefinition/cqf-inputParameters",
        "valueReference": {
          "reference": "#a5032d6d-e314-4162-b938-a13810a770ac-parameters"
        }
      }, {
        "url": "http://hl7.org/fhir/us/cqfmeasures/StructureDefinition/cqfm-testCaseDescription",
        "valueMarkdown": "Has Bladder Cancer and Cancer staging in June 2023; waited  6 months to return, staging procedure 12/05/2023;  active dx 4/10/2024; first BCG within 6 months and in the MP but not within 6 months of initial qualifying stagiing -  LCG question. Fails "
      } ],
      "modifierExtension": [ {
        "url": "http://hl7.org/fhir/us/cqfmeasures/StructureDefinition/cqfm-isTestCase",
        "valueBoolean": true
      } ],
      "status": "complete",
      "type": "individual",
      "measure": "https://madie.cms.gov/Measure/CMS646FHIRIntravesicalBCGTherapy",
      "period": {
        "start": "2026-01-01",
        "end": "2026-12-31"
      },
      "group": [ {
        "id": "Group_1",
        "population": [ {
          "id": "InitialPopulation_1",
          "code": {
            "coding": [ {
              "system": "http://terminology.hl7.org/CodeSystem/measure-population",
              "code": "initial-population",
              "display": "Initial Population"
            } ]
          },
          "count": 1
        }, {
          "id": "Denominator_1",
          "code": {
            "coding": [ {
              "system": "http://terminology.hl7.org/CodeSystem/measure-population",
              "code": "denominator",
              "display": "Denominator"
            } ]
          },
          "count": 1
        }, {
          "id": "DenominatorExclusion_1",
          "code": {
            "coding": [ {
              "system": "http://terminology.hl7.org/CodeSystem/measure-population",
              "code": "denominator-exclusion",
              "display": "Denominator Exclusion"
            } ]
          },
          "count": 0
        }, {
          "id": "Numerator_1",
          "code": {
            "coding": [ {
              "system": "http://terminology.hl7.org/CodeSystem/measure-population",
              "code": "numerator",
              "display": "Numerator"
            } ]
          },
          "count": 0
        }, {
          "id": "DenominatorException_1",
          "code": {
            "coding": [ {
              "system": "http://terminology.hl7.org/CodeSystem/measure-population",
              "code": "denominator-exception",
              "display": "Denominator Exception"
            } ]
          },
          "count": 0
        } ],
        "measureScore": {
          "value": 1.0
        }
      } ],
      "evaluatedResource": [ {
        "reference": "Patient/a918259c-530d-4645-9339-e71db94323a8"
      }, {
        "reference": "Encounter/2d1fc845-14df-44bb-bdba-44169277d3bb"
      }, {
        "reference": "Condition/7e0221bb-836e-4618-b704-d39515751d1a"
      }, {
        "reference": "Condition/143e52ba-62e8-4161-93e7-2517b8fed776"
      }, {
        "reference": "Procedure/ddf3c35d-7acc-4efb-b014-b920aa745d85"
      }, {
        "reference": "Observation/5b3317ce-e05b-4101-82dc-c85ff27fd79d"
      }, {
        "reference": "Observation/3368619d-d7dd-4139-8663-e4a6607da196"
      }, {
        "reference": "MedicationAdministration/63dad6cc-93e2-4f5a-8b0d-2c5f938e0608"
      } ]
    }
  } ]
}