{
  "resourceType": "Bundle",
  "id": "612e6ae102c62a011f2eb904",
  "type": "transaction",
  "entry": [ {
    "fullUrl": "https://madie.cms.gov/Patient/5c5e2a11-a194-40b0-bc16-8e7302dafd24",
    "resource": {
      "resourceType": "Patient",
      "id": "5c5e2a11-a194-40b0-bc16-8e7302dafd24",
      "meta": {
        "profile": [ "http://hl7.org/fhir/us/qicore/StructureDefinition/qicore-patient" ]
      },
      "text": {
        "status": "generated",
        "div": "<div xmlns=\"http://www.w3.org/1999/xhtml\"><div class=\"hapiHeaderText\">CMODuringED_ED2HrsBFAdm_1dayBFAdm <b>DENEXFAIL </b></div><table class=\"hapiPropertyTable\"><tbody><tr><td>Identifier</td><td>ead0ddb93e3aec5cd1a2e4f9ca117f88390f7b5b27357b3f94949816bb9c030c</td></tr><tr><td>Date of birth</td><td><span>02 January 1974</span></td></tr></tbody></table></div>"
      },
      "extension": [ {
        "url": "http://hl7.org/fhir/us/core/StructureDefinition/us-core-race",
        "extension": [ {
          "url": "ombCategory",
          "valueCoding": {
            "system": "urn:oid:2.16.840.1.113883.6.238",
            "code": "1002-5",
            "display": "American Indian or Alaska Native",
            "userSelected": true
          }
        }, {
          "url": "text",
          "valueString": "American Indian or Alaska Native"
        } ]
      }, {
        "url": "http://hl7.org/fhir/us/core/StructureDefinition/us-core-ethnicity",
        "extension": [ {
          "url": "ombCategory",
          "valueCoding": {
            "system": "urn:oid:2.16.840.1.113883.6.238",
            "code": "2135-2",
            "display": "Hispanic or Latino",
            "userSelected": true
          }
        }, {
          "url": "text",
          "valueString": "Hispanic or Latino"
        } ]
      } ],
      "identifier": [ {
        "type": {
          "coding": [ {
            "system": "http://terminology.hl7.org/CodeSystem/v2-0203",
            "code": "MR"
          } ]
        },
        "system": "https://bonnie-fhir.healthit.gov/",
        "value": "612e6ae102c62a011f2eb904"
      } ],
      "active": true,
      "name": [ {
        "use": "usual",
        "family": "DENEXFail",
        "given": [ "CMODuringEDED2HrsBFAdm1dayBFAdm" ]
      } ],
      "gender": "male",
      "birthDate": "1975-01-02"
    },
    "request": {
      "method": "PUT",
      "url": "Patient/5c5e2a11-a194-40b0-bc16-8e7302dafd24"
    }
  }, {
    "fullUrl": "https://madie.cms.gov/Encounter/426b238b-5b03-47f7-aef6-06717eaa9222",
    "resource": {
      "resourceType": "Encounter",
      "id": "426b238b-5b03-47f7-aef6-06717eaa9222",
      "meta": {
        "profile": [ "http://hl7.org/fhir/us/qicore/StructureDefinition/qicore-encounter" ]
      },
      "status": "finished",
      "class": {
        "system": "http://terminology.hl7.org/CodeSystem/v3-ActCode",
        "code": "EMER",
        "display": "emergency"
      },
      "type": [ {
        "coding": [ {
          "system": "http://snomed.info/sct",
          "code": "4525004"
        } ]
      } ],
      "subject": {
        "reference": "Patient/5c5e2a11-a194-40b0-bc16-8e7302dafd24"
      },
      "period": {
        "start": "2026-10-30T08:00:00.000+00:00",
        "end": "2026-11-01T07:15:00.000+00:00"
      },
      "length": {
        "value": 2,
        "unit": "days"
      }
    },
    "request": {
      "method": "PUT",
      "url": "Encounter/426b238b-5b03-47f7-aef6-06717eaa9222"
    }
  }, {
    "fullUrl": "https://madie.cms.gov/Encounter/fe8e73a2-1fe9-40c8-9ef9-686b1a17493b",
    "resource": {
      "resourceType": "Encounter",
      "id": "fe8e73a2-1fe9-40c8-9ef9-686b1a17493b",
      "meta": {
        "profile": [ "http://hl7.org/fhir/us/qicore/StructureDefinition/qicore-encounter" ]
      },
      "status": "finished",
      "class": {
        "system": "http://terminology.hl7.org/CodeSystem/v3-ActCode",
        "code": "IMP",
        "display": "inpatient encounter"
      },
      "type": [ {
        "coding": [ {
          "system": "http://snomed.info/sct",
          "code": "8715000"
        } ]
      } ],
      "subject": {
        "reference": "Patient/5c5e2a11-a194-40b0-bc16-8e7302dafd24"
      },
      "period": {
        "start": "2026-11-01T10:00:00.000+00:00",
        "end": "2026-11-26T08:15:00.000+00:00"
      },
      "length": {
        "value": 25,
        "unit": "days"
      }
    },
    "request": {
      "method": "PUT",
      "url": "Encounter/fe8e73a2-1fe9-40c8-9ef9-686b1a17493b"
    }
  }, {
    "fullUrl": "https://madie.cms.gov/ServiceRequest/8b31181f-8b38-4120-b05b-72c1438dc0a2",
    "resource": {
      "resourceType": "ServiceRequest",
      "id": "8b31181f-8b38-4120-b05b-72c1438dc0a2",
      "meta": {
        "profile": [ "http://hl7.org/fhir/us/qicore/StructureDefinition/qicore-servicerequest" ]
      },
      "status": "completed",
      "intent": "order",
      "code": {
        "coding": [ {
          "system": "http://snomed.info/sct",
          "code": "133918004"
        } ]
      },
      "subject": {
        "reference": "Patient/5c5e2a11-a194-40b0-bc16-8e7302dafd24"
      },
      "authoredOn": "2026-10-31T07:00:00.000+00:00"
    },
    "request": {
      "method": "PUT",
      "url": "ServiceRequest/8b31181f-8b38-4120-b05b-72c1438dc0a2"
    }
  }, {
    "fullUrl": "https://madie.cms.gov/Coverage/448ca97b-55d2-4cc3-89f4-b80f814f34dd",
    "resource": {
      "resourceType": "Coverage",
      "id": "448ca97b-55d2-4cc3-89f4-b80f814f34dd",
      "status": "active",
      "beneficiary": {
        "reference": "Patient/5c5e2a11-a194-40b0-bc16-8e7302dafd24"
      },
      "period": {
        "start": "1975-01-02T08:00:00.000+00:00"
      },
      "payor": [ {
        "reference": "Organization/d3176fce-4475-4022-8f89-b3bc8c9b388c"
      } ]
    },
    "request": {
      "method": "PUT",
      "url": "Coverage/448ca97b-55d2-4cc3-89f4-b80f814f34dd"
    }
  }, {
    "fullUrl": "https://madie.cms.gov/Organization/d3176fce-4475-4022-8f89-b3bc8c9b388c",
    "resource": {
      "resourceType": "Organization",
      "id": "d3176fce-4475-4022-8f89-b3bc8c9b388c",
      "meta": {
        "profile": [ "http://hl7.org/fhir/us/qicore/StructureDefinition/qicore-organization" ]
      },
      "identifier": [ {
        "use": "temp",
        "system": "urn:oid:2.16.840.1.113883.4.4",
        "value": "21-3259825"
      } ],
      "active": true,
      "type": [ {
        "coding": [ {
          "system": "http://terminology.hl7.org/CodeSystem/organization-type",
          "code": "pay",
          "display": "Payer"
        } ]
      } ],
      "name": "Blue Cross Blue Shield of Texas",
      "telecom": [ {
        "system": "phone",
        "value": "(+1) 972-766-6900"
      } ],
      "address": [ {
        "use": "billing",
        "type": "postal",
        "line": [ "P.O. Box 660044" ],
        "city": "Dallas",
        "state": "TX",
        "postalCode": "75266-0044",
        "country": "USA"
      } ]
    },
    "request": {
      "method": "PUT",
      "url": "Organization/d3176fce-4475-4022-8f89-b3bc8c9b388c"
    }
  }, {
    "fullUrl": "https://madie.cms.gov/Practitioner/2f3b78a3-9b19-4c89-b394-a6438f0d3759",
    "resource": {
      "resourceType": "Practitioner",
      "id": "2f3b78a3-9b19-4c89-b394-a6438f0d3759",
      "identifier": [ {
        "system": "http://hl7.org/fhir/sid/us-npi",
        "value": "123456"
      } ],
      "name": [ {
        "family": "Evil",
        "prefix": [ "Dr" ]
      } ]
    },
    "request": {
      "method": "PUT",
      "url": "Practitioner/2f3b78a3-9b19-4c89-b394-a6438f0d3759"
    }
  }, {
    "fullUrl": "https://madie.cms.gov/MeasureReport/60cec115-428c-441b-9e4d-0291d11df2a1",
    "resource": {
      "resourceType": "MeasureReport",
      "id": "60cec115-428c-441b-9e4d-0291d11df2a1",
      "meta": {
        "profile": [ "http://hl7.org/fhir/us/cqfmeasures/StructureDefinition/test-case-cqfm" ]
      },
      "contained": [ {
        "resourceType": "Parameters",
        "id": "b3e43fef-0258-49ff-a954-9bff8a78fba8-parameters",
        "parameter": [ {
          "name": "subject",
          "valueString": "5c5e2a11-a194-40b0-bc16-8e7302dafd24"
        } ]
      } ],
      "extension": [ {
        "url": "http://hl7.org/fhir/StructureDefinition/cqf-inputParameters",
        "valueReference": {
          "reference": "#b3e43fef-0258-49ff-a954-9bff8a78fba8-parameters"
        }
      }, {
        "url": "http://hl7.org/fhir/us/cqfmeasures/StructureDefinition/cqfm-testCaseDescription",
        "valueMarkdown": "CMO occurs in ED that ED ends > 1 hour before Adm. this case fail because CMO was 1 day before adm date\n"
      } ],
      "modifierExtension": [ {
        "url": "http://hl7.org/fhir/us/cqfmeasures/StructureDefinition/cqfm-isTestCase",
        "valueBoolean": true
      } ],
      "status": "complete",
      "type": "individual",
      "measure": "https://madie.cms.gov/Measure/CMS108FHIRVTEProphylaxis",
      "period": {
        "start": "2026-01-01",
        "end": "2026-12-31"
      },
      "group": [ {
        "id": "Group_1",
        "population": [ {
          "id": "InitialPopulation_1",
          "code": {
            "coding": [ {
              "system": "http://terminology.hl7.org/CodeSystem/measure-population",
              "code": "initial-population",
              "display": "Initial Population"
            } ]
          },
          "count": 1
        }, {
          "id": "Denominator_1",
          "code": {
            "coding": [ {
              "system": "http://terminology.hl7.org/CodeSystem/measure-population",
              "code": "denominator",
              "display": "Denominator"
            } ]
          },
          "count": 1
        }, {
          "id": "DenominatorExclusion_1",
          "code": {
            "coding": [ {
              "system": "http://terminology.hl7.org/CodeSystem/measure-population",
              "code": "denominator-exclusion",
              "display": "Denominator Exclusion"
            } ]
          },
          "count": 0
        }, {
          "id": "Numerator_1",
          "code": {
            "coding": [ {
              "system": "http://terminology.hl7.org/CodeSystem/measure-population",
              "code": "numerator",
              "display": "Numerator"
            } ]
          },
          "count": 0
        } ],
        "measureScore": {
          "value": 0.0
        }
      } ],
      "evaluatedResource": [ {
        "reference": "Patient/5c5e2a11-a194-40b0-bc16-8e7302dafd24"
      }, {
        "reference": "Encounter/426b238b-5b03-47f7-aef6-06717eaa9222"
      }, {
        "reference": "Encounter/fe8e73a2-1fe9-40c8-9ef9-686b1a17493b"
      }, {
        "reference": "ServiceRequest/8b31181f-8b38-4120-b05b-72c1438dc0a2"
      }, {
        "reference": "Coverage/448ca97b-55d2-4cc3-89f4-b80f814f34dd"
      }, {
        "reference": "Organization/d3176fce-4475-4022-8f89-b3bc8c9b388c"
      }, {
        "reference": "Practitioner/2f3b78a3-9b19-4c89-b394-a6438f0d3759"
      } ]
    },
    "request": {
      "method": "PUT",
      "url": "MeasureReport/60cec115-428c-441b-9e4d-0291d11df2a1"
    }
  } ]
}