{
  "resourceType": "Bundle",
  "id": "64d118051252352a0771c3b5",
  "type": "transaction",
  "entry": [ {
    "fullUrl": "https://madie.cms.gov/Patient/687a47c1-978c-4774-ba5d-2a585d1e78be",
    "resource": {
      "resourceType": "Patient",
      "id": "687a47c1-978c-4774-ba5d-2a585d1e78be",
      "meta": {
        "profile": [ "http://hl7.org/fhir/us/qicore/StructureDefinition/qicore-patient" ]
      },
      "extension": [ {
        "url": "http://hl7.org/fhir/us/core/StructureDefinition/us-core-race",
        "extension": [ {
          "url": "ombCategory",
          "valueCoding": {
            "system": "urn:oid:2.16.840.1.113883.6.238",
            "code": "1002-5",
            "display": "American Indian or Alaska Native",
            "userSelected": true
          }
        }, {
          "url": "text",
          "valueString": "American Indian or Alaska Native"
        } ]
      }, {
        "url": "http://hl7.org/fhir/us/core/StructureDefinition/us-core-ethnicity",
        "extension": [ {
          "url": "ombCategory",
          "valueCoding": {
            "system": "urn:oid:2.16.840.1.113883.6.238",
            "code": "2186-5",
            "display": "Not Hispanic or Latino",
            "userSelected": true
          }
        }, {
          "url": "text",
          "valueString": "Not Hispanic or Latino"
        } ]
      } ],
      "identifier": [ {
        "type": {
          "coding": [ {
            "system": "http://terminology.hl7.org/CodeSystem/v2-0203",
            "code": "MR"
          } ]
        },
        "system": "https://bonnie-fhir.healthit.gov/",
        "value": "64d118051252352a0771c3b5"
      } ],
      "name": [ {
        "family": "DENOMPass",
        "given": [ "ConditionProblemsHealthConcernsDuringEnc" ]
      } ],
      "gender": "female",
      "birthDate": "2018-01-02"
    },
    "request": {
      "method": "PUT",
      "url": "Patient/687a47c1-978c-4774-ba5d-2a585d1e78be"
    }
  }, {
    "fullUrl": "https://madie.cms.gov/Encounter/a59a118f-bc43-41ab-80a0-268db7a9b552",
    "resource": {
      "resourceType": "Encounter",
      "id": "a59a118f-bc43-41ab-80a0-268db7a9b552",
      "meta": {
        "profile": [ "http://hl7.org/fhir/us/qicore/StructureDefinition/qicore-encounter" ]
      },
      "status": "finished",
      "class": {
        "system": "http://terminology.hl7.org/CodeSystem/v3-ActCode",
        "code": "AMB",
        "display": "ambulatory",
        "userSelected": true
      },
      "type": [ {
        "coding": [ {
          "system": "http://snomed.info/sct",
          "version": "2023-09",
          "code": "185463005",
          "display": "Visit out of hours (procedure)",
          "userSelected": true
        } ]
      } ],
      "subject": {
        "reference": "Patient/687a47c1-978c-4774-ba5d-2a585d1e78be"
      },
      "period": {
        "start": "2026-02-11T08:00:00.000+00:00",
        "end": "2026-02-11T08:15:00.000+00:00"
      },
      "length": {
        "value": 1,
        "unit": "days"
      },
      "reasonCode": [ {
        "coding": [ {
          "system": "http://snomed.info/sct",
          "version": "2023-09",
          "code": "111482003",
          "display": "Subchronic schizophrenia with acute exacerbations (disorder)",
          "userSelected": true
        } ]
      } ],
      "reasonReference": [ {
        "reference": "Condition/f9535636-8b7b-4a4d-93ff-065cdfaa1ee6"
      } ],
      "diagnosis": [ {
        "condition": {
          "reference": "Condition/f9535636-8b7b-4a4d-93ff-065cdfaa1ee6"
        },
        "use": {
          "coding": [ {
            "system": "http://snomed.info/sct",
            "version": "2023-09",
            "code": "2618002",
            "display": "Chronic recurrent major depressive disorder (disorder)",
            "userSelected": true
          } ]
        }
      } ]
    },
    "request": {
      "method": "PUT",
      "url": "Encounter/a59a118f-bc43-41ab-80a0-268db7a9b552"
    }
  }, {
    "fullUrl": "https://madie.cms.gov/Condition/f9535636-8b7b-4a4d-93ff-065cdfaa1ee6",
    "resource": {
      "resourceType": "Condition",
      "id": "f9535636-8b7b-4a4d-93ff-065cdfaa1ee6",
      "meta": {
        "profile": [ "http://hl7.org/fhir/us/qicore/StructureDefinition/qicore-condition-problems-health-concerns" ]
      },
      "clinicalStatus": {
        "coding": [ {
          "system": "http://terminology.hl7.org/CodeSystem/condition-clinical",
          "code": "active"
        } ]
      },
      "verificationStatus": {
        "coding": [ {
          "system": "http://terminology.hl7.org/CodeSystem/condition-ver-status",
          "code": "confirmed"
        } ]
      },
      "category": [ {
        "coding": [ {
          "system": "http://terminology.hl7.org/CodeSystem/condition-category",
          "code": "encounter-diagnosis",
          "display": "Encounter Diagnosis"
        } ]
      } ],
      "code": {
        "coding": [ {
          "system": "http://hl7.org/fhir/sid/icd-10-cm",
          "code": "F32.3",
          "display": "Major depressive disorder, single episode, severe with psychotic features"
        } ]
      },
      "subject": {
        "reference": "Patient/687a47c1-978c-4774-ba5d-2a585d1e78be"
      },
      "encounter": {
        "reference": "Encounter/a59a118f-bc43-41ab-80a0-268db7a9b552"
      },
      "onsetDateTime": "2026-01-11T08:00:00.000+00:00"
    },
    "request": {
      "method": "PUT",
      "url": "Condition/f9535636-8b7b-4a4d-93ff-065cdfaa1ee6"
    }
  }, {
    "fullUrl": "https://madie.cms.gov/Coverage/fbe621aa-8699-4e8c-8789-092d92b5b061",
    "resource": {
      "resourceType": "Coverage",
      "id": "fbe621aa-8699-4e8c-8789-092d92b5b061",
      "meta": {
        "profile": [ "http://hl7.org/fhir/us/qicore/StructureDefinition/qicore-coverage" ]
      },
      "identifier": [ {
        "type": {
          "coding": [ {
            "system": "http://terminology.hl7.org/CodeSystem/v2-0203",
            "code": "MB"
          } ]
        }
      } ],
      "status": "active",
      "type": {
        "coding": [ {
          "system": "https://nahdo.org/sopt",
          "version": "9.2",
          "code": "1",
          "display": "MEDICARE",
          "userSelected": true
        } ]
      },
      "beneficiary": {
        "reference": "Patient/687a47c1-978c-4774-ba5d-2a585d1e78be"
      },
      "dependent": "0",
      "relationship": {
        "coding": [ {
          "system": "http://terminology.hl7.org/CodeSystem/subscriber-relationship",
          "code": "self"
        } ]
      },
      "period": {
        "start": "2026-01-29T08:00:00.000+00:00",
        "end": "2026-05-29T08:15:00.000+00:00"
      },
      "payor": [ {
        "reference": "Organization/6633698d-f457-411c-b1ea-d512154130b5"
      } ]
    },
    "request": {
      "method": "PUT",
      "url": "Coverage/fbe621aa-8699-4e8c-8789-092d92b5b061"
    }
  }, {
    "fullUrl": "https://madie.cms.gov/Organization/6633698d-f457-411c-b1ea-d512154130b5",
    "resource": {
      "resourceType": "Organization",
      "id": "6633698d-f457-411c-b1ea-d512154130b5",
      "meta": {
        "profile": [ "http://hl7.org/fhir/us/qicore/StructureDefinition/qicore-organization" ]
      },
      "identifier": [ {
        "use": "temp",
        "system": "urn:oid:2.16.840.1.113883.4.4",
        "value": "21-3259825"
      } ],
      "active": true,
      "type": [ {
        "coding": [ {
          "system": "http://terminology.hl7.org/CodeSystem/organization-type",
          "code": "pay",
          "display": "Payer"
        } ]
      } ],
      "name": "Blue Cross Blue Shield of Texas",
      "telecom": [ {
        "system": "phone",
        "value": "(+1) 972-766-6900"
      } ],
      "address": [ {
        "use": "billing",
        "type": "postal",
        "line": [ "P.O. Box 660044" ],
        "city": "Dallas",
        "state": "TX",
        "postalCode": "75266-0044",
        "country": "USA"
      } ]
    },
    "request": {
      "method": "PUT",
      "url": "Organization/6633698d-f457-411c-b1ea-d512154130b5"
    }
  }, {
    "fullUrl": "https://madie.cms.gov/Practitioner/e06ba931-7808-4d55-9199-d392e52d3658",
    "resource": {
      "resourceType": "Practitioner",
      "id": "e06ba931-7808-4d55-9199-d392e52d3658",
      "meta": {
        "profile": [ "http://hl7.org/fhir/us/qicore/StructureDefinition/qicore-practitioner" ]
      },
      "identifier": [ {
        "system": "http://hl7.org/fhir/sid/us-npi",
        "value": "1639101579"
      } ],
      "name": [ {
        "family": "Evil",
        "prefix": [ "Dr" ]
      } ]
    },
    "request": {
      "method": "PUT",
      "url": "Practitioner/e06ba931-7808-4d55-9199-d392e52d3658"
    }
  }, {
    "fullUrl": "https://madie.cms.gov/MeasureReport/15184f14-167f-4020-9502-7a6683fd5d95",
    "resource": {
      "resourceType": "MeasureReport",
      "id": "15184f14-167f-4020-9502-7a6683fd5d95",
      "meta": {
        "profile": [ "http://hl7.org/fhir/us/cqfmeasures/StructureDefinition/test-case-cqfm" ]
      },
      "contained": [ {
        "resourceType": "Parameters",
        "id": "0c674f27-861d-46a7-b8f1-84947703b7b4-parameters",
        "parameter": [ {
          "name": "subject",
          "valueString": "687a47c1-978c-4774-ba5d-2a585d1e78be"
        } ]
      } ],
      "extension": [ {
        "url": "http://hl7.org/fhir/StructureDefinition/cqf-inputParameters",
        "valueReference": {
          "reference": "#0c674f27-861d-46a7-b8f1-84947703b7b4-parameters"
        }
      }, {
        "url": "http://hl7.org/fhir/us/cqfmeasures/StructureDefinition/cqfm-testCaseDescription",
        "valueMarkdown": "Patient is over 6 years with Depression diagnosis during Office Visit encounter using resource \"ConditionEncounterDiagnosis\""
      } ],
      "modifierExtension": [ {
        "url": "http://hl7.org/fhir/us/cqfmeasures/StructureDefinition/cqfm-isTestCase",
        "valueBoolean": true
      } ],
      "status": "complete",
      "type": "individual",
      "measure": "https://madie.cms.gov/Measure/CMS177FHIRChildMDDSuicideAssmt",
      "period": {
        "start": "2026-01-01",
        "end": "2026-12-31"
      },
      "group": [ {
        "id": "Group_1",
        "population": [ {
          "id": "InitialPopulation_1",
          "code": {
            "coding": [ {
              "system": "http://terminology.hl7.org/CodeSystem/measure-population",
              "code": "initial-population",
              "display": "Initial Population"
            } ]
          },
          "count": 1
        }, {
          "id": "Denominator_1",
          "code": {
            "coding": [ {
              "system": "http://terminology.hl7.org/CodeSystem/measure-population",
              "code": "denominator",
              "display": "Denominator"
            } ]
          },
          "count": 1
        }, {
          "id": "Numerator_1",
          "code": {
            "coding": [ {
              "system": "http://terminology.hl7.org/CodeSystem/measure-population",
              "code": "numerator",
              "display": "Numerator"
            } ]
          },
          "count": 0
        } ],
        "measureScore": {
          "value": 0.0
        }
      } ],
      "evaluatedResource": [ {
        "reference": "Patient/687a47c1-978c-4774-ba5d-2a585d1e78be"
      }, {
        "reference": "Encounter/a59a118f-bc43-41ab-80a0-268db7a9b552"
      }, {
        "reference": "Condition/f9535636-8b7b-4a4d-93ff-065cdfaa1ee6"
      }, {
        "reference": "Coverage/fbe621aa-8699-4e8c-8789-092d92b5b061"
      }, {
        "reference": "Organization/6633698d-f457-411c-b1ea-d512154130b5"
      }, {
        "reference": "Practitioner/e06ba931-7808-4d55-9199-d392e52d3658"
      } ]
    },
    "request": {
      "method": "PUT",
      "url": "MeasureReport/15184f14-167f-4020-9502-7a6683fd5d95"
    }
  } ]
}