{
  "resourceType": "Bundle",
  "id": "tests-NUMERFail-OpioidWithAntagNoRoute-bundle",
  "type": "transaction",
  "entry": [ {
    "fullUrl": "https://madie.cms.gov/MedicationAdministration/fe47c04d-7391-4084-a2df-20918a86c1e1",
    "resource": {
      "resourceType": "MedicationAdministration",
      "id": "fe47c04d-7391-4084-a2df-20918a86c1e1",
      "meta": {
        "profile": [ "http://hl7.org/fhir/us/qicore/StructureDefinition/qicore-medicationadministration" ]
      },
      "status": "completed",
      "medicationCodeableConcept": {
        "coding": [ {
          "system": "http://www.nlm.nih.gov/research/umls/rxnorm",
          "code": "1191222",
          "display": "Opioid Antagonist"
        }, {
          "system": "http://www.nlm.nih.gov/research/umls/rxnorm",
          "code": "2592953",
          "display": "Naloxone"
        } ]
      },
      "subject": {
        "reference": "Patient/8fc93696-e9a6-46a3-b8e9-7c7929e8ad36"
      },
      "context": {
        "reference": "Encounter/1cda2b96-c901-4427-abd0-f46c9f9b2d4b"
      },
      "effectiveDateTime": "2026-08-11T20:14:00.000+00:00",
      "note": [ {
        "text": "Administered opioid antagonist as prescribed."
      } ],
      "dosage": {
        "rateQuantity": {
          "value": 1,
          "unit": "mg"
        }
      }
    },
    "request": {
      "method": "PUT",
      "url": "MedicationAdministration/fe47c04d-7391-4084-a2df-20918a86c1e1"
    }
  }, {
    "fullUrl": "https://madie.cms.gov/MedicationAdministration/fc718dd0-fc81-44df-8678-0bed26e49c36",
    "resource": {
      "resourceType": "MedicationAdministration",
      "id": "fc718dd0-fc81-44df-8678-0bed26e49c36",
      "meta": {
        "profile": [ "http://hl7.org/fhir/us/qicore/StructureDefinition/qicore-medicationadministration" ]
      },
      "status": "completed",
      "medicationCodeableConcept": {
        "coding": [ {
          "system": "http://www.nlm.nih.gov/research/umls/rxnorm",
          "code": "1010600",
          "display": "Opioids, All"
        } ]
      },
      "subject": {
        "reference": "Patient/8fc93696-e9a6-46a3-b8e9-7c7929e8ad36"
      },
      "context": {
        "reference": "Encounter/1cda2b96-c901-4427-abd0-f46c9f9b2d4b"
      },
      "effectiveDateTime": "2026-08-11T08:00:00.000+00:00",
      "note": [ {
        "text": "Administered opioid medication as prescribed."
      } ],
      "dosage": {
        "rateQuantity": {
          "value": 1,
          "unit": "mg"
        }
      }
    },
    "request": {
      "method": "PUT",
      "url": "MedicationAdministration/fc718dd0-fc81-44df-8678-0bed26e49c36"
    }
  }, {
    "fullUrl": "https://madie.cms.gov/Encounter/1cda2b96-c901-4427-abd0-f46c9f9b2d4b",
    "resource": {
      "resourceType": "Encounter",
      "id": "1cda2b96-c901-4427-abd0-f46c9f9b2d4b",
      "meta": {
        "profile": [ "http://hl7.org/fhir/us/qicore/StructureDefinition/qicore-encounter" ]
      },
      "status": "finished",
      "class": {
        "system": "http://terminology.hl7.org/CodeSystem/v3-ActCode",
        "code": "IMP",
        "display": "inpatient encounter"
      },
      "type": [ {
        "coding": [ {
          "system": "http://snomed.info/sct",
          "code": "183452005",
          "display": "Inpatient encounter"
        } ]
      } ],
      "subject": {
        "reference": "Patient/8fc93696-e9a6-46a3-b8e9-7c7929e8ad36"
      },
      "period": {
        "start": "2026-08-11T08:00:00.000+00:00",
        "end": "2026-08-14T08:15:00.000+00:00"
      }
    },
    "request": {
      "method": "PUT",
      "url": "Encounter/1cda2b96-c901-4427-abd0-f46c9f9b2d4b"
    }
  }, {
    "fullUrl": "https://madie.cms.gov/Patient/8fc93696-e9a6-46a3-b8e9-7c7929e8ad36",
    "resource": {
      "resourceType": "Patient",
      "id": "8fc93696-e9a6-46a3-b8e9-7c7929e8ad36",
      "meta": {
        "profile": [ "http://hl7.org/fhir/us/qicore/StructureDefinition/qicore-patient" ]
      },
      "extension": [ {
        "url": "http://hl7.org/fhir/us/core/StructureDefinition/us-core-race",
        "extension": [ {
          "url": "ombCategory",
          "valueCoding": {
            "system": "urn:oid:2.16.840.1.113883.6.238",
            "code": "2106-3",
            "display": "White"
          }
        }, {
          "url": "text",
          "valueString": "White"
        } ]
      }, {
        "url": "http://hl7.org/fhir/us/core/StructureDefinition/us-core-ethnicity",
        "extension": [ {
          "url": "ombCategory",
          "valueCoding": {
            "system": "urn:oid:2.16.840.1.113883.6.238",
            "code": "2135-2",
            "display": "Hispanic or Latino"
          }
        }, {
          "url": "text",
          "valueString": "Hispanic or Latino"
        } ]
      }, {
        "url": "http://hl7.org/fhir/us/core/StructureDefinition/us-core-sex",
        "valueCode": "248153007"
      } ],
      "identifier": [ {
        "system": "http://hospital.smarthealthit.org",
        "value": "999999999"
      } ],
      "name": [ {
        "family": "Example",
        "given": [ "Patient" ]
      } ],
      "gender": "female",
      "birthDate": "1956-01-01"
    },
    "request": {
      "method": "PUT",
      "url": "Patient/8fc93696-e9a6-46a3-b8e9-7c7929e8ad36"
    }
  }, {
    "fullUrl": "https://madie.cms.gov/MeasureReport/31480961-ef24-49d4-bfb4-f1be931fb696",
    "resource": {
      "resourceType": "MeasureReport",
      "id": "31480961-ef24-49d4-bfb4-f1be931fb696",
      "meta": {
        "profile": [ "http://hl7.org/fhir/us/cqfmeasures/StructureDefinition/test-case-cqfm" ]
      },
      "contained": [ {
        "resourceType": "Parameters",
        "id": "b41163be-e6c1-4403-a8ac-ca843f9560a2-parameters",
        "parameter": [ {
          "name": "subject",
          "valueString": "8fc93696-e9a6-46a3-b8e9-7c7929e8ad36"
        } ]
      } ],
      "extension": [ {
        "url": "http://hl7.org/fhir/StructureDefinition/cqf-inputParameters",
        "valueReference": {
          "reference": "#b41163be-e6c1-4403-a8ac-ca843f9560a2-parameters"
        }
      }, {
        "url": "http://hl7.org/fhir/us/cqfmeasures/StructureDefinition/cqfm-testCaseDescription",
        "valueMarkdown": "Patient given opioid 8:15AM. Antagonist is given 8:14PM,  11 hours and 59 minutes after opioid but no route provided. Must be IV, IM, nasal etc. (non oral) to meet num criteria."
      } ],
      "modifierExtension": [ {
        "url": "http://hl7.org/fhir/us/cqfmeasures/StructureDefinition/cqfm-isTestCase",
        "valueBoolean": true
      } ],
      "status": "complete",
      "type": "individual",
      "measure": "https://madie.cms.gov/Measure/CMS819FHIRHHORAE",
      "period": {
        "start": "2026-01-01",
        "end": "2026-12-31"
      },
      "group": [ {
        "id": "Group_1",
        "population": [ {
          "id": "InitialPopulation_1",
          "code": {
            "coding": [ {
              "system": "http://terminology.hl7.org/CodeSystem/measure-population",
              "code": "initial-population",
              "display": "Initial Population"
            } ]
          },
          "count": 1
        }, {
          "id": "Denominator_1",
          "code": {
            "coding": [ {
              "system": "http://terminology.hl7.org/CodeSystem/measure-population",
              "code": "denominator",
              "display": "Denominator"
            } ]
          },
          "count": 1
        }, {
          "id": "Numerator_1",
          "code": {
            "coding": [ {
              "system": "http://terminology.hl7.org/CodeSystem/measure-population",
              "code": "numerator",
              "display": "Numerator"
            } ]
          },
          "count": 0
        } ],
        "measureScore": {
          "value": 0.0
        }
      } ],
      "evaluatedResource": [ {
        "reference": "MedicationAdministration/fe47c04d-7391-4084-a2df-20918a86c1e1"
      }, {
        "reference": "MedicationAdministration/fc718dd0-fc81-44df-8678-0bed26e49c36"
      }, {
        "reference": "Encounter/1cda2b96-c901-4427-abd0-f46c9f9b2d4b"
      }, {
        "reference": "Patient/8fc93696-e9a6-46a3-b8e9-7c7929e8ad36"
      } ]
    },
    "request": {
      "method": "PUT",
      "url": "MeasureReport/31480961-ef24-49d4-bfb4-f1be931fb696"
    }
  } ]
}