{
  "resourceType": "Bundle",
  "id": "6101649298086b4fedf65e05",
  "type": "collection",
  "entry": [ {
    "fullUrl": "https://madie.cms.gov/Patient/c0fd6874-9560-436e-9115-63970d859c34",
    "resource": {
      "resourceType": "Patient",
      "id": "c0fd6874-9560-436e-9115-63970d859c34",
      "meta": {
        "profile": [ "http://hl7.org/fhir/us/qicore/StructureDefinition/qicore-patient" ]
      },
      "extension": [ {
        "url": "http://hl7.org/fhir/us/core/StructureDefinition/us-core-race",
        "extension": [ {
          "url": "ombCategory",
          "valueCoding": {
            "system": "urn:oid:2.16.840.1.113883.6.238",
            "code": "1002-5",
            "display": "American Indian or Alaska Native"
          }
        }, {
          "url": "text",
          "valueString": "American Indian or Alaska Native"
        } ]
      }, {
        "url": "http://hl7.org/fhir/us/core/StructureDefinition/us-core-ethnicity",
        "extension": [ {
          "url": "ombCategory",
          "valueCoding": {
            "system": "urn:oid:2.16.840.1.113883.6.238",
            "code": "2135-2",
            "display": "Hispanic or Latino"
          }
        }, {
          "url": "text",
          "valueString": "Hispanic or Latino"
        } ]
      } ],
      "identifier": [ {
        "type": {
          "coding": [ {
            "system": "http://terminology.hl7.org/CodeSystem/v2-0203",
            "code": "MR"
          } ]
        },
        "system": "https://bonnie-fhir.healthit.gov/",
        "value": "6101649298086b4fedf65e05"
      } ],
      "active": true,
      "name": [ {
        "use": "usual",
        "family": "IPFail",
        "given": [ "1stAnd2ndAUASIWithNoQOL" ]
      } ],
      "gender": "male",
      "birthDate": "1952-05-03"
    }
  }, {
    "fullUrl": "https://madie.cms.gov/Observation/dafafd55-56ae-4584-b5e7-f5b00299e4c0",
    "resource": {
      "resourceType": "Observation",
      "id": "dafafd55-56ae-4584-b5e7-f5b00299e4c0",
      "meta": {
        "profile": [ "http://hl7.org/fhir/us/qicore/StructureDefinition/qicore-observation-screening-assessment" ]
      },
      "status": "final",
      "category": [ {
        "coding": [ {
          "system": "http://terminology.hl7.org/CodeSystem/observation-category",
          "code": "survey",
          "display": "Survey"
        } ]
      } ],
      "code": {
        "coding": [ {
          "system": "http://loinc.org",
          "version": "2.76",
          "code": "80883-2"
        } ]
      },
      "subject": {
        "reference": "Patient/c0fd6874-9560-436e-9115-63970d859c34"
      },
      "effectiveDateTime": "2025-03-04T08:00:00.000+00:00",
      "dataAbsentReason": {
        "coding": [ {
          "system": "http://terminology.hl7.org/CodeSystem/data-absent-reason",
          "code": "unknown",
          "display": "Unknown"
        } ]
      }
    }
  }, {
    "fullUrl": "https://madie.cms.gov/Observation/89feefa3-ab09-41dc-92f9-c34091615dbc",
    "resource": {
      "resourceType": "Observation",
      "id": "89feefa3-ab09-41dc-92f9-c34091615dbc",
      "meta": {
        "profile": [ "http://hl7.org/fhir/us/qicore/StructureDefinition/qicore-observation-screening-assessment" ]
      },
      "status": "final",
      "category": [ {
        "coding": [ {
          "system": "http://terminology.hl7.org/CodeSystem/observation-category",
          "code": "survey",
          "display": "Survey"
        } ]
      } ],
      "code": {
        "coding": [ {
          "system": "http://loinc.org",
          "version": "2.76",
          "code": "80883-2"
        } ]
      },
      "subject": {
        "reference": "Patient/c0fd6874-9560-436e-9115-63970d859c34"
      },
      "effectivePeriod": {
        "start": "2025-12-01T08:00:00.000+00:00",
        "end": "2025-12-01T08:15:00.000+00:00"
      },
      "valueInteger": 4
    }
  }, {
    "fullUrl": "https://madie.cms.gov/Condition/8ebb5f0c-bfee-4286-a3ba-56fd9b41d5b5",
    "resource": {
      "resourceType": "Condition",
      "id": "8ebb5f0c-bfee-4286-a3ba-56fd9b41d5b5",
      "meta": {
        "profile": [ "http://hl7.org/fhir/us/qicore/StructureDefinition/qicore-condition-problems-health-concerns" ]
      },
      "clinicalStatus": {
        "coding": [ {
          "system": "http://terminology.hl7.org/CodeSystem/condition-clinical",
          "code": "active"
        } ]
      },
      "verificationStatus": {
        "coding": [ {
          "system": "http://terminology.hl7.org/CodeSystem/condition-ver-status",
          "code": "confirmed"
        } ]
      },
      "category": [ {
        "coding": [ {
          "system": "http://terminology.hl7.org/CodeSystem/condition-category",
          "code": "problem-list-item",
          "display": "Problem List Item"
        } ]
      } ],
      "code": {
        "coding": [ {
          "system": "http://hl7.org/fhir/sid/icd-10-cm",
          "version": "2024",
          "code": "N40.1"
        } ]
      },
      "subject": {
        "reference": "Patient/c0fd6874-9560-436e-9115-63970d859c34"
      },
      "onsetDateTime": "2025-03-03T08:00:00.000+00:00"
    }
  }, {
    "fullUrl": "https://madie.cms.gov/Encounter/ab5c1144-b0ae-47be-8ab1-843ec271a4aa",
    "resource": {
      "resourceType": "Encounter",
      "id": "ab5c1144-b0ae-47be-8ab1-843ec271a4aa",
      "meta": {
        "profile": [ "http://hl7.org/fhir/us/qicore/StructureDefinition/qicore-encounter" ]
      },
      "status": "finished",
      "class": {
        "system": "http://terminology.hl7.org/CodeSystem/v3-ActCode",
        "code": "AMB",
        "display": "ambulatory"
      },
      "type": [ {
        "coding": [ {
          "system": "http://www.ama-assn.org/go/cpt",
          "version": "2024",
          "code": "99213"
        } ]
      } ],
      "subject": {
        "reference": "Patient/c0fd6874-9560-436e-9115-63970d859c34"
      },
      "period": {
        "start": "2025-03-03T08:00:00.000+00:00",
        "end": "2025-03-03T08:15:00.000+00:00"
      },
      "length": {
        "value": 0.0,
        "unit": "days"
      }
    }
  }, {
    "fullUrl": "https://madie.cms.gov/MeasureReport/baf15db8-a2b6-4c11-86dd-9c3afd704bfe",
    "resource": {
      "resourceType": "MeasureReport",
      "id": "baf15db8-a2b6-4c11-86dd-9c3afd704bfe",
      "meta": {
        "profile": [ "http://hl7.org/fhir/us/cqfmeasures/StructureDefinition/test-case-cqfm" ]
      },
      "contained": [ {
        "resourceType": "Parameters",
        "id": "0de533fe-c616-433c-b6c9-cccfda97e7b0-parameters",
        "parameter": [ {
          "name": "subject",
          "valueString": "c0fd6874-9560-436e-9115-63970d859c34"
        } ]
      } ],
      "extension": [ {
        "url": "http://hl7.org/fhir/StructureDefinition/cqf-inputParameters",
        "valueReference": {
          "reference": "#0de533fe-c616-433c-b6c9-cccfda97e7b0-parameters"
        }
      }, {
        "url": "http://hl7.org/fhir/us/cqfmeasures/StructureDefinition/cqfm-testCaseDescription",
        "valueMarkdown": "Male Patient not meeting criteria for BPH diagnoss and office visit needed for initial population."
      } ],
      "modifierExtension": [ {
        "url": "http://hl7.org/fhir/us/cqfmeasures/StructureDefinition/cqfm-isTestCase",
        "valueBoolean": true
      } ],
      "status": "complete",
      "type": "individual",
      "measure": "https://madie.cms.gov/Measure/CMS771FHIRUrinarySymptomScoreBPH",
      "period": {
        "start": "2026-01-01",
        "end": "2026-12-31"
      },
      "group": [ {
        "id": "Group_1",
        "population": [ {
          "id": "InitialPopulation_1",
          "code": {
            "coding": [ {
              "system": "http://terminology.hl7.org/CodeSystem/measure-population",
              "code": "initial-population",
              "display": "Initial Population"
            } ]
          },
          "count": 0
        }, {
          "id": "Denominator_1",
          "code": {
            "coding": [ {
              "system": "http://terminology.hl7.org/CodeSystem/measure-population",
              "code": "denominator",
              "display": "Denominator"
            } ]
          },
          "count": 0
        }, {
          "id": "DenominatorExclusion_1",
          "code": {
            "coding": [ {
              "system": "http://terminology.hl7.org/CodeSystem/measure-population",
              "code": "denominator-exclusion",
              "display": "Denominator Exclusion"
            } ]
          },
          "count": 0
        }, {
          "id": "Numerator_1",
          "code": {
            "coding": [ {
              "system": "http://terminology.hl7.org/CodeSystem/measure-population",
              "code": "numerator",
              "display": "Numerator"
            } ]
          },
          "count": 0
        } ],
        "measureScore": {
          "value": 1.0
        }
      } ],
      "evaluatedResource": [ {
        "reference": "Patient/c0fd6874-9560-436e-9115-63970d859c34"
      }, {
        "reference": "Observation/dafafd55-56ae-4584-b5e7-f5b00299e4c0"
      }, {
        "reference": "Observation/89feefa3-ab09-41dc-92f9-c34091615dbc"
      }, {
        "reference": "Condition/8ebb5f0c-bfee-4286-a3ba-56fd9b41d5b5"
      }, {
        "reference": "Encounter/ab5c1144-b0ae-47be-8ab1-843ec271a4aa"
      } ]
    }
  } ]
}