{
  "resourceType": "Bundle",
  "id": "NUMERFail-SBP139DBP89TakenDuringEMER",
  "type": "transaction",
  "entry": [ {
    "fullUrl": "https://madie.cms.gov/Patient/6885264d-efbf-4e48-99a2-2e8ce29d61ba",
    "resource": {
      "resourceType": "Patient",
      "id": "6885264d-efbf-4e48-99a2-2e8ce29d61ba",
      "meta": {
        "profile": [ "http://hl7.org/fhir/us/qicore/StructureDefinition/qicore-patient" ]
      },
      "extension": [ {
        "url": "http://hl7.org/fhir/us/core/StructureDefinition/us-core-race",
        "extension": [ {
          "url": "ombCategory",
          "valueCoding": {
            "system": "urn:oid:2.16.840.1.113883.6.238",
            "code": "2028-9",
            "display": "Asian"
          }
        }, {
          "url": "text",
          "valueString": "Asian"
        } ]
      }, {
        "url": "http://hl7.org/fhir/us/core/StructureDefinition/us-core-ethnicity",
        "extension": [ {
          "url": "ombCategory",
          "valueCoding": {
            "system": "urn:oid:2.16.840.1.113883.6.238",
            "code": "2135-2",
            "display": "Hispanic or Latino"
          }
        }, {
          "url": "text",
          "valueString": "Hispanic or Latino"
        } ]
      } ],
      "identifier": [ {
        "system": "http://hospital.smarthealthit.org",
        "value": "999999995"
      } ],
      "name": [ {
        "family": "NUMERFail",
        "given": [ "SBP139DBP89TakenDuringEMER" ]
      } ],
      "gender": "female",
      "birthDate": "2007-12-31"
    },
    "request": {
      "method": "PUT",
      "url": "Patient/6885264d-efbf-4e48-99a2-2e8ce29d61ba"
    }
  }, {
    "fullUrl": "https://madie.cms.gov/Encounter/f4f8804e-4fba-4d39-8e8e-13ce57296983",
    "resource": {
      "resourceType": "Encounter",
      "id": "f4f8804e-4fba-4d39-8e8e-13ce57296983",
      "meta": {
        "profile": [ "http://hl7.org/fhir/us/qicore/StructureDefinition/qicore-encounter" ]
      },
      "status": "finished",
      "class": {
        "system": "http://terminology.hl7.org/CodeSystem/v3-ActCode",
        "code": "AMB",
        "display": "ambulatory"
      },
      "type": [ {
        "coding": [ {
          "system": "http://snomed.info/sct",
          "code": "3391000175108",
          "display": "Office visit for pediatric care and assessment (procedure)"
        } ]
      } ],
      "subject": {
        "reference": "Patient/6885264d-efbf-4e48-99a2-2e8ce29d61ba"
      },
      "period": {
        "start": "2026-01-01T00:00:00.000+00:00",
        "end": "2026-01-01T01:00:00.000+00:00"
      }
    },
    "request": {
      "method": "PUT",
      "url": "Encounter/f4f8804e-4fba-4d39-8e8e-13ce57296983"
    }
  }, {
    "fullUrl": "https://madie.cms.gov/Condition/fc9d7c9e-72ac-4ead-b0cc-2a0fde3c77d6",
    "resource": {
      "resourceType": "Condition",
      "id": "fc9d7c9e-72ac-4ead-b0cc-2a0fde3c77d6",
      "meta": {
        "profile": [ "http://hl7.org/fhir/us/qicore/StructureDefinition/qicore-condition-encounter-diagnosis" ]
      },
      "clinicalStatus": {
        "coding": [ {
          "system": "http://terminology.hl7.org/CodeSystem/condition-clinical",
          "code": "active"
        } ]
      },
      "category": [ {
        "coding": [ {
          "system": "http://terminology.hl7.org/CodeSystem/condition-category",
          "code": "encounter-diagnosis",
          "display": "Encounter Diagnosis"
        } ]
      } ],
      "code": {
        "coding": [ {
          "system": "http://snomed.info/sct",
          "code": "371125006",
          "display": "Labile essential hypertension (disorder)"
        } ]
      },
      "subject": {
        "reference": "Patient/6885264d-efbf-4e48-99a2-2e8ce29d61ba"
      },
      "onsetDateTime": "2026-06-29T23:59:59.000+00:00"
    },
    "request": {
      "method": "PUT",
      "url": "Condition/fc9d7c9e-72ac-4ead-b0cc-2a0fde3c77d6"
    }
  }, {
    "fullUrl": "https://madie.cms.gov/Observation/5bc8592f-1185-4e61-83f4-775b176227fb",
    "resource": {
      "resourceType": "Observation",
      "id": "5bc8592f-1185-4e61-83f4-775b176227fb",
      "meta": {
        "profile": [ "http://hl7.org/fhir/us/core/StructureDefinition/us-core-blood-pressure" ]
      },
      "status": "final",
      "category": [ {
        "coding": [ {
          "system": "http://terminology.hl7.org/CodeSystem/observation-category",
          "code": "vital-signs",
          "display": "Vital Signs"
        } ],
        "text": "Vital Signs"
      } ],
      "code": {
        "coding": [ {
          "system": "http://loinc.org",
          "code": "85354-9",
          "display": "Blood pressure panel with all children optional"
        } ]
      },
      "subject": {
        "reference": "Patient/6885264d-efbf-4e48-99a2-2e8ce29d61ba"
      },
      "encounter": {
        "reference": "Encounter/f4f8804e-4fba-4d39-8e8e-13ce57296983-1"
      },
      "effectiveDateTime": "2026-01-01T00:00:00.000+00:00",
      "component": [ {
        "code": {
          "coding": [ {
            "system": "http://loinc.org",
            "code": "8480-6",
            "display": "Systolic blood pressure"
          } ]
        },
        "valueQuantity": {
          "value": 139,
          "unit": "mmHg",
          "system": "http://unitsofmeasure.org",
          "code": "mm[Hg]"
        }
      }, {
        "code": {
          "coding": [ {
            "system": "http://loinc.org",
            "code": "8462-4",
            "display": "Diastolic blood pressure"
          } ]
        },
        "valueQuantity": {
          "value": 89,
          "unit": "mmHg",
          "system": "http://unitsofmeasure.org",
          "code": "mm[Hg]"
        }
      } ]
    },
    "request": {
      "method": "PUT",
      "url": "Observation/5bc8592f-1185-4e61-83f4-775b176227fb"
    }
  }, {
    "fullUrl": "https://madie.cms.gov/Encounter/f4f8804e-4fba-4d39-8e8e-13ce57296983-1",
    "resource": {
      "resourceType": "Encounter",
      "id": "f4f8804e-4fba-4d39-8e8e-13ce57296983-1",
      "meta": {
        "profile": [ "http://hl7.org/fhir/us/qicore/StructureDefinition/qicore-encounter" ]
      },
      "status": "finished",
      "class": {
        "system": "http://terminology.hl7.org/CodeSystem/v3-ActCode",
        "code": "EMER",
        "display": "emergency"
      },
      "type": [ {
        "coding": [ {
          "system": "http://snomed.info/sct",
          "code": "4525004",
          "display": "Emergency department patient visit (procedure)"
        } ]
      } ],
      "subject": {
        "reference": "Patient/6885264d-efbf-4e48-99a2-2e8ce29d61ba"
      },
      "period": {
        "start": "2026-01-01T00:00:00.000+00:00",
        "end": "2026-01-01T01:00:00.000+00:00"
      }
    },
    "request": {
      "method": "PUT",
      "url": "Encounter/f4f8804e-4fba-4d39-8e8e-13ce57296983-1"
    }
  }, {
    "fullUrl": "https://madie.cms.gov/MeasureReport/1f5b7da1-80c7-4104-85c6-a27c6e8e399b",
    "resource": {
      "resourceType": "MeasureReport",
      "id": "1f5b7da1-80c7-4104-85c6-a27c6e8e399b",
      "meta": {
        "profile": [ "http://hl7.org/fhir/us/cqfmeasures/StructureDefinition/test-case-cqfm" ]
      },
      "contained": [ {
        "resourceType": "Parameters",
        "id": "d7ca7f63-2118-4b4f-bea3-46bfff0a78d3-parameters",
        "parameter": [ {
          "name": "subject",
          "valueString": "6885264d-efbf-4e48-99a2-2e8ce29d61ba"
        } ]
      } ],
      "extension": [ {
        "url": "http://hl7.org/fhir/StructureDefinition/cqf-inputParameters",
        "valueReference": {
          "reference": "#d7ca7f63-2118-4b4f-bea3-46bfff0a78d3-parameters"
        }
      }, {
        "url": "http://hl7.org/fhir/us/cqfmeasures/StructureDefinition/cqfm-testCaseDescription",
        "valueMarkdown": "BP 139/89 but taken during emergency visit"
      } ],
      "modifierExtension": [ {
        "url": "http://hl7.org/fhir/us/cqfmeasures/StructureDefinition/cqfm-isTestCase",
        "valueBoolean": true
      } ],
      "status": "complete",
      "type": "individual",
      "measure": "https://madie.cms.gov/Measure/CMS165FHIRControllingHighBP",
      "period": {
        "start": "2026-01-01",
        "end": "2026-12-31"
      },
      "group": [ {
        "id": "Group_1",
        "population": [ {
          "id": "InitialPopulation_1",
          "code": {
            "coding": [ {
              "system": "http://terminology.hl7.org/CodeSystem/measure-population",
              "code": "initial-population",
              "display": "Initial Population"
            } ]
          },
          "count": 1
        }, {
          "id": "Denominator_1",
          "code": {
            "coding": [ {
              "system": "http://terminology.hl7.org/CodeSystem/measure-population",
              "code": "denominator",
              "display": "Denominator"
            } ]
          },
          "count": 1
        }, {
          "id": "DenominatorExclusion_1",
          "code": {
            "coding": [ {
              "system": "http://terminology.hl7.org/CodeSystem/measure-population",
              "code": "denominator-exclusion",
              "display": "Denominator Exclusion"
            } ]
          },
          "count": 0
        }, {
          "id": "Numerator_1",
          "code": {
            "coding": [ {
              "system": "http://terminology.hl7.org/CodeSystem/measure-population",
              "code": "numerator",
              "display": "Numerator"
            } ]
          },
          "count": 0
        } ],
        "measureScore": {
          "value": 1.0
        }
      } ],
      "evaluatedResource": [ {
        "reference": "Patient/6885264d-efbf-4e48-99a2-2e8ce29d61ba"
      }, {
        "reference": "Encounter/f4f8804e-4fba-4d39-8e8e-13ce57296983"
      }, {
        "reference": "Condition/fc9d7c9e-72ac-4ead-b0cc-2a0fde3c77d6"
      }, {
        "reference": "Observation/5bc8592f-1185-4e61-83f4-775b176227fb"
      }, {
        "reference": "Encounter/f4f8804e-4fba-4d39-8e8e-13ce57296983-1"
      } ]
    },
    "request": {
      "method": "PUT",
      "url": "MeasureReport/1f5b7da1-80c7-4104-85c6-a27c6e8e399b"
    }
  } ]
}