{
  "resourceType": "Bundle",
  "id": "62f65a0f5efef5272905e705",
  "type": "collection",
  "entry": [ {
    "fullUrl": "https://madie.cms.gov/Patient/6aaff09e-4a7b-4efa-93f8-13033e95c230",
    "resource": {
      "resourceType": "Patient",
      "id": "6aaff09e-4a7b-4efa-93f8-13033e95c230",
      "meta": {
        "profile": [ "http://hl7.org/fhir/us/qicore/StructureDefinition/qicore-patient" ]
      },
      "extension": [ {
        "url": "http://hl7.org/fhir/us/core/StructureDefinition/us-core-race",
        "extension": [ {
          "url": "ombCategory",
          "valueCoding": {
            "system": "urn:oid:2.16.840.1.113883.6.238",
            "code": "1002-5",
            "display": "American Indian or Alaska Native",
            "userSelected": true
          }
        }, {
          "url": "text",
          "valueString": "American Indian or Alaska Native"
        } ]
      }, {
        "url": "http://hl7.org/fhir/us/core/StructureDefinition/us-core-ethnicity",
        "extension": [ {
          "url": "ombCategory",
          "valueCoding": {
            "system": "urn:oid:2.16.840.1.113883.6.238",
            "code": "2135-2",
            "display": "Hispanic or Latino",
            "userSelected": true
          }
        }, {
          "url": "text",
          "valueString": "Hispanic or Latino"
        } ]
      }, {
        "url": "http://hl7.org/fhir/us/core/StructureDefinition/us-core-sex",
        "valueCode": "248153007"
      } ],
      "identifier": [ {
        "type": {
          "coding": [ {
            "system": "http://terminology.hl7.org/CodeSystem/v2-0203",
            "code": "MR"
          } ]
        },
        "system": "https://bonnie-fhir.healthit.gov/",
        "value": "62f65a0f5efef5272905e705"
      } ],
      "name": [ {
        "family": "DENEXCEPPass",
        "given": [ "AdultPatientReasonForNoDepressionScreenAge18" ]
      } ],
      "gender": "male",
      "birthDate": "2008-12-31"
    }
  }, {
    "fullUrl": "https://madie.cms.gov/Encounter/a882bb79-b3d8-4d3e-a4e5-4501189624c3",
    "resource": {
      "resourceType": "Encounter",
      "id": "a882bb79-b3d8-4d3e-a4e5-4501189624c3",
      "meta": {
        "profile": [ "http://hl7.org/fhir/us/qicore/StructureDefinition/qicore-encounter" ]
      },
      "status": "finished",
      "class": {
        "system": "http://terminology.hl7.org/CodeSystem/v3-ActCode",
        "code": "AMB",
        "display": "ambulatory"
      },
      "type": [ {
        "coding": [ {
          "system": "http://snomed.info/sct",
          "code": "10197000",
          "display": "Psychiatric interview and evaluation (procedure)",
          "userSelected": true
        } ]
      } ],
      "subject": {
        "reference": "Patient/6aaff09e-4a7b-4efa-93f8-13033e95c230"
      },
      "period": {
        "start": "2026-06-28T08:00:00.000Z",
        "end": "2026-06-28T08:15:00.000Z"
      }
    }
  }, {
    "fullUrl": "https://madie.cms.gov/Observation/b4aa60b8-10e1-47db-9a45-d0a014536370",
    "resource": {
      "resourceType": "Observation",
      "id": "b4aa60b8-10e1-47db-9a45-d0a014536370",
      "meta": {
        "profile": [ "http://hl7.org/fhir/us/qicore/StructureDefinition/qicore-observationcancelled" ]
      },
      "extension": [ {
        "url": "http://hl7.org/fhir/us/qicore/StructureDefinition/qicore-notDoneReason",
        "valueCodeableConcept": {
          "coding": [ {
            "system": "http://snomed.info/sct",
            "code": "720834000",
            "display": "Depression screening declined (situation)",
            "userSelected": true
          } ]
        }
      } ],
      "status": "cancelled",
      "category": [ {
        "coding": [ {
          "system": "http://terminology.hl7.org/CodeSystem/observation-category",
          "code": "procedure",
          "display": "Procedure"
        } ]
      } ],
      "code": {
        "coding": [ {
          "system": "http://loinc.org",
          "code": "73832-8",
          "display": "Adult depression screening assessment",
          "userSelected": true
        } ]
      },
      "subject": {
        "reference": "Patient/6aaff09e-4a7b-4efa-93f8-13033e95c230"
      },
      "issued": "2026-06-28T08:00:00.000Z",
      "valueBoolean": true
    }
  }, {
    "fullUrl": "https://madie.cms.gov/Coverage/bfc9fb96-fc8b-4659-b7e3-d8b188c1c3b8",
    "resource": {
      "resourceType": "Coverage",
      "id": "bfc9fb96-fc8b-4659-b7e3-d8b188c1c3b8",
      "meta": {
        "profile": [ "http://hl7.org/fhir/us/qicore/StructureDefinition/qicore-coverage" ]
      },
      "status": "active",
      "type": {
        "coding": [ {
          "system": "https://nahdo.org/sopt",
          "code": "1",
          "display": "MEDICARE",
          "userSelected": true
        } ]
      },
      "subscriberId": "123456789",
      "beneficiary": {
        "reference": "Patient/6aaff09e-4a7b-4efa-93f8-13033e95c230"
      },
      "relationship": {
        "coding": [ {
          "system": "http://terminology.hl7.org/CodeSystem/subscriber-relationship",
          "code": "self",
          "display": "Self",
          "userSelected": true
        } ]
      },
      "period": {
        "start": "2021-06-28T08:00:00.000Z",
        "end": "2026-06-28T08:15:00.000Z"
      },
      "payor": [ {
        "reference": "Organization/36dfcb57-fef7-4c27-b7b7-d0bad0be3a7a"
      } ]
    }
  }, {
    "fullUrl": "https://madie.cms.gov/Organization/36dfcb57-fef7-4c27-b7b7-d0bad0be3a7a",
    "resource": {
      "resourceType": "Organization",
      "id": "36dfcb57-fef7-4c27-b7b7-d0bad0be3a7a",
      "meta": {
        "profile": [ "http://hl7.org/fhir/us/qicore/StructureDefinition/qicore-organization" ]
      },
      "identifier": [ {
        "use": "temp",
        "system": "urn:oid:2.16.840.1.113883.4.4",
        "value": "21-3259825"
      } ],
      "active": true,
      "type": [ {
        "coding": [ {
          "system": "http://terminology.hl7.org/CodeSystem/organization-type",
          "code": "pay",
          "display": "Payer"
        } ]
      } ],
      "name": "Blue Cross Blue Shield of Texas",
      "telecom": [ {
        "system": "phone",
        "value": "(+1) 972-766-6900"
      } ],
      "address": [ {
        "use": "billing",
        "type": "postal",
        "line": [ "P.O. Box 660044" ],
        "city": "Dallas",
        "state": "TX",
        "postalCode": "75266-0044",
        "country": "USA"
      } ]
    }
  }, {
    "fullUrl": "https://madie.cms.gov/Practitioner/e72073cc-e5d0-4c87-8739-e4b88f7e3556",
    "resource": {
      "resourceType": "Practitioner",
      "id": "e72073cc-e5d0-4c87-8739-e4b88f7e3556",
      "meta": {
        "profile": [ "http://hl7.org/fhir/us/qicore/StructureDefinition/qicore-practitioner" ]
      },
      "identifier": [ {
        "system": "http://hl7.org/fhir/sid/us-npi",
        "value": "1234567893"
      } ],
      "name": [ {
        "family": "Evil",
        "prefix": [ "Dr" ]
      } ]
    }
  }, {
    "fullUrl": "https://madie.cms.gov/MeasureReport/5981d1e2-7d0b-4887-aed2-884d0e7df4fe",
    "resource": {
      "resourceType": "MeasureReport",
      "id": "5981d1e2-7d0b-4887-aed2-884d0e7df4fe",
      "meta": {
        "profile": [ "http://hl7.org/fhir/us/cqfmeasures/StructureDefinition/test-case-cqfm" ]
      },
      "contained": [ {
        "resourceType": "Parameters",
        "id": "dd9528bc-e908-455b-88b5-22779f062f6a-parameters",
        "parameter": [ {
          "name": "subject",
          "valueString": "6aaff09e-4a7b-4efa-93f8-13033e95c230"
        } ]
      } ],
      "extension": [ {
        "url": "http://hl7.org/fhir/StructureDefinition/cqf-inputParameters",
        "valueReference": {
          "reference": "#dd9528bc-e908-455b-88b5-22779f062f6a-parameters"
        }
      }, {
        "url": "http://hl7.org/fhir/us/cqfmeasures/StructureDefinition/cqfm-testCaseDescription",
        "valueMarkdown": "18 yo male with patient reason for not screening for depression - 18 on last day MP."
      } ],
      "modifierExtension": [ {
        "url": "http://hl7.org/fhir/us/cqfmeasures/StructureDefinition/cqfm-isTestCase",
        "valueBoolean": true
      } ],
      "status": "complete",
      "type": "individual",
      "measure": "https://madie.cms.gov/Measure/CMS2FHIRPCSDepScreenAndFollowUp",
      "period": {
        "start": "2026-01-01",
        "end": "2026-12-31"
      },
      "group": [ {
        "id": "Group_1",
        "population": [ {
          "id": "InitialPopulation_1",
          "code": {
            "coding": [ {
              "system": "http://terminology.hl7.org/CodeSystem/measure-population",
              "code": "initial-population",
              "display": "Initial Population"
            } ]
          },
          "count": 1
        }, {
          "id": "Denominator_1",
          "code": {
            "coding": [ {
              "system": "http://terminology.hl7.org/CodeSystem/measure-population",
              "code": "denominator",
              "display": "Denominator"
            } ]
          },
          "count": 1
        }, {
          "id": "DenominatorExclusion_1",
          "code": {
            "coding": [ {
              "system": "http://terminology.hl7.org/CodeSystem/measure-population",
              "code": "denominator-exclusion",
              "display": "Denominator Exclusion"
            } ]
          },
          "count": 0
        }, {
          "id": "Numerator_1",
          "code": {
            "coding": [ {
              "system": "http://terminology.hl7.org/CodeSystem/measure-population",
              "code": "numerator",
              "display": "Numerator"
            } ]
          },
          "count": 0
        }, {
          "id": "DenominatorException_1",
          "code": {
            "coding": [ {
              "system": "http://terminology.hl7.org/CodeSystem/measure-population",
              "code": "denominator-exception",
              "display": "Denominator Exception"
            } ]
          },
          "count": 1
        } ],
        "measureScore": {
          "value": 1.0
        }
      } ],
      "evaluatedResource": [ {
        "reference": "Patient/6aaff09e-4a7b-4efa-93f8-13033e95c230"
      }, {
        "reference": "Encounter/a882bb79-b3d8-4d3e-a4e5-4501189624c3"
      }, {
        "reference": "Observation/b4aa60b8-10e1-47db-9a45-d0a014536370"
      }, {
        "reference": "Coverage/bfc9fb96-fc8b-4659-b7e3-d8b188c1c3b8"
      }, {
        "reference": "Organization/36dfcb57-fef7-4c27-b7b7-d0bad0be3a7a"
      }, {
        "reference": "Practitioner/e72073cc-e5d0-4c87-8739-e4b88f7e3556"
      } ]
    }
  } ]
}