{
  "resourceType": "Bundle",
  "id": "612e6ae202c62a011f2eb981",
  "type": "transaction",
  "entry": [ {
    "fullUrl": "https://madie.cms.gov/Patient/fee36f91-f35f-4d50-a89c-51ecd0d3ee4f",
    "resource": {
      "resourceType": "Patient",
      "id": "fee36f91-f35f-4d50-a89c-51ecd0d3ee4f",
      "meta": {
        "profile": [ "http://hl7.org/fhir/us/qicore/StructureDefinition/qicore-patient" ]
      },
      "text": {
        "status": "generated",
        "div": "<div xmlns=\"http://www.w3.org/1999/xhtml\"><div class=\"hapiHeaderText\">MedRsnAllDvcWMAWarfDrgEDDayBFAdm <b>NUMERFAIL </b></div><table class=\"hapiPropertyTable\"><tbody><tr><td>Identifier</td><td>6a0e3c5c3c6f89b081cdb86134a02c3db47ab8da3b1d1dbdc6da1f3947ce1540</td></tr><tr><td>Date of birth</td><td><span>02 January 1974</span></td></tr></tbody></table></div>"
      },
      "extension": [ {
        "url": "http://hl7.org/fhir/us/core/StructureDefinition/us-core-race",
        "extension": [ {
          "url": "ombCategory",
          "valueCoding": {
            "system": "urn:oid:2.16.840.1.113883.6.238",
            "code": "1002-5",
            "display": "American Indian or Alaska Native",
            "userSelected": true
          }
        }, {
          "url": "text",
          "valueString": "American Indian or Alaska Native"
        } ]
      }, {
        "url": "http://hl7.org/fhir/us/core/StructureDefinition/us-core-ethnicity",
        "extension": [ {
          "url": "ombCategory",
          "valueCoding": {
            "system": "urn:oid:2.16.840.1.113883.6.238",
            "code": "2135-2",
            "display": "Hispanic or Latino",
            "userSelected": true
          }
        }, {
          "url": "text",
          "valueString": "Hispanic or Latino"
        } ]
      } ],
      "identifier": [ {
        "type": {
          "coding": [ {
            "system": "http://terminology.hl7.org/CodeSystem/v2-0203",
            "code": "MR"
          } ]
        },
        "system": "https://bonnie-fhir.healthit.gov/",
        "value": "612e6ae202c62a011f2eb981"
      } ],
      "active": true,
      "name": [ {
        "use": "usual",
        "family": "NUMERFail",
        "given": [ "MedRsnAllDvcWMAWarfDrgEDDayBFAdm" ]
      } ],
      "gender": "male",
      "birthDate": "1975-01-02"
    },
    "request": {
      "method": "PUT",
      "url": "Patient/fee36f91-f35f-4d50-a89c-51ecd0d3ee4f"
    }
  }, {
    "fullUrl": "https://madie.cms.gov/Encounter/2bc46972-e12d-444e-9906-e2ef18faad71",
    "resource": {
      "resourceType": "Encounter",
      "id": "2bc46972-e12d-444e-9906-e2ef18faad71",
      "meta": {
        "profile": [ "http://hl7.org/fhir/us/qicore/StructureDefinition/qicore-encounter" ]
      },
      "status": "finished",
      "class": {
        "system": "http://terminology.hl7.org/CodeSystem/v3-ActCode",
        "code": "EMER",
        "display": "emergency"
      },
      "type": [ {
        "coding": [ {
          "system": "http://snomed.info/sct",
          "code": "4525004"
        } ]
      } ],
      "subject": {
        "reference": "Patient/fee36f91-f35f-4d50-a89c-51ecd0d3ee4f"
      },
      "period": {
        "start": "2026-10-31T04:00:00.000+00:00",
        "end": "2026-11-01T07:15:00.000+00:00"
      },
      "length": {
        "value": 1,
        "unit": "days"
      }
    },
    "request": {
      "method": "PUT",
      "url": "Encounter/2bc46972-e12d-444e-9906-e2ef18faad71"
    }
  }, {
    "fullUrl": "https://madie.cms.gov/Encounter/6a0b5843-d019-4716-842c-d4211f20a5b2",
    "resource": {
      "resourceType": "Encounter",
      "id": "6a0b5843-d019-4716-842c-d4211f20a5b2",
      "meta": {
        "profile": [ "http://hl7.org/fhir/us/qicore/StructureDefinition/qicore-encounter" ]
      },
      "status": "finished",
      "class": {
        "system": "http://terminology.hl7.org/CodeSystem/v3-ActCode",
        "code": "IMP",
        "display": "inpatient encounter"
      },
      "type": [ {
        "coding": [ {
          "system": "http://snomed.info/sct",
          "code": "8715000"
        } ]
      } ],
      "subject": {
        "reference": "Patient/fee36f91-f35f-4d50-a89c-51ecd0d3ee4f"
      },
      "period": {
        "start": "2026-11-01T10:00:00.000+00:00",
        "end": "2026-11-04T05:00:00.000+00:00"
      },
      "length": {
        "value": 3,
        "unit": "days"
      },
      "diagnosis": [ {
        "condition": {
          "reference": "Condition/ischemic-stroke-824c"
        },
        "rank": 1
      } ]
    },
    "request": {
      "method": "PUT",
      "url": "Encounter/6a0b5843-d019-4716-842c-d4211f20a5b2"
    }
  }, {
    "fullUrl": "https://madie.cms.gov/Coverage/b9162925-d0a7-4a78-af35-0c2ced725f6e",
    "resource": {
      "resourceType": "Coverage",
      "id": "b9162925-d0a7-4a78-af35-0c2ced725f6e",
      "status": "active",
      "beneficiary": {
        "reference": "Patient/fee36f91-f35f-4d50-a89c-51ecd0d3ee4f"
      },
      "period": {
        "start": "1975-01-02T08:00:00.000+00:00"
      },
      "payor": [ {
        "reference": "Organization/7252d4bd-a803-48fe-8407-7ff8e6714eaa"
      } ]
    },
    "request": {
      "method": "PUT",
      "url": "Coverage/b9162925-d0a7-4a78-af35-0c2ced725f6e"
    }
  }, {
    "fullUrl": "https://madie.cms.gov/MedicationAdministration/0a965545-4139-46ba-8150-eabc3341be0b",
    "resource": {
      "resourceType": "MedicationAdministration",
      "id": "0a965545-4139-46ba-8150-eabc3341be0b",
      "meta": {
        "profile": [ "http://hl7.org/fhir/us/qicore/StructureDefinition/qicore-medicationadministration" ]
      },
      "extension": [ {
        "url": "http://hl7.org/fhir/us/qicore/StructureDefinition/qicore-recorded",
        "valueDateTime": "2026-10-31T07:00:00.000+00:00"
      } ],
      "status": "not-done",
      "statusReason": [ {
        "coding": [ {
          "system": "http://snomed.info/sct",
          "code": "183932001",
          "display": "Procedure contraindicated (situation)"
        } ]
      } ],
      "medicationCodeableConcept": {
        "coding": [ {
          "system": "http://www.nlm.nih.gov/research/umls/rxnorm",
          "code": "855288"
        } ]
      },
      "subject": {
        "reference": "Patient/fee36f91-f35f-4d50-a89c-51ecd0d3ee4f"
      },
      "effectivePeriod": {
        "start": "2026-10-31T07:00:00.000+00:00"
      }
    },
    "request": {
      "method": "PUT",
      "url": "MedicationAdministration/0a965545-4139-46ba-8150-eabc3341be0b"
    }
  }, {
    "fullUrl": "https://madie.cms.gov/Procedure/283d85e7-3200-4019-aea2-269e7199398e",
    "resource": {
      "resourceType": "Procedure",
      "id": "283d85e7-3200-4019-aea2-269e7199398e",
      "meta": {
        "profile": [ "http://hl7.org/fhir/us/qicore/StructureDefinition/qicore-procedurenotdone" ]
      },
      "extension": [ {
        "url": "http://hl7.org/fhir/us/qicore/StructureDefinition/qicore-recorded",
        "valueDateTime": "2013-12-04T13:35:00.000+00:00"
      } ],
      "status": "not-done",
      "statusReason": {
        "coding": [ {
          "system": "http://snomed.info/sct",
          "code": "183932001",
          "display": "Procedure contraindicated (situation)",
          "userSelected": true
        } ]
      },
      "code": {
        "coding": [ {
          "system": "http://snomed.info/sct",
          "version": "2025-03",
          "code": "360030002",
          "display": "Application of device (procedure)",
          "userSelected": true
        } ]
      },
      "subject": {
        "reference": "Patient/fee36f91-f35f-4d50-a89c-51ecd0d3ee4f"
      },
      "_performedDateTime": {
        "extension": [ {
          "url": "http://hl7.org/fhir/StructureDefinition/data-absent-reason",
          "valueCode": "not-performed"
        } ]
      },
      "usedCode": [ {
        "coding": [ {
          "system": "http://snomed.info/sct",
          "code": "348681001",
          "display": "Graduated compression elastic hosiery (physical object)",
          "userSelected": true
        } ]
      } ]
    },
    "request": {
      "method": "PUT",
      "url": "Procedure/283d85e7-3200-4019-aea2-269e7199398e"
    }
  }, {
    "fullUrl": "https://madie.cms.gov/Organization/7252d4bd-a803-48fe-8407-7ff8e6714eaa",
    "resource": {
      "resourceType": "Organization",
      "id": "7252d4bd-a803-48fe-8407-7ff8e6714eaa",
      "meta": {
        "profile": [ "http://hl7.org/fhir/us/qicore/StructureDefinition/qicore-organization" ]
      },
      "identifier": [ {
        "use": "temp",
        "system": "urn:oid:2.16.840.1.113883.4.4",
        "value": "21-3259825"
      } ],
      "active": true,
      "type": [ {
        "coding": [ {
          "system": "http://terminology.hl7.org/CodeSystem/organization-type",
          "code": "pay",
          "display": "Payer"
        } ]
      } ],
      "name": "Blue Cross Blue Shield of Texas",
      "telecom": [ {
        "system": "phone",
        "value": "(+1) 972-766-6900"
      } ],
      "address": [ {
        "use": "billing",
        "type": "postal",
        "line": [ "P.O. Box 660044" ],
        "city": "Dallas",
        "state": "TX",
        "postalCode": "75266-0044",
        "country": "USA"
      } ]
    },
    "request": {
      "method": "PUT",
      "url": "Organization/7252d4bd-a803-48fe-8407-7ff8e6714eaa"
    }
  }, {
    "fullUrl": "https://madie.cms.gov/Practitioner/aea4f275-ab00-45b3-9f66-bf356fbe25b3",
    "resource": {
      "resourceType": "Practitioner",
      "id": "aea4f275-ab00-45b3-9f66-bf356fbe25b3",
      "identifier": [ {
        "system": "http://hl7.org/fhir/sid/us-npi",
        "value": "123456"
      } ],
      "name": [ {
        "family": "Evil",
        "prefix": [ "Dr" ]
      } ]
    },
    "request": {
      "method": "PUT",
      "url": "Practitioner/aea4f275-ab00-45b3-9f66-bf356fbe25b3"
    }
  }, {
    "fullUrl": "https://madie.cms.gov/MeasureReport/a3c3b10f-36ae-4511-8cfa-e5d165a9aa38",
    "resource": {
      "resourceType": "MeasureReport",
      "id": "a3c3b10f-36ae-4511-8cfa-e5d165a9aa38",
      "meta": {
        "profile": [ "http://hl7.org/fhir/us/cqfmeasures/StructureDefinition/test-case-cqfm" ]
      },
      "contained": [ {
        "resourceType": "Parameters",
        "id": "5d0ac308-a287-410c-8601-2f40865848e8-parameters",
        "parameter": [ {
          "name": "subject",
          "valueString": "fee36f91-f35f-4d50-a89c-51ecd0d3ee4f"
        } ]
      } ],
      "extension": [ {
        "url": "http://hl7.org/fhir/StructureDefinition/cqf-inputParameters",
        "valueReference": {
          "reference": "#5d0ac308-a287-410c-8601-2f40865848e8-parameters"
        }
      }, {
        "url": "http://hl7.org/fhir/us/cqfmeasures/StructureDefinition/cqfm-testCaseDescription",
        "valueMarkdown": "medical reasons for not receiving all devices and warfarin in ED but ED is 1 day before adm\n"
      } ],
      "modifierExtension": [ {
        "url": "http://hl7.org/fhir/us/cqfmeasures/StructureDefinition/cqfm-isTestCase",
        "valueBoolean": true
      } ],
      "status": "complete",
      "type": "individual",
      "measure": "https://madie.cms.gov/Measure/CMS108FHIRVTEProphylaxis",
      "period": {
        "start": "2026-01-01",
        "end": "2026-12-31"
      },
      "group": [ {
        "id": "Group_1",
        "population": [ {
          "id": "InitialPopulation_1",
          "code": {
            "coding": [ {
              "system": "http://terminology.hl7.org/CodeSystem/measure-population",
              "code": "initial-population",
              "display": "Initial Population"
            } ]
          },
          "count": 1
        }, {
          "id": "Denominator_1",
          "code": {
            "coding": [ {
              "system": "http://terminology.hl7.org/CodeSystem/measure-population",
              "code": "denominator",
              "display": "Denominator"
            } ]
          },
          "count": 1
        }, {
          "id": "DenominatorExclusion_1",
          "code": {
            "coding": [ {
              "system": "http://terminology.hl7.org/CodeSystem/measure-population",
              "code": "denominator-exclusion",
              "display": "Denominator Exclusion"
            } ]
          },
          "count": 0
        }, {
          "id": "Numerator_1",
          "code": {
            "coding": [ {
              "system": "http://terminology.hl7.org/CodeSystem/measure-population",
              "code": "numerator",
              "display": "Numerator"
            } ]
          },
          "count": 0
        } ],
        "measureScore": {
          "value": 0.0
        }
      } ],
      "evaluatedResource": [ {
        "reference": "Patient/fee36f91-f35f-4d50-a89c-51ecd0d3ee4f"
      }, {
        "reference": "Encounter/2bc46972-e12d-444e-9906-e2ef18faad71"
      }, {
        "reference": "Encounter/6a0b5843-d019-4716-842c-d4211f20a5b2"
      }, {
        "reference": "Coverage/b9162925-d0a7-4a78-af35-0c2ced725f6e"
      }, {
        "reference": "MedicationAdministration/0a965545-4139-46ba-8150-eabc3341be0b"
      }, {
        "reference": "Procedure/283d85e7-3200-4019-aea2-269e7199398e"
      }, {
        "reference": "Organization/7252d4bd-a803-48fe-8407-7ff8e6714eaa"
      }, {
        "reference": "Practitioner/aea4f275-ab00-45b3-9f66-bf356fbe25b3"
      } ]
    },
    "request": {
      "method": "PUT",
      "url": "MeasureReport/a3c3b10f-36ae-4511-8cfa-e5d165a9aa38"
    }
  } ]
}