{
  "resourceType": "Bundle",
  "id": "60f82c2e98086b570510e298",
  "type": "transaction",
  "entry": [ {
    "fullUrl": "https://madie.cms.gov/Patient/93798745-af1c-4eb6-8dc4-446a531c05a4",
    "resource": {
      "resourceType": "Patient",
      "id": "93798745-af1c-4eb6-8dc4-446a531c05a4",
      "meta": {
        "profile": [ "http://hl7.org/fhir/us/qicore/StructureDefinition/qicore-patient" ]
      },
      "text": {
        "status": "generated",
        "div": "<div xmlns=\"http://www.w3.org/1999/xhtml\"><div class=\"hapiHeaderText\">MedAntithromboticStart_eq1dayDuringEncIPwEd <b>NUMERFAIL - 3061 </b></div><table class=\"hapiPropertyTable\"><tbody><tr><td>Identifier</td><td>efb6046ae135027a64d1fa1873b580614d445125bf8cff274eca2380ad404ec9</td></tr><tr><td>Date of birth</td><td><span>26 September 1975</span></td></tr></tbody></table></div>"
      },
      "extension": [ {
        "url": "http://hl7.org/fhir/us/core/StructureDefinition/us-core-race",
        "extension": [ {
          "url": "ombCategory",
          "valueCoding": {
            "system": "urn:oid:2.16.840.1.113883.6.238",
            "code": "2054-5",
            "display": "Black or African American",
            "userSelected": true
          }
        }, {
          "url": "text",
          "valueString": "Black or African American"
        } ]
      }, {
        "url": "http://hl7.org/fhir/us/core/StructureDefinition/us-core-ethnicity",
        "extension": [ {
          "url": "ombCategory",
          "valueCoding": {
            "system": "urn:oid:2.16.840.1.113883.6.238",
            "code": "2186-5",
            "display": "Not Hispanic or Latino",
            "userSelected": true
          }
        }, {
          "url": "text",
          "valueString": "Not Hispanic or Latino"
        } ]
      } ],
      "identifier": [ {
        "type": {
          "coding": [ {
            "system": "http://terminology.hl7.org/CodeSystem/v2-0203",
            "code": "MR"
          } ]
        },
        "system": "https://bonnie-fhir.healthit.gov/",
        "value": "60f82c2e98086b570510e298"
      } ],
      "active": true,
      "name": [ {
        "use": "usual",
        "family": "NUMERPass - 3061",
        "given": [ "MedAntithromboticStarteq1dayDuringEncIPwEd" ]
      } ],
      "gender": "female",
      "birthDate": "1976-09-26"
    },
    "request": {
      "method": "PUT",
      "url": "Patient/93798745-af1c-4eb6-8dc4-446a531c05a4"
    }
  }, {
    "fullUrl": "https://madie.cms.gov/Encounter/b6b10366-b3ae-4a4f-9512-d6b8e96bcdbd",
    "resource": {
      "resourceType": "Encounter",
      "id": "b6b10366-b3ae-4a4f-9512-d6b8e96bcdbd",
      "meta": {
        "profile": [ "http://hl7.org/fhir/us/qicore/StructureDefinition/qicore-encounter" ]
      },
      "status": "finished",
      "class": {
        "system": "http://terminology.hl7.org/CodeSystem/v3-ActCode",
        "code": "EMER",
        "display": "emergency"
      },
      "type": [ {
        "coding": [ {
          "system": "http://snomed.info/sct",
          "code": "4525004"
        } ]
      } ],
      "subject": {
        "reference": "Patient/93798745-af1c-4eb6-8dc4-446a531c05a4"
      },
      "period": {
        "start": "2026-10-10T01:00:00.000+00:00",
        "end": "2026-10-11T01:59:00.000+00:00"
      },
      "length": {
        "value": 1,
        "unit": "days"
      }
    },
    "request": {
      "method": "PUT",
      "url": "Encounter/b6b10366-b3ae-4a4f-9512-d6b8e96bcdbd"
    }
  }, {
    "fullUrl": "https://madie.cms.gov/Encounter/af282963-ac51-4362-bb9b-5578ee390a80",
    "resource": {
      "resourceType": "Encounter",
      "id": "af282963-ac51-4362-bb9b-5578ee390a80",
      "meta": {
        "profile": [ "http://hl7.org/fhir/us/qicore/StructureDefinition/qicore-encounter" ]
      },
      "status": "finished",
      "class": {
        "system": "http://terminology.hl7.org/CodeSystem/v3-ActCode",
        "code": "IMP",
        "display": "inpatient encounter"
      },
      "type": [ {
        "coding": [ {
          "system": "http://snomed.info/sct",
          "code": "32485007"
        } ]
      } ],
      "subject": {
        "reference": "Patient/93798745-af1c-4eb6-8dc4-446a531c05a4"
      },
      "period": {
        "start": "2026-10-11T02:00:00.000+00:00",
        "end": "2026-10-15T11:30:00.000+00:00"
      },
      "length": {
        "value": 4,
        "unit": "days"
      },
      "reasonReference": [ {
        "reference": "Condition/6441019b-cdb9-4aa6-87d2-35fe4ae1603d"
      } ]
    },
    "request": {
      "method": "PUT",
      "url": "Encounter/af282963-ac51-4362-bb9b-5578ee390a80"
    }
  }, {
    "fullUrl": "https://madie.cms.gov/claim/5ca62962b8484628b8de1ec5",
    "resource": {
      "resourceType": "Claim",
      "id": "5ca62962b8484628b8de1ec5",
      "meta": {
        "profile": [ "http://hl7.org/fhir/us/qicore/StructureDefinition/qicore-claim" ]
      },
      "status": "active",
      "type": {
        "coding": [ {
          "system": "http://terminology.hl7.org/CodeSystem/claim-type",
          "code": "institutional"
        } ]
      },
      "use": "claim",
      "patient": {
        "reference": "Patient/d170a0a8-b5ad-4303-b6df-e304dd5f92ad"
      },
      "created": "2026-12-01",
      "provider": {
        "reference": "Practitioner/e07e653e-e942-4b27-8a59-e5a63b9a8c68"
      },
      "priority": {
        "coding": [ {
          "system": "http://terminology.hl7.org/CodeSystem/processpriority",
          "code": "normal"
        } ]
      },
      "diagnosis": [ {
        "sequence": 1,
        "diagnosisCodeableConcept": {
          "coding": [ {
            "system": "http://hl7.org/fhir/sid/icd-10-cm",
            "code": "I63.00"
          } ]
        },
        "type": [ {
          "coding": [ {
            "system": "http://terminology.hl7.org/CodeSystem/ex-diagnosistype",
            "code": "principal"
          } ]
        } ]
      } ],
      "insurance": [ {
        "sequence": 1,
        "focal": true,
        "coverage": {
          "reference": "Coverage/5fa041661c76ba66d9959367"
        }
      } ],
      "item": [ {
        "sequence": 1,
        "diagnosisSequence": [ 1 ],
        "productOrService": {
          "coding": [ {
            "system": "http://terminology.hl7.org/CodeSystem/ex-USCLS",
            "code": "99555"
          } ]
        },
        "encounter": [ {
          "reference": "Encounter/af282963-ac51-4362-bb9b-5578ee390a80"
        } ]
      } ]
    },
    "request": {
      "method": "PUT",
      "url": "Claim/5ca62962b8484628b8de1ec5"
    }
  }, {
    "fullUrl": "https://madie.cms.gov/MedicationAdministration/3426ef2f-c3ed-4b76-9958-89f302c1aaa1",
    "resource": {
      "resourceType": "MedicationAdministration",
      "id": "3426ef2f-c3ed-4b76-9958-89f302c1aaa1",
      "meta": {
        "profile": [ "http://hl7.org/fhir/us/qicore/StructureDefinition/qicore-medicationadministration" ]
      },
      "status": "completed",
      "medicationCodeableConcept": {
        "coding": [ {
          "system": "http://www.nlm.nih.gov/research/umls/rxnorm",
          "code": "198466"
        } ]
      },
      "subject": {
        "reference": "Patient/93798745-af1c-4eb6-8dc4-446a531c05a4"
      },
      "effectivePeriod": {
        "start": "2026-10-11T23:59:00.000+00:00"
      }
    },
    "request": {
      "method": "PUT",
      "url": "MedicationAdministration/3426ef2f-c3ed-4b76-9958-89f302c1aaa1"
    }
  }, {
    "fullUrl": "https://madie.cms.gov/Coverage/a062400a-c27f-4a9d-8b55-288be7dafd14",
    "resource": {
      "resourceType": "Coverage",
      "id": "a062400a-c27f-4a9d-8b55-288be7dafd14",
      "status": "active",
      "subscriberId": "523435",
      "beneficiary": {
        "reference": "Patient/93798745-af1c-4eb6-8dc4-446a531c05a4"
      },
      "relationship": {
        "coding": [ {
          "system": "http://terminology.hl7.org/CodeSystem/subscriber-relationship",
          "code": "self"
        } ]
      },
      "period": {
        "start": "1976-09-26T08:00:00.000+00:00"
      },
      "payor": [ {
        "reference": "Organization/0efbc7a2-406a-474b-b22a-b074f9e9cd3c"
      } ]
    },
    "request": {
      "method": "PUT",
      "url": "Coverage/a062400a-c27f-4a9d-8b55-288be7dafd14"
    }
  }, {
    "fullUrl": "https://madie.cms.gov/Condition/6441019b-cdb9-4aa6-87d2-35fe4ae1603d",
    "resource": {
      "resourceType": "Condition",
      "id": "6441019b-cdb9-4aa6-87d2-35fe4ae1603d",
      "meta": {
        "profile": [ "http://hl7.org/fhir/us/qicore/StructureDefinition/qicore-condition-problems-health-concerns" ]
      },
      "clinicalStatus": {
        "coding": [ {
          "system": "http://terminology.hl7.org/CodeSystem/condition-clinical",
          "code": "active"
        } ]
      },
      "verificationStatus": {
        "coding": [ {
          "system": "http://terminology.hl7.org/CodeSystem/condition-ver-status",
          "code": "confirmed"
        } ]
      },
      "category": [ {
        "coding": [ {
          "system": "http://terminology.hl7.org/CodeSystem/condition-category",
          "code": "encounter-diagnosis",
          "display": "Encounter Diagnosis"
        } ]
      } ],
      "code": {
        "coding": [ {
          "system": "http://snomed.info/sct",
          "version": "2020-09",
          "code": "111297002",
          "display": "Nonparalytic stroke (disorder)",
          "userSelected": true
        } ]
      },
      "subject": {
        "reference": "Patient/93798745-af1c-4eb6-8dc4-446a531c05a4"
      },
      "recordedDate": "2026-08-16T08:00:00.000+00:00"
    },
    "request": {
      "method": "PUT",
      "url": "Condition/6441019b-cdb9-4aa6-87d2-35fe4ae1603d"
    }
  }, {
    "fullUrl": "https://madie.cms.gov/Organization/0efbc7a2-406a-474b-b22a-b074f9e9cd3c",
    "resource": {
      "resourceType": "Organization",
      "id": "0efbc7a2-406a-474b-b22a-b074f9e9cd3c",
      "meta": {
        "profile": [ "http://hl7.org/fhir/us/qicore/StructureDefinition/qicore-organization" ]
      },
      "identifier": [ {
        "use": "temp",
        "system": "urn:oid:2.16.840.1.113883.4.4",
        "value": "21-3259825"
      } ],
      "active": true,
      "type": [ {
        "coding": [ {
          "system": "http://terminology.hl7.org/CodeSystem/organization-type",
          "code": "pay",
          "display": "Payer"
        } ]
      } ],
      "name": "Blue Cross Blue Shield of Texas",
      "telecom": [ {
        "system": "phone",
        "value": "(+1) 972-766-6900"
      } ],
      "address": [ {
        "use": "billing",
        "type": "postal",
        "line": [ "P.O. Box 660044" ],
        "city": "Dallas",
        "state": "TX",
        "postalCode": "75266-0044",
        "country": "USA"
      } ]
    },
    "request": {
      "method": "PUT",
      "url": "Organization/0efbc7a2-406a-474b-b22a-b074f9e9cd3c"
    }
  }, {
    "fullUrl": "https://madie.cms.gov/Practitioner/e07e653e-e942-4b27-8a59-e5a63b9a8c68",
    "resource": {
      "resourceType": "Practitioner",
      "id": "e07e653e-e942-4b27-8a59-e5a63b9a8c68",
      "meta": {
        "profile": [ "http://hl7.org/fhir/us/qicore/StructureDefinition/qicore-practitioner" ]
      },
      "identifier": [ {
        "system": "http://hl7.org/fhir/sid/us-npi",
        "value": "9999999896"
      } ],
      "name": [ {
        "family": "Evil",
        "prefix": [ "Dr" ]
      } ]
    },
    "request": {
      "method": "PUT",
      "url": "Practitioner/e07e653e-e942-4b27-8a59-e5a63b9a8c68"
    }
  }, {
    "fullUrl": "https://madie.cms.gov/MeasureReport/2e196f11-19d1-45dc-be57-28eeba495200",
    "resource": {
      "resourceType": "MeasureReport",
      "id": "2e196f11-19d1-45dc-be57-28eeba495200",
      "meta": {
        "profile": [ "http://hl7.org/fhir/us/cqfmeasures/StructureDefinition/test-case-cqfm" ]
      },
      "contained": [ {
        "resourceType": "Parameters",
        "id": "07f14797-d021-47c1-8e1a-16e53a848a16-parameters",
        "parameter": [ {
          "name": "subject",
          "valueString": "93798745-af1c-4eb6-8dc4-446a531c05a4"
        } ]
      } ],
      "extension": [ {
        "url": "http://hl7.org/fhir/StructureDefinition/cqf-inputParameters",
        "valueReference": {
          "reference": "#07f14797-d021-47c1-8e1a-16e53a848a16-parameters"
        }
      }, {
        "url": "http://hl7.org/fhir/us/cqfmeasures/StructureDefinition/cqfm-testCaseDescription",
        "valueMarkdown": "Patient receives antithrombotic in = 1 day after IP encounter starts. global.\"Hospitalization\" =(IP)\n"
      } ],
      "modifierExtension": [ {
        "url": "http://hl7.org/fhir/us/cqfmeasures/StructureDefinition/cqfm-isTestCase",
        "valueBoolean": true
      } ],
      "status": "complete",
      "type": "individual",
      "measure": "https://madie.cms.gov/Measure/CMS72FHIRSTKAntithromboticDay2",
      "period": {
        "start": "2026-01-01",
        "end": "2026-12-31"
      },
      "group": [ {
        "id": "Group_1",
        "population": [ {
          "id": "InitialPopulation_1",
          "code": {
            "coding": [ {
              "system": "http://terminology.hl7.org/CodeSystem/measure-population",
              "code": "initial-population",
              "display": "Initial Population"
            } ]
          },
          "count": 1
        }, {
          "id": "Denominator_1",
          "code": {
            "coding": [ {
              "system": "http://terminology.hl7.org/CodeSystem/measure-population",
              "code": "denominator",
              "display": "Denominator"
            } ]
          },
          "count": 1
        }, {
          "id": "DenominatorExclusion_1",
          "code": {
            "coding": [ {
              "system": "http://terminology.hl7.org/CodeSystem/measure-population",
              "code": "denominator-exclusion",
              "display": "Denominator Exclusion"
            } ]
          },
          "count": 0
        }, {
          "id": "Numerator_1",
          "code": {
            "coding": [ {
              "system": "http://terminology.hl7.org/CodeSystem/measure-population",
              "code": "numerator",
              "display": "Numerator"
            } ]
          },
          "count": 1
        }, {
          "id": "DenominatorException_1",
          "code": {
            "coding": [ {
              "system": "http://terminology.hl7.org/CodeSystem/measure-population",
              "code": "denominator-exception",
              "display": "Denominator Exception"
            } ]
          },
          "count": 0
        } ],
        "measureScore": {
          "value": 0.0
        }
      } ],
      "evaluatedResource": [ {
        "reference": "Patient/93798745-af1c-4eb6-8dc4-446a531c05a4"
      }, {
        "reference": "Encounter/b6b10366-b3ae-4a4f-9512-d6b8e96bcdbd"
      }, {
        "reference": "Encounter/af282963-ac51-4362-bb9b-5578ee390a80"
      }, {
        "reference": "Claim/5ca62962b8484628b8de1ec5"
      }, {
        "reference": "MedicationAdministration/3426ef2f-c3ed-4b76-9958-89f302c1aaa1"
      }, {
        "reference": "Coverage/a062400a-c27f-4a9d-8b55-288be7dafd14"
      }, {
        "reference": "Condition/6441019b-cdb9-4aa6-87d2-35fe4ae1603d"
      }, {
        "reference": "Organization/0efbc7a2-406a-474b-b22a-b074f9e9cd3c"
      }, {
        "reference": "Practitioner/e07e653e-e942-4b27-8a59-e5a63b9a8c68"
      } ]
    },
    "request": {
      "method": "PUT",
      "url": "MeasureReport/2e196f11-19d1-45dc-be57-28eeba495200"
    }
  } ]
}