{
  "resourceType": "Bundle",
  "id": "632336b2414ba67d4e1d1c36",
  "type": "transaction",
  "entry": [ {
    "fullUrl": "https://madie.cms.gov/Patient/d1355827-93ec-465f-b776-b9129495acb7",
    "resource": {
      "resourceType": "Patient",
      "id": "d1355827-93ec-465f-b776-b9129495acb7",
      "meta": {
        "profile": [ "http://hl7.org/fhir/us/qicore/StructureDefinition/qicore-patient" ]
      },
      "extension": [ {
        "url": "http://hl7.org/fhir/us/core/StructureDefinition/us-core-race",
        "extension": [ {
          "url": "ombCategory",
          "valueCoding": {
            "system": "urn:oid:2.16.840.1.113883.6.238",
            "code": "2106-3",
            "display": "White",
            "userSelected": true
          }
        }, {
          "url": "text",
          "valueString": "Other Race"
        } ]
      }, {
        "url": "http://hl7.org/fhir/us/core/StructureDefinition/us-core-ethnicity",
        "extension": [ {
          "url": "ombCategory",
          "valueCoding": {
            "system": "urn:oid:2.16.840.1.113883.6.238",
            "code": "2135-2",
            "display": "Hispanic or Latino",
            "userSelected": true
          }
        }, {
          "url": "text",
          "valueString": "Hispanic or Latino"
        } ]
      } ],
      "identifier": [ {
        "system": "http://hospital.smarthealthit.org",
        "value": "999999999"
      } ],
      "name": [ {
        "family": "IPPFail",
        "given": [ "EncounterAndBenzoAfterMP" ]
      } ],
      "gender": "male",
      "birthDate": "2006-12-31"
    },
    "request": {
      "method": "PUT",
      "url": "Patient/d1355827-93ec-465f-b776-b9129495acb7"
    }
  }, {
    "fullUrl": "https://madie.cms.gov/Encounter/fa018a21-1423-413a-8074-5c21a2854139",
    "resource": {
      "resourceType": "Encounter",
      "id": "fa018a21-1423-413a-8074-5c21a2854139",
      "meta": {
        "profile": [ "http://hl7.org/fhir/us/qicore/StructureDefinition/qicore-encounter" ]
      },
      "status": "finished",
      "class": {
        "system": "http://terminology.hl7.org/CodeSystem/v3-ActCode",
        "code": "IMP",
        "display": "inpatient encounter"
      },
      "type": [ {
        "coding": [ {
          "system": "http://snomed.info/sct",
          "code": "183452005",
          "display": "Emergency hospital admission (procedure)",
          "userSelected": true
        } ]
      } ],
      "subject": {
        "reference": "Patient/d1355827-93ec-465f-b776-b9129495acb7"
      },
      "period": {
        "start": "2027-01-01T12:00:00.000+00:00",
        "end": "2027-01-05T12:30:00.000+00:00"
      }
    },
    "request": {
      "method": "PUT",
      "url": "Encounter/fa018a21-1423-413a-8074-5c21a2854139"
    }
  }, {
    "fullUrl": "https://madie.cms.gov/MedicationRequest/84ecc222-4a5a-4661-bdb0-d23ad2174c3b",
    "resource": {
      "resourceType": "MedicationRequest",
      "id": "84ecc222-4a5a-4661-bdb0-d23ad2174c3b",
      "meta": {
        "profile": [ "http://hl7.org/fhir/us/qicore/StructureDefinition/qicore-medicationrequest" ]
      },
      "status": "completed",
      "intent": "order",
      "category": [ {
        "coding": [ {
          "system": "http://terminology.hl7.org/CodeSystem/medicationrequest-category",
          "code": "discharge",
          "display": "Discharge",
          "userSelected": true
        } ]
      } ],
      "doNotPerform": false,
      "medicationCodeableConcept": {
        "coding": [ {
          "system": "http://www.nlm.nih.gov/research/umls/rxnorm",
          "code": "1551393",
          "display": "2 ML midazolam 5 MG/ML Prefilled Syringe",
          "userSelected": true
        } ]
      },
      "subject": {
        "reference": "Patient/d1355827-93ec-465f-b776-b9129495acb7"
      },
      "authoredOn": "2027-01-05T12:29:00.000+00:00",
      "requester": {
        "reference": "Practitioner/a23581f5-b2bd-4aa9-9155-6d9249c68490"
      }
    },
    "request": {
      "method": "PUT",
      "url": "MedicationRequest/84ecc222-4a5a-4661-bdb0-d23ad2174c3b"
    }
  }, {
    "fullUrl": "https://madie.cms.gov/Practitioner/a23581f5-b2bd-4aa9-9155-6d9249c68490",
    "resource": {
      "resourceType": "Practitioner",
      "id": "a23581f5-b2bd-4aa9-9155-6d9249c68490",
      "meta": {
        "profile": [ "http://hl7.org/fhir/us/qicore/StructureDefinition/qicore-practitioner" ]
      },
      "identifier": [ {
        "system": "http://hl7.org/fhir/sid/us-npi",
        "value": "9999999896"
      } ],
      "active": true,
      "name": [ {
        "family": "Ramires",
        "given": [ "Alma" ],
        "prefix": [ "Dr" ]
      } ],
      "address": [ {
        "use": "home",
        "line": [ "534 Erewhon St" ],
        "city": "Netherville",
        "state": "IN",
        "postalCode": "46131"
      } ],
      "qualification": [ {
        "identifier": [ {
          "system": "http://goodhealth.org/prIdentifier",
          "value": "12345"
        } ],
        "code": {
          "coding": [ {
            "system": "http://terminology.hl7.org/CodeSystem/v2-0360|2.7",
            "code": "BS",
            "display": "Bachelor of Science"
          } ],
          "text": "Bachelor of Science"
        },
        "period": {
          "start": "1995"
        },
        "issuer": {
          "display": "Example University"
        }
      } ]
    },
    "request": {
      "method": "PUT",
      "url": "Practitioner/a23581f5-b2bd-4aa9-9155-6d9249c68490"
    }
  }, {
    "fullUrl": "https://madie.cms.gov/Coverage/7a178a97-ee30-4092-8a6b-a8164b460c21",
    "resource": {
      "resourceType": "Coverage",
      "id": "7a178a97-ee30-4092-8a6b-a8164b460c21",
      "meta": {
        "profile": [ "http://hl7.org/fhir/us/qicore/StructureDefinition/qicore-coverage" ]
      },
      "status": "active",
      "subscriberId": "523435",
      "beneficiary": {
        "reference": "Patient/d1355827-93ec-465f-b776-b9129495acb7"
      },
      "relationship": {
        "coding": [ {
          "system": "http://terminology.hl7.org/CodeSystem/subscriber-relationship",
          "code": "self"
        } ]
      },
      "payor": [ {
        "reference": "Organization/a95aebe8-3103-4a30-9292-7c556b37bf0e"
      } ]
    },
    "request": {
      "method": "PUT",
      "url": "Coverage/7a178a97-ee30-4092-8a6b-a8164b460c21"
    }
  }, {
    "fullUrl": "https://madie.cms.gov/Organization/a95aebe8-3103-4a30-9292-7c556b37bf0e",
    "resource": {
      "resourceType": "Organization",
      "id": "a95aebe8-3103-4a30-9292-7c556b37bf0e",
      "meta": {
        "profile": [ "http://hl7.org/fhir/us/qicore/StructureDefinition/qicore-organization" ]
      },
      "identifier": [ {
        "use": "temp",
        "system": "urn:oid:2.16.840.1.113883.4.4",
        "value": "21-3259825"
      } ],
      "active": true,
      "type": [ {
        "coding": [ {
          "system": "http://terminology.hl7.org/CodeSystem/organization-type",
          "code": "pay",
          "display": "Payer"
        } ]
      } ],
      "name": "Blue Cross Blue Shield of Texas",
      "telecom": [ {
        "system": "phone",
        "value": "(+1) 972-766-6900"
      } ],
      "address": [ {
        "use": "billing",
        "type": "postal",
        "line": [ "P.O. Box 660044" ],
        "city": "Dallas",
        "state": "TX",
        "postalCode": "75266-0044",
        "country": "USA"
      } ]
    },
    "request": {
      "method": "PUT",
      "url": "Organization/a95aebe8-3103-4a30-9292-7c556b37bf0e"
    }
  }, {
    "fullUrl": "https://madie.cms.gov/MeasureReport/4072351b-6d85-4a8f-a0b3-2bec76cb32d4",
    "resource": {
      "resourceType": "MeasureReport",
      "id": "4072351b-6d85-4a8f-a0b3-2bec76cb32d4",
      "meta": {
        "profile": [ "http://hl7.org/fhir/us/cqfmeasures/StructureDefinition/test-case-cqfm" ]
      },
      "contained": [ {
        "resourceType": "Parameters",
        "id": "c4aceda2-9d2b-4d3f-a7b5-824638e529eb-parameters",
        "parameter": [ {
          "name": "subject",
          "valueString": "d1355827-93ec-465f-b776-b9129495acb7"
        } ]
      } ],
      "extension": [ {
        "url": "http://hl7.org/fhir/StructureDefinition/cqf-inputParameters",
        "valueReference": {
          "reference": "#c4aceda2-9d2b-4d3f-a7b5-824638e529eb-parameters"
        }
      }, {
        "url": "http://hl7.org/fhir/us/cqfmeasures/StructureDefinition/cqfm-testCaseDescription",
        "valueMarkdown": "Encounter starts 1-1 and ends 1-5 following year, and benzo (completed) at discharge"
      } ],
      "modifierExtension": [ {
        "url": "http://hl7.org/fhir/us/cqfmeasures/StructureDefinition/cqfm-isTestCase",
        "valueBoolean": true
      } ],
      "status": "complete",
      "type": "individual",
      "measure": "https://madie.cms.gov/Measure/CMS506FHIRSafeUseofOpioids",
      "period": {
        "start": "2026-01-01",
        "end": "2026-12-31"
      },
      "group": [ {
        "id": "Group_1",
        "population": [ {
          "id": "InitialPopulation_1",
          "code": {
            "coding": [ {
              "system": "http://terminology.hl7.org/CodeSystem/measure-population",
              "code": "initial-population",
              "display": "Initial Population"
            } ]
          },
          "count": 0
        }, {
          "id": "Denominator_1",
          "code": {
            "coding": [ {
              "system": "http://terminology.hl7.org/CodeSystem/measure-population",
              "code": "denominator",
              "display": "Denominator"
            } ]
          },
          "count": 0
        }, {
          "id": "DenominatorExclusion_1",
          "code": {
            "coding": [ {
              "system": "http://terminology.hl7.org/CodeSystem/measure-population",
              "code": "denominator-exclusion",
              "display": "Denominator Exclusion"
            } ]
          },
          "count": 0
        }, {
          "id": "Numerator_1",
          "code": {
            "coding": [ {
              "system": "http://terminology.hl7.org/CodeSystem/measure-population",
              "code": "numerator",
              "display": "Numerator"
            } ]
          },
          "count": 0
        } ],
        "measureScore": {
          "value": 0.0
        }
      } ],
      "evaluatedResource": [ {
        "reference": "Patient/d1355827-93ec-465f-b776-b9129495acb7"
      }, {
        "reference": "Encounter/fa018a21-1423-413a-8074-5c21a2854139"
      }, {
        "reference": "MedicationRequest/84ecc222-4a5a-4661-bdb0-d23ad2174c3b"
      }, {
        "reference": "Practitioner/a23581f5-b2bd-4aa9-9155-6d9249c68490"
      }, {
        "reference": "Coverage/7a178a97-ee30-4092-8a6b-a8164b460c21"
      }, {
        "reference": "Organization/a95aebe8-3103-4a30-9292-7c556b37bf0e"
      } ]
    },
    "request": {
      "method": "PUT",
      "url": "MeasureReport/4072351b-6d85-4a8f-a0b3-2bec76cb32d4"
    }
  } ]
}