{
  "resourceType": "Bundle",
  "id": "NUMERPass-FallNullPOAModerateInjuryNullPOA",
  "type": "transaction",
  "entry": [ {
    "fullUrl": "https://madie.cms.gov/Claim/70ab4c1d-82a8-4f1d-95de-854d44e1a676",
    "resource": {
      "resourceType": "Claim",
      "id": "70ab4c1d-82a8-4f1d-95de-854d44e1a676",
      "meta": {
        "profile": [ "http://hl7.org/fhir/us/qicore/StructureDefinition/qicore-claim" ]
      },
      "status": "active",
      "type": {
        "coding": [ {
          "system": "http://terminology.hl7.org/CodeSystem/claim-type",
          "code": "professional",
          "display": "Professional"
        } ]
      },
      "use": "claim",
      "patient": {
        "reference": "Patient/e3212bfa-f3a9-4323-8993-9ef74c2f8d89"
      },
      "created": "2026-11-12",
      "provider": {
        "reference": "Practitioner/practitioner-1"
      },
      "priority": {
        "coding": [ {
          "system": "http://terminology.hl7.org/CodeSystem/processpriority",
          "code": "normal"
        } ]
      },
      "diagnosis": [ {
        "sequence": 1,
        "diagnosisReference": {
          "reference": "Condition/c1bb45cd-41c4-4de6-8b83-7e208cb1a68f"
        }
      } ],
      "insurance": [ {
        "sequence": 1,
        "focal": true,
        "coverage": {
          "reference": "Coverage/coverage-1"
        }
      } ],
      "item": [ {
        "sequence": 1,
        "diagnosisSequence": [ 1, 2 ],
        "productOrService": {
          "coding": [ {
            "system": "http://terminology.hl7.org/CodeSystem/ex-USCLS",
            "code": "1101"
          } ]
        },
        "encounter": [ {
          "reference": "Encounter/fdcd2210-f866-4b46-8285-fe92b8224575"
        } ]
      } ]
    },
    "request": {
      "method": "PUT",
      "url": "Claim/70ab4c1d-82a8-4f1d-95de-854d44e1a676"
    }
  }, {
    "fullUrl": "https://madie.cms.gov/Claim/1eefade7-d304-4c91-8c99-db4eabb4c99c",
    "resource": {
      "resourceType": "Claim",
      "id": "1eefade7-d304-4c91-8c99-db4eabb4c99c",
      "meta": {
        "profile": [ "http://hl7.org/fhir/us/qicore/StructureDefinition/qicore-claim" ]
      },
      "status": "active",
      "type": {
        "coding": [ {
          "system": "http://terminology.hl7.org/CodeSystem/claim-type",
          "code": "professional",
          "display": "Professional"
        } ]
      },
      "use": "claim",
      "patient": {
        "reference": "Patient/e3212bfa-f3a9-4323-8993-9ef74c2f8d89"
      },
      "created": "2026-11-12",
      "provider": {
        "reference": "Practitioner/practitioner-1"
      },
      "priority": {
        "coding": [ {
          "system": "http://terminology.hl7.org/CodeSystem/processpriority",
          "code": "normal"
        } ]
      },
      "diagnosis": [ {
        "sequence": 2,
        "diagnosisReference": {
          "reference": "Condition/4624b503-fc05-4532-9c76-b39af1b2e091"
        }
      } ],
      "insurance": [ {
        "sequence": 1,
        "focal": true,
        "coverage": {
          "reference": "Coverage/coverage-1"
        }
      } ],
      "item": [ {
        "sequence": 1,
        "diagnosisSequence": [ 1, 2 ],
        "productOrService": {
          "coding": [ {
            "system": "http://terminology.hl7.org/CodeSystem/ex-USCLS",
            "code": "1101"
          } ]
        },
        "encounter": [ {
          "reference": "Encounter/fdcd2210-f866-4b46-8285-fe92b8224575"
        } ]
      } ]
    },
    "request": {
      "method": "PUT",
      "url": "Claim/1eefade7-d304-4c91-8c99-db4eabb4c99c"
    }
  }, {
    "fullUrl": "https://madie.cms.gov/Encounter/fdcd2210-f866-4b46-8285-fe92b8224575",
    "resource": {
      "resourceType": "Encounter",
      "id": "fdcd2210-f866-4b46-8285-fe92b8224575",
      "meta": {
        "profile": [ "http://hl7.org/fhir/us/qicore/StructureDefinition/qicore-encounter" ]
      },
      "status": "finished",
      "class": {
        "system": "http://terminology.hl7.org/CodeSystem/v3-ActCode",
        "code": "IMP",
        "display": "inpatient encounter"
      },
      "type": [ {
        "coding": [ {
          "system": "http://snomed.info/sct",
          "code": "183452005"
        } ]
      } ],
      "subject": {
        "reference": "Patient/e3212bfa-f3a9-4323-8993-9ef74c2f8d89"
      },
      "period": {
        "start": "2026-11-09T11:00:00.000+00:00",
        "end": "2026-11-13T08:15:00.000+00:00"
      },
      "reasonReference": [ {
        "reference": "Condition/c1bb45cd-41c4-4de6-8b83-7e208cb1a68f"
      }, {
        "reference": "Condition/4624b503-fc05-4532-9c76-b39af1b2e091"
      } ]
    },
    "request": {
      "method": "PUT",
      "url": "Encounter/fdcd2210-f866-4b46-8285-fe92b8224575"
    }
  }, {
    "fullUrl": "https://madie.cms.gov/Encounter/63340921-fec3-40f1-b283-d53beb6b972f",
    "resource": {
      "resourceType": "Encounter",
      "id": "63340921-fec3-40f1-b283-d53beb6b972f",
      "meta": {
        "profile": [ "http://hl7.org/fhir/us/qicore/StructureDefinition/qicore-encounter" ]
      },
      "status": "finished",
      "class": {
        "system": "http://terminology.hl7.org/CodeSystem/v3-ActCode",
        "code": "IMP",
        "display": "inpatient encounter"
      },
      "type": [ {
        "coding": [ {
          "system": "http://snomed.info/sct",
          "code": "4525004"
        } ]
      } ],
      "subject": {
        "reference": "Patient/e3212bfa-f3a9-4323-8993-9ef74c2f8d89"
      },
      "period": {
        "start": "2026-11-09T08:00:00.000+00:00",
        "end": "2026-11-09T10:15:00.000+00:00"
      }
    },
    "request": {
      "method": "PUT",
      "url": "Encounter/63340921-fec3-40f1-b283-d53beb6b972f"
    }
  }, {
    "fullUrl": "https://madie.cms.gov/Condition/4624b503-fc05-4532-9c76-b39af1b2e091",
    "resource": {
      "resourceType": "Condition",
      "id": "4624b503-fc05-4532-9c76-b39af1b2e091",
      "meta": {
        "profile": [ "http://hl7.org/fhir/us/qicore/StructureDefinition/qicore-condition-encounter-diagnosis" ]
      },
      "clinicalStatus": {
        "coding": [ {
          "system": "http://terminology.hl7.org/CodeSystem/condition-clinical",
          "code": "active"
        } ]
      },
      "verificationStatus": {
        "coding": [ {
          "system": "http://terminology.hl7.org/CodeSystem/condition-ver-status",
          "code": "confirmed"
        } ]
      },
      "category": [ {
        "coding": [ {
          "system": "http://terminology.hl7.org/CodeSystem/condition-category",
          "code": "encounter-diagnosis",
          "display": "Encounter Diagnosis"
        } ]
      } ],
      "code": {
        "coding": [ {
          "system": "http://hl7.org/fhir/sid/icd-10-cm",
          "code": "W19.XXXA"
        } ]
      },
      "subject": {
        "reference": "Patient/e3212bfa-f3a9-4323-8993-9ef74c2f8d89"
      },
      "encounter": {
        "reference": "Encounter/fdcd2210-f866-4b46-8285-fe92b8224575"
      }
    },
    "request": {
      "method": "PUT",
      "url": "Condition/4624b503-fc05-4532-9c76-b39af1b2e091"
    }
  }, {
    "fullUrl": "https://madie.cms.gov/Condition/c1bb45cd-41c4-4de6-8b83-7e208cb1a68f",
    "resource": {
      "resourceType": "Condition",
      "id": "c1bb45cd-41c4-4de6-8b83-7e208cb1a68f",
      "meta": {
        "profile": [ "http://hl7.org/fhir/us/qicore/StructureDefinition/qicore-condition-encounter-diagnosis" ]
      },
      "clinicalStatus": {
        "coding": [ {
          "system": "http://terminology.hl7.org/CodeSystem/condition-clinical",
          "code": "active"
        } ]
      },
      "verificationStatus": {
        "coding": [ {
          "system": "http://terminology.hl7.org/CodeSystem/condition-ver-status",
          "code": "confirmed"
        } ]
      },
      "category": [ {
        "coding": [ {
          "system": "http://terminology.hl7.org/CodeSystem/condition-category",
          "code": "encounter-diagnosis",
          "display": "Encounter Diagnosis"
        } ]
      } ],
      "code": {
        "coding": [ {
          "system": "http://hl7.org/fhir/sid/icd-10-cm",
          "code": "S01.00XA"
        } ]
      },
      "subject": {
        "reference": "Patient/e3212bfa-f3a9-4323-8993-9ef74c2f8d89"
      },
      "encounter": {
        "reference": "Encounter/fdcd2210-f866-4b46-8285-fe92b8224575"
      }
    },
    "request": {
      "method": "PUT",
      "url": "Condition/c1bb45cd-41c4-4de6-8b83-7e208cb1a68f"
    }
  }, {
    "fullUrl": "https://madie.cms.gov/Patient/e3212bfa-f3a9-4323-8993-9ef74c2f8d89",
    "resource": {
      "resourceType": "Patient",
      "id": "e3212bfa-f3a9-4323-8993-9ef74c2f8d89",
      "meta": {
        "profile": [ "http://hl7.org/fhir/us/qicore/StructureDefinition/qicore-patient" ]
      },
      "extension": [ {
        "url": "http://hl7.org/fhir/us/core/StructureDefinition/us-core-race",
        "extension": [ {
          "url": "ombCategory",
          "valueCoding": {
            "system": "urn:oid:2.16.840.1.113883.6.238",
            "code": "2028-9",
            "display": "Asian",
            "userSelected": true
          }
        }, {
          "url": "text",
          "valueString": "Asian"
        } ]
      }, {
        "url": "http://hl7.org/fhir/us/core/StructureDefinition/us-core-ethnicity",
        "extension": [ {
          "url": "ombCategory",
          "valueCoding": {
            "system": "urn:oid:2.16.840.1.113883.6.238",
            "code": "2186-5",
            "display": "Not Hispanic or Latino",
            "userSelected": true
          }
        }, {
          "url": "text",
          "valueString": "Not Hispanic or Latino"
        } ]
      } ],
      "identifier": [ {
        "type": {
          "coding": [ {
            "system": "http://terminology.hl7.org/CodeSystem/v2-0203",
            "code": "MR"
          } ]
        },
        "system": "https://bonnie-fhir.healthit.gov/",
        "value": "61152a3b98086b7a79cbd7c1"
      } ],
      "active": true,
      "name": [ {
        "use": "usual",
        "family": "NUMERPass",
        "given": [ "FallNullPOAModerateInjuryNullPOA" ]
      } ],
      "gender": "male",
      "birthDate": "2000-09-09"
    },
    "request": {
      "method": "PUT",
      "url": "Patient/e3212bfa-f3a9-4323-8993-9ef74c2f8d89"
    }
  }, {
    "fullUrl": "https://madie.cms.gov/Practitioner/35201124-30f3-4e5d-a868-9866bca104f5",
    "resource": {
      "resourceType": "Practitioner",
      "id": "35201124-30f3-4e5d-a868-9866bca104f5",
      "identifier": [ {
        "system": "http://www.cms.gov/identifiers/pracitioners",
        "value": "P12345"
      } ],
      "name": [ {
        "use": "official",
        "family": "Smith",
        "given": [ "John" ]
      } ],
      "qualification": [ {
        "identifier": [ {
          "system": "http://hl7.org/fhir/sid/us-npi",
          "value": "1234567890"
        } ],
        "code": {
          "coding": [ {
            "system": "http://terminology.hl7.org/CodeSystem/v2-0203",
            "code": "MD",
            "display": "Medical License number"
          } ]
        }
      } ]
    },
    "request": {
      "method": "PUT",
      "url": "Practitioner/35201124-30f3-4e5d-a868-9866bca104f5"
    }
  }, {
    "fullUrl": "https://madie.cms.gov/Coverage/4893e838-c855-49a2-8b97-a8c6f22c7e21",
    "resource": {
      "resourceType": "Coverage",
      "id": "4893e838-c855-49a2-8b97-a8c6f22c7e21",
      "status": "active",
      "beneficiary": {
        "reference": "Patient/e3212bfa-f3a9-4323-8993-9ef74c2f8d89"
      },
      "payor": [ {
        "reference": "Organization/b2bb2624-252e-41bb-bd43-2f73130c8754"
      } ]
    },
    "request": {
      "method": "PUT",
      "url": "Coverage/4893e838-c855-49a2-8b97-a8c6f22c7e21"
    }
  }, {
    "fullUrl": "https://madie.cms.gov/Organization/b2bb2624-252e-41bb-bd43-2f73130c8754",
    "resource": {
      "resourceType": "Organization",
      "id": "b2bb2624-252e-41bb-bd43-2f73130c8754",
      "identifier": [ {
        "system": "http://cms.gov/insurance-ids",
        "value": "AET12345"
      } ],
      "type": [ {
        "coding": [ {
          "system": "http://terminology.hl7.org/CodeSystem/organization-type",
          "code": "prov",
          "display": "Healthcare Provider"
        } ]
      } ],
      "name": "Aetna Insurance",
      "telecom": [ {
        "system": "phone",
        "value": "+1-800-123-4567"
      } ],
      "address": [ {
        "line": [ "123 Main Street" ],
        "city": "Cityville",
        "state": "CA",
        "postalCode": "12345",
        "country": "USA"
      } ]
    },
    "request": {
      "method": "PUT",
      "url": "Organization/b2bb2624-252e-41bb-bd43-2f73130c8754"
    }
  }, {
    "fullUrl": "https://madie.cms.gov/MeasureReport/4556891c-6318-48fc-99f7-646bf5926c0e",
    "resource": {
      "resourceType": "MeasureReport",
      "id": "4556891c-6318-48fc-99f7-646bf5926c0e",
      "meta": {
        "profile": [ "http://hl7.org/fhir/us/cqfmeasures/StructureDefinition/test-case-cqfm" ]
      },
      "contained": [ {
        "resourceType": "Parameters",
        "id": "afa7ca14-423c-4463-9bfa-4ad45d3aaeb7-parameters",
        "parameter": [ {
          "name": "subject",
          "valueString": "e3212bfa-f3a9-4323-8993-9ef74c2f8d89"
        } ]
      } ],
      "extension": [ {
        "url": "http://hl7.org/fhir/StructureDefinition/cqf-inputParameters",
        "valueReference": {
          "reference": "#afa7ca14-423c-4463-9bfa-4ad45d3aaeb7-parameters"
        }
      }, {
        "url": "http://hl7.org/fhir/us/cqfmeasures/StructureDefinition/cqfm-testCaseDescription",
        "valueMarkdown": "Encounter with Fall diag and injury diag both w/null POA flags. Unless POA flags explicitly indicate POA (e.g., N or U) then diagnosis is assumed to be not present on admission. \nMeets Numerator. "
      } ],
      "modifierExtension": [ {
        "url": "http://hl7.org/fhir/us/cqfmeasures/StructureDefinition/cqfm-isTestCase",
        "valueBoolean": true
      } ],
      "status": "complete",
      "type": "individual",
      "measure": "https://madie.cms.gov/Measure/CMS1017FHIRHHFI",
      "period": {
        "start": "2026-01-01",
        "end": "2026-12-31"
      },
      "group": [ {
        "id": "Group_1",
        "population": [ {
          "id": "InitialPopulation_1",
          "code": {
            "coding": [ {
              "system": "http://terminology.hl7.org/CodeSystem/measure-population",
              "code": "initial-population",
              "display": "Initial Population"
            } ]
          },
          "count": 1
        }, {
          "id": "Denominator_1",
          "code": {
            "coding": [ {
              "system": "http://terminology.hl7.org/CodeSystem/measure-population",
              "code": "denominator",
              "display": "Denominator"
            } ]
          },
          "count": 1
        }, {
          "id": "DenominatorExclusion_1",
          "code": {
            "coding": [ {
              "system": "http://terminology.hl7.org/CodeSystem/measure-population",
              "code": "denominator-exclusion",
              "display": "Denominator Exclusion"
            } ]
          },
          "count": 0
        }, {
          "id": "Numerator_1",
          "code": {
            "coding": [ {
              "system": "http://terminology.hl7.org/CodeSystem/measure-population",
              "code": "numerator",
              "display": "Numerator"
            } ]
          },
          "count": 1
        }, {
          "id": "NumeratorExclusion_1",
          "code": {
            "coding": [ {
              "system": "http://terminology.hl7.org/CodeSystem/measure-population",
              "code": "numerator-exclusion",
              "display": "Numerator Exclusion"
            } ]
          },
          "count": 0
        }, {
          "id": "MeasureObservation_1_1_1",
          "code": {
            "coding": [ {
              "system": "http://terminology.hl7.org/CodeSystem/measure-population",
              "code": "measure-observation",
              "display": "Measure Observation"
            } ]
          },
          "count": 4
        }, {
          "id": "MeasureObservation_1_2_1",
          "code": {
            "coding": [ {
              "system": "http://terminology.hl7.org/CodeSystem/measure-population",
              "code": "measure-observation",
              "display": "Measure Observation"
            } ]
          },
          "count": 1
        } ],
        "measureScore": {
          "value": 0.0
        }
      } ],
      "evaluatedResource": [ {
        "reference": "Claim/70ab4c1d-82a8-4f1d-95de-854d44e1a676"
      }, {
        "reference": "Claim/1eefade7-d304-4c91-8c99-db4eabb4c99c"
      }, {
        "reference": "Encounter/fdcd2210-f866-4b46-8285-fe92b8224575"
      }, {
        "reference": "Encounter/63340921-fec3-40f1-b283-d53beb6b972f"
      }, {
        "reference": "Condition/4624b503-fc05-4532-9c76-b39af1b2e091"
      }, {
        "reference": "Condition/c1bb45cd-41c4-4de6-8b83-7e208cb1a68f"
      }, {
        "reference": "Patient/e3212bfa-f3a9-4323-8993-9ef74c2f8d89"
      }, {
        "reference": "Practitioner/35201124-30f3-4e5d-a868-9866bca104f5"
      }, {
        "reference": "Coverage/4893e838-c855-49a2-8b97-a8c6f22c7e21"
      }, {
        "reference": "Organization/b2bb2624-252e-41bb-bd43-2f73130c8754"
      } ]
    },
    "request": {
      "method": "PUT",
      "url": "MeasureReport/4556891c-6318-48fc-99f7-646bf5926c0e"
    }
  } ]
}