{
  "resourceType": "Bundle",
  "id": "DENEXPass-PalliativeCareInterventionDuringMP",
  "type": "transaction",
  "entry": [ {
    "fullUrl": "https://madie.cms.gov/Patient/e2b82999-6313-40af-bc8b-9ddf5f97795f",
    "resource": {
      "resourceType": "Patient",
      "id": "e2b82999-6313-40af-bc8b-9ddf5f97795f",
      "meta": {
        "profile": [ "http://hl7.org/fhir/us/qicore/StructureDefinition/qicore-patient" ]
      },
      "extension": [ {
        "url": "http://hl7.org/fhir/us/core/StructureDefinition/us-core-race",
        "extension": [ {
          "url": "ombCategory",
          "valueCoding": {
            "system": "urn:oid:2.16.840.1.113883.6.238",
            "code": "2028-9",
            "display": "Asian",
            "userSelected": true
          }
        }, {
          "url": "text",
          "valueString": "Asian"
        } ]
      }, {
        "url": "http://hl7.org/fhir/us/core/StructureDefinition/us-core-ethnicity",
        "extension": [ {
          "url": "ombCategory",
          "valueCoding": {
            "system": "urn:oid:2.16.840.1.113883.6.238",
            "code": "2135-2",
            "display": "Hispanic or Latino",
            "userSelected": true
          }
        }, {
          "url": "text",
          "valueString": "Hispanic or Latino"
        } ]
      } ],
      "identifier": [ {
        "type": {
          "coding": [ {
            "system": "http://terminology.hl7.org/CodeSystem/v2-0203",
            "code": "MR"
          } ]
        },
        "system": "http://hospital.smarthealthit.org",
        "value": "999999995"
      } ],
      "name": [ {
        "family": "Bertha",
        "given": [ "Betty" ]
      } ],
      "gender": "female",
      "birthDate": "2007-01-01"
    },
    "request": {
      "method": "PUT",
      "url": "Patient/e2b82999-6313-40af-bc8b-9ddf5f97795f"
    }
  }, {
    "fullUrl": "https://madie.cms.gov/Encounter/4028075a-644d-409d-ba17-edc1f2cf7216",
    "resource": {
      "resourceType": "Encounter",
      "id": "4028075a-644d-409d-ba17-edc1f2cf7216",
      "meta": {
        "profile": [ "http://hl7.org/fhir/us/qicore/StructureDefinition/qicore-encounter" ]
      },
      "status": "finished",
      "class": {
        "system": "http://terminology.hl7.org/CodeSystem/v3-ActCode",
        "code": "AMB",
        "display": "ambulatory"
      },
      "type": [ {
        "coding": [ {
          "system": "http://snomed.info/sct",
          "code": "185460008",
          "display": "Home visit request by patient (procedure)"
        } ]
      } ],
      "subject": {
        "reference": "Patient/e2b82999-6313-40af-bc8b-9ddf5f97795f"
      },
      "period": {
        "start": "2026-01-01T00:00:00.000+00:00",
        "end": "2026-01-01T00:15:00.000+00:00"
      }
    },
    "request": {
      "method": "PUT",
      "url": "Encounter/4028075a-644d-409d-ba17-edc1f2cf7216"
    }
  }, {
    "fullUrl": "https://madie.cms.gov/Condition/bf7a2b3b-ad17-4ad3-b6e2-376169d541ad",
    "resource": {
      "resourceType": "Condition",
      "id": "bf7a2b3b-ad17-4ad3-b6e2-376169d541ad",
      "meta": {
        "profile": [ "http://hl7.org/fhir/us/qicore/StructureDefinition/qicore-condition-encounter-diagnosis" ]
      },
      "clinicalStatus": {
        "coding": [ {
          "system": "http://terminology.hl7.org/CodeSystem/condition-clinical",
          "code": "active"
        } ]
      },
      "category": [ {
        "coding": [ {
          "system": "http://terminology.hl7.org/CodeSystem/condition-category",
          "code": "encounter-diagnosis",
          "display": "Encounter Diagnosis"
        } ]
      } ],
      "code": {
        "coding": [ {
          "system": "http://snomed.info/sct",
          "code": "102781000119107",
          "display": "Sensory neuropathy due to type 1 diabetes mellitus (disorder)"
        } ]
      },
      "subject": {
        "reference": "Patient/e2b82999-6313-40af-bc8b-9ddf5f97795f"
      },
      "onsetDateTime": "2026-01-01T23:59:00.000+00:00"
    },
    "request": {
      "method": "PUT",
      "url": "Condition/bf7a2b3b-ad17-4ad3-b6e2-376169d541ad"
    }
  }, {
    "fullUrl": "https://madie.cms.gov/Procedure/56350c84-448d-4a25-983b-461df189dc5f",
    "resource": {
      "resourceType": "Procedure",
      "id": "56350c84-448d-4a25-983b-461df189dc5f",
      "meta": {
        "profile": [ "http://hl7.org/fhir/us/qicore/StructureDefinition/qicore-procedure" ]
      },
      "extension": [ {
        "url": "http://hl7.org/fhir/us/qicore/StructureDefinition/qicore-recorded",
        "valueDateTime": "2026-12-31T00:00:00.000+00:00"
      } ],
      "status": "completed",
      "code": {
        "coding": [ {
          "system": "http://snomed.info/sct",
          "code": "395694002",
          "display": "Specialist palliative care treatment - daycare (regime/therapy)"
        } ]
      },
      "subject": {
        "reference": "Patient/e2b82999-6313-40af-bc8b-9ddf5f97795f"
      },
      "performedPeriod": {
        "start": "2026-12-31T00:00:00.000+00:00",
        "end": "2026-12-31T23:59:59.000+00:00"
      }
    },
    "request": {
      "method": "PUT",
      "url": "Procedure/56350c84-448d-4a25-983b-461df189dc5f"
    }
  }, {
    "fullUrl": "https://madie.cms.gov/MeasureReport/57b71351-8c5b-4c1e-b26d-537e727a527c",
    "resource": {
      "resourceType": "MeasureReport",
      "id": "57b71351-8c5b-4c1e-b26d-537e727a527c",
      "meta": {
        "profile": [ "http://hl7.org/fhir/us/cqfmeasures/StructureDefinition/test-case-cqfm" ]
      },
      "contained": [ {
        "resourceType": "Parameters",
        "id": "27f10367-4e10-4dc7-b672-3621dc98e1d0-parameters",
        "parameter": [ {
          "name": "subject",
          "valueString": "e2b82999-6313-40af-bc8b-9ddf5f97795f"
        } ]
      } ],
      "extension": [ {
        "url": "http://hl7.org/fhir/StructureDefinition/cqf-inputParameters",
        "valueReference": {
          "reference": "#27f10367-4e10-4dc7-b672-3621dc98e1d0-parameters"
        }
      }, {
        "url": "http://hl7.org/fhir/us/cqfmeasures/StructureDefinition/cqfm-testCaseDescription",
        "valueMarkdown": "Palliative care intervention during the MP"
      } ],
      "modifierExtension": [ {
        "url": "http://hl7.org/fhir/us/cqfmeasures/StructureDefinition/cqfm-isTestCase",
        "valueBoolean": true
      } ],
      "status": "complete",
      "type": "individual",
      "measure": "https://madie.cms.gov/Measure/CMS122FHIRDiabetesAssessGT9Pct",
      "period": {
        "start": "2026-01-01",
        "end": "2026-12-31"
      },
      "group": [ {
        "id": "Group_1",
        "population": [ {
          "id": "InitialPopulation_1",
          "code": {
            "coding": [ {
              "system": "http://terminology.hl7.org/CodeSystem/measure-population",
              "code": "initial-population",
              "display": "Initial Population"
            } ]
          },
          "count": 1
        }, {
          "id": "Denominator_1",
          "code": {
            "coding": [ {
              "system": "http://terminology.hl7.org/CodeSystem/measure-population",
              "code": "denominator",
              "display": "Denominator"
            } ]
          },
          "count": 1
        }, {
          "id": "DenominatorExclusion_1",
          "code": {
            "coding": [ {
              "system": "http://terminology.hl7.org/CodeSystem/measure-population",
              "code": "denominator-exclusion",
              "display": "Denominator Exclusion"
            } ]
          },
          "count": 1
        }, {
          "id": "Numerator_1",
          "code": {
            "coding": [ {
              "system": "http://terminology.hl7.org/CodeSystem/measure-population",
              "code": "numerator",
              "display": "Numerator"
            } ]
          },
          "count": 0
        } ],
        "measureScore": {
          "value": 1.0
        }
      } ],
      "evaluatedResource": [ {
        "reference": "Patient/e2b82999-6313-40af-bc8b-9ddf5f97795f"
      }, {
        "reference": "Encounter/4028075a-644d-409d-ba17-edc1f2cf7216"
      }, {
        "reference": "Condition/bf7a2b3b-ad17-4ad3-b6e2-376169d541ad"
      }, {
        "reference": "Procedure/56350c84-448d-4a25-983b-461df189dc5f"
      } ]
    },
    "request": {
      "method": "PUT",
      "url": "MeasureReport/57b71351-8c5b-4c1e-b26d-537e727a527c"
    }
  } ]
}