{
  "resourceType": "Bundle",
  "id": "63233710414ba67d4e1d1c37",
  "type": "transaction",
  "entry": [ {
    "fullUrl": "https://madie.cms.gov/Patient/c274077a-5842-4b93-afeb-b4cb17d680bb",
    "resource": {
      "resourceType": "Patient",
      "id": "c274077a-5842-4b93-afeb-b4cb17d680bb",
      "meta": {
        "profile": [ "http://hl7.org/fhir/us/qicore/StructureDefinition/qicore-patient" ]
      },
      "extension": [ {
        "url": "http://hl7.org/fhir/us/core/StructureDefinition/us-core-sex",
        "valueCode": "248153007"
      }, {
        "url": "http://hl7.org/fhir/us/core/StructureDefinition/us-core-race",
        "extension": [ {
          "url": "ombCategory",
          "valueCoding": {
            "system": "urn:oid:2.16.840.1.113883.6.238",
            "code": "1002-5",
            "display": "American Indian or Alaska Native",
            "userSelected": true
          }
        }, {
          "url": "text",
          "valueString": "American Indian or Alaska Native"
        } ]
      }, {
        "url": "http://hl7.org/fhir/us/core/StructureDefinition/us-core-ethnicity",
        "extension": [ {
          "url": "ombCategory",
          "valueCoding": {
            "system": "urn:oid:2.16.840.1.113883.6.238",
            "code": "2135-2",
            "display": "Hispanic or Latino",
            "userSelected": true
          }
        }, {
          "url": "text",
          "valueString": "Hispanic or Latino"
        } ]
      } ],
      "identifier": [ {
        "system": "http://hospital.smarthealthit.org",
        "value": "999999999"
      } ],
      "name": [ {
        "family": "IPPFail",
        "given": [ "Age17DayOfEnc" ]
      } ],
      "gender": "male",
      "birthDate": "2008-09-02"
    },
    "request": {
      "method": "PUT",
      "url": "Patient/c274077a-5842-4b93-afeb-b4cb17d680bb"
    }
  }, {
    "fullUrl": "https://madie.cms.gov/Encounter/702c0e1b-a267-42f7-ab27-aafc6646bbc8",
    "resource": {
      "resourceType": "Encounter",
      "id": "702c0e1b-a267-42f7-ab27-aafc6646bbc8",
      "meta": {
        "profile": [ "http://hl7.org/fhir/us/qicore/StructureDefinition/qicore-encounter" ]
      },
      "status": "finished",
      "class": {
        "system": "http://terminology.hl7.org/CodeSystem/v3-ActCode",
        "code": "IMP",
        "display": "inpatient encounter",
        "userSelected": true
      },
      "type": [ {
        "coding": [ {
          "system": "http://snomed.info/sct",
          "code": "183452005",
          "display": "Emergency hospital admission (procedure)",
          "userSelected": true
        } ]
      } ],
      "subject": {
        "reference": "Patient/c274077a-5842-4b93-afeb-b4cb17d680bb"
      },
      "period": {
        "start": "2026-09-01T08:00:00.000+00:00",
        "end": "2026-09-03T10:00:00.000+00:00"
      }
    },
    "request": {
      "method": "PUT",
      "url": "Encounter/702c0e1b-a267-42f7-ab27-aafc6646bbc8"
    }
  }, {
    "fullUrl": "https://madie.cms.gov/MedicationRequest/7e4e120a-2bd7-4b4f-a63b-bfc523d5f1c8",
    "resource": {
      "resourceType": "MedicationRequest",
      "id": "7e4e120a-2bd7-4b4f-a63b-bfc523d5f1c8",
      "meta": {
        "profile": [ "http://hl7.org/fhir/us/qicore/StructureDefinition/qicore-medicationrequest" ]
      },
      "status": "active",
      "intent": "order",
      "category": [ {
        "coding": [ {
          "system": "http://terminology.hl7.org/CodeSystem/medicationrequest-category",
          "code": "discharge",
          "display": "Discharge",
          "userSelected": true
        } ]
      } ],
      "doNotPerform": false,
      "medicationCodeableConcept": {
        "coding": [ {
          "system": "http://www.nlm.nih.gov/research/umls/rxnorm",
          "code": "2569573",
          "display": "24 HR lorazepam 2 MG Extended Release Oral Capsule",
          "userSelected": true
        } ]
      },
      "subject": {
        "reference": "Patient/c274077a-5842-4b93-afeb-b4cb17d680bb"
      },
      "authoredOn": "2026-09-03T09:59:00.000+00:00",
      "requester": {
        "reference": "Practitioner/1dfd6d3b-1708-4360-ba36-be2b079c71e1"
      }
    },
    "request": {
      "method": "PUT",
      "url": "MedicationRequest/7e4e120a-2bd7-4b4f-a63b-bfc523d5f1c8"
    }
  }, {
    "fullUrl": "https://madie.cms.gov/Practitioner/1dfd6d3b-1708-4360-ba36-be2b079c71e1",
    "resource": {
      "resourceType": "Practitioner",
      "id": "1dfd6d3b-1708-4360-ba36-be2b079c71e1",
      "meta": {
        "profile": [ "http://hl7.org/fhir/us/qicore/StructureDefinition/qicore-practitioner" ]
      },
      "identifier": [ {
        "system": "http://hl7.org/fhir/sid/us-npi",
        "value": "9999999896"
      } ],
      "active": true,
      "name": [ {
        "family": "Ramires",
        "given": [ "Alma" ],
        "prefix": [ "Dr" ]
      } ],
      "address": [ {
        "use": "home",
        "line": [ "534 Erewhon St" ],
        "city": "Netherville",
        "state": "IN",
        "postalCode": "46131"
      } ],
      "qualification": [ {
        "identifier": [ {
          "system": "http://goodhealth.org/prIdentifier",
          "value": "12345"
        } ],
        "code": {
          "coding": [ {
            "system": "http://terminology.hl7.org/CodeSystem/v2-0360|2.7",
            "code": "BS",
            "display": "Bachelor of Science"
          } ],
          "text": "Bachelor of Science"
        },
        "period": {
          "start": "1995"
        },
        "issuer": {
          "display": "Example University"
        }
      } ]
    },
    "request": {
      "method": "PUT",
      "url": "Practitioner/1dfd6d3b-1708-4360-ba36-be2b079c71e1"
    }
  }, {
    "fullUrl": "https://madie.cms.gov/Coverage/9f5f5c5f-b20a-445e-9c6d-8ff749ed46ff",
    "resource": {
      "resourceType": "Coverage",
      "id": "9f5f5c5f-b20a-445e-9c6d-8ff749ed46ff",
      "meta": {
        "profile": [ "http://hl7.org/fhir/us/qicore/StructureDefinition/qicore-coverage" ]
      },
      "identifier": [ {
        "system": "http://benefitsinc.com/memberid",
        "value": "12345"
      } ],
      "status": "active",
      "type": {
        "coding": [ {
          "system": "https://nahdo.org/sopt",
          "code": "59",
          "display": "Other Private Insurance"
        } ]
      },
      "policyHolder": {
        "reference": "Patient/c274077a-5842-4b93-afeb-b4cb17d680bb"
      },
      "subscriberId": "523435",
      "beneficiary": {
        "reference": "Patient/c274077a-5842-4b93-afeb-b4cb17d680bb"
      },
      "dependent": "0",
      "relationship": {
        "coding": [ {
          "system": "http://terminology.hl7.org/CodeSystem/subscriber-relationship",
          "code": "self"
        } ]
      },
      "period": {
        "start": "2024-01-01T06:00:00.000+00:00"
      },
      "payor": [ {
        "reference": "Organization/10dd23fb-70f9-4c8f-99ba-64ea3e8b3f18"
      } ]
    },
    "request": {
      "method": "PUT",
      "url": "Coverage/9f5f5c5f-b20a-445e-9c6d-8ff749ed46ff"
    }
  }, {
    "fullUrl": "https://madie.cms.gov/Organization/10dd23fb-70f9-4c8f-99ba-64ea3e8b3f18",
    "resource": {
      "resourceType": "Organization",
      "id": "10dd23fb-70f9-4c8f-99ba-64ea3e8b3f18",
      "meta": {
        "profile": [ "http://hl7.org/fhir/us/qicore/StructureDefinition/qicore-organization" ]
      },
      "identifier": [ {
        "use": "temp",
        "system": "urn:oid:2.16.840.1.113883.4.4",
        "value": "21-3259825"
      } ],
      "active": true,
      "type": [ {
        "coding": [ {
          "system": "http://terminology.hl7.org/CodeSystem/organization-type",
          "code": "pay",
          "display": "Payer"
        } ]
      } ],
      "name": "Blue Cross Blue Shield of Texas",
      "telecom": [ {
        "system": "phone",
        "value": "(+1) 972-766-6900"
      } ],
      "address": [ {
        "use": "billing",
        "type": "postal",
        "line": [ "P.O. Box 660044" ],
        "city": "Dallas",
        "state": "TX",
        "postalCode": "75266-0044",
        "country": "USA"
      } ]
    },
    "request": {
      "method": "PUT",
      "url": "Organization/10dd23fb-70f9-4c8f-99ba-64ea3e8b3f18"
    }
  }, {
    "fullUrl": "https://madie.cms.gov/MeasureReport/fbd8a6c5-cb71-40fc-9430-6a73b94942f1",
    "resource": {
      "resourceType": "MeasureReport",
      "id": "fbd8a6c5-cb71-40fc-9430-6a73b94942f1",
      "meta": {
        "profile": [ "http://hl7.org/fhir/us/cqfmeasures/StructureDefinition/test-case-cqfm" ]
      },
      "contained": [ {
        "resourceType": "Parameters",
        "id": "3eac27e4-4b0d-4ff4-8132-c6a828911eaf-parameters",
        "parameter": [ {
          "name": "subject",
          "valueString": "c274077a-5842-4b93-afeb-b4cb17d680bb"
        } ]
      } ],
      "extension": [ {
        "url": "http://hl7.org/fhir/StructureDefinition/cqf-inputParameters",
        "valueReference": {
          "reference": "#3eac27e4-4b0d-4ff4-8132-c6a828911eaf-parameters"
        }
      }, {
        "url": "http://hl7.org/fhir/us/cqfmeasures/StructureDefinition/cqfm-testCaseDescription",
        "valueMarkdown": "Not 18 (09-02) or older at start of encounter (09-01), benzo prescribed on day of discharge"
      } ],
      "modifierExtension": [ {
        "url": "http://hl7.org/fhir/us/cqfmeasures/StructureDefinition/cqfm-isTestCase",
        "valueBoolean": true
      } ],
      "status": "complete",
      "type": "individual",
      "measure": "https://madie.cms.gov/Measure/CMS506FHIRSafeUseofOpioids",
      "period": {
        "start": "2026-01-01",
        "end": "2026-12-31"
      },
      "group": [ {
        "id": "Group_1",
        "population": [ {
          "id": "InitialPopulation_1",
          "code": {
            "coding": [ {
              "system": "http://terminology.hl7.org/CodeSystem/measure-population",
              "code": "initial-population",
              "display": "Initial Population"
            } ]
          },
          "count": 0
        }, {
          "id": "Denominator_1",
          "code": {
            "coding": [ {
              "system": "http://terminology.hl7.org/CodeSystem/measure-population",
              "code": "denominator",
              "display": "Denominator"
            } ]
          },
          "count": 0
        }, {
          "id": "DenominatorExclusion_1",
          "code": {
            "coding": [ {
              "system": "http://terminology.hl7.org/CodeSystem/measure-population",
              "code": "denominator-exclusion",
              "display": "Denominator Exclusion"
            } ]
          },
          "count": 0
        }, {
          "id": "Numerator_1",
          "code": {
            "coding": [ {
              "system": "http://terminology.hl7.org/CodeSystem/measure-population",
              "code": "numerator",
              "display": "Numerator"
            } ]
          },
          "count": 0
        } ],
        "measureScore": {
          "value": 0.0
        }
      } ],
      "evaluatedResource": [ {
        "reference": "Patient/c274077a-5842-4b93-afeb-b4cb17d680bb"
      }, {
        "reference": "Encounter/702c0e1b-a267-42f7-ab27-aafc6646bbc8"
      }, {
        "reference": "MedicationRequest/7e4e120a-2bd7-4b4f-a63b-bfc523d5f1c8"
      }, {
        "reference": "Practitioner/1dfd6d3b-1708-4360-ba36-be2b079c71e1"
      }, {
        "reference": "Coverage/9f5f5c5f-b20a-445e-9c6d-8ff749ed46ff"
      }, {
        "reference": "Organization/10dd23fb-70f9-4c8f-99ba-64ea3e8b3f18"
      } ]
    },
    "request": {
      "method": "PUT",
      "url": "MeasureReport/fbd8a6c5-cb71-40fc-9430-6a73b94942f1"
    }
  } ]
}