{
  "resourceType": "Bundle",
  "id": "633b3fa00968f80122503d13",
  "type": "transaction",
  "entry": [ {
    "fullUrl": "https://madie.cms.gov/Patient/516e96fa-20cc-458c-8b63-435d78a8bd9a",
    "resource": {
      "resourceType": "Patient",
      "id": "516e96fa-20cc-458c-8b63-435d78a8bd9a",
      "meta": {
        "profile": [ "http://hl7.org/fhir/us/qicore/StructureDefinition/qicore-patient" ]
      },
      "text": {
        "status": "generated",
        "div": "<div xmlns=\"http://www.w3.org/1999/xhtml\"><div class=\"hapiHeaderText\">DelProcRelDtTmEQEDStart <b>IPPASS </b></div><table class=\"hapiPropertyTable\"><tbody><tr><td>Date of birth</td><td><span>31 January 2004</span></td></tr></tbody></table></div>"
      },
      "extension": [ {
        "url": "http://hl7.org/fhir/us/core/StructureDefinition/us-core-race",
        "extension": [ {
          "url": "ombCategory",
          "valueCoding": {
            "system": "urn:oid:2.16.840.1.113883.6.238",
            "code": "1002-5",
            "display": "American Indian or Alaska Native",
            "userSelected": true
          }
        }, {
          "url": "text",
          "valueString": "American Indian or Alaska Native"
        } ]
      }, {
        "url": "http://hl7.org/fhir/us/core/StructureDefinition/us-core-ethnicity",
        "extension": [ {
          "url": "ombCategory",
          "valueCoding": {
            "system": "urn:oid:2.16.840.1.113883.6.238",
            "code": "2135-2",
            "display": "Hispanic or Latino",
            "userSelected": true
          }
        }, {
          "url": "text",
          "valueString": "Hispanic or Latino"
        } ]
      } ],
      "identifier": [ {
        "type": {
          "coding": [ {
            "system": "http://terminology.hl7.org/CodeSystem/v2-0203",
            "code": "MR"
          } ]
        },
        "system": "https://bonnie-fhir.healthit.gov/",
        "value": "633b3fa00968f80122503d13"
      } ],
      "active": true,
      "name": [ {
        "use": "usual",
        "family": "IPPass",
        "given": [ "DelProcRelDtTmEQEDStart" ]
      } ],
      "gender": "female",
      "birthDate": "2005-01-31"
    },
    "request": {
      "method": "PUT",
      "url": "Patient/516e96fa-20cc-458c-8b63-435d78a8bd9a"
    }
  }, {
    "fullUrl": "https://madie.cms.gov/Encounter/19474e94-5931-416f-bf5a-f6a3dc1d18bd",
    "resource": {
      "resourceType": "Encounter",
      "id": "19474e94-5931-416f-bf5a-f6a3dc1d18bd",
      "meta": {
        "profile": [ "http://hl7.org/fhir/us/qicore/StructureDefinition/qicore-encounter" ]
      },
      "status": "finished",
      "class": {
        "system": "http://terminology.hl7.org/CodeSystem/v3-ActCode",
        "code": "IMP",
        "display": "inpatient encounter"
      },
      "type": [ {
        "coding": [ {
          "system": "http://snomed.info/sct",
          "code": "183452005"
        } ]
      } ],
      "subject": {
        "reference": "Patient/516e96fa-20cc-458c-8b63-435d78a8bd9a"
      },
      "period": {
        "start": "2026-02-01T09:00:00.000+00:00",
        "end": "2026-02-05T08:15:00.000+00:00"
      }
    },
    "request": {
      "method": "PUT",
      "url": "Encounter/19474e94-5931-416f-bf5a-f6a3dc1d18bd"
    }
  }, {
    "fullUrl": "https://madie.cms.gov/Encounter/d8ac55a3-175f-46f8-9618-dc2bd2107b6f",
    "resource": {
      "resourceType": "Encounter",
      "id": "d8ac55a3-175f-46f8-9618-dc2bd2107b6f",
      "meta": {
        "profile": [ "http://hl7.org/fhir/us/qicore/StructureDefinition/qicore-encounter" ]
      },
      "status": "finished",
      "class": {
        "system": "http://terminology.hl7.org/CodeSystem/v3-ActCode",
        "code": "IMP",
        "display": "inpatient encounter"
      },
      "type": [ {
        "coding": [ {
          "system": "http://snomed.info/sct",
          "code": "448951000124107"
        } ]
      } ],
      "subject": {
        "reference": "Patient/516e96fa-20cc-458c-8b63-435d78a8bd9a"
      },
      "period": {
        "start": "2026-02-01T08:00:00.000+00:00",
        "end": "2026-02-01T08:59:00.000+00:00"
      }
    },
    "request": {
      "method": "PUT",
      "url": "Encounter/d8ac55a3-175f-46f8-9618-dc2bd2107b6f"
    }
  }, {
    "fullUrl": "https://madie.cms.gov/Encounter/d0dd5d25-430d-46c1-990a-5aee2a1206e2",
    "resource": {
      "resourceType": "Encounter",
      "id": "d0dd5d25-430d-46c1-990a-5aee2a1206e2",
      "meta": {
        "profile": [ "http://hl7.org/fhir/us/qicore/StructureDefinition/qicore-encounter" ]
      },
      "status": "finished",
      "class": {
        "system": "http://terminology.hl7.org/CodeSystem/v3-ActCode",
        "code": "IMP",
        "display": "inpatient encounter"
      },
      "type": [ {
        "coding": [ {
          "system": "http://snomed.info/sct",
          "code": "4525004"
        } ]
      } ],
      "subject": {
        "reference": "Patient/516e96fa-20cc-458c-8b63-435d78a8bd9a"
      },
      "period": {
        "start": "2026-02-01T07:00:00.000+00:00",
        "end": "2026-02-01T07:59:00.000+00:00"
      }
    },
    "request": {
      "method": "PUT",
      "url": "Encounter/d0dd5d25-430d-46c1-990a-5aee2a1206e2"
    }
  }, {
    "fullUrl": "https://madie.cms.gov/Procedure/e2b73269-acd0-4bd1-8042-870e7e84c61a",
    "resource": {
      "resourceType": "Procedure",
      "id": "e2b73269-acd0-4bd1-8042-870e7e84c61a",
      "meta": {
        "profile": [ "http://hl7.org/fhir/us/qicore/StructureDefinition/qicore-procedure" ]
      },
      "extension": [ {
        "url": "http://hl7.org/fhir/us/qicore/StructureDefinition/qicore-recorded",
        "valueDateTime": "2014-04-05T13:35:00.000+00:00"
      } ],
      "status": "completed",
      "code": {
        "coding": [ {
          "system": "http://snomed.info/sct",
          "code": "10745001"
        } ]
      },
      "subject": {
        "reference": "Patient/516e96fa-20cc-458c-8b63-435d78a8bd9a"
      },
      "performedDateTime": "2026-02-01T07:00:00.000+00:00"
    },
    "request": {
      "method": "PUT",
      "url": "Procedure/e2b73269-acd0-4bd1-8042-870e7e84c61a"
    }
  }, {
    "fullUrl": "https://madie.cms.gov/Coverage/af70e56f-f6cd-4da2-a6b2-2813dafd40ed",
    "resource": {
      "resourceType": "Coverage",
      "id": "af70e56f-f6cd-4da2-a6b2-2813dafd40ed",
      "meta": {
        "profile": [ "http://hl7.org/fhir/us/qicore/StructureDefinition/qicore-coverage" ]
      },
      "status": "active",
      "beneficiary": {
        "reference": "Patient/516e96fa-20cc-458c-8b63-435d78a8bd9a"
      },
      "payor": [ {
        "reference": "Organization/64ceefb9-f2ad-4fff-8933-e4e21fe4afe6"
      } ]
    },
    "request": {
      "method": "PUT",
      "url": "Coverage/af70e56f-f6cd-4da2-a6b2-2813dafd40ed"
    }
  }, {
    "fullUrl": "https://madie.cms.gov/Organization/64ceefb9-f2ad-4fff-8933-e4e21fe4afe6",
    "resource": {
      "resourceType": "Organization",
      "id": "64ceefb9-f2ad-4fff-8933-e4e21fe4afe6",
      "meta": {
        "profile": [ "http://hl7.org/fhir/us/qicore/StructureDefinition/qicore-organization" ]
      },
      "identifier": [ {
        "use": "temp",
        "system": "urn:oid:2.16.840.1.113883.4.4",
        "value": "21-3259825"
      } ],
      "active": true,
      "type": [ {
        "coding": [ {
          "system": "http://terminology.hl7.org/CodeSystem/organization-type",
          "code": "pay",
          "display": "Payer"
        } ]
      } ],
      "name": "Blue Cross Blue Shield of Texas",
      "telecom": [ {
        "system": "phone",
        "value": "(+1) 972-766-6900"
      } ],
      "address": [ {
        "use": "billing",
        "type": "postal",
        "line": [ "P.O. Box 660044" ],
        "city": "Dallas",
        "state": "TX",
        "postalCode": "75266-0044",
        "country": "USA"
      } ]
    },
    "request": {
      "method": "PUT",
      "url": "Organization/64ceefb9-f2ad-4fff-8933-e4e21fe4afe6"
    }
  }, {
    "fullUrl": "https://madie.cms.gov/Practitioner/28acc62d-33ca-472e-b5e4-9c1adaed90b4",
    "resource": {
      "resourceType": "Practitioner",
      "id": "28acc62d-33ca-472e-b5e4-9c1adaed90b4",
      "identifier": [ {
        "system": "http://hl7.org/fhir/sid/us-npi",
        "value": "123456"
      } ],
      "name": [ {
        "family": "Evil",
        "prefix": [ "Dr" ]
      } ]
    },
    "request": {
      "method": "PUT",
      "url": "Practitioner/28acc62d-33ca-472e-b5e4-9c1adaed90b4"
    }
  }, {
    "fullUrl": "https://madie.cms.gov/MeasureReport/06078e56-0aef-482e-811e-361d9874c2a6",
    "resource": {
      "resourceType": "MeasureReport",
      "id": "06078e56-0aef-482e-811e-361d9874c2a6",
      "meta": {
        "profile": [ "http://hl7.org/fhir/us/cqfmeasures/StructureDefinition/test-case-cqfm" ]
      },
      "contained": [ {
        "resourceType": "Parameters",
        "id": "70131346-0d71-480f-bfca-34b937483eef-parameters",
        "parameter": [ {
          "name": "subject",
          "valueString": "516e96fa-20cc-458c-8b63-435d78a8bd9a"
        } ]
      } ],
      "extension": [ {
        "url": "http://hl7.org/fhir/StructureDefinition/cqf-inputParameters",
        "valueReference": {
          "reference": "#70131346-0d71-480f-bfca-34b937483eef-parameters"
        }
      }, {
        "url": "http://hl7.org/fhir/us/cqfmeasures/StructureDefinition/cqfm-testCaseDescription",
        "valueMarkdown": "Delivery Procedure rel date/time = ED start.  ED/OBS/IP all meet global hospitalization criteria.\n"
      } ],
      "modifierExtension": [ {
        "url": "http://hl7.org/fhir/us/cqfmeasures/StructureDefinition/cqfm-isTestCase",
        "valueBoolean": true
      } ],
      "status": "complete",
      "type": "individual",
      "measure": "https://madie.cms.gov/Measure/CMS1028FHIRPCSevereOBComps",
      "period": {
        "start": "2026-01-01",
        "end": "2026-12-31"
      },
      "group": [ {
        "id": "Group_1",
        "population": [ {
          "id": "InitialPopulation_1",
          "code": {
            "coding": [ {
              "system": "http://terminology.hl7.org/CodeSystem/measure-population",
              "code": "initial-population",
              "display": "Initial Population"
            } ]
          },
          "count": 1
        }, {
          "id": "Denominator_1",
          "code": {
            "coding": [ {
              "system": "http://terminology.hl7.org/CodeSystem/measure-population",
              "code": "denominator",
              "display": "Denominator"
            } ]
          },
          "count": 0
        }, {
          "id": "Numerator_1",
          "code": {
            "coding": [ {
              "system": "http://terminology.hl7.org/CodeSystem/measure-population",
              "code": "numerator",
              "display": "Numerator"
            } ]
          },
          "count": 0
        }, {
          "id": "NumeratorExclusion_1",
          "code": {
            "coding": [ {
              "system": "http://terminology.hl7.org/CodeSystem/measure-population",
              "code": "numerator-exclusion",
              "display": "Numerator Exclusion"
            } ]
          },
          "count": 0
        } ],
        "measureScore": {
          "value": 0.0
        }
      }, {
        "id": "Group_2",
        "population": [ {
          "id": "InitialPopulation_2",
          "code": {
            "coding": [ {
              "system": "http://terminology.hl7.org/CodeSystem/measure-population",
              "code": "initial-population",
              "display": "Initial Population"
            } ]
          },
          "count": 1
        }, {
          "id": "Denominator_2",
          "code": {
            "coding": [ {
              "system": "http://terminology.hl7.org/CodeSystem/measure-population",
              "code": "denominator",
              "display": "Denominator"
            } ]
          },
          "count": 0
        }, {
          "id": "Numerator_2",
          "code": {
            "coding": [ {
              "system": "http://terminology.hl7.org/CodeSystem/measure-population",
              "code": "numerator",
              "display": "Numerator"
            } ]
          },
          "count": 0
        }, {
          "id": "NumeratorExclusion_2",
          "code": {
            "coding": [ {
              "system": "http://terminology.hl7.org/CodeSystem/measure-population",
              "code": "numerator-exclusion",
              "display": "Numerator Exclusion"
            } ]
          },
          "count": 0
        } ],
        "measureScore": {
          "value": 0.0
        }
      } ],
      "evaluatedResource": [ {
        "reference": "Patient/516e96fa-20cc-458c-8b63-435d78a8bd9a"
      }, {
        "reference": "Encounter/19474e94-5931-416f-bf5a-f6a3dc1d18bd"
      }, {
        "reference": "Encounter/d8ac55a3-175f-46f8-9618-dc2bd2107b6f"
      }, {
        "reference": "Encounter/d0dd5d25-430d-46c1-990a-5aee2a1206e2"
      }, {
        "reference": "Procedure/e2b73269-acd0-4bd1-8042-870e7e84c61a"
      }, {
        "reference": "Coverage/af70e56f-f6cd-4da2-a6b2-2813dafd40ed"
      }, {
        "reference": "Organization/64ceefb9-f2ad-4fff-8933-e4e21fe4afe6"
      }, {
        "reference": "Practitioner/28acc62d-33ca-472e-b5e4-9c1adaed90b4"
      } ]
    },
    "request": {
      "method": "PUT",
      "url": "MeasureReport/06078e56-0aef-482e-811e-361d9874c2a6"
    }
  } ]
}