{
  "resourceType": "Bundle",
  "id": "63233350414ba67d4e1d1c2f",
  "type": "transaction",
  "entry": [ {
    "fullUrl": "https://madie.cms.gov/Patient/81dc5bb4-3273-492a-beff-2f7b0394f3c8",
    "resource": {
      "resourceType": "Patient",
      "id": "81dc5bb4-3273-492a-beff-2f7b0394f3c8",
      "meta": {
        "profile": [ "http://hl7.org/fhir/us/qicore/StructureDefinition/qicore-patient" ]
      },
      "extension": [ {
        "url": "http://hl7.org/fhir/us/core/StructureDefinition/us-core-race",
        "extension": [ {
          "url": "ombCategory",
          "valueCoding": {
            "system": "urn:oid:2.16.840.1.113883.6.238",
            "code": "2028-9",
            "display": "Asian",
            "userSelected": true
          }
        }, {
          "url": "text",
          "valueString": "Asian"
        } ]
      }, {
        "url": "http://hl7.org/fhir/us/core/StructureDefinition/us-core-ethnicity",
        "extension": [ {
          "url": "ombCategory",
          "valueCoding": {
            "system": "urn:oid:2.16.840.1.113883.6.238",
            "code": "2186-5",
            "display": "Not Hispanic or Latino",
            "userSelected": true
          }
        }, {
          "url": "text",
          "valueString": "Not Hispanic or Latino"
        } ]
      } ],
      "identifier": [ {
        "system": "http://hospital.smarthealthit.org",
        "value": "999999999"
      } ],
      "name": [ {
        "family": "DENEXPass",
        "given": [ "HasCancerPainHealthConcern" ]
      } ],
      "gender": "female",
      "birthDate": "1944-02-01"
    },
    "request": {
      "method": "PUT",
      "url": "Patient/81dc5bb4-3273-492a-beff-2f7b0394f3c8"
    }
  }, {
    "fullUrl": "https://madie.cms.gov/Encounter/795eb044-a1f9-41cb-9bb4-537cedb19eb9",
    "resource": {
      "resourceType": "Encounter",
      "id": "795eb044-a1f9-41cb-9bb4-537cedb19eb9",
      "meta": {
        "profile": [ "http://hl7.org/fhir/us/qicore/StructureDefinition/qicore-encounter" ]
      },
      "status": "finished",
      "class": {
        "system": "http://terminology.hl7.org/CodeSystem/v3-ActCode",
        "code": "IMP",
        "display": "inpatient encounter"
      },
      "type": [ {
        "coding": [ {
          "system": "http://snomed.info/sct",
          "code": "183452005",
          "display": "Emergency hospital admission (procedure)",
          "userSelected": true
        } ]
      } ],
      "subject": {
        "reference": "Patient/81dc5bb4-3273-492a-beff-2f7b0394f3c8"
      },
      "period": {
        "start": "2026-01-01T11:45:00.000+00:00",
        "end": "2026-01-03T11:59:00.000+00:00"
      }
    },
    "request": {
      "method": "PUT",
      "url": "Encounter/795eb044-a1f9-41cb-9bb4-537cedb19eb9"
    }
  }, {
    "fullUrl": "https://madie.cms.gov/MedicationRequest/b50b54e2-c14b-4ce3-8598-8860d3d0f315",
    "resource": {
      "resourceType": "MedicationRequest",
      "id": "b50b54e2-c14b-4ce3-8598-8860d3d0f315",
      "meta": {
        "profile": [ "http://hl7.org/fhir/us/qicore/StructureDefinition/qicore-medicationrequest" ]
      },
      "status": "active",
      "intent": "order",
      "category": [ {
        "coding": [ {
          "system": "http://terminology.hl7.org/CodeSystem/medicationrequest-category",
          "code": "discharge",
          "display": "Discharge",
          "userSelected": true
        } ]
      } ],
      "doNotPerform": false,
      "medicationCodeableConcept": {
        "coding": [ {
          "system": "http://www.nlm.nih.gov/research/umls/rxnorm",
          "code": "2103192",
          "display": "sufentanil 0.03 MG Sublingual Tablet",
          "userSelected": true
        } ]
      },
      "subject": {
        "reference": "Patient/81dc5bb4-3273-492a-beff-2f7b0394f3c8"
      },
      "authoredOn": "2026-01-03T11:59:00.000+00:00",
      "requester": {
        "reference": "Practitioner/855150e0-47f9-46d3-b59f-7bf7aa0527d3"
      }
    },
    "request": {
      "method": "PUT",
      "url": "MedicationRequest/b50b54e2-c14b-4ce3-8598-8860d3d0f315"
    }
  }, {
    "fullUrl": "https://madie.cms.gov/Practitioner/855150e0-47f9-46d3-b59f-7bf7aa0527d3",
    "resource": {
      "resourceType": "Practitioner",
      "id": "855150e0-47f9-46d3-b59f-7bf7aa0527d3",
      "meta": {
        "profile": [ "http://hl7.org/fhir/us/qicore/StructureDefinition/qicore-practitioner" ]
      },
      "identifier": [ {
        "system": "http://hl7.org/fhir/sid/us-npi",
        "value": "9999999896"
      } ],
      "active": true,
      "name": [ {
        "family": "Ramires",
        "given": [ "Alma" ],
        "prefix": [ "Dr" ]
      } ],
      "address": [ {
        "use": "home",
        "line": [ "534 Erewhon St" ],
        "city": "Netherville",
        "state": "IN",
        "postalCode": "46131"
      } ],
      "qualification": [ {
        "identifier": [ {
          "system": "http://goodhealth.org/prIdentifier",
          "value": "12345"
        } ],
        "code": {
          "coding": [ {
            "system": "http://terminology.hl7.org/CodeSystem/v2-0360|2.7",
            "code": "BS",
            "display": "Bachelor of Science"
          } ],
          "text": "Bachelor of Science"
        },
        "period": {
          "start": "1995"
        },
        "issuer": {
          "display": "Example University"
        }
      } ]
    },
    "request": {
      "method": "PUT",
      "url": "Practitioner/855150e0-47f9-46d3-b59f-7bf7aa0527d3"
    }
  }, {
    "fullUrl": "https://madie.cms.gov/Condition/7b575fc9-2220-4be3-9a83-0bc5749773ae",
    "resource": {
      "resourceType": "Condition",
      "id": "7b575fc9-2220-4be3-9a83-0bc5749773ae",
      "meta": {
        "profile": [ "http://hl7.org/fhir/us/qicore/StructureDefinition/qicore-condition-problems-health-concerns" ]
      },
      "clinicalStatus": {
        "coding": [ {
          "system": "http://terminology.hl7.org/CodeSystem/condition-clinical",
          "code": "active",
          "display": "active",
          "userSelected": true
        } ]
      },
      "verificationStatus": {
        "coding": [ {
          "system": "http://terminology.hl7.org/CodeSystem/condition-ver-status",
          "code": "confirmed",
          "display": "Confirmed",
          "userSelected": true
        } ]
      },
      "category": [ {
        "coding": [ {
          "system": "http://hl7.org/fhir/us/core/CodeSystem/condition-category",
          "code": "health-concern",
          "display": "Health Concern"
        }, {
          "system": "http://snomed.info/sct",
          "code": "439401001",
          "display": "Diagnosis"
        } ]
      } ],
      "code": {
        "coding": [ {
          "system": "http://snomed.info/sct",
          "code": "879973007",
          "display": "Breakthrough cancer pain (finding)",
          "userSelected": true
        } ]
      },
      "subject": {
        "reference": "Patient/81dc5bb4-3273-492a-beff-2f7b0394f3c8"
      },
      "onsetPeriod": {
        "start": "2025-12-31T08:00:00.000+00:00"
      }
    },
    "request": {
      "method": "PUT",
      "url": "Condition/7b575fc9-2220-4be3-9a83-0bc5749773ae"
    }
  }, {
    "fullUrl": "https://madie.cms.gov/Coverage/63e379eb-5b1a-4147-9d60-624f14d37a27",
    "resource": {
      "resourceType": "Coverage",
      "id": "63e379eb-5b1a-4147-9d60-624f14d37a27",
      "meta": {
        "profile": [ "http://hl7.org/fhir/us/qicore/StructureDefinition/qicore-coverage" ]
      },
      "status": "active",
      "subscriberId": "523435",
      "beneficiary": {
        "reference": "Patient/81dc5bb4-3273-492a-beff-2f7b0394f3c8"
      },
      "relationship": {
        "coding": [ {
          "system": "http://terminology.hl7.org/CodeSystem/subscriber-relationship",
          "code": "self"
        } ]
      },
      "payor": [ {
        "reference": "Organization/5b135a24-85d2-4f64-8211-3c8fef11970c"
      } ]
    },
    "request": {
      "method": "PUT",
      "url": "Coverage/63e379eb-5b1a-4147-9d60-624f14d37a27"
    }
  }, {
    "fullUrl": "https://madie.cms.gov/Organization/5b135a24-85d2-4f64-8211-3c8fef11970c",
    "resource": {
      "resourceType": "Organization",
      "id": "5b135a24-85d2-4f64-8211-3c8fef11970c",
      "meta": {
        "profile": [ "http://hl7.org/fhir/us/qicore/StructureDefinition/qicore-organization" ]
      },
      "identifier": [ {
        "use": "temp",
        "system": "urn:oid:2.16.840.1.113883.4.4",
        "value": "21-3259825"
      } ],
      "active": true,
      "type": [ {
        "coding": [ {
          "system": "http://terminology.hl7.org/CodeSystem/organization-type",
          "code": "pay",
          "display": "Payer"
        } ]
      } ],
      "name": "Blue Cross Blue Shield of Texas",
      "telecom": [ {
        "system": "phone",
        "value": "(+1) 972-766-6900"
      } ],
      "address": [ {
        "use": "billing",
        "type": "postal",
        "line": [ "P.O. Box 660044" ],
        "city": "Dallas",
        "state": "TX",
        "postalCode": "75266-0044",
        "country": "USA"
      } ]
    },
    "request": {
      "method": "PUT",
      "url": "Organization/5b135a24-85d2-4f64-8211-3c8fef11970c"
    }
  }, {
    "fullUrl": "https://madie.cms.gov/MeasureReport/d92a191a-e26a-45e2-a0a3-c050da6255bb",
    "resource": {
      "resourceType": "MeasureReport",
      "id": "d92a191a-e26a-45e2-a0a3-c050da6255bb",
      "meta": {
        "profile": [ "http://hl7.org/fhir/us/cqfmeasures/StructureDefinition/test-case-cqfm" ]
      },
      "contained": [ {
        "resourceType": "Parameters",
        "id": "7e2ed536-7a4a-49c1-9f05-83123f42a5f2-parameters",
        "parameter": [ {
          "name": "subject",
          "valueString": "81dc5bb4-3273-492a-beff-2f7b0394f3c8"
        } ]
      } ],
      "extension": [ {
        "url": "http://hl7.org/fhir/StructureDefinition/cqf-inputParameters",
        "valueReference": {
          "reference": "#7e2ed536-7a4a-49c1-9f05-83123f42a5f2-parameters"
        }
      }, {
        "url": "http://hl7.org/fhir/us/cqfmeasures/StructureDefinition/cqfm-testCaseDescription",
        "valueMarkdown": "Encounter 1/1 - 1/3 , age 18, opioid at dc, has cancer that started last day of prior year"
      } ],
      "modifierExtension": [ {
        "url": "http://hl7.org/fhir/us/cqfmeasures/StructureDefinition/cqfm-isTestCase",
        "valueBoolean": true
      } ],
      "status": "complete",
      "type": "individual",
      "measure": "https://madie.cms.gov/Measure/CMS506FHIRSafeUseofOpioids",
      "period": {
        "start": "2026-01-01",
        "end": "2026-12-31"
      },
      "group": [ {
        "id": "Group_1",
        "population": [ {
          "id": "InitialPopulation_1",
          "code": {
            "coding": [ {
              "system": "http://terminology.hl7.org/CodeSystem/measure-population",
              "code": "initial-population",
              "display": "Initial Population"
            } ]
          },
          "count": 1
        }, {
          "id": "Denominator_1",
          "code": {
            "coding": [ {
              "system": "http://terminology.hl7.org/CodeSystem/measure-population",
              "code": "denominator",
              "display": "Denominator"
            } ]
          },
          "count": 1
        }, {
          "id": "DenominatorExclusion_1",
          "code": {
            "coding": [ {
              "system": "http://terminology.hl7.org/CodeSystem/measure-population",
              "code": "denominator-exclusion",
              "display": "Denominator Exclusion"
            } ]
          },
          "count": 1
        }, {
          "id": "Numerator_1",
          "code": {
            "coding": [ {
              "system": "http://terminology.hl7.org/CodeSystem/measure-population",
              "code": "numerator",
              "display": "Numerator"
            } ]
          },
          "count": 0
        } ],
        "measureScore": {
          "value": 0.0
        }
      } ],
      "evaluatedResource": [ {
        "reference": "Patient/81dc5bb4-3273-492a-beff-2f7b0394f3c8"
      }, {
        "reference": "Encounter/795eb044-a1f9-41cb-9bb4-537cedb19eb9"
      }, {
        "reference": "MedicationRequest/b50b54e2-c14b-4ce3-8598-8860d3d0f315"
      }, {
        "reference": "Practitioner/855150e0-47f9-46d3-b59f-7bf7aa0527d3"
      }, {
        "reference": "Condition/7b575fc9-2220-4be3-9a83-0bc5749773ae"
      }, {
        "reference": "Coverage/63e379eb-5b1a-4147-9d60-624f14d37a27"
      }, {
        "reference": "Organization/5b135a24-85d2-4f64-8211-3c8fef11970c"
      } ]
    },
    "request": {
      "method": "PUT",
      "url": "MeasureReport/d92a191a-e26a-45e2-a0a3-c050da6255bb"
    }
  } ]
}