{
  "resourceType": "Bundle",
  "id": "NUMEXPass-1stEncExcluded2ndEncNumHit",
  "type": "transaction",
  "entry": [ {
    "fullUrl": "https://madie.cms.gov/Encounter/75ff732c-256e-493a-a7e4-4523afd3b346",
    "resource": {
      "resourceType": "Encounter",
      "id": "75ff732c-256e-493a-a7e4-4523afd3b346",
      "meta": {
        "profile": [ "http://hl7.org/fhir/us/qicore/StructureDefinition/qicore-encounter" ]
      },
      "status": "finished",
      "class": {
        "system": "http://terminology.hl7.org/CodeSystem/v3-ActCode",
        "code": "IMP",
        "display": "inpatient encounter"
      },
      "type": [ {
        "coding": [ {
          "system": "http://snomed.info/sct",
          "code": "183452005"
        } ]
      } ],
      "subject": {
        "reference": "Patient/5ff2713d-ca89-42ae-91bb-cba3e1d9a487"
      },
      "period": {
        "start": "2026-12-01T08:00:00.000Z",
        "end": "2026-12-06T08:15:00.000Z"
      },
      "reasonCode": [ {
        "coding": [ {
          "system": "http://hl7.org/fhir/sid/icd-10-cm",
          "code": "S02.101A"
        } ]
      }, {
        "coding": [ {
          "system": "http://hl7.org/fhir/sid/icd-10-cm",
          "code": "W05.1XXA"
        } ]
      } ]
    },
    "request": {
      "method": "PUT",
      "url": "Encounter/75ff732c-256e-493a-a7e4-4523afd3b346"
    }
  }, {
    "fullUrl": "https://madie.cms.gov/Encounter/0e674ab5-80f2-463a-acf5-f4b1516112f9",
    "resource": {
      "resourceType": "Encounter",
      "id": "0e674ab5-80f2-463a-acf5-f4b1516112f9",
      "meta": {
        "profile": [ "http://hl7.org/fhir/us/qicore/StructureDefinition/qicore-encounter" ]
      },
      "status": "finished",
      "class": {
        "system": "http://terminology.hl7.org/CodeSystem/v3-ActCode",
        "code": "IMP",
        "display": "inpatient encounter"
      },
      "type": [ {
        "coding": [ {
          "system": "http://snomed.info/sct",
          "code": "183452005"
        } ]
      } ],
      "subject": {
        "reference": "Patient/5ff2713d-ca89-42ae-91bb-cba3e1d9a487"
      },
      "period": {
        "start": "2026-11-09T11:00:00.000Z",
        "end": "2026-11-12T08:15:00.000Z"
      },
      "reasonCode": [ {
        "coding": [ {
          "system": "http://snomed.info/sct",
          "code": "14047009"
        } ]
      }, {
        "coding": [ {
          "system": "http://hl7.org/fhir/sid/icd-10-cm",
          "code": "W08.XXXA"
        } ]
      } ]
    },
    "request": {
      "method": "PUT",
      "url": "Encounter/0e674ab5-80f2-463a-acf5-f4b1516112f9"
    }
  }, {
    "fullUrl": "https://madie.cms.gov/Encounter/c5457dfd-47ea-4766-9e8b-b69ad2dcb1a4",
    "resource": {
      "resourceType": "Encounter",
      "id": "c5457dfd-47ea-4766-9e8b-b69ad2dcb1a4",
      "meta": {
        "profile": [ "http://hl7.org/fhir/us/qicore/StructureDefinition/qicore-encounter" ]
      },
      "status": "finished",
      "class": {
        "system": "http://terminology.hl7.org/CodeSystem/v3-ActCode",
        "code": "IMP",
        "display": "inpatient encounter"
      },
      "type": [ {
        "coding": [ {
          "system": "http://snomed.info/sct",
          "code": "4525004"
        } ]
      } ],
      "subject": {
        "reference": "Patient/5ff2713d-ca89-42ae-91bb-cba3e1d9a487"
      },
      "period": {
        "start": "2026-11-09T08:00:00.000Z",
        "end": "2026-11-09T10:15:00.000Z"
      }
    },
    "request": {
      "method": "PUT",
      "url": "Encounter/c5457dfd-47ea-4766-9e8b-b69ad2dcb1a4"
    }
  }, {
    "fullUrl": "https://madie.cms.gov/Patient/5ff2713d-ca89-42ae-91bb-cba3e1d9a487",
    "resource": {
      "resourceType": "Patient",
      "id": "5ff2713d-ca89-42ae-91bb-cba3e1d9a487",
      "meta": {
        "profile": [ "http://hl7.org/fhir/us/qicore/StructureDefinition/qicore-patient" ]
      },
      "extension": [ {
        "url": "http://hl7.org/fhir/us/core/StructureDefinition/us-core-race",
        "extension": [ {
          "url": "ombCategory",
          "valueCoding": {
            "system": "urn:oid:2.16.840.1.113883.6.238",
            "code": "2054-5",
            "display": "Black or African American",
            "userSelected": true
          }
        }, {
          "url": "text",
          "valueString": "Black or African American"
        } ]
      }, {
        "url": "http://hl7.org/fhir/us/core/StructureDefinition/us-core-ethnicity",
        "extension": [ {
          "url": "ombCategory",
          "valueCoding": {
            "system": "urn:oid:2.16.840.1.113883.6.238",
            "code": "2186-5",
            "display": "Not Hispanic or Latino",
            "userSelected": true
          }
        }, {
          "url": "text",
          "valueString": "Not Hispanic or Latino"
        } ]
      }, {
        "url": "http://hl7.org/fhir/us/core/StructureDefinition/us-core-sex",
        "valueCode": "248153007"
      } ],
      "identifier": [ {
        "type": {
          "coding": [ {
            "system": "http://terminology.hl7.org/CodeSystem/v2-0203",
            "code": "MR"
          } ]
        },
        "system": "https://bonnie-fhir.healthit.gov/",
        "value": "61152a3b98086b7a79cbd7c1"
      } ],
      "active": true,
      "name": [ {
        "use": "usual",
        "family": "NUMEXPass",
        "given": [ "1stEncExcluded2ndEncNumHit" ]
      } ],
      "gender": "male",
      "birthDate": "1964-12-11"
    },
    "request": {
      "method": "PUT",
      "url": "Patient/5ff2713d-ca89-42ae-91bb-cba3e1d9a487"
    }
  }, {
    "fullUrl": "https://madie.cms.gov/AdverseEvent/cfd6a39d-e0df-4b01-a4e2-28b269cc2561",
    "resource": {
      "resourceType": "AdverseEvent",
      "id": "cfd6a39d-e0df-4b01-a4e2-28b269cc2561",
      "meta": {
        "profile": [ "http://hl7.org/fhir/us/qicore/StructureDefinition/qicore-adverseevent" ]
      },
      "actuality": "actual",
      "event": {
        "coding": [ {
          "system": "http://hl7.org/fhir/sid/icd-10-cm",
          "code": "W01.0XXA"
        } ]
      },
      "subject": {
        "reference": "Patient/5ff2713d-ca89-42ae-91bb-cba3e1d9a487"
      },
      "date": "2026-11-10T08:30:00.000Z"
    },
    "request": {
      "method": "PUT",
      "url": "AdverseEvent/cfd6a39d-e0df-4b01-a4e2-28b269cc2561"
    }
  }, {
    "fullUrl": "https://madie.cms.gov/Claim/12a07dd7-838f-485e-b83f-422376df1c10",
    "resource": {
      "resourceType": "Claim",
      "id": "12a07dd7-838f-485e-b83f-422376df1c10",
      "meta": {
        "profile": [ "http://hl7.org/fhir/us/qicore/StructureDefinition/qicore-claim" ]
      },
      "status": "active",
      "type": {
        "coding": [ {
          "system": "http://terminology.hl7.org/CodeSystem/claim-type",
          "code": "professional",
          "display": "Professional"
        } ]
      },
      "use": "claim",
      "patient": {
        "reference": "Patient/5ff2713d-ca89-42ae-91bb-cba3e1d9a487"
      },
      "created": "2026-11-12",
      "provider": {
        "reference": "Practitioner/62dfad3d-a649-4e17-b794-deb1aba19def"
      },
      "priority": {
        "coding": [ {
          "system": "http://terminology.hl7.org/CodeSystem/processpriority",
          "code": "normal"
        } ]
      },
      "diagnosis": [ {
        "sequence": 1,
        "diagnosisCodeableConcept": {
          "coding": [ {
            "system": "http://hl7.org/fhir/sid/icd-10-cm",
            "code": "W08.XXXA"
          } ]
        },
        "onAdmission": {
          "coding": [ {
            "system": "https://www.cms.gov/Medicare/Medicare-Fee-for-Service-Payment/HospitalAcqCond/Coding",
            "code": "Y"
          } ]
        }
      } ],
      "insurance": [ {
        "sequence": 1,
        "focal": true,
        "coverage": {
          "reference": "Coverage/5eb7e8b3-78bf-4c83-a9e0-2199bf5a691d"
        }
      } ],
      "item": [ {
        "sequence": 1,
        "diagnosisSequence": [ 1, 2 ],
        "productOrService": {
          "coding": [ {
            "system": "http://terminology.hl7.org/CodeSystem/ex-USCLS",
            "code": "1101"
          } ]
        },
        "encounter": [ {
          "reference": "Encounter/0e674ab5-80f2-463a-acf5-f4b1516112f9"
        } ]
      } ]
    },
    "request": {
      "method": "PUT",
      "url": "Claim/12a07dd7-838f-485e-b83f-422376df1c10"
    }
  }, {
    "fullUrl": "https://madie.cms.gov/Claim/9dc9eb82-4369-4aad-8a52-3f0367e00475",
    "resource": {
      "resourceType": "Claim",
      "id": "9dc9eb82-4369-4aad-8a52-3f0367e00475",
      "meta": {
        "profile": [ "http://hl7.org/fhir/us/qicore/StructureDefinition/qicore-claim" ]
      },
      "status": "active",
      "type": {
        "coding": [ {
          "system": "http://terminology.hl7.org/CodeSystem/claim-type",
          "code": "professional",
          "display": "Professional"
        } ]
      },
      "use": "claim",
      "patient": {
        "reference": "Patient/5ff2713d-ca89-42ae-91bb-cba3e1d9a487"
      },
      "created": "2026-11-12",
      "provider": {
        "reference": "Practitioner/62dfad3d-a649-4e17-b794-deb1aba19def"
      },
      "priority": {
        "coding": [ {
          "system": "http://terminology.hl7.org/CodeSystem/processpriority",
          "code": "normal"
        } ]
      },
      "diagnosis": [ {
        "sequence": 2,
        "diagnosisCodeableConcept": {
          "coding": [ {
            "system": "http://snomed.info/sct",
            "code": "14047009"
          } ]
        },
        "onAdmission": {
          "coding": [ {
            "system": "https://www.cms.gov/Medicare/Medicare-Fee-for-Service-Payment/HospitalAcqCond/Coding",
            "code": "N"
          } ]
        }
      } ],
      "insurance": [ {
        "sequence": 1,
        "focal": true,
        "coverage": {
          "reference": "Coverage/5eb7e8b3-78bf-4c83-a9e0-2199bf5a691d"
        }
      } ],
      "item": [ {
        "sequence": 2,
        "diagnosisSequence": [ 1, 2 ],
        "productOrService": {
          "coding": [ {
            "system": "http://terminology.hl7.org/CodeSystem/ex-USCLS",
            "code": "1101"
          } ]
        },
        "encounter": [ {
          "reference": "Encounter/0e674ab5-80f2-463a-acf5-f4b1516112f9"
        } ]
      } ]
    },
    "request": {
      "method": "PUT",
      "url": "Claim/9dc9eb82-4369-4aad-8a52-3f0367e00475"
    }
  }, {
    "fullUrl": "https://madie.cms.gov/Claim/116caee5-cde9-4baa-ab05-53c5efe5506f",
    "resource": {
      "resourceType": "Claim",
      "id": "116caee5-cde9-4baa-ab05-53c5efe5506f",
      "meta": {
        "profile": [ "http://hl7.org/fhir/us/qicore/StructureDefinition/qicore-claim" ]
      },
      "status": "active",
      "type": {
        "coding": [ {
          "system": "http://terminology.hl7.org/CodeSystem/claim-type",
          "code": "professional",
          "display": "Professional"
        } ]
      },
      "use": "claim",
      "patient": {
        "reference": "Patient/5ff2713d-ca89-42ae-91bb-cba3e1d9a487"
      },
      "created": "2026-12-06",
      "provider": {
        "reference": "Practitioner/62dfad3d-a649-4e17-b794-deb1aba19def"
      },
      "priority": {
        "coding": [ {
          "system": "http://terminology.hl7.org/CodeSystem/processpriority",
          "code": "normal"
        } ]
      },
      "diagnosis": [ {
        "sequence": 1,
        "diagnosisCodeableConcept": {
          "coding": [ {
            "system": "http://hl7.org/fhir/sid/icd-10-cm",
            "code": "S02.101A"
          } ]
        },
        "onAdmission": {
          "coding": [ {
            "system": "https://www.cms.gov/Medicare/Medicare-Fee-for-Service-Payment/HospitalAcqCond/Coding",
            "code": "N"
          } ]
        }
      } ],
      "insurance": [ {
        "sequence": 1,
        "focal": true,
        "coverage": {
          "reference": "Coverage/5eb7e8b3-78bf-4c83-a9e0-2199bf5a691d"
        }
      } ],
      "item": [ {
        "sequence": 1,
        "diagnosisSequence": [ 1, 2 ],
        "productOrService": {
          "coding": [ {
            "system": "http://terminology.hl7.org/CodeSystem/ex-USCLS",
            "code": "1101"
          } ]
        },
        "encounter": [ {
          "reference": "Encounter/75ff732c-256e-493a-a7e4-4523afd3b346"
        } ]
      } ]
    },
    "request": {
      "method": "PUT",
      "url": "Claim/116caee5-cde9-4baa-ab05-53c5efe5506f"
    }
  }, {
    "fullUrl": "https://madie.cms.gov/Claim/b7c65fb8-2a4a-4130-84b6-4e5b041c79cd",
    "resource": {
      "resourceType": "Claim",
      "id": "b7c65fb8-2a4a-4130-84b6-4e5b041c79cd",
      "meta": {
        "profile": [ "http://hl7.org/fhir/us/qicore/StructureDefinition/qicore-claim" ]
      },
      "status": "active",
      "type": {
        "coding": [ {
          "system": "http://terminology.hl7.org/CodeSystem/claim-type",
          "code": "professional",
          "display": "Professional"
        } ]
      },
      "use": "claim",
      "patient": {
        "reference": "Patient/5ff2713d-ca89-42ae-91bb-cba3e1d9a487"
      },
      "created": "2026-12-06",
      "provider": {
        "reference": "Practitioner/62dfad3d-a649-4e17-b794-deb1aba19def"
      },
      "priority": {
        "coding": [ {
          "system": "http://terminology.hl7.org/CodeSystem/processpriority",
          "code": "normal"
        } ]
      },
      "diagnosis": [ {
        "sequence": 2,
        "diagnosisCodeableConcept": {
          "coding": [ {
            "system": "http://hl7.org/fhir/sid/icd-10-cm",
            "code": "W05.1XXA"
          } ]
        },
        "onAdmission": {
          "coding": [ {
            "system": "https://www.cms.gov/Medicare/Medicare-Fee-for-Service-Payment/HospitalAcqCond/Coding",
            "code": "N"
          } ]
        }
      } ],
      "insurance": [ {
        "sequence": 1,
        "focal": true,
        "coverage": {
          "reference": "Coverage/5eb7e8b3-78bf-4c83-a9e0-2199bf5a691d"
        }
      } ],
      "item": [ {
        "sequence": 2,
        "diagnosisSequence": [ 1, 2 ],
        "productOrService": {
          "coding": [ {
            "system": "http://terminology.hl7.org/CodeSystem/ex-USCLS",
            "code": "1101"
          } ]
        },
        "encounter": [ {
          "reference": "Encounter/75ff732c-256e-493a-a7e4-4523afd3b346"
        } ]
      } ]
    },
    "request": {
      "method": "PUT",
      "url": "Claim/b7c65fb8-2a4a-4130-84b6-4e5b041c79cd"
    }
  }, {
    "fullUrl": "https://madie.cms.gov/Practitioner/62dfad3d-a649-4e17-b794-deb1aba19def",
    "resource": {
      "resourceType": "Practitioner",
      "id": "62dfad3d-a649-4e17-b794-deb1aba19def",
      "identifier": [ {
        "system": "http://www.cms.gov/identifiers/pracitioners",
        "value": "P12345"
      } ],
      "name": [ {
        "use": "official",
        "family": "Smith",
        "given": [ "John" ]
      } ],
      "qualification": [ {
        "identifier": [ {
          "system": "http://hl7.org/fhir/sid/us-npi",
          "value": "1234567890"
        } ],
        "code": {
          "coding": [ {
            "system": "http://terminology.hl7.org/CodeSystem/v2-0203",
            "code": "MD",
            "display": "Medical License number"
          } ]
        }
      } ]
    },
    "request": {
      "method": "PUT",
      "url": "Practitioner/62dfad3d-a649-4e17-b794-deb1aba19def"
    }
  }, {
    "fullUrl": "https://madie.cms.gov/Coverage/5eb7e8b3-78bf-4c83-a9e0-2199bf5a691d",
    "resource": {
      "resourceType": "Coverage",
      "id": "5eb7e8b3-78bf-4c83-a9e0-2199bf5a691d",
      "status": "active",
      "beneficiary": {
        "reference": "Patient/5ff2713d-ca89-42ae-91bb-cba3e1d9a487"
      },
      "payor": [ {
        "reference": "Organization/8e1bab23-50a0-4610-ac84-053b5abe0918"
      } ]
    },
    "request": {
      "method": "PUT",
      "url": "Coverage/5eb7e8b3-78bf-4c83-a9e0-2199bf5a691d"
    }
  }, {
    "fullUrl": "https://madie.cms.gov/Organization/8e1bab23-50a0-4610-ac84-053b5abe0918",
    "resource": {
      "resourceType": "Organization",
      "id": "8e1bab23-50a0-4610-ac84-053b5abe0918",
      "identifier": [ {
        "system": "http://cms.gov/insurance-ids",
        "value": "AET12345"
      } ],
      "type": [ {
        "coding": [ {
          "system": "http://terminology.hl7.org/CodeSystem/organization-type",
          "code": "prov",
          "display": "Healthcare Provider"
        } ]
      } ],
      "name": "Aetna Insurance",
      "telecom": [ {
        "system": "phone",
        "value": "+1-800-123-4567"
      } ],
      "address": [ {
        "line": [ "123 Main Street" ],
        "city": "Cityville",
        "state": "CA",
        "postalCode": "12345",
        "country": "USA"
      } ]
    },
    "request": {
      "method": "PUT",
      "url": "Organization/8e1bab23-50a0-4610-ac84-053b5abe0918"
    }
  }, {
    "fullUrl": "https://madie.cms.gov/MeasureReport/74f8c3e3-881b-4ba8-bfdb-ceef555ed020",
    "resource": {
      "resourceType": "MeasureReport",
      "id": "74f8c3e3-881b-4ba8-bfdb-ceef555ed020",
      "meta": {
        "profile": [ "http://hl7.org/fhir/us/cqfmeasures/StructureDefinition/test-case-cqfm" ]
      },
      "contained": [ {
        "resourceType": "Parameters",
        "id": "6299faaf-a842-493a-b3af-ad042917d544-parameters",
        "parameter": [ {
          "name": "subject",
          "valueString": "5ff2713d-ca89-42ae-91bb-cba3e1d9a487"
        } ]
      } ],
      "extension": [ {
        "url": "http://hl7.org/fhir/StructureDefinition/cqf-inputParameters",
        "valueReference": {
          "reference": "#6299faaf-a842-493a-b3af-ad042917d544-parameters"
        }
      }, {
        "url": "http://hl7.org/fhir/us/cqfmeasures/StructureDefinition/cqfm-testCaseDescription",
        "valueMarkdown": "Enc 1: Fall POA=Y. Injury=NPOA. Meets Den, Num, then excluded from both due to fall POA. MOs = 0. \nEnc 2: Fall and Injury = NPOA, meets numerator. \nNum MO = 1, Denom MO = 5."
      } ],
      "modifierExtension": [ {
        "url": "http://hl7.org/fhir/us/cqfmeasures/StructureDefinition/cqfm-isTestCase",
        "valueBoolean": true
      } ],
      "status": "complete",
      "type": "individual",
      "measure": "https://madie.cms.gov/Measure/CMS1017FHIRHHFI",
      "period": {
        "start": "2026-01-01",
        "end": "2026-12-31"
      },
      "group": [ {
        "id": "Group_1",
        "population": [ {
          "id": "InitialPopulation_1",
          "code": {
            "coding": [ {
              "system": "http://terminology.hl7.org/CodeSystem/measure-population",
              "code": "initial-population",
              "display": "Initial Population"
            } ]
          },
          "count": 2
        }, {
          "id": "Denominator_1",
          "code": {
            "coding": [ {
              "system": "http://terminology.hl7.org/CodeSystem/measure-population",
              "code": "denominator",
              "display": "Denominator"
            } ]
          },
          "count": 2
        }, {
          "id": "MeasureObservation_1_1_1",
          "code": {
            "coding": [ {
              "system": "http://terminology.hl7.org/CodeSystem/measure-population",
              "code": "measure-observation",
              "display": "Measure Observation"
            } ]
          },
          "count": 5
        }, {
          "id": "DenominatorExclusion_1",
          "code": {
            "coding": [ {
              "system": "http://terminology.hl7.org/CodeSystem/measure-population",
              "code": "denominator-exclusion",
              "display": "Denominator Exclusion"
            } ]
          },
          "count": 1
        }, {
          "id": "Numerator_1",
          "code": {
            "coding": [ {
              "system": "http://terminology.hl7.org/CodeSystem/measure-population",
              "code": "numerator",
              "display": "Numerator"
            } ]
          },
          "count": 1
        }, {
          "id": "MeasureObservation_1_2_1",
          "code": {
            "coding": [ {
              "system": "http://terminology.hl7.org/CodeSystem/measure-population",
              "code": "measure-observation",
              "display": "Measure Observation"
            } ]
          },
          "count": 1
        }, {
          "id": "NumeratorExclusion_1",
          "code": {
            "coding": [ {
              "system": "http://terminology.hl7.org/CodeSystem/measure-population",
              "code": "numerator-exclusion",
              "display": "Numerator Exclusion"
            } ]
          },
          "count": 0
        } ],
        "measureScore": {
          "value": 0.0
        }
      } ],
      "evaluatedResource": [ {
        "reference": "Encounter/75ff732c-256e-493a-a7e4-4523afd3b346"
      }, {
        "reference": "Encounter/0e674ab5-80f2-463a-acf5-f4b1516112f9"
      }, {
        "reference": "Encounter/c5457dfd-47ea-4766-9e8b-b69ad2dcb1a4"
      }, {
        "reference": "Patient/5ff2713d-ca89-42ae-91bb-cba3e1d9a487"
      }, {
        "reference": "AdverseEvent/cfd6a39d-e0df-4b01-a4e2-28b269cc2561"
      }, {
        "reference": "Claim/12a07dd7-838f-485e-b83f-422376df1c10"
      }, {
        "reference": "Claim/9dc9eb82-4369-4aad-8a52-3f0367e00475"
      }, {
        "reference": "Claim/116caee5-cde9-4baa-ab05-53c5efe5506f"
      }, {
        "reference": "Claim/b7c65fb8-2a4a-4130-84b6-4e5b041c79cd"
      }, {
        "reference": "Practitioner/62dfad3d-a649-4e17-b794-deb1aba19def"
      }, {
        "reference": "Coverage/5eb7e8b3-78bf-4c83-a9e0-2199bf5a691d"
      }, {
        "reference": "Organization/8e1bab23-50a0-4610-ac84-053b5abe0918"
      } ]
    },
    "request": {
      "method": "PUT",
      "url": "MeasureReport/74f8c3e3-881b-4ba8-bfdb-ceef555ed020"
    }
  } ]
}