{
  "resourceType": "Bundle",
  "id": "6413828e4b11b147841ab91b",
  "type": "transaction",
  "entry": [ {
    "fullUrl": "https://madie.cms.gov/Patient/52988c36-5e85-4818-9baa-983a3e27281a",
    "resource": {
      "resourceType": "Patient",
      "id": "52988c36-5e85-4818-9baa-983a3e27281a",
      "meta": {
        "profile": [ "http://hl7.org/fhir/us/qicore/StructureDefinition/qicore-patient" ]
      },
      "extension": [ {
        "url": "http://hl7.org/fhir/us/core/StructureDefinition/us-core-race",
        "extension": [ {
          "url": "ombCategory",
          "valueCoding": {
            "system": "urn:oid:2.16.840.1.113883.6.238",
            "code": "2076-8",
            "display": "Native Hawaiian or Other Pacific Islander",
            "userSelected": true
          }
        }, {
          "url": "text",
          "valueString": "Native Hawaiian or Other Pacific Islander"
        } ]
      }, {
        "url": "http://hl7.org/fhir/us/core/StructureDefinition/us-core-ethnicity",
        "extension": [ {
          "url": "ombCategory",
          "valueCoding": {
            "system": "urn:oid:2.16.840.1.113883.6.238",
            "code": "2186-5",
            "display": "Not Hispanic or Latino",
            "userSelected": true
          }
        }, {
          "url": "text",
          "valueString": "Not Hispanic or Latino"
        } ]
      } ],
      "identifier": [ {
        "type": {
          "coding": [ {
            "system": "http://terminology.hl7.org/CodeSystem/v2-0203",
            "code": "MR"
          } ]
        },
        "system": "https://bonnie-fhir.healthit.gov/",
        "value": "6413828e4b11b147841ab91b"
      } ],
      "name": [ {
        "family": "NUMERPass",
        "given": [ "OfficeVisitEGFRAndUACR" ]
      } ],
      "gender": "female",
      "birthDate": "1958-12-01"
    },
    "request": {
      "method": "PUT",
      "url": "Patient/52988c36-5e85-4818-9baa-983a3e27281a"
    }
  }, {
    "fullUrl": "https://madie.cms.gov/Condition/0b99b10d-8099-4b4a-8942-a8a9a732dec4",
    "resource": {
      "resourceType": "Condition",
      "id": "0b99b10d-8099-4b4a-8942-a8a9a732dec4",
      "meta": {
        "profile": [ "http://hl7.org/fhir/us/qicore/StructureDefinition/qicore-condition-problems-health-concerns" ]
      },
      "clinicalStatus": {
        "coding": [ {
          "system": "http://terminology.hl7.org/CodeSystem/condition-clinical",
          "code": "active",
          "display": "active",
          "userSelected": true
        } ]
      },
      "category": [ {
        "coding": [ {
          "system": "http://terminology.hl7.org/CodeSystem/condition-category",
          "code": "problem-list-item",
          "display": "Problem List Item",
          "userSelected": true
        } ]
      } ],
      "code": {
        "coding": [ {
          "system": "http://snomed.info/sct",
          "version": "2021-09",
          "code": "102781000119107",
          "display": "Sensory neuropathy due to type 1 diabetes mellitus (disorder)",
          "userSelected": true
        } ]
      },
      "subject": {
        "reference": "Patient/52988c36-5e85-4818-9baa-983a3e27281a"
      },
      "onsetDateTime": "2025-12-14T08:00:00.000+00:00"
    },
    "request": {
      "method": "PUT",
      "url": "Condition/0b99b10d-8099-4b4a-8942-a8a9a732dec4"
    }
  }, {
    "fullUrl": "https://madie.cms.gov/Observation/73d30064-f6a4-4020-ba0a-189dfeca947f",
    "resource": {
      "resourceType": "Observation",
      "id": "73d30064-f6a4-4020-ba0a-189dfeca947f",
      "meta": {
        "profile": [ "http://hl7.org/fhir/us/qicore/StructureDefinition/qicore-observation-lab" ]
      },
      "status": "final",
      "category": [ {
        "coding": [ {
          "system": "http://terminology.hl7.org/CodeSystem/observation-category",
          "code": "laboratory",
          "display": "laboratory",
          "userSelected": true
        } ]
      } ],
      "code": {
        "coding": [ {
          "system": "http://loinc.org",
          "version": "2.71",
          "code": "48642-3",
          "display": "Glomerular filtration rate [Volume Rate/Area] in Serum, Plasma or Blood by Creatinine-based formula (MDRD)/1.73 sq M among non black population",
          "userSelected": true
        } ]
      },
      "subject": {
        "reference": "Patient/52988c36-5e85-4818-9baa-983a3e27281a"
      },
      "effectiveDateTime": "2026-03-16T08:00:00.000+00:00",
      "valueBoolean": true
    },
    "request": {
      "method": "PUT",
      "url": "Observation/73d30064-f6a4-4020-ba0a-189dfeca947f"
    }
  }, {
    "fullUrl": "https://madie.cms.gov/Observation/04d97621-3bf7-4de8-ab16-14831a82d180",
    "resource": {
      "resourceType": "Observation",
      "id": "04d97621-3bf7-4de8-ab16-14831a82d180",
      "meta": {
        "profile": [ "http://hl7.org/fhir/us/qicore/StructureDefinition/qicore-observation-lab" ]
      },
      "status": "final",
      "category": [ {
        "coding": [ {
          "system": "http://terminology.hl7.org/CodeSystem/observation-category",
          "code": "laboratory",
          "display": "laboratory",
          "userSelected": true
        } ]
      } ],
      "code": {
        "coding": [ {
          "system": "http://loinc.org",
          "version": "2.71",
          "code": "13705-9",
          "display": "Albumin/Creatinine [Mass Ratio] in 24 hour Urine",
          "userSelected": true
        } ]
      },
      "subject": {
        "reference": "Patient/52988c36-5e85-4818-9baa-983a3e27281a"
      },
      "effectiveDateTime": "2026-03-16T08:00:00.000+00:00",
      "issued": "2026-03-16T08:00:00.000+00:00",
      "valueQuantity": {
        "value": 30,
        "unit": "mg/g",
        "system": "http://unitsofmeasure.org",
        "code": "mg/g"
      }
    },
    "request": {
      "method": "PUT",
      "url": "Observation/04d97621-3bf7-4de8-ab16-14831a82d180"
    }
  }, {
    "fullUrl": "https://madie.cms.gov/Encounter/f6d795aa-208f-40bc-b456-632dea7aea03",
    "resource": {
      "resourceType": "Encounter",
      "id": "f6d795aa-208f-40bc-b456-632dea7aea03",
      "meta": {
        "profile": [ "http://hl7.org/fhir/us/qicore/StructureDefinition/qicore-encounter" ]
      },
      "status": "finished",
      "class": {
        "system": "http://terminology.hl7.org/CodeSystem/v3-ActCode",
        "code": "AMB",
        "display": "ambulatory",
        "userSelected": true
      },
      "type": [ {
        "coding": [ {
          "system": "http://www.ama-assn.org/go/cpt",
          "code": "99213"
        } ]
      } ],
      "subject": {
        "reference": "Patient/52988c36-5e85-4818-9baa-983a3e27281a"
      },
      "period": {
        "start": "2026-03-16T08:00:00.000+00:00",
        "end": "2026-03-16T08:15:00.000+00:00"
      }
    },
    "request": {
      "method": "PUT",
      "url": "Encounter/f6d795aa-208f-40bc-b456-632dea7aea03"
    }
  }, {
    "fullUrl": "https://madie.cms.gov/MeasureReport/f1ed60b0-465f-45a1-9ebd-b0847b7463b0",
    "resource": {
      "resourceType": "MeasureReport",
      "id": "f1ed60b0-465f-45a1-9ebd-b0847b7463b0",
      "meta": {
        "profile": [ "http://hl7.org/fhir/us/cqfmeasures/StructureDefinition/test-case-cqfm" ]
      },
      "contained": [ {
        "resourceType": "Parameters",
        "id": "a18abbfd-edce-4258-b85f-a0b26106b62e-parameters",
        "parameter": [ {
          "name": "subject",
          "valueString": "52988c36-5e85-4818-9baa-983a3e27281a"
        } ]
      } ],
      "extension": [ {
        "url": "http://hl7.org/fhir/StructureDefinition/cqf-inputParameters",
        "valueReference": {
          "reference": "#a18abbfd-edce-4258-b85f-a0b26106b62e-parameters"
        }
      }, {
        "url": "http://hl7.org/fhir/us/cqfmeasures/StructureDefinition/cqfm-testCaseDescription",
        "valueMarkdown": "This patient is 67 years old with a qualifying office visit encounter and active  diabetes, with both qualifying lab tests. This case tests the numerator criteria."
      } ],
      "modifierExtension": [ {
        "url": "http://hl7.org/fhir/us/cqfmeasures/StructureDefinition/cqfm-isTestCase",
        "valueBoolean": true
      } ],
      "status": "complete",
      "type": "individual",
      "measure": "https://madie.cms.gov/Measure/CMS951FHIRKidneyHealthEval",
      "period": {
        "start": "2026-01-01",
        "end": "2026-12-31"
      },
      "group": [ {
        "id": "Group_1",
        "population": [ {
          "id": "InitialPopulation_1",
          "code": {
            "coding": [ {
              "system": "http://terminology.hl7.org/CodeSystem/measure-population",
              "code": "initial-population",
              "display": "Initial Population"
            } ]
          },
          "count": 1
        }, {
          "id": "Denominator_1",
          "code": {
            "coding": [ {
              "system": "http://terminology.hl7.org/CodeSystem/measure-population",
              "code": "denominator",
              "display": "Denominator"
            } ]
          },
          "count": 1
        }, {
          "id": "DenominatorExclusion_1",
          "code": {
            "coding": [ {
              "system": "http://terminology.hl7.org/CodeSystem/measure-population",
              "code": "denominator-exclusion",
              "display": "Denominator Exclusion"
            } ]
          },
          "count": 0
        }, {
          "id": "Numerator_1",
          "code": {
            "coding": [ {
              "system": "http://terminology.hl7.org/CodeSystem/measure-population",
              "code": "numerator",
              "display": "Numerator"
            } ]
          },
          "count": 1
        } ],
        "measureScore": {
          "value": 1.0
        }
      } ],
      "evaluatedResource": [ {
        "reference": "Patient/52988c36-5e85-4818-9baa-983a3e27281a"
      }, {
        "reference": "Condition/0b99b10d-8099-4b4a-8942-a8a9a732dec4"
      }, {
        "reference": "Observation/73d30064-f6a4-4020-ba0a-189dfeca947f"
      }, {
        "reference": "Observation/04d97621-3bf7-4de8-ab16-14831a82d180"
      }, {
        "reference": "Encounter/f6d795aa-208f-40bc-b456-632dea7aea03"
      } ]
    },
    "request": {
      "method": "PUT",
      "url": "MeasureReport/f1ed60b0-465f-45a1-9ebd-b0847b7463b0"
    }
  } ]
}