{
  "resourceType": "Bundle",
  "id": "64270cbea7ffa60ebe02488e",
  "type": "collection",
  "entry": [ {
    "fullUrl": "https://madie.cms.gov/Patient/e00c927a-f454-4611-97b2-e3e2bdfed182",
    "resource": {
      "resourceType": "Patient",
      "id": "e00c927a-f454-4611-97b2-e3e2bdfed182",
      "meta": {
        "profile": [ "http://hl7.org/fhir/us/qicore/StructureDefinition/qicore-patient" ]
      },
      "extension": [ {
        "url": "http://hl7.org/fhir/us/core/StructureDefinition/us-core-race",
        "extension": [ {
          "url": "ombCategory",
          "valueCoding": {
            "system": "urn:oid:2.16.840.1.113883.6.238",
            "code": "2106-3",
            "display": "White",
            "userSelected": true
          }
        }, {
          "url": "text",
          "valueString": "White"
        } ]
      }, {
        "url": "http://hl7.org/fhir/us/core/StructureDefinition/us-core-ethnicity",
        "extension": [ {
          "url": "ombCategory",
          "valueCoding": {
            "system": "urn:oid:2.16.840.1.113883.6.238",
            "code": "2135-2",
            "display": "Hispanic or Latino",
            "userSelected": true
          }
        }, {
          "url": "text",
          "valueString": "Hispanic or Latino"
        } ]
      } ],
      "identifier": [ {
        "type": {
          "coding": [ {
            "system": "http://terminology.hl7.org/CodeSystem/v2-0203",
            "code": "MR"
          } ]
        },
        "system": "https://goodhealth.healthit.gov/",
        "value": "64270cbea7ffa60ebe02488e"
      } ],
      "name": [ {
        "family": "IPFail",
        "given": [ "DementiaDxUnconfirmed" ]
      } ],
      "gender": "male",
      "birthDate": "1949-06-02"
    }
  }, {
    "fullUrl": "https://madie.cms.gov/Condition/af892dc3-84f4-4cfc-8b54-ea96195d9e68",
    "resource": {
      "resourceType": "Condition",
      "id": "af892dc3-84f4-4cfc-8b54-ea96195d9e68",
      "meta": {
        "profile": [ "http://hl7.org/fhir/us/qicore/StructureDefinition/qicore-condition-problems-health-concerns" ]
      },
      "clinicalStatus": {
        "coding": [ {
          "system": "http://terminology.hl7.org/CodeSystem/condition-clinical",
          "code": "active",
          "display": "Active",
          "userSelected": true
        } ]
      },
      "verificationStatus": {
        "coding": [ {
          "system": "http://terminology.hl7.org/CodeSystem/condition-ver-status",
          "code": "unconfirmed",
          "display": "Unconfirmed",
          "userSelected": true
        } ]
      },
      "category": [ {
        "coding": [ {
          "system": "http://terminology.hl7.org/CodeSystem/condition-category",
          "code": "encounter-diagnosis",
          "display": "Encounter Diagnosis",
          "userSelected": true
        } ]
      }, {
        "coding": [ {
          "system": "http://terminology.hl7.org/CodeSystem/condition-category",
          "code": "problem-list-item",
          "display": "Problem List Item"
        } ]
      } ],
      "code": {
        "coding": [ {
          "system": "http://snomed.info/sct",
          "version": "http://snomed.info/sct/731000124108/version/20250301",
          "code": "191463004",
          "display": "Uncomplicated arteriosclerotic dementia (disorder)"
        } ]
      },
      "subject": {
        "reference": "Patient/e00c927a-f454-4611-97b2-e3e2bdfed182"
      },
      "onsetPeriod": {
        "start": "2025-01-15T08:00:00.000Z"
      }
    }
  }, {
    "fullUrl": "https://madie.cms.gov/Encounter/03d0e875-0cfa-494d-a73b-7abf6331c660",
    "resource": {
      "resourceType": "Encounter",
      "id": "03d0e875-0cfa-494d-a73b-7abf6331c660",
      "meta": {
        "profile": [ "http://hl7.org/fhir/us/qicore/StructureDefinition/qicore-encounter" ]
      },
      "status": "finished",
      "class": {
        "system": "http://terminology.hl7.org/CodeSystem/v3-ActCode",
        "code": "AMB",
        "display": "ambulatory",
        "userSelected": true
      },
      "type": [ {
        "coding": [ {
          "system": "http://www.ama-assn.org/go/cpt",
          "version": "2023",
          "code": "99212",
          "userSelected": true
        } ]
      } ],
      "subject": {
        "reference": "Patient/e00c927a-f454-4611-97b2-e3e2bdfed182"
      },
      "period": {
        "start": "2026-03-02T08:00:00.000Z",
        "end": "2026-03-02T08:35:00.000Z"
      }
    }
  }, {
    "fullUrl": "https://madie.cms.gov/Encounter/6b185c9d-e1c8-4aa8-b44c-7ecd2a834eb6",
    "resource": {
      "resourceType": "Encounter",
      "id": "6b185c9d-e1c8-4aa8-b44c-7ecd2a834eb6",
      "meta": {
        "profile": [ "http://hl7.org/fhir/us/qicore/StructureDefinition/qicore-encounter" ]
      },
      "status": "finished",
      "class": {
        "system": "http://terminology.hl7.org/CodeSystem/v3-ActCode",
        "code": "AMB",
        "display": "ambulatory",
        "userSelected": true
      },
      "type": [ {
        "coding": [ {
          "system": "http://snomed.info/sct",
          "version": "http://snomed.info/sct/731000124108/version/20230301",
          "code": "77406008",
          "display": "Confirmatory medical consultation (procedure)"
        } ]
      } ],
      "subject": {
        "reference": "Patient/e00c927a-f454-4611-97b2-e3e2bdfed182"
      },
      "period": {
        "start": "2026-08-15T08:00:00.000Z",
        "end": "2026-08-15T08:35:00.000Z"
      }
    }
  }, {
    "fullUrl": "https://madie.cms.gov/MeasureReport/b862a1d3-311d-4f1f-b0ea-49d00616b373",
    "resource": {
      "resourceType": "MeasureReport",
      "id": "b862a1d3-311d-4f1f-b0ea-49d00616b373",
      "meta": {
        "profile": [ "http://hl7.org/fhir/us/cqfmeasures/StructureDefinition/test-case-cqfm" ]
      },
      "contained": [ {
        "resourceType": "Parameters",
        "id": "0ebe4813-4ce0-43a2-abad-01c5423c0e13-parameters",
        "parameter": [ {
          "name": "subject",
          "valueString": "e00c927a-f454-4611-97b2-e3e2bdfed182"
        } ]
      } ],
      "extension": [ {
        "url": "http://hl7.org/fhir/StructureDefinition/cqf-inputParameters",
        "valueReference": {
          "reference": "#0ebe4813-4ce0-43a2-abad-01c5423c0e13-parameters"
        }
      }, {
        "url": "http://hl7.org/fhir/us/cqfmeasures/StructureDefinition/cqfm-testCaseDescription",
        "valueMarkdown": "Dementia Diagnosis verification status is unconfirmed and ineligible for Initial Population/Denominator"
      } ],
      "modifierExtension": [ {
        "url": "http://hl7.org/fhir/us/cqfmeasures/StructureDefinition/cqfm-isTestCase",
        "valueBoolean": true
      } ],
      "status": "complete",
      "type": "individual",
      "measure": "https://madie.cms.gov/Measure/CMS149FHIRDementiaCognitiveAssess",
      "period": {
        "start": "2026-01-01",
        "end": "2026-12-31"
      },
      "group": [ {
        "id": "Group_1",
        "population": [ {
          "id": "InitialPopulation_1",
          "code": {
            "coding": [ {
              "system": "http://terminology.hl7.org/CodeSystem/measure-population",
              "code": "initial-population",
              "display": "Initial Population"
            } ]
          },
          "count": 1
        }, {
          "id": "Denominator_1",
          "code": {
            "coding": [ {
              "system": "http://terminology.hl7.org/CodeSystem/measure-population",
              "code": "denominator",
              "display": "Denominator"
            } ]
          },
          "count": 1
        }, {
          "id": "Numerator_1",
          "code": {
            "coding": [ {
              "system": "http://terminology.hl7.org/CodeSystem/measure-population",
              "code": "numerator",
              "display": "Numerator"
            } ]
          },
          "count": 0
        }, {
          "id": "DenominatorException_1",
          "code": {
            "coding": [ {
              "system": "http://terminology.hl7.org/CodeSystem/measure-population",
              "code": "denominator-exception",
              "display": "Denominator Exception"
            } ]
          },
          "count": 0
        } ],
        "measureScore": {
          "value": 1.0
        }
      } ],
      "evaluatedResource": [ {
        "reference": "Patient/e00c927a-f454-4611-97b2-e3e2bdfed182"
      }, {
        "reference": "Condition/af892dc3-84f4-4cfc-8b54-ea96195d9e68"
      }, {
        "reference": "Encounter/03d0e875-0cfa-494d-a73b-7abf6331c660"
      }, {
        "reference": "Encounter/6b185c9d-e1c8-4aa8-b44c-7ecd2a834eb6"
      } ]
    }
  } ]
}