{
  "resourceType": "Bundle",
  "id": "633b3f9f0968f80122503cdb",
  "type": "transaction",
  "entry": [ {
    "fullUrl": "https://madie.cms.gov/Patient/7d4e3d3e-645c-4383-a757-27e033089633",
    "resource": {
      "resourceType": "Patient",
      "id": "7d4e3d3e-645c-4383-a757-27e033089633",
      "meta": {
        "profile": [ "http://hl7.org/fhir/us/qicore/StructureDefinition/qicore-patient" ]
      },
      "text": {
        "status": "generated",
        "div": "<div xmlns=\"http://www.w3.org/1999/xhtml\"><div class=\"hapiHeaderText\">HystWithIncreta<b>NUMEXPass</b></div><table class=\"hapiPropertyTable\"><tbody><tr><td>Date of birth</td><td><span>01 February 2004</span></td></tr></tbody></table></div>"
      },
      "extension": [ {
        "url": "http://hl7.org/fhir/us/core/StructureDefinition/us-core-race",
        "extension": [ {
          "url": "ombCategory",
          "valueCoding": {
            "system": "urn:oid:2.16.840.1.113883.6.238",
            "code": "1002-5",
            "display": "American Indian or Alaska Native",
            "userSelected": true
          }
        }, {
          "url": "text",
          "valueString": "American Indian or Alaska Native"
        } ]
      }, {
        "url": "http://hl7.org/fhir/us/core/StructureDefinition/us-core-ethnicity",
        "extension": [ {
          "url": "ombCategory",
          "valueCoding": {
            "system": "urn:oid:2.16.840.1.113883.6.238",
            "code": "2135-2",
            "display": "Hispanic or Latino",
            "userSelected": true
          }
        }, {
          "url": "text",
          "valueString": "Hispanic or Latino"
        } ]
      } ],
      "identifier": [ {
        "type": {
          "coding": [ {
            "system": "http://terminology.hl7.org/CodeSystem/v2-0203",
            "code": "MR"
          } ]
        },
        "system": "https://bonnie-fhir.healthit.gov/",
        "value": "633b3f9f0968f80122503cdb"
      } ],
      "active": true,
      "name": [ {
        "use": "usual",
        "family": "NUMEXPass",
        "given": [ "HystWithIncreta" ]
      } ],
      "gender": "female",
      "birthDate": "2005-02-01"
    },
    "request": {
      "method": "PUT",
      "url": "Patient/7d4e3d3e-645c-4383-a757-27e033089633"
    }
  }, {
    "fullUrl": "https://madie.cms.gov/Observation/f6b2bbfb-95e5-4cdd-adb1-222ee2ba373b",
    "resource": {
      "resourceType": "Observation",
      "id": "f6b2bbfb-95e5-4cdd-adb1-222ee2ba373b",
      "meta": {
        "profile": [ "http://hl7.org/fhir/us/qicore/StructureDefinition/qicore-simple-observation" ]
      },
      "status": "final",
      "category": [ {
        "coding": [ {
          "system": "http://terminology.hl7.org/CodeSystem/observation-category",
          "code": "exam",
          "display": "exam",
          "userSelected": true
        } ]
      } ],
      "code": {
        "coding": [ {
          "system": "http://loinc.org",
          "code": "93857-1"
        } ]
      },
      "subject": {
        "reference": "Patient/7d4e3d3e-645c-4383-a757-27e033089633"
      },
      "effectiveDateTime": "2026-02-01T08:00:00.000+00:00",
      "performer": [ {
        "reference": "Organization/example1",
        "display": "Hendricks Country Hospital"
      } ],
      "valueDateTime": "2026-02-01T08:00:00.000+00:00"
    },
    "request": {
      "method": "PUT",
      "url": "Observation/f6b2bbfb-95e5-4cdd-adb1-222ee2ba373b"
    }
  }, {
    "fullUrl": "https://madie.cms.gov/Observation/a8757d4c-d60c-4e53-8dfd-c920f4260389",
    "resource": {
      "resourceType": "Observation",
      "id": "a8757d4c-d60c-4e53-8dfd-c920f4260389",
      "meta": {
        "profile": [ "http://hl7.org/fhir/us/qicore/StructureDefinition/qicore-simple-observation" ]
      },
      "status": "final",
      "category": [ {
        "coding": [ {
          "system": "http://terminology.hl7.org/CodeSystem/observation-category",
          "code": "exam",
          "display": "exam",
          "userSelected": true
        } ]
      } ],
      "code": {
        "coding": [ {
          "system": "http://loinc.org",
          "code": "11884-4"
        } ]
      },
      "subject": {
        "reference": "Patient/7d4e3d3e-645c-4383-a757-27e033089633"
      },
      "effectiveDateTime": "2026-02-01T08:00:00.000+00:00",
      "performer": [ {
        "reference": "Organization/example1",
        "display": "Hendricks Country Hospital"
      } ],
      "valueQuantity": {
        "value": 20,
        "system": "http://unitsofmeasure.org",
        "code": "wk"
      }
    },
    "request": {
      "method": "PUT",
      "url": "Observation/a8757d4c-d60c-4e53-8dfd-c920f4260389"
    }
  }, {
    "fullUrl": "https://madie.cms.gov/Encounter/05072893-aab2-476f-89c7-ceaa43178928",
    "resource": {
      "resourceType": "Encounter",
      "id": "05072893-aab2-476f-89c7-ceaa43178928",
      "meta": {
        "profile": [ "http://hl7.org/fhir/us/qicore/StructureDefinition/qicore-encounter" ]
      },
      "status": "finished",
      "class": {
        "system": "http://terminology.hl7.org/CodeSystem/v3-ActCode",
        "code": "IMP",
        "display": "inpatient encounter"
      },
      "type": [ {
        "coding": [ {
          "system": "http://snomed.info/sct",
          "code": "183452005"
        } ]
      } ],
      "subject": {
        "reference": "Patient/7d4e3d3e-645c-4383-a757-27e033089633"
      },
      "period": {
        "start": "2026-02-01T08:00:00.000+00:00",
        "end": "2026-02-05T08:15:00.000+00:00"
      },
      "reasonReference": [ {
        "reference": "Condition/ba44fa92-97e3-4916-8547-cd1e20003bc3"
      }, {
        "reference": "Condition/86c1cfd6-449d-4853-a275-299e572c4c80"
      } ]
    },
    "request": {
      "method": "PUT",
      "url": "Encounter/05072893-aab2-476f-89c7-ceaa43178928"
    }
  }, {
    "fullUrl": "https://madie.cms.gov/Claim/8c1df445-bafa-4a35-b6ce-2743e0f060b0",
    "resource": {
      "resourceType": "Claim",
      "id": "8c1df445-bafa-4a35-b6ce-2743e0f060b0",
      "meta": {
        "profile": [ "http://hl7.org/fhir/us/qicore/StructureDefinition/qicore-claim" ]
      },
      "status": "active",
      "type": {
        "coding": [ {
          "system": "http://terminology.hl7.org/CodeSystem/claim-type",
          "code": "institutional",
          "display": "Institutional"
        } ]
      },
      "use": "claim",
      "patient": {
        "reference": "Patient/7d4e3d3e-645c-4383-a757-27e033089633"
      },
      "created": "2026-11-08",
      "provider": {
        "reference": "Practitioner/fa386043-b2f0-4914-aed1-b87a7c2cd373"
      },
      "priority": {
        "coding": [ {
          "system": "http://terminology.hl7.org/CodeSystem/processpriority",
          "code": "normal"
        } ]
      },
      "diagnosis": [ {
        "sequence": 1,
        "diagnosisCodeableConcept": {
          "coding": [ {
            "system": "http://hl7.org/fhir/sid/icd-10-cm",
            "code": "O43.229",
            "display": "Placenta increta, unspecified trimester"
          } ]
        },
        "type": [ {
          "coding": [ {
            "system": "http://terminology.hl7.org/CodeSystem/ex-diagnosistype",
            "code": "discharge",
            "display": "Discharge Diagnosis"
          } ]
        } ],
        "onAdmission": {
          "coding": [ {
            "system": "https://www.cms.gov/Medicare/Medicare-Fee-for-Service-Payment/HospitalAcqCond/Coding",
            "code": "Y"
          } ]
        }
      } ],
      "insurance": [ {
        "sequence": 1,
        "focal": true,
        "coverage": {
          "reference": "Coverage/Coverage-1"
        }
      } ],
      "item": [ {
        "sequence": 1,
        "careTeamSequence": [ 1 ],
        "diagnosisSequence": [ 1 ],
        "productOrService": {
          "coding": [ {
            "system": "http://www.ama-assn.org/go/cpt",
            "code": "99232"
          } ]
        },
        "encounter": [ {
          "reference": "Encounter/05072893-aab2-476f-89c7-ceaa43178928"
        } ]
      }, {
        "sequence": 2,
        "careTeamSequence": [ 1 ],
        "diagnosisSequence": [ 2 ],
        "productOrService": {
          "coding": [ {
            "system": "http://www.ama-assn.org/go/cpt",
            "code": "99233"
          } ]
        },
        "encounter": [ {
          "reference": "Encounter/05072893-aab2-476f-89c7-ceaa43178928"
        } ]
      } ],
      "total": {
        "value": 3800,
        "currency": "USD"
      }
    },
    "request": {
      "method": "PUT",
      "url": "Claim/8c1df445-bafa-4a35-b6ce-2743e0f060b0"
    }
  }, {
    "fullUrl": "https://madie.cms.gov/Condition/ba44fa92-97e3-4916-8547-cd1e20003bc3",
    "resource": {
      "resourceType": "Condition",
      "id": "ba44fa92-97e3-4916-8547-cd1e20003bc3",
      "meta": {
        "profile": [ "http://hl7.org/fhir/us/qicore/StructureDefinition/qicore-condition-encounter-diagnosis" ]
      },
      "category": [ {
        "coding": [ {
          "system": "http://terminology.hl7.org/CodeSystem/condition-category",
          "code": "encounter-diagnosis",
          "display": "Encounter Diagnosis"
        } ]
      } ],
      "code": {
        "coding": [ {
          "system": "http://hl7.org/fhir/sid/icd-10-cm",
          "version": "2023",
          "code": "Z3A.20",
          "display": "20 weeks gestation",
          "userSelected": true
        } ]
      },
      "subject": {
        "reference": "Patient/7d4e3d3e-645c-4383-a757-27e033089633"
      },
      "recordedDate": "2026-10-26T08:00:00.000+00:00"
    },
    "request": {
      "method": "PUT",
      "url": "Condition/ba44fa92-97e3-4916-8547-cd1e20003bc3"
    }
  }, {
    "fullUrl": "https://madie.cms.gov/Condition/86c1cfd6-449d-4853-a275-299e572c4c80",
    "resource": {
      "resourceType": "Condition",
      "id": "86c1cfd6-449d-4853-a275-299e572c4c80",
      "meta": {
        "profile": [ "http://hl7.org/fhir/us/qicore/StructureDefinition/qicore-condition-encounter-diagnosis" ]
      },
      "category": [ {
        "coding": [ {
          "system": "http://terminology.hl7.org/CodeSystem/condition-category",
          "code": "encounter-diagnosis",
          "display": "Encounter Diagnosis"
        } ]
      } ],
      "code": {
        "coding": [ {
          "system": "http://hl7.org/fhir/sid/icd-10-cm",
          "code": "O43.229",
          "display": "Placenta increta, unspecified trimester",
          "userSelected": true
        } ]
      },
      "subject": {
        "reference": "Patient/7d4e3d3e-645c-4383-a757-27e033089633"
      },
      "recordedDate": "2026-02-01T08:00:00.000+00:00"
    },
    "request": {
      "method": "PUT",
      "url": "Condition/86c1cfd6-449d-4853-a275-299e572c4c80"
    }
  }, {
    "fullUrl": "https://madie.cms.gov/Coverage/02bac2a5-de87-4eaf-9ff9-291fc797a549",
    "resource": {
      "resourceType": "Coverage",
      "id": "02bac2a5-de87-4eaf-9ff9-291fc797a549",
      "status": "active",
      "subscriberId": "523435",
      "beneficiary": {
        "reference": "Patient/7d4e3d3e-645c-4383-a757-27e033089633"
      },
      "relationship": {
        "coding": [ {
          "system": "http://terminology.hl7.org/CodeSystem/subscriber-relationship",
          "code": "self"
        } ]
      },
      "period": {
        "start": "2005-02-01T08:00:00.000+00:00"
      },
      "payor": [ {
        "reference": "Organization/fd89454b-3ca6-49b1-a494-a0d8a3e1eb18"
      } ]
    },
    "request": {
      "method": "PUT",
      "url": "Coverage/02bac2a5-de87-4eaf-9ff9-291fc797a549"
    }
  }, {
    "fullUrl": "https://madie.cms.gov/Procedure/6908635d-9434-4b87-9977-c6e1d306e9ab",
    "resource": {
      "resourceType": "Procedure",
      "id": "6908635d-9434-4b87-9977-c6e1d306e9ab",
      "meta": {
        "profile": [ "http://hl7.org/fhir/us/qicore/StructureDefinition/qicore-procedure" ]
      },
      "extension": [ {
        "url": "http://hl7.org/fhir/us/qicore/StructureDefinition/qicore-recorded",
        "valueDateTime": "2014-04-05T13:35:00.000+00:00"
      } ],
      "status": "completed",
      "code": {
        "coding": [ {
          "system": "http://snomed.info/sct",
          "code": "10745001"
        } ]
      },
      "subject": {
        "reference": "Patient/7d4e3d3e-645c-4383-a757-27e033089633"
      },
      "performedPeriod": {
        "start": "2026-02-01T08:00:00.000+00:00",
        "end": "2026-02-01T08:00:00.000+00:00"
      }
    },
    "request": {
      "method": "PUT",
      "url": "Procedure/6908635d-9434-4b87-9977-c6e1d306e9ab"
    }
  }, {
    "fullUrl": "https://madie.cms.gov/Procedure/d12000e0-2f37-480a-97d5-93a3eac04f2f",
    "resource": {
      "resourceType": "Procedure",
      "id": "d12000e0-2f37-480a-97d5-93a3eac04f2f",
      "meta": {
        "profile": [ "http://hl7.org/fhir/us/qicore/StructureDefinition/qicore-procedure" ]
      },
      "extension": [ {
        "url": "http://hl7.org/fhir/us/qicore/StructureDefinition/qicore-recorded",
        "valueDateTime": "2026-02-01T04:01:00.000+00:00"
      } ],
      "status": "completed",
      "code": {
        "coding": [ {
          "system": "http://snomed.info/sct",
          "code": "11050006"
        } ]
      },
      "subject": {
        "reference": "Patient/7d4e3d3e-645c-4383-a757-27e033089633"
      },
      "performedPeriod": {
        "start": "2026-02-04T00:00:00.000+00:00",
        "end": "2026-02-04T11:59:00.000+00:00"
      }
    },
    "request": {
      "method": "PUT",
      "url": "Procedure/d12000e0-2f37-480a-97d5-93a3eac04f2f"
    }
  }, {
    "fullUrl": "https://madie.cms.gov/Organization/fd89454b-3ca6-49b1-a494-a0d8a3e1eb18",
    "resource": {
      "resourceType": "Organization",
      "id": "fd89454b-3ca6-49b1-a494-a0d8a3e1eb18",
      "meta": {
        "profile": [ "http://hl7.org/fhir/us/qicore/StructureDefinition/qicore-organization" ]
      },
      "identifier": [ {
        "use": "temp",
        "system": "urn:oid:2.16.840.1.113883.4.4",
        "value": "21-3259825"
      } ],
      "active": true,
      "type": [ {
        "coding": [ {
          "system": "http://terminology.hl7.org/CodeSystem/organization-type",
          "code": "pay",
          "display": "Payer"
        } ]
      } ],
      "name": "Blue Cross Blue Shield of Texas",
      "telecom": [ {
        "system": "phone",
        "value": "(+1) 972-766-6900"
      } ],
      "address": [ {
        "use": "billing",
        "type": "postal",
        "line": [ "P.O. Box 660044" ],
        "city": "Dallas",
        "state": "TX",
        "postalCode": "75266-0044",
        "country": "USA"
      } ]
    },
    "request": {
      "method": "PUT",
      "url": "Organization/fd89454b-3ca6-49b1-a494-a0d8a3e1eb18"
    }
  }, {
    "fullUrl": "https://madie.cms.gov/Practitioner/fa386043-b2f0-4914-aed1-b87a7c2cd373",
    "resource": {
      "resourceType": "Practitioner",
      "id": "fa386043-b2f0-4914-aed1-b87a7c2cd373",
      "meta": {
        "profile": [ "http://hl7.org/fhir/us/qicore/StructureDefinition/qicore-practitioner" ]
      },
      "identifier": [ {
        "system": "http://hl7.org/fhir/sid/us-npi",
        "value": "9999999896"
      } ],
      "name": [ {
        "family": "Evil",
        "prefix": [ "Dr" ]
      } ]
    },
    "request": {
      "method": "PUT",
      "url": "Practitioner/fa386043-b2f0-4914-aed1-b87a7c2cd373"
    }
  }, {
    "fullUrl": "https://madie.cms.gov/MeasureReport/ef370ab0-7527-4022-9c52-96ea612e0314",
    "resource": {
      "resourceType": "MeasureReport",
      "id": "ef370ab0-7527-4022-9c52-96ea612e0314",
      "meta": {
        "profile": [ "http://hl7.org/fhir/us/cqfmeasures/StructureDefinition/test-case-cqfm" ]
      },
      "contained": [ {
        "resourceType": "Parameters",
        "id": "a37c98ab-f6fd-42ed-ab22-900e8d25b358-parameters",
        "parameter": [ {
          "name": "subject",
          "valueString": "7d4e3d3e-645c-4383-a757-27e033089633"
        } ]
      } ],
      "extension": [ {
        "url": "http://hl7.org/fhir/StructureDefinition/cqf-inputParameters",
        "valueReference": {
          "reference": "#a37c98ab-f6fd-42ed-ab22-900e8d25b358-parameters"
        }
      }, {
        "url": "http://hl7.org/fhir/us/cqfmeasures/StructureDefinition/cqfm-testCaseDescription",
        "valueMarkdown": "Hysterectomy with Placenta Increta and no other SOC."
      } ],
      "modifierExtension": [ {
        "url": "http://hl7.org/fhir/us/cqfmeasures/StructureDefinition/cqfm-isTestCase",
        "valueBoolean": true
      } ],
      "status": "complete",
      "type": "individual",
      "measure": "https://madie.cms.gov/Measure/CMS1028FHIRPCSevereOBComps",
      "period": {
        "start": "2026-01-01",
        "end": "2026-12-31"
      },
      "group": [ {
        "id": "Group_1",
        "population": [ {
          "id": "InitialPopulation_1",
          "code": {
            "coding": [ {
              "system": "http://terminology.hl7.org/CodeSystem/measure-population",
              "code": "initial-population",
              "display": "Initial Population"
            } ]
          },
          "count": 1
        }, {
          "id": "Denominator_1",
          "code": {
            "coding": [ {
              "system": "http://terminology.hl7.org/CodeSystem/measure-population",
              "code": "denominator",
              "display": "Denominator"
            } ]
          },
          "count": 1
        }, {
          "id": "Numerator_1",
          "code": {
            "coding": [ {
              "system": "http://terminology.hl7.org/CodeSystem/measure-population",
              "code": "numerator",
              "display": "Numerator"
            } ]
          },
          "count": 1
        }, {
          "id": "NumeratorExclusion_1",
          "code": {
            "coding": [ {
              "system": "http://terminology.hl7.org/CodeSystem/measure-population",
              "code": "numerator-exclusion",
              "display": "Numerator Exclusion"
            } ]
          },
          "count": 1
        } ],
        "measureScore": {
          "value": 0.0
        }
      }, {
        "id": "Group_2",
        "population": [ {
          "id": "InitialPopulation_2",
          "code": {
            "coding": [ {
              "system": "http://terminology.hl7.org/CodeSystem/measure-population",
              "code": "initial-population",
              "display": "Initial Population"
            } ]
          },
          "count": 1
        }, {
          "id": "Denominator_2",
          "code": {
            "coding": [ {
              "system": "http://terminology.hl7.org/CodeSystem/measure-population",
              "code": "denominator",
              "display": "Denominator"
            } ]
          },
          "count": 1
        }, {
          "id": "Numerator_2",
          "code": {
            "coding": [ {
              "system": "http://terminology.hl7.org/CodeSystem/measure-population",
              "code": "numerator",
              "display": "Numerator"
            } ]
          },
          "count": 1
        }, {
          "id": "NumeratorExclusion_2",
          "code": {
            "coding": [ {
              "system": "http://terminology.hl7.org/CodeSystem/measure-population",
              "code": "numerator-exclusion",
              "display": "Numerator Exclusion"
            } ]
          },
          "count": 1
        } ],
        "measureScore": {
          "value": 0.0
        }
      } ],
      "evaluatedResource": [ {
        "reference": "Patient/7d4e3d3e-645c-4383-a757-27e033089633"
      }, {
        "reference": "Observation/f6b2bbfb-95e5-4cdd-adb1-222ee2ba373b"
      }, {
        "reference": "Observation/a8757d4c-d60c-4e53-8dfd-c920f4260389"
      }, {
        "reference": "Encounter/05072893-aab2-476f-89c7-ceaa43178928"
      }, {
        "reference": "Claim/8c1df445-bafa-4a35-b6ce-2743e0f060b0"
      }, {
        "reference": "Condition/ba44fa92-97e3-4916-8547-cd1e20003bc3"
      }, {
        "reference": "Condition/86c1cfd6-449d-4853-a275-299e572c4c80"
      }, {
        "reference": "Coverage/02bac2a5-de87-4eaf-9ff9-291fc797a549"
      }, {
        "reference": "Procedure/6908635d-9434-4b87-9977-c6e1d306e9ab"
      }, {
        "reference": "Procedure/d12000e0-2f37-480a-97d5-93a3eac04f2f"
      }, {
        "reference": "Organization/fd89454b-3ca6-49b1-a494-a0d8a3e1eb18"
      }, {
        "reference": "Practitioner/fa386043-b2f0-4914-aed1-b87a7c2cd373"
      } ]
    },
    "request": {
      "method": "PUT",
      "url": "MeasureReport/ef370ab0-7527-4022-9c52-96ea612e0314"
    }
  } ]
}