{
  "resourceType": "Bundle",
  "id": "62d95b63f0347d1abcae6c07",
  "type": "collection",
  "entry": [ {
    "fullUrl": "https://madie.cms.gov/Patient/9f2a5e21-9d12-4acc-82a4-f6f9e20f073a",
    "resource": {
      "resourceType": "Patient",
      "id": "9f2a5e21-9d12-4acc-82a4-f6f9e20f073a",
      "meta": {
        "profile": [ "http://hl7.org/fhir/us/qicore/StructureDefinition/qicore-patient" ]
      },
      "extension": [ {
        "url": "http://hl7.org/fhir/us/core/StructureDefinition/us-core-race",
        "extension": [ {
          "url": "ombCategory",
          "valueCoding": {
            "system": "urn:oid:2.16.840.1.113883.6.238",
            "code": "1002-5",
            "display": "American Indian or Alaska Native",
            "userSelected": true
          }
        }, {
          "url": "text",
          "valueString": "American Indian or Alaska Native"
        } ]
      }, {
        "url": "http://hl7.org/fhir/us/core/StructureDefinition/us-core-ethnicity",
        "extension": [ {
          "url": "ombCategory",
          "valueCoding": {
            "system": "urn:oid:2.16.840.1.113883.6.238",
            "code": "2135-2",
            "display": "Hispanic or Latino",
            "userSelected": true
          }
        }, {
          "url": "text",
          "valueString": "Hispanic or Latino"
        } ]
      } ],
      "identifier": [ {
        "type": {
          "coding": [ {
            "system": "http://terminology.hl7.org/CodeSystem/v2-0203",
            "code": "MR"
          } ]
        },
        "system": "https://bonnie-fhir.healthit.gov/",
        "value": "62d95b63f0347d1abcae6c07"
      } ],
      "name": [ {
        "family": "IPFail",
        "given": [ "VirtualEnc" ]
      } ],
      "gender": "male",
      "birthDate": "2005-12-31"
    }
  }, {
    "fullUrl": "https://madie.cms.gov/Encounter/a68912c9-dec0-4550-985d-419866ce8ec6",
    "resource": {
      "resourceType": "Encounter",
      "id": "a68912c9-dec0-4550-985d-419866ce8ec6",
      "meta": {
        "profile": [ "http://hl7.org/fhir/us/qicore/StructureDefinition/qicore-encounter" ]
      },
      "status": "finished",
      "class": {
        "system": "http://terminology.hl7.org/CodeSystem/v3-ActCode",
        "code": "VR",
        "display": "virtual",
        "userSelected": true
      },
      "type": [ {
        "coding": [ {
          "system": "http://snomed.info/sct",
          "version": "2022-03",
          "code": "103705002",
          "display": "Patient status observation (procedure)",
          "userSelected": true
        } ]
      } ],
      "subject": {
        "reference": "Patient/9f2a5e21-9d12-4acc-82a4-f6f9e20f073a"
      },
      "period": {
        "start": "2026-07-21T08:00:00.000Z",
        "end": "2026-07-21T08:30:00.000Z"
      }
    }
  }, {
    "fullUrl": "https://madie.cms.gov/Coverage/26fccff4-e76d-43e0-8f0b-5251053255fa",
    "resource": {
      "resourceType": "Coverage",
      "id": "26fccff4-e76d-43e0-8f0b-5251053255fa",
      "meta": {
        "profile": [ "http://hl7.org/fhir/us/qicore/StructureDefinition/qicore-coverage" ]
      },
      "status": "active",
      "subscriberId": "6834041",
      "beneficiary": {
        "reference": "Patient/9f2a5e21-9d12-4acc-82a4-f6f9e20f073a"
      },
      "relationship": {
        "coding": [ {
          "system": "http://terminology.hl7.org/CodeSystem/subscriber-relationship",
          "code": "self",
          "display": "Self"
        } ]
      },
      "payor": [ {
        "reference": "Organization/6a41b97f-64d5-446c-946d-29f43df9c1e6"
      } ]
    }
  }, {
    "fullUrl": "https://madie.cms.gov/Organization/6a41b97f-64d5-446c-946d-29f43df9c1e6",
    "resource": {
      "resourceType": "Organization",
      "id": "6a41b97f-64d5-446c-946d-29f43df9c1e6",
      "meta": {
        "profile": [ "http://hl7.org/fhir/us/qicore/StructureDefinition/qicore-organization" ]
      },
      "identifier": [ {
        "use": "temp",
        "system": "urn:oid:2.16.840.1.113883.4.4",
        "value": "21-3259825"
      } ],
      "active": true,
      "type": [ {
        "coding": [ {
          "system": "http://terminology.hl7.org/CodeSystem/organization-type",
          "code": "pay",
          "display": "Payer"
        } ]
      } ],
      "name": "Blue Cross Blue Shield of Texas",
      "telecom": [ {
        "system": "phone",
        "value": "(+1) 972-766-6900"
      } ],
      "address": [ {
        "use": "billing",
        "type": "postal",
        "line": [ "P.O. Box 660044" ],
        "city": "Dallas",
        "state": "TX",
        "postalCode": "75266-0044",
        "country": "USA"
      } ]
    }
  }, {
    "fullUrl": "https://madie.cms.gov/Practitioner/dbd5def9-e3bf-414b-9596-7c1bcf8c1d9d",
    "resource": {
      "resourceType": "Practitioner",
      "id": "dbd5def9-e3bf-414b-9596-7c1bcf8c1d9d",
      "meta": {
        "profile": [ "http://hl7.org/fhir/us/qicore/StructureDefinition/qicore-practitioner" ]
      },
      "identifier": [ {
        "system": "http://hl7.org/fhir/sid/us-npi",
        "value": "1134108814"
      } ],
      "name": [ {
        "family": "Evil",
        "prefix": [ "Dr" ]
      } ]
    }
  }, {
    "fullUrl": "https://madie.cms.gov/MeasureReport/3dbd4f0e-5317-46a8-80fb-c4dee4d39f75",
    "resource": {
      "resourceType": "MeasureReport",
      "id": "3dbd4f0e-5317-46a8-80fb-c4dee4d39f75",
      "meta": {
        "profile": [ "http://hl7.org/fhir/us/cqfmeasures/StructureDefinition/test-case-cqfm" ]
      },
      "contained": [ {
        "resourceType": "Parameters",
        "id": "d3c11759-c542-4142-8d29-94ffbfd699c6-parameters",
        "parameter": [ {
          "name": "subject",
          "valueString": "9f2a5e21-9d12-4acc-82a4-f6f9e20f073a"
        } ]
      } ],
      "extension": [ {
        "url": "http://hl7.org/fhir/StructureDefinition/cqf-inputParameters",
        "valueReference": {
          "reference": "#d3c11759-c542-4142-8d29-94ffbfd699c6-parameters"
        }
      }, {
        "url": "http://hl7.org/fhir/us/cqfmeasures/StructureDefinition/cqfm-testCaseDescription",
        "valueMarkdown": "Virtual encounters are not accepted for this measure since BP needs to be taken by qualified personnel."
      } ],
      "modifierExtension": [ {
        "url": "http://hl7.org/fhir/us/cqfmeasures/StructureDefinition/cqfm-isTestCase",
        "valueBoolean": true
      } ],
      "status": "complete",
      "type": "individual",
      "measure": "https://madie.cms.gov/Measure/CMS22FHIRPCSBPScreeningFollowUp",
      "period": {
        "start": "2026-01-01",
        "end": "2026-12-31"
      },
      "group": [ {
        "id": "Group_1",
        "population": [ {
          "id": "InitialPopulation_1",
          "code": {
            "coding": [ {
              "system": "http://terminology.hl7.org/CodeSystem/measure-population",
              "code": "initial-population",
              "display": "Initial Population"
            } ]
          },
          "count": 0
        }, {
          "id": "Denominator_1",
          "code": {
            "coding": [ {
              "system": "http://terminology.hl7.org/CodeSystem/measure-population",
              "code": "denominator",
              "display": "Denominator"
            } ]
          },
          "count": 0
        }, {
          "id": "DenominatorExclusion_1",
          "code": {
            "coding": [ {
              "system": "http://terminology.hl7.org/CodeSystem/measure-population",
              "code": "denominator-exclusion",
              "display": "Denominator Exclusion"
            } ]
          },
          "count": 0
        }, {
          "id": "Numerator_1",
          "code": {
            "coding": [ {
              "system": "http://terminology.hl7.org/CodeSystem/measure-population",
              "code": "numerator",
              "display": "Numerator"
            } ]
          },
          "count": 0
        }, {
          "id": "DenominatorException_1",
          "code": {
            "coding": [ {
              "system": "http://terminology.hl7.org/CodeSystem/measure-population",
              "code": "denominator-exception",
              "display": "Denominator Exception"
            } ]
          },
          "count": 0
        } ],
        "measureScore": {
          "value": 0.0
        }
      } ],
      "evaluatedResource": [ {
        "reference": "Patient/9f2a5e21-9d12-4acc-82a4-f6f9e20f073a"
      }, {
        "reference": "Encounter/a68912c9-dec0-4550-985d-419866ce8ec6"
      }, {
        "reference": "Coverage/26fccff4-e76d-43e0-8f0b-5251053255fa"
      }, {
        "reference": "Organization/6a41b97f-64d5-446c-946d-29f43df9c1e6"
      }, {
        "reference": "Practitioner/dbd5def9-e3bf-414b-9596-7c1bcf8c1d9d"
      } ]
    }
  } ]
}