{
  "resourceType": "Bundle",
  "id": "63487c300968f801225401bf",
  "type": "transaction",
  "entry": [ {
    "fullUrl": "https://madie.cms.gov/Patient/0acdfbb5-024b-4ae7-bede-f3a627996733",
    "resource": {
      "resourceType": "Patient",
      "id": "0acdfbb5-024b-4ae7-bede-f3a627996733",
      "meta": {
        "profile": [ "http://hl7.org/fhir/us/qicore/StructureDefinition/qicore-patient" ]
      },
      "text": {
        "status": "generated",
        "div": "<div xmlns=\"http://www.w3.org/1999/xhtml\"><div class=\"hapiHeaderText\">EncDxNotPlacentaPrevia<b>DENEXFAIL</b></div><table class=\"hapiPropertyTable\"><tbody><tr><td>Identifier</td><td>26ae2095ae359d33c45002ef417f38a5e4f6a61da3ea75d0332f68a4cb93137e</td></tr><tr><td>Date of birth</td><td><span>14 February 1985</span></td></tr></tbody></table></div>"
      },
      "extension": [ {
        "url": "http://hl7.org/fhir/us/core/StructureDefinition/us-core-race",
        "extension": [ {
          "url": "ombCategory",
          "valueCoding": {
            "system": "urn:oid:2.16.840.1.113883.6.238",
            "code": "1002-5",
            "display": "American Indian or Alaska Native",
            "userSelected": true
          }
        }, {
          "url": "text",
          "valueString": "American Indian or Alaska Native"
        } ]
      }, {
        "url": "http://hl7.org/fhir/us/core/StructureDefinition/us-core-ethnicity",
        "extension": [ {
          "url": "ombCategory",
          "valueCoding": {
            "system": "urn:oid:2.16.840.1.113883.6.238",
            "code": "2135-2",
            "display": "Hispanic or Latino",
            "userSelected": true
          }
        }, {
          "url": "text",
          "valueString": "Hispanic or Latino"
        } ]
      } ],
      "identifier": [ {
        "type": {
          "coding": [ {
            "system": "http://terminology.hl7.org/CodeSystem/v2-0203",
            "code": "MR"
          } ]
        },
        "system": "https://bonnie-fhir.healthit.gov/",
        "value": "63487c300968f801225401bf"
      } ],
      "active": true,
      "name": [ {
        "use": "usual",
        "family": "DENEXFail",
        "given": [ "EncDxNotPlacentaPrevia" ]
      } ],
      "gender": "female",
      "birthDate": "1998-02-14"
    },
    "request": {
      "method": "PUT",
      "url": "Patient/0acdfbb5-024b-4ae7-bede-f3a627996733"
    }
  }, {
    "fullUrl": "https://madie.cms.gov/Observation/457991c7-bf26-42b6-95ff-9f6f2e410ca4",
    "resource": {
      "resourceType": "Observation",
      "id": "457991c7-bf26-42b6-95ff-9f6f2e410ca4",
      "meta": {
        "profile": [ "http://hl7.org/fhir/us/qicore/StructureDefinition/qicore-simple-observation" ]
      },
      "status": "final",
      "category": [ {
        "coding": [ {
          "system": "http://terminology.hl7.org/CodeSystem/observation-category",
          "code": "exam",
          "display": "exam",
          "userSelected": true
        } ]
      } ],
      "code": {
        "coding": [ {
          "system": "http://loinc.org",
          "code": "11996-6"
        } ]
      },
      "subject": {
        "reference": "Patient/0acdfbb5-024b-4ae7-bede-f3a627996733"
      },
      "effectiveDateTime": "2026-06-08T08:00:00.000+00:00",
      "performer": [ {
        "reference": "Organization/example1",
        "display": "Hendricks Country Hospital"
      } ],
      "valueInteger": 1
    },
    "request": {
      "method": "PUT",
      "url": "Observation/457991c7-bf26-42b6-95ff-9f6f2e410ca4"
    }
  }, {
    "fullUrl": "https://madie.cms.gov/Observation/ec18702b-01d3-40be-a458-7d9d8ee2cbd4",
    "resource": {
      "resourceType": "Observation",
      "id": "ec18702b-01d3-40be-a458-7d9d8ee2cbd4",
      "meta": {
        "profile": [ "http://hl7.org/fhir/us/qicore/StructureDefinition/qicore-simple-observation" ]
      },
      "status": "final",
      "category": [ {
        "coding": [ {
          "system": "http://terminology.hl7.org/CodeSystem/observation-category",
          "code": "exam",
          "display": "exam",
          "userSelected": true
        } ]
      } ],
      "code": {
        "coding": [ {
          "system": "http://loinc.org",
          "code": "11884-4"
        } ]
      },
      "subject": {
        "reference": "Patient/0acdfbb5-024b-4ae7-bede-f3a627996733"
      },
      "effectiveDateTime": "2026-06-08T08:00:00.000+00:00",
      "performer": [ {
        "reference": "Organization/example1",
        "display": "Hendricks Country Hospital"
      } ],
      "valueQuantity": {
        "value": 43,
        "system": "http://unitsofmeasure.org",
        "code": "wk"
      }
    },
    "request": {
      "method": "PUT",
      "url": "Observation/ec18702b-01d3-40be-a458-7d9d8ee2cbd4"
    }
  }, {
    "fullUrl": "https://madie.cms.gov/Observation/10783bfe-3dc0-43ac-a50f-a36f71cb8388",
    "resource": {
      "resourceType": "Observation",
      "id": "10783bfe-3dc0-43ac-a50f-a36f71cb8388",
      "meta": {
        "profile": [ "http://hl7.org/fhir/us/qicore/StructureDefinition/qicore-simple-observation" ]
      },
      "status": "final",
      "category": [ {
        "coding": [ {
          "system": "http://terminology.hl7.org/CodeSystem/observation-category",
          "code": "exam",
          "display": "exam",
          "userSelected": true
        } ]
      } ],
      "code": {
        "coding": [ {
          "system": "http://loinc.org",
          "code": "93857-1"
        } ]
      },
      "subject": {
        "reference": "Patient/0acdfbb5-024b-4ae7-bede-f3a627996733"
      },
      "effectiveDateTime": "2026-06-08T20:00:00.000+00:00",
      "performer": [ {
        "reference": "Organization/example1",
        "display": "Hendricks Country Hospital"
      } ],
      "valueDateTime": "2026-06-08T20:00:00.000+00:00"
    },
    "request": {
      "method": "PUT",
      "url": "Observation/10783bfe-3dc0-43ac-a50f-a36f71cb8388"
    }
  }, {
    "fullUrl": "https://madie.cms.gov/Encounter/5e8df7e8-2aee-46d2-96ec-54fe08072fe8",
    "resource": {
      "resourceType": "Encounter",
      "id": "5e8df7e8-2aee-46d2-96ec-54fe08072fe8",
      "meta": {
        "profile": [ "http://hl7.org/fhir/us/qicore/StructureDefinition/qicore-encounter" ]
      },
      "status": "finished",
      "class": {
        "system": "http://terminology.hl7.org/CodeSystem/v3-ActCode",
        "code": "IMP",
        "display": "inpatient encounter"
      },
      "type": [ {
        "coding": [ {
          "system": "http://snomed.info/sct",
          "code": "8715000"
        } ]
      } ],
      "subject": {
        "reference": "Patient/0acdfbb5-024b-4ae7-bede-f3a627996733"
      },
      "period": {
        "start": "2026-06-08T08:00:00.000+00:00",
        "end": "2026-06-10T08:15:00.000+00:00"
      },
      "reasonCode": [ {
        "coding": [ {
          "system": "http://snomed.info/sct",
          "code": "169826009",
          "display": "Single live birth from singleton pregnancy (finding)"
        } ]
      } ]
    },
    "request": {
      "method": "PUT",
      "url": "Encounter/5e8df7e8-2aee-46d2-96ec-54fe08072fe8"
    }
  }, {
    "fullUrl": "https://madie.cms.gov/Procedure/a8361381-8479-4836-b0f0-a0a328643f93",
    "resource": {
      "resourceType": "Procedure",
      "id": "a8361381-8479-4836-b0f0-a0a328643f93",
      "meta": {
        "profile": [ "http://hl7.org/fhir/us/qicore/StructureDefinition/qicore-procedure" ]
      },
      "extension": [ {
        "url": "http://hl7.org/fhir/us/qicore/StructureDefinition/qicore-recorded",
        "valueDateTime": "2014-04-05T13:35:00.000+00:00"
      } ],
      "status": "completed",
      "code": {
        "coding": [ {
          "system": "http://snomed.info/sct",
          "code": "11466000",
          "userSelected": true
        } ]
      },
      "subject": {
        "reference": "Patient/0acdfbb5-024b-4ae7-bede-f3a627996733"
      },
      "performedDateTime": "2026-06-08T20:00:00.000+00:00"
    },
    "request": {
      "method": "PUT",
      "url": "Procedure/a8361381-8479-4836-b0f0-a0a328643f93"
    }
  }, {
    "fullUrl": "https://madie.cms.gov/Condition/c8ec0a3f-45fd-4bb2-a4f0-55e0df96ab01",
    "resource": {
      "resourceType": "Condition",
      "id": "c8ec0a3f-45fd-4bb2-a4f0-55e0df96ab01",
      "meta": {
        "profile": [ "http://hl7.org/fhir/us/qicore/StructureDefinition/qicore-condition-encounter-diagnosis" ]
      },
      "category": [ {
        "coding": [ {
          "system": "http://terminology.hl7.org/CodeSystem/condition-category",
          "code": "encounter-diagnosis",
          "display": "Encounter Diagnosis"
        } ]
      } ],
      "code": {
        "coding": [ {
          "system": "http://snomed.info/sct",
          "version": "2022-09",
          "code": "169826009",
          "display": "Single live birth (finding)",
          "userSelected": true
        } ]
      },
      "subject": {
        "reference": "Patient/0acdfbb5-024b-4ae7-bede-f3a627996733"
      },
      "encounter": {
        "reference": "Encounter/5e8df7e8-2aee-46d2-96ec-54fe08072fe8"
      },
      "recordedDate": "2026-10-17T08:00:00.000+00:00"
    },
    "request": {
      "method": "PUT",
      "url": "Condition/c8ec0a3f-45fd-4bb2-a4f0-55e0df96ab01"
    }
  }, {
    "fullUrl": "https://madie.cms.gov/Coverage/4d1cd0a0-7ace-4c35-87f2-f243f668b585",
    "resource": {
      "resourceType": "Coverage",
      "id": "4d1cd0a0-7ace-4c35-87f2-f243f668b585",
      "meta": {
        "profile": [ "http://hl7.org/fhir/us/qicore/StructureDefinition/qicore-coverage" ]
      },
      "status": "active",
      "subscriberId": "523435",
      "beneficiary": {
        "reference": "Patient/0acdfbb5-024b-4ae7-bede-f3a627996733"
      },
      "relationship": {
        "coding": [ {
          "system": "http://terminology.hl7.org/CodeSystem/subscriber-relationship",
          "code": "self"
        } ]
      },
      "payor": [ {
        "reference": "Organization/51a77909-aad8-42eb-8b8c-163267cd829d"
      } ]
    },
    "request": {
      "method": "PUT",
      "url": "Coverage/4d1cd0a0-7ace-4c35-87f2-f243f668b585"
    }
  }, {
    "fullUrl": "https://madie.cms.gov/Organization/51a77909-aad8-42eb-8b8c-163267cd829d",
    "resource": {
      "resourceType": "Organization",
      "id": "51a77909-aad8-42eb-8b8c-163267cd829d",
      "meta": {
        "profile": [ "http://hl7.org/fhir/us/qicore/StructureDefinition/qicore-organization" ]
      },
      "identifier": [ {
        "use": "temp",
        "system": "urn:oid:2.16.840.1.113883.4.4",
        "value": "21-3259825"
      } ],
      "active": true,
      "type": [ {
        "coding": [ {
          "system": "http://terminology.hl7.org/CodeSystem/organization-type",
          "code": "pay",
          "display": "Payer"
        } ]
      } ],
      "name": "Blue Cross Blue Shield of Texas",
      "telecom": [ {
        "system": "phone",
        "value": "(+1) 972-766-6900"
      } ],
      "address": [ {
        "use": "billing",
        "type": "postal",
        "line": [ "P.O. Box 660044" ],
        "city": "Dallas",
        "state": "TX",
        "postalCode": "75266-0044",
        "country": "USA"
      } ]
    },
    "request": {
      "method": "PUT",
      "url": "Organization/51a77909-aad8-42eb-8b8c-163267cd829d"
    }
  }, {
    "fullUrl": "https://madie.cms.gov/Practitioner/fdf15e9e-4f30-40a6-8feb-33b79a9b9f09",
    "resource": {
      "resourceType": "Practitioner",
      "id": "fdf15e9e-4f30-40a6-8feb-33b79a9b9f09",
      "meta": {
        "profile": [ "http://hl7.org/fhir/us/qicore/StructureDefinition/qicore-practitioner" ]
      },
      "identifier": [ {
        "system": "http://hl7.org/fhir/sid/us-npi",
        "value": "1234567890"
      } ],
      "name": [ {
        "family": "Evil",
        "prefix": [ "Dr" ]
      } ]
    },
    "request": {
      "method": "PUT",
      "url": "Practitioner/fdf15e9e-4f30-40a6-8feb-33b79a9b9f09"
    }
  }, {
    "fullUrl": "https://madie.cms.gov/MeasureReport/3bf9193f-0fe0-4fef-a58f-8beeac067b53",
    "resource": {
      "resourceType": "MeasureReport",
      "id": "3bf9193f-0fe0-4fef-a58f-8beeac067b53",
      "meta": {
        "profile": [ "http://hl7.org/fhir/us/cqfmeasures/StructureDefinition/test-case-cqfm" ]
      },
      "contained": [ {
        "resourceType": "Parameters",
        "id": "db54da90-d3bd-43c7-8dea-18ddc2fe8111-parameters",
        "parameter": [ {
          "name": "subject",
          "valueString": "0acdfbb5-024b-4ae7-bede-f3a627996733"
        } ]
      } ],
      "extension": [ {
        "url": "http://hl7.org/fhir/StructureDefinition/cqf-inputParameters",
        "valueReference": {
          "reference": "#db54da90-d3bd-43c7-8dea-18ddc2fe8111-parameters"
        }
      }, {
        "url": "http://hl7.org/fhir/us/cqfmeasures/StructureDefinition/cqfm-testCaseDescription",
        "valueMarkdown": "EGA 43 weeks; Placenta previa not on encounter, gravida 1, \n"
      } ],
      "modifierExtension": [ {
        "url": "http://hl7.org/fhir/us/cqfmeasures/StructureDefinition/cqfm-isTestCase",
        "valueBoolean": true
      } ],
      "status": "complete",
      "type": "individual",
      "measure": "https://madie.cms.gov/Measure/CMS0334FHIRPCCesareanBirth",
      "period": {
        "start": "2026-01-01",
        "end": "2026-12-31"
      },
      "group": [ {
        "id": "Group_1",
        "population": [ {
          "id": "InitialPopulation_1",
          "code": {
            "coding": [ {
              "system": "http://terminology.hl7.org/CodeSystem/measure-population",
              "code": "initial-population",
              "display": "Initial Population"
            } ]
          },
          "count": 1
        }, {
          "id": "Denominator_1",
          "code": {
            "coding": [ {
              "system": "http://terminology.hl7.org/CodeSystem/measure-population",
              "code": "denominator",
              "display": "Denominator"
            } ]
          },
          "count": 1
        }, {
          "id": "DenominatorExclusion_1",
          "code": {
            "coding": [ {
              "system": "http://terminology.hl7.org/CodeSystem/measure-population",
              "code": "denominator-exclusion",
              "display": "Denominator Exclusion"
            } ]
          },
          "count": 0
        }, {
          "id": "Numerator_1",
          "code": {
            "coding": [ {
              "system": "http://terminology.hl7.org/CodeSystem/measure-population",
              "code": "numerator",
              "display": "Numerator"
            } ]
          },
          "count": 1
        } ],
        "measureScore": {
          "value": 0.0
        }
      } ],
      "evaluatedResource": [ {
        "reference": "Patient/0acdfbb5-024b-4ae7-bede-f3a627996733"
      }, {
        "reference": "Observation/457991c7-bf26-42b6-95ff-9f6f2e410ca4"
      }, {
        "reference": "Observation/ec18702b-01d3-40be-a458-7d9d8ee2cbd4"
      }, {
        "reference": "Observation/10783bfe-3dc0-43ac-a50f-a36f71cb8388"
      }, {
        "reference": "Encounter/5e8df7e8-2aee-46d2-96ec-54fe08072fe8"
      }, {
        "reference": "Procedure/a8361381-8479-4836-b0f0-a0a328643f93"
      }, {
        "reference": "Condition/c8ec0a3f-45fd-4bb2-a4f0-55e0df96ab01"
      }, {
        "reference": "Coverage/4d1cd0a0-7ace-4c35-87f2-f243f668b585"
      }, {
        "reference": "Organization/51a77909-aad8-42eb-8b8c-163267cd829d"
      }, {
        "reference": "Practitioner/fdf15e9e-4f30-40a6-8feb-33b79a9b9f09"
      } ]
    },
    "request": {
      "method": "PUT",
      "url": "MeasureReport/3bf9193f-0fe0-4fef-a58f-8beeac067b53"
    }
  } ]
}