{
  "resourceType": "Bundle",
  "id": "6298e96c5c5f0f80c3806878",
  "type": "collection",
  "entry": [ {
    "fullUrl": "https://madie.cms.gov/Patient/ef8cad07-6254-4461-ba1a-86aaf95eeb6e",
    "resource": {
      "resourceType": "Patient",
      "id": "ef8cad07-6254-4461-ba1a-86aaf95eeb6e",
      "meta": {
        "profile": [ "http://hl7.org/fhir/us/qicore/StructureDefinition/qicore-patient" ]
      },
      "extension": [ {
        "url": "http://hl7.org/fhir/us/core/StructureDefinition/us-core-race",
        "extension": [ {
          "url": "ombCategory",
          "valueCoding": {
            "system": "urn:oid:2.16.840.1.113883.6.238",
            "code": "1002-5",
            "display": "American Indian or Alaska Native",
            "userSelected": true
          }
        }, {
          "url": "text",
          "valueString": "American Indian or Alaska Native"
        } ]
      }, {
        "url": "http://hl7.org/fhir/us/core/StructureDefinition/us-core-ethnicity",
        "extension": [ {
          "url": "ombCategory",
          "valueCoding": {
            "system": "urn:oid:2.16.840.1.113883.6.238",
            "code": "2135-2",
            "display": "Hispanic or Latino",
            "userSelected": true
          }
        }, {
          "url": "text",
          "valueString": "Hispanic or Latino"
        } ]
      } ],
      "identifier": [ {
        "type": {
          "coding": [ {
            "system": "http://terminology.hl7.org/CodeSystem/v2-0203",
            "code": "MR"
          } ]
        },
        "system": "https://bonnie-fhir.healthit.gov/",
        "value": "6298e96c5c5f0f80c3806878"
      } ],
      "name": [ {
        "family": "DENOMPass",
        "given": [ "LastPSA6BeforeMostRecentStaging" ]
      } ],
      "gender": "male",
      "birthDate": "1980-12-31"
    }
  }, {
    "fullUrl": "https://madie.cms.gov/Condition/c7e544ad-4a30-425b-94fe-739fee850791",
    "resource": {
      "resourceType": "Condition",
      "id": "c7e544ad-4a30-425b-94fe-739fee850791",
      "meta": {
        "profile": [ "http://hl7.org/fhir/us/qicore/StructureDefinition/qicore-condition-problems-health-concerns" ]
      },
      "clinicalStatus": {
        "coding": [ {
          "system": "http://terminology.hl7.org/CodeSystem/condition-clinical",
          "code": "active",
          "display": "active",
          "userSelected": true
        } ]
      },
      "category": [ {
        "coding": [ {
          "system": "http://terminology.hl7.org/CodeSystem/condition-category",
          "code": "problem-list-item",
          "display": "Problem List Item"
        }, {
          "system": "http://snomed.info/sct",
          "code": "439401001",
          "display": "Diagnosis"
        } ]
      } ],
      "code": {
        "coding": [ {
          "system": "http://snomed.info/sct",
          "code": "254900004",
          "display": "Carcinoma of prostate (disorder)",
          "userSelected": true
        } ]
      },
      "subject": {
        "reference": "Patient/ef8cad07-6254-4461-ba1a-86aaf95eeb6e"
      },
      "onsetPeriod": {
        "start": "2008-06-14T08:00:00.000+00:00"
      }
    }
  }, {
    "fullUrl": "https://madie.cms.gov/Procedure/f0b58677-9f90-4eff-a131-a147dc0a1293",
    "resource": {
      "resourceType": "Procedure",
      "id": "f0b58677-9f90-4eff-a131-a147dc0a1293",
      "meta": {
        "profile": [ "http://hl7.org/fhir/us/qicore/StructureDefinition/qicore-procedure" ]
      },
      "extension": [ {
        "url": "http://hl7.org/fhir/us/qicore/StructureDefinition/qicore-recorded",
        "valueDateTime": "2026-02-01T09:00:00.000+00:00"
      } ],
      "status": "completed",
      "code": {
        "coding": [ {
          "system": "http://snomed.info/sct",
          "code": "38915000",
          "display": "Radionuclide therapy for gland ablation (procedure)",
          "userSelected": true
        } ]
      },
      "subject": {
        "reference": "Patient/ef8cad07-6254-4461-ba1a-86aaf95eeb6e"
      },
      "performedDateTime": "2026-12-28T08:00:00.000+00:00"
    }
  }, {
    "fullUrl": "https://madie.cms.gov/Observation/9d6ee72d-5325-4f0f-8a18-b0aa55e0a137",
    "resource": {
      "resourceType": "Observation",
      "id": "9d6ee72d-5325-4f0f-8a18-b0aa55e0a137",
      "meta": {
        "profile": [ "http://hl7.org/fhir/us/qicore/StructureDefinition/qicore-observation-lab" ]
      },
      "status": "final",
      "category": [ {
        "coding": [ {
          "system": "http://terminology.hl7.org/CodeSystem/observation-category",
          "code": "laboratory",
          "display": "Laboratory"
        } ]
      } ],
      "code": {
        "coding": [ {
          "system": "http://loinc.org",
          "version": "2.72",
          "code": "2857-1",
          "display": "Prostate specific Ag [Mass/volume] in Serum or Plasma",
          "userSelected": true
        } ]
      },
      "subject": {
        "reference": "Patient/ef8cad07-6254-4461-ba1a-86aaf95eeb6e"
      },
      "effectiveDateTime": "2026-04-24T08:00:00.000+00:00",
      "valueQuantity": {
        "value": 10.1,
        "system": "http://unitsofmeasure.org",
        "code": "ng/mL"
      }
    }
  }, {
    "fullUrl": "https://madie.cms.gov/Observation/4afbd383-208e-4f5b-bf0f-22a5662355bb",
    "resource": {
      "resourceType": "Observation",
      "id": "4afbd383-208e-4f5b-bf0f-22a5662355bb",
      "meta": {
        "profile": [ "http://hl7.org/fhir/us/qicore/StructureDefinition/qicore-observation-lab" ]
      },
      "status": "final",
      "category": [ {
        "coding": [ {
          "system": "http://terminology.hl7.org/CodeSystem/observation-category",
          "code": "laboratory",
          "display": "Laboratory"
        } ]
      } ],
      "code": {
        "coding": [ {
          "system": "http://loinc.org",
          "version": "2.72",
          "code": "10508-0",
          "display": "Prostate specific Ag [Presence] in Tissue by Immune stain",
          "userSelected": true
        } ]
      },
      "subject": {
        "reference": "Patient/ef8cad07-6254-4461-ba1a-86aaf95eeb6e"
      },
      "effectiveDateTime": "2026-06-30T08:00:00.000+00:00",
      "valueQuantity": {
        "value": 10,
        "system": "http://unitsofmeasure.org",
        "code": "ng/mL"
      }
    }
  }, {
    "fullUrl": "https://madie.cms.gov/Observation/fd2a62c6-0c43-4c17-bb71-e43cdaa00e99",
    "resource": {
      "resourceType": "Observation",
      "id": "fd2a62c6-0c43-4c17-bb71-e43cdaa00e99",
      "meta": {
        "profile": [ "http://hl7.org/fhir/us/qicore/StructureDefinition/qicore-observation-lab" ]
      },
      "status": "final",
      "category": [ {
        "coding": [ {
          "system": "http://terminology.hl7.org/CodeSystem/observation-category",
          "code": "laboratory",
          "display": "Laboratory"
        } ]
      } ],
      "code": {
        "coding": [ {
          "system": "http://loinc.org",
          "version": "2.72",
          "code": "2857-1",
          "display": "Prostate specific Ag [Mass/volume] in Serum or Plasma",
          "userSelected": true
        } ]
      },
      "subject": {
        "reference": "Patient/ef8cad07-6254-4461-ba1a-86aaf95eeb6e"
      },
      "effectiveDateTime": "2026-08-01T08:00:00.000+00:00",
      "valueQuantity": {
        "value": 6,
        "system": "http://unitsofmeasure.org",
        "code": "ng/mL"
      }
    }
  }, {
    "fullUrl": "https://madie.cms.gov/Observation/82969a04-a48b-4595-87d7-2bf575274f0d",
    "resource": {
      "resourceType": "Observation",
      "id": "82969a04-a48b-4595-87d7-2bf575274f0d",
      "meta": {
        "profile": [ "http://hl7.org/fhir/us/qicore/StructureDefinition/qicore-observation-clinical-result" ]
      },
      "status": "final",
      "category": [ {
        "coding": [ {
          "system": "http://terminology.hl7.org/CodeSystem/observation-category",
          "code": "procedure",
          "display": "Procedure"
        } ]
      } ],
      "code": {
        "coding": [ {
          "system": "http://loinc.org",
          "code": "35266-6",
          "display": "Gleason score in Specimen Qualitative",
          "userSelected": true
        } ]
      },
      "subject": {
        "reference": "Patient/ef8cad07-6254-4461-ba1a-86aaf95eeb6e"
      },
      "effectiveDateTime": "2026-01-02T08:00:00.000+00:00",
      "valueInteger": 5
    }
  }, {
    "fullUrl": "https://madie.cms.gov/Observation/b6e965ae-f9a4-4bb8-a122-578202aab5fb",
    "resource": {
      "resourceType": "Observation",
      "id": "b6e965ae-f9a4-4bb8-a122-578202aab5fb",
      "meta": {
        "profile": [ "http://hl7.org/fhir/us/qicore/StructureDefinition/qicore-observation-clinical-result" ]
      },
      "status": "final",
      "category": [ {
        "coding": [ {
          "system": "http://terminology.hl7.org/CodeSystem/observation-category",
          "code": "procedure",
          "display": "Procedure"
        } ]
      } ],
      "code": {
        "coding": [ {
          "system": "http://snomed.info/sct",
          "code": "254292007",
          "display": "Tumor staging (tumor staging)",
          "userSelected": true
        } ]
      },
      "subject": {
        "reference": "Patient/ef8cad07-6254-4461-ba1a-86aaf95eeb6e"
      },
      "focus": [ {
        "reference": "Condition/c7e544ad-4a30-425b-94fe-739fee850791"
      } ],
      "effectiveDateTime": "2026-04-26T08:00:00.000+00:00",
      "valueCodeableConcept": {
        "coding": [ {
          "system": "http://snomed.info/sct",
          "code": "1228931008",
          "display": "American Joint Committee on Cancer cT2a (qualifier value)",
          "userSelected": true
        } ]
      }
    }
  }, {
    "fullUrl": "https://madie.cms.gov/Observation/7cc79605-ffb3-4b78-bfd8-e5ebe82828ea",
    "resource": {
      "resourceType": "Observation",
      "id": "7cc79605-ffb3-4b78-bfd8-e5ebe82828ea",
      "meta": {
        "profile": [ "http://hl7.org/fhir/us/qicore/StructureDefinition/qicore-observation-clinical-result" ]
      },
      "status": "amended",
      "category": [ {
        "coding": [ {
          "system": "http://terminology.hl7.org/CodeSystem/observation-category",
          "code": "procedure",
          "display": "Procedure"
        } ]
      } ],
      "code": {
        "coding": [ {
          "system": "http://snomed.info/sct",
          "code": "254292007",
          "display": "Tumor staging (tumor staging)",
          "userSelected": true
        } ]
      },
      "subject": {
        "reference": "Patient/ef8cad07-6254-4461-ba1a-86aaf95eeb6e"
      },
      "focus": [ {
        "reference": "Condition/c7e544ad-4a30-425b-94fe-739fee850791"
      } ],
      "effectiveDateTime": "2026-06-26T08:00:00.000+00:00",
      "valueCodeableConcept": {
        "coding": [ {
          "system": "http://snomed.info/sct",
          "code": "1228892002",
          "display": "American Joint Committee on Cancer cT1a (qualifier value)",
          "userSelected": true
        } ]
      }
    }
  }, {
    "fullUrl": "https://madie.cms.gov/Observation/7a677830-c95d-4cfa-aad4-9f894e7957d4",
    "resource": {
      "resourceType": "Observation",
      "id": "7a677830-c95d-4cfa-aad4-9f894e7957d4",
      "meta": {
        "profile": [ "http://hl7.org/fhir/us/qicore/StructureDefinition/qicore-observation-clinical-result" ]
      },
      "status": "corrected",
      "category": [ {
        "coding": [ {
          "system": "http://terminology.hl7.org/CodeSystem/observation-category",
          "code": "procedure",
          "display": "Procedure"
        } ]
      } ],
      "code": {
        "coding": [ {
          "system": "http://snomed.info/sct",
          "code": "254292007",
          "display": "Tumor staging (tumor staging)",
          "userSelected": true
        } ]
      },
      "subject": {
        "reference": "Patient/ef8cad07-6254-4461-ba1a-86aaf95eeb6e"
      },
      "focus": [ {
        "reference": "Condition/c7e544ad-4a30-425b-94fe-739fee850791"
      } ],
      "effectiveDateTime": "2026-08-26T08:00:00.000+00:00",
      "valueCodeableConcept": {
        "coding": [ {
          "system": "http://snomed.info/sct",
          "code": "1228899006",
          "display": "American Joint Committee on Cancer cT1c (qualifier value)",
          "userSelected": true
        } ]
      }
    }
  }, {
    "fullUrl": "https://madie.cms.gov/Observation/f22b645f-c41f-4731-a568-b50115280d54",
    "resource": {
      "resourceType": "Observation",
      "id": "f22b645f-c41f-4731-a568-b50115280d54",
      "meta": {
        "profile": [ "http://hl7.org/fhir/us/qicore/StructureDefinition/qicore-observation-clinical-result" ]
      },
      "status": "final",
      "category": [ {
        "coding": [ {
          "system": "http://terminology.hl7.org/CodeSystem/observation-category",
          "code": "procedure",
          "display": "Procedure"
        } ]
      } ],
      "code": {
        "coding": [ {
          "system": "http://loinc.org",
          "version": "2.72",
          "code": "25031-6",
          "display": "NM Bone Views",
          "userSelected": true
        } ]
      },
      "subject": {
        "reference": "Patient/ef8cad07-6254-4461-ba1a-86aaf95eeb6e"
      },
      "effectiveDateTime": "2026-08-17T08:00:00.000+00:00",
      "issued": "2026-08-17T08:00:00.000+00:00",
      "valueString": "Normal results found"
    }
  }, {
    "fullUrl": "https://madie.cms.gov/Coverage/ebb5efcf-dd2b-4ffd-af8f-3c3fe470738a",
    "resource": {
      "resourceType": "Coverage",
      "id": "ebb5efcf-dd2b-4ffd-af8f-3c3fe470738a",
      "meta": {
        "profile": [ "http://hl7.org/fhir/us/qicore/StructureDefinition/qicore-coverage" ]
      },
      "status": "active",
      "subscriberId": "123456789",
      "beneficiary": {
        "reference": "Patient/ef8cad07-6254-4461-ba1a-86aaf95eeb6e"
      },
      "relationship": {
        "coding": [ {
          "system": "http://terminology.hl7.org/CodeSystem/subscriber-relationship",
          "code": "self",
          "display": "Self",
          "userSelected": true
        } ]
      },
      "payor": [ {
        "reference": "Organization/6caade46-fbe4-45bb-923c-87fe621c4a6f"
      } ]
    }
  }, {
    "fullUrl": "https://madie.cms.gov/Organization/6caade46-fbe4-45bb-923c-87fe621c4a6f",
    "resource": {
      "resourceType": "Organization",
      "id": "6caade46-fbe4-45bb-923c-87fe621c4a6f",
      "meta": {
        "profile": [ "http://hl7.org/fhir/us/qicore/StructureDefinition/qicore-organization" ]
      },
      "identifier": [ {
        "use": "temp",
        "system": "urn:oid:2.16.840.1.113883.4.4",
        "value": "21-3259825"
      } ],
      "active": true,
      "type": [ {
        "coding": [ {
          "system": "http://terminology.hl7.org/CodeSystem/organization-type",
          "code": "pay",
          "display": "Payer"
        } ]
      } ],
      "name": "Blue Cross Blue Shield of Texas",
      "telecom": [ {
        "system": "phone",
        "value": "(+1) 972-766-6900"
      } ],
      "address": [ {
        "use": "billing",
        "type": "postal",
        "line": [ "P.O. Box 660044" ],
        "city": "Dallas",
        "state": "TX",
        "postalCode": "75266-0044",
        "country": "USA"
      } ]
    }
  }, {
    "fullUrl": "https://madie.cms.gov/Practitioner/aa6ade09-9fbf-4436-bbbb-d8fae1b19c5a",
    "resource": {
      "resourceType": "Practitioner",
      "id": "aa6ade09-9fbf-4436-bbbb-d8fae1b19c5a",
      "meta": {
        "profile": [ "http://hl7.org/fhir/us/qicore/StructureDefinition/qicore-practitioner" ]
      },
      "identifier": [ {
        "system": "http://hl7.org/fhir/sid/us-npi",
        "value": "1234567893"
      } ],
      "name": [ {
        "family": "Evil",
        "prefix": [ "Dr" ]
      } ]
    }
  }, {
    "fullUrl": "https://madie.cms.gov/MeasureReport/dc1e8bac-7d93-4e46-b90f-b396766d8676",
    "resource": {
      "resourceType": "MeasureReport",
      "id": "dc1e8bac-7d93-4e46-b90f-b396766d8676",
      "meta": {
        "profile": [ "http://hl7.org/fhir/us/cqfmeasures/StructureDefinition/test-case-cqfm" ]
      },
      "contained": [ {
        "resourceType": "Parameters",
        "id": "28504e34-1aef-4c32-849f-e4594408f4bf-parameters",
        "parameter": [ {
          "name": "subject",
          "valueString": "ef8cad07-6254-4461-ba1a-86aaf95eeb6e"
        } ]
      } ],
      "extension": [ {
        "url": "http://hl7.org/fhir/StructureDefinition/cqf-inputParameters",
        "valueReference": {
          "reference": "#28504e34-1aef-4c32-849f-e4594408f4bf-parameters"
        }
      }, {
        "url": "http://hl7.org/fhir/us/cqfmeasures/StructureDefinition/cqfm-testCaseDescription",
        "valueMarkdown": "1st and 2nd PSA high,  Last PSA 6 before most recent staging"
      } ],
      "modifierExtension": [ {
        "url": "http://hl7.org/fhir/us/cqfmeasures/StructureDefinition/cqfm-isTestCase",
        "valueBoolean": true
      } ],
      "status": "complete",
      "type": "individual",
      "measure": "https://madie.cms.gov/Measure/CMS129FHIRProstCaBoneScanUse",
      "period": {
        "start": "2026-01-01",
        "end": "2026-12-31"
      },
      "group": [ {
        "id": "Group_1",
        "population": [ {
          "id": "InitialPopulation_1",
          "code": {
            "coding": [ {
              "system": "http://terminology.hl7.org/CodeSystem/measure-population",
              "code": "initial-population",
              "display": "Initial Population"
            } ]
          },
          "count": 1
        }, {
          "id": "Denominator_1",
          "code": {
            "coding": [ {
              "system": "http://terminology.hl7.org/CodeSystem/measure-population",
              "code": "denominator",
              "display": "Denominator"
            } ]
          },
          "count": 1
        }, {
          "id": "Numerator_1",
          "code": {
            "coding": [ {
              "system": "http://terminology.hl7.org/CodeSystem/measure-population",
              "code": "numerator",
              "display": "Numerator"
            } ]
          },
          "count": 0
        }, {
          "id": "DenominatorException_1",
          "code": {
            "coding": [ {
              "system": "http://terminology.hl7.org/CodeSystem/measure-population",
              "code": "denominator-exception",
              "display": "Denominator Exception"
            } ]
          },
          "count": 0
        } ],
        "measureScore": {
          "value": 1.0
        }
      } ],
      "evaluatedResource": [ {
        "reference": "Patient/ef8cad07-6254-4461-ba1a-86aaf95eeb6e"
      }, {
        "reference": "Condition/c7e544ad-4a30-425b-94fe-739fee850791"
      }, {
        "reference": "Procedure/f0b58677-9f90-4eff-a131-a147dc0a1293"
      }, {
        "reference": "Observation/9d6ee72d-5325-4f0f-8a18-b0aa55e0a137"
      }, {
        "reference": "Observation/4afbd383-208e-4f5b-bf0f-22a5662355bb"
      }, {
        "reference": "Observation/fd2a62c6-0c43-4c17-bb71-e43cdaa00e99"
      }, {
        "reference": "Observation/82969a04-a48b-4595-87d7-2bf575274f0d"
      }, {
        "reference": "Observation/b6e965ae-f9a4-4bb8-a122-578202aab5fb"
      }, {
        "reference": "Observation/7cc79605-ffb3-4b78-bfd8-e5ebe82828ea"
      }, {
        "reference": "Observation/7a677830-c95d-4cfa-aad4-9f894e7957d4"
      }, {
        "reference": "Observation/f22b645f-c41f-4731-a568-b50115280d54"
      }, {
        "reference": "Coverage/ebb5efcf-dd2b-4ffd-af8f-3c3fe470738a"
      }, {
        "reference": "Organization/6caade46-fbe4-45bb-923c-87fe621c4a6f"
      }, {
        "reference": "Practitioner/aa6ade09-9fbf-4436-bbbb-d8fae1b19c5a"
      } ]
    }
  } ]
}