{
  "resourceType": "Bundle",
  "id": "6109650598086b538055a0e3",
  "type": "transaction",
  "entry": [ {
    "fullUrl": "https://madie.cms.gov/Patient/8c08e522-8023-48ae-b0a7-b6444157507b",
    "resource": {
      "resourceType": "Patient",
      "id": "8c08e522-8023-48ae-b0a7-b6444157507b",
      "meta": {
        "profile": [ "http://hl7.org/fhir/us/qicore/StructureDefinition/qicore-patient" ]
      },
      "text": {
        "status": "generated",
        "div": "<div xmlns=\"http://www.w3.org/1999/xhtml\"><div class=\"hapiHeaderText\">RiskAssessOVEnc <b>NUMERPASS </b></div><table class=\"hapiPropertyTable\"><tbody><tr><td>Identifier</td><td>b0539aaa5eb9f04ab4673fe552b86099</td></tr><tr><td>Date of birth</td><td><span>13 December 1995</span></td></tr></tbody></table></div>"
      },
      "extension": [ {
        "url": "http://hl7.org/fhir/us/core/StructureDefinition/us-core-race",
        "extension": [ {
          "url": "ombCategory",
          "valueCoding": {
            "system": "urn:oid:2.16.840.1.113883.6.238",
            "code": "1002-5",
            "display": "American Indian or Alaska Native",
            "userSelected": true
          }
        }, {
          "url": "text",
          "valueString": "American Indian or Alaska Native"
        } ]
      }, {
        "url": "http://hl7.org/fhir/us/core/StructureDefinition/us-core-ethnicity",
        "extension": [ {
          "url": "ombCategory",
          "valueCoding": {
            "system": "urn:oid:2.16.840.1.113883.6.238",
            "code": "2186-5",
            "display": "Not Hispanic or Latino",
            "userSelected": true
          }
        }, {
          "url": "text",
          "valueString": "Not Hispanic or Latino"
        } ]
      } ],
      "identifier": [ {
        "type": {
          "coding": [ {
            "system": "http://terminology.hl7.org/CodeSystem/v2-0203",
            "code": "MR"
          } ]
        },
        "system": "https://bonnie-fhir.healthit.gov/",
        "value": "6109650598086b538055a0e3"
      } ],
      "active": true,
      "name": [ {
        "use": "usual",
        "family": "NUMPass",
        "given": [ "RiskAssessOVEnc" ]
      } ],
      "gender": "female",
      "birthDate": "2013-12-13"
    },
    "request": {
      "method": "PUT",
      "url": "Patient/8c08e522-8023-48ae-b0a7-b6444157507b"
    }
  }, {
    "fullUrl": "https://madie.cms.gov/Encounter/9d291575-d464-4e8b-b9e1-abd11db0f92e",
    "resource": {
      "resourceType": "Encounter",
      "id": "9d291575-d464-4e8b-b9e1-abd11db0f92e",
      "meta": {
        "profile": [ "http://hl7.org/fhir/us/qicore/StructureDefinition/qicore-encounter" ]
      },
      "status": "finished",
      "class": {
        "system": "http://terminology.hl7.org/CodeSystem/v3-ActCode",
        "code": "AMB",
        "display": "ambulatory",
        "userSelected": true
      },
      "type": [ {
        "coding": [ {
          "system": "http://snomed.info/sct",
          "code": "185463005"
        } ]
      } ],
      "subject": {
        "reference": "Patient/8c08e522-8023-48ae-b0a7-b6444157507b"
      },
      "period": {
        "start": "2026-02-11T08:00:00.000+00:00",
        "end": "2026-02-11T08:15:00.000+00:00"
      },
      "reasonCode": [ {
        "coding": [ {
          "system": "http://snomed.info/sct",
          "code": "832007",
          "display": "Moderate major depression",
          "userSelected": true
        } ]
      } ],
      "diagnosis": [ {
        "condition": {
          "reference": "Condition/5c9de02b-e6d8-4368-93eb-f6ac937a0719"
        },
        "use": {
          "coding": [ {
            "system": "http://snomed.info/sct",
            "code": "10811161000119107",
            "display": "Major Depressive Disorder-Active"
          } ]
        }
      } ]
    },
    "request": {
      "method": "PUT",
      "url": "Encounter/9d291575-d464-4e8b-b9e1-abd11db0f92e"
    }
  }, {
    "fullUrl": "https://madie.cms.gov/Procedure/7a110270-eb6a-48d1-bf98-89ca04170cda",
    "resource": {
      "resourceType": "Procedure",
      "id": "7a110270-eb6a-48d1-bf98-89ca04170cda",
      "meta": {
        "profile": [ "http://hl7.org/fhir/us/qicore/StructureDefinition/qicore-procedure" ]
      },
      "extension": [ {
        "url": "http://hl7.org/fhir/us/qicore/StructureDefinition/qicore-recorded",
        "valueDateTime": "2026-02-11T08:05:00.000+00:00"
      } ],
      "status": "completed",
      "code": {
        "coding": [ {
          "system": "http://snomed.info/sct",
          "code": "225337009"
        } ]
      },
      "subject": {
        "reference": "Patient/8c08e522-8023-48ae-b0a7-b6444157507b"
      },
      "performedDateTime": "2026-02-11T08:05:00.000+00:00"
    },
    "request": {
      "method": "PUT",
      "url": "Procedure/7a110270-eb6a-48d1-bf98-89ca04170cda"
    }
  }, {
    "fullUrl": "https://madie.cms.gov/Condition/5c9de02b-e6d8-4368-93eb-f6ac937a0719",
    "resource": {
      "resourceType": "Condition",
      "id": "5c9de02b-e6d8-4368-93eb-f6ac937a0719",
      "meta": {
        "profile": [ "http://hl7.org/fhir/us/qicore/StructureDefinition/qicore-condition" ]
      },
      "category": [ {
        "coding": [ {
          "system": "http://terminology.hl7.org/CodeSystem/condition-category",
          "code": "encounter-diagnosis",
          "display": "encounter-diagnosis",
          "userSelected": true
        } ]
      } ],
      "code": {
        "coding": [ {
          "system": "http://snomed.info/sct",
          "code": "79298009",
          "userSelected": true
        } ]
      },
      "subject": {
        "reference": "Patient/8c08e522-8023-48ae-b0a7-b6444157507b"
      },
      "recordedDate": "2026-08-17T08:00:00.000+00:00"
    },
    "request": {
      "method": "PUT",
      "url": "Condition/5c9de02b-e6d8-4368-93eb-f6ac937a0719"
    }
  }, {
    "fullUrl": "https://madie.cms.gov/Coverage/f2fea48f-2749-405d-bdcc-4656996ece9e",
    "resource": {
      "resourceType": "Coverage",
      "id": "f2fea48f-2749-405d-bdcc-4656996ece9e",
      "meta": {
        "profile": [ "http://hl7.org/fhir/us/qicore/StructureDefinition/qicore-coverage" ]
      },
      "identifier": [ {
        "system": "http://benefitsinc.com/certificate",
        "value": "12345"
      } ],
      "status": "active",
      "type": {
        "coding": [ {
          "system": "https://nahdo.org/sopt",
          "version": "9.2",
          "code": "1",
          "display": "MEDICARE",
          "userSelected": true
        } ]
      },
      "beneficiary": {
        "reference": "Patient/8c08e522-8023-48ae-b0a7-b6444157507b"
      },
      "period": {
        "start": "2026-01-01T08:00:00.000+00:00",
        "end": "2026-12-01T08:15:00.000+00:00"
      },
      "payor": [ {
        "reference": "Organization/5be47053-c3a4-4b62-8ecf-a28a3cad2441"
      } ]
    },
    "request": {
      "method": "PUT",
      "url": "Coverage/f2fea48f-2749-405d-bdcc-4656996ece9e"
    }
  }, {
    "fullUrl": "https://madie.cms.gov/Organization/5be47053-c3a4-4b62-8ecf-a28a3cad2441",
    "resource": {
      "resourceType": "Organization",
      "id": "5be47053-c3a4-4b62-8ecf-a28a3cad2441",
      "meta": {
        "profile": [ "http://hl7.org/fhir/us/qicore/StructureDefinition/qicore-organization" ]
      },
      "identifier": [ {
        "use": "temp",
        "system": "urn:oid:2.16.840.1.113883.4.4",
        "value": "21-3259825"
      } ],
      "active": true,
      "type": [ {
        "coding": [ {
          "system": "http://terminology.hl7.org/CodeSystem/organization-type",
          "code": "pay",
          "display": "Payer"
        } ]
      } ],
      "name": "Blue Cross Blue Shield of Texas",
      "telecom": [ {
        "system": "phone",
        "value": "(+1) 972-766-6900"
      } ],
      "address": [ {
        "use": "billing",
        "type": "postal",
        "line": [ "P.O. Box 660044" ],
        "city": "Dallas",
        "state": "TX",
        "postalCode": "75266-0044",
        "country": "USA"
      } ]
    },
    "request": {
      "method": "PUT",
      "url": "Organization/5be47053-c3a4-4b62-8ecf-a28a3cad2441"
    }
  }, {
    "fullUrl": "https://madie.cms.gov/Practitioner/1332ecb7-d4fc-45bf-8976-8257a1724b1d",
    "resource": {
      "resourceType": "Practitioner",
      "id": "1332ecb7-d4fc-45bf-8976-8257a1724b1d",
      "meta": {
        "profile": [ "http://hl7.org/fhir/us/qicore/StructureDefinition/qicore-practitioner" ]
      },
      "identifier": [ {
        "system": "http://hl7.org/fhir/sid/us-npi",
        "value": "123456"
      } ],
      "name": [ {
        "family": "Evil",
        "prefix": [ "Dr" ]
      } ]
    },
    "request": {
      "method": "PUT",
      "url": "Practitioner/1332ecb7-d4fc-45bf-8976-8257a1724b1d"
    }
  }, {
    "fullUrl": "https://madie.cms.gov/MeasureReport/9bd59abd-893e-46b2-ac2f-c7082a699c70",
    "resource": {
      "resourceType": "MeasureReport",
      "id": "9bd59abd-893e-46b2-ac2f-c7082a699c70",
      "meta": {
        "profile": [ "http://hl7.org/fhir/us/cqfmeasures/StructureDefinition/test-case-cqfm" ]
      },
      "contained": [ {
        "resourceType": "Parameters",
        "id": "2cc0d630-601c-4073-b191-3f00096f2c7a-parameters",
        "parameter": [ {
          "name": "subject",
          "valueString": "8c08e522-8023-48ae-b0a7-b6444157507b"
        } ]
      } ],
      "extension": [ {
        "url": "http://hl7.org/fhir/StructureDefinition/cqf-inputParameters",
        "valueReference": {
          "reference": "#2cc0d630-601c-4073-b191-3f00096f2c7a-parameters"
        }
      }, {
        "url": "http://hl7.org/fhir/us/cqfmeasures/StructureDefinition/cqfm-testCaseDescription",
        "valueMarkdown": "Patient with depression and suicide risk assessment done during Office Visit"
      } ],
      "modifierExtension": [ {
        "url": "http://hl7.org/fhir/us/cqfmeasures/StructureDefinition/cqfm-isTestCase",
        "valueBoolean": true
      } ],
      "status": "complete",
      "type": "individual",
      "measure": "https://madie.cms.gov/Measure/CMS177FHIRChildMDDSuicideAssmt",
      "period": {
        "start": "2026-01-01",
        "end": "2026-12-31"
      },
      "group": [ {
        "id": "Group_1",
        "population": [ {
          "id": "InitialPopulation_1",
          "code": {
            "coding": [ {
              "system": "http://terminology.hl7.org/CodeSystem/measure-population",
              "code": "initial-population",
              "display": "Initial Population"
            } ]
          },
          "count": 1
        }, {
          "id": "Denominator_1",
          "code": {
            "coding": [ {
              "system": "http://terminology.hl7.org/CodeSystem/measure-population",
              "code": "denominator",
              "display": "Denominator"
            } ]
          },
          "count": 1
        }, {
          "id": "Numerator_1",
          "code": {
            "coding": [ {
              "system": "http://terminology.hl7.org/CodeSystem/measure-population",
              "code": "numerator",
              "display": "Numerator"
            } ]
          },
          "count": 1
        } ],
        "measureScore": {
          "value": 0.0
        }
      } ],
      "evaluatedResource": [ {
        "reference": "Patient/8c08e522-8023-48ae-b0a7-b6444157507b"
      }, {
        "reference": "Encounter/9d291575-d464-4e8b-b9e1-abd11db0f92e"
      }, {
        "reference": "Procedure/7a110270-eb6a-48d1-bf98-89ca04170cda"
      }, {
        "reference": "Condition/5c9de02b-e6d8-4368-93eb-f6ac937a0719"
      }, {
        "reference": "Coverage/f2fea48f-2749-405d-bdcc-4656996ece9e"
      }, {
        "reference": "Organization/5be47053-c3a4-4b62-8ecf-a28a3cad2441"
      }, {
        "reference": "Practitioner/1332ecb7-d4fc-45bf-8976-8257a1724b1d"
      } ]
    },
    "request": {
      "method": "PUT",
      "url": "MeasureReport/9bd59abd-893e-46b2-ac2f-c7082a699c70"
    }
  } ]
}