{
  "resourceType": "Bundle",
  "id": "60f82c2e98086b570510e26d",
  "type": "transaction",
  "entry": [ {
    "fullUrl": "https://madie.cms.gov/Patient/3ab85f43-dd45-4827-8f13-ad9d1208d2e0",
    "resource": {
      "resourceType": "Patient",
      "id": "3ab85f43-dd45-4827-8f13-ad9d1208d2e0",
      "meta": {
        "profile": [ "http://hl7.org/fhir/us/qicore/StructureDefinition/qicore-patient" ]
      },
      "text": {
        "status": "generated",
        "div": "<div xmlns=\"http://www.w3.org/1999/xhtml\"><div class=\"hapiHeaderText\">LOS=1Day_EDB4EncIP <b>DENEXPASS </b></div><table class=\"hapiPropertyTable\"><tbody><tr><td>Identifier</td><td>95552307b3c1ddf2b7349c2d62c41aca</td></tr><tr><td>Date of birth</td><td><span>21 August 1994</span></td></tr></tbody></table></div>"
      },
      "extension": [ {
        "url": "http://hl7.org/fhir/us/core/StructureDefinition/us-core-race",
        "extension": [ {
          "url": "ombCategory",
          "valueCoding": {
            "system": "urn:oid:2.16.840.1.113883.6.238",
            "code": "1002-5",
            "display": "American Indian or Alaska Native",
            "userSelected": true
          }
        }, {
          "url": "text",
          "valueString": "American Indian or Alaska Native"
        } ]
      }, {
        "url": "http://hl7.org/fhir/us/core/StructureDefinition/us-core-ethnicity",
        "extension": [ {
          "url": "ombCategory",
          "valueCoding": {
            "system": "urn:oid:2.16.840.1.113883.6.238",
            "code": "2186-5",
            "display": "Not Hispanic or Latino",
            "userSelected": true
          }
        }, {
          "url": "text",
          "valueString": "Not Hispanic or Latino"
        } ]
      } ],
      "identifier": [ {
        "type": {
          "coding": [ {
            "system": "http://terminology.hl7.org/CodeSystem/v2-0203",
            "code": "MR"
          } ]
        },
        "system": "https://bonnie-fhir.healthit.gov/",
        "value": "60f82c2e98086b570510e26d"
      } ],
      "active": true,
      "name": [ {
        "use": "usual",
        "family": "DENEXPass",
        "given": [ "LOSEQ1DayEDB4EncIP" ]
      } ],
      "gender": "male",
      "birthDate": "1995-08-21"
    },
    "request": {
      "method": "PUT",
      "url": "Patient/3ab85f43-dd45-4827-8f13-ad9d1208d2e0"
    }
  }, {
    "fullUrl": "https://madie.cms.gov/Encounter/376e3684-f90a-4719-a57b-f9b38c23b95e",
    "resource": {
      "resourceType": "Encounter",
      "id": "376e3684-f90a-4719-a57b-f9b38c23b95e",
      "meta": {
        "profile": [ "http://hl7.org/fhir/us/qicore/StructureDefinition/qicore-encounter" ]
      },
      "status": "finished",
      "class": {
        "system": "http://terminology.hl7.org/CodeSystem/v3-ActCode",
        "code": "EMER",
        "display": "emergency"
      },
      "type": [ {
        "coding": [ {
          "system": "http://snomed.info/sct",
          "code": "4525004"
        } ]
      } ],
      "subject": {
        "reference": "Patient/3ab85f43-dd45-4827-8f13-ad9d1208d2e0"
      },
      "period": {
        "start": "2026-08-20T00:00:00.000+00:00",
        "end": "2026-08-20T23:59:00.000+00:00"
      },
      "length": {
        "value": 0,
        "unit": "days"
      }
    },
    "request": {
      "method": "PUT",
      "url": "Encounter/376e3684-f90a-4719-a57b-f9b38c23b95e"
    }
  }, {
    "fullUrl": "https://madie.cms.gov/Encounter/41edff45-d35b-41b0-8a6e-d0292d36ae45",
    "resource": {
      "resourceType": "Encounter",
      "id": "41edff45-d35b-41b0-8a6e-d0292d36ae45",
      "meta": {
        "profile": [ "http://hl7.org/fhir/us/qicore/StructureDefinition/qicore-encounter" ]
      },
      "status": "finished",
      "class": {
        "system": "http://terminology.hl7.org/CodeSystem/v3-ActCode",
        "code": "IMP",
        "display": "inpatient encounter"
      },
      "type": [ {
        "coding": [ {
          "system": "http://snomed.info/sct",
          "code": "32485007"
        } ]
      } ],
      "subject": {
        "reference": "Patient/3ab85f43-dd45-4827-8f13-ad9d1208d2e0"
      },
      "period": {
        "start": "2026-08-21T00:00:00.000+00:00",
        "end": "2026-08-21T23:00:00.000+00:00"
      },
      "length": {
        "value": 0,
        "unit": "days"
      },
      "reasonReference": [ {
        "reference": "Condition/90d387a0-a110-4a3c-8a6d-d454bea2696f"
      } ]
    },
    "request": {
      "method": "PUT",
      "url": "Encounter/41edff45-d35b-41b0-8a6e-d0292d36ae45"
    }
  }, {
    "fullUrl": "https://madie.cms.gov/claim/5ca62962b8484628b8de1ec5",
    "resource": {
      "resourceType": "Claim",
      "id": "5ca62962b8484628b8de1ec5",
      "meta": {
        "profile": [ "http://hl7.org/fhir/us/qicore/StructureDefinition/qicore-claim" ]
      },
      "status": "active",
      "type": {
        "coding": [ {
          "system": "http://terminology.hl7.org/CodeSystem/claim-type",
          "code": "institutional"
        } ]
      },
      "use": "claim",
      "patient": {
        "reference": "Patient/d170a0a8-b5ad-4303-b6df-e304dd5f92ad"
      },
      "created": "2026-12-01",
      "provider": {
        "reference": "Practitioner/practitioner-123456"
      },
      "priority": {
        "coding": [ {
          "system": "http://terminology.hl7.org/CodeSystem/processpriority",
          "code": "normal"
        } ]
      },
      "diagnosis": [ {
        "sequence": 1,
        "diagnosisCodeableConcept": {
          "coding": [ {
            "system": "http://hl7.org/fhir/sid/icd-10-cm",
            "code": "I63.00"
          } ]
        },
        "type": [ {
          "coding": [ {
            "system": "http://terminology.hl7.org/CodeSystem/ex-diagnosistype",
            "code": "principal"
          } ]
        } ]
      } ],
      "insurance": [ {
        "sequence": 1,
        "focal": true,
        "coverage": {
          "reference": "Coverage/5fa041661c76ba66d9959367"
        }
      } ],
      "item": [ {
        "sequence": 1,
        "diagnosisSequence": [ 1 ],
        "productOrService": {
          "coding": [ {
            "system": "http://terminology.hl7.org/CodeSystem/ex-USCLS",
            "code": "99555"
          } ]
        },
        "encounter": [ {
          "reference": "Encounter/41edff45-d35b-41b0-8a6e-d0292d36ae45"
        } ]
      } ]
    },
    "request": {
      "method": "PUT",
      "url": "Claim/5ca62962b8484628b8de1ec5"
    }
  }, {
    "fullUrl": "https://madie.cms.gov/Coverage/268e6b92-5209-4455-8365-6d78a3c8d1a7",
    "resource": {
      "resourceType": "Coverage",
      "id": "268e6b92-5209-4455-8365-6d78a3c8d1a7",
      "status": "active",
      "beneficiary": {
        "reference": "Patient/3ab85f43-dd45-4827-8f13-ad9d1208d2e0"
      },
      "period": {
        "start": "1995-08-21T00:00:00.000+00:00"
      },
      "payor": [ {
        "reference": "Organization/c6a66c6f-b466-4b9e-a0b4-cdb536ed771c"
      } ]
    },
    "request": {
      "method": "PUT",
      "url": "Coverage/268e6b92-5209-4455-8365-6d78a3c8d1a7"
    }
  }, {
    "fullUrl": "https://madie.cms.gov/Condition/90d387a0-a110-4a3c-8a6d-d454bea2696f",
    "resource": {
      "resourceType": "Condition",
      "id": "90d387a0-a110-4a3c-8a6d-d454bea2696f",
      "meta": {
        "profile": [ "http://hl7.org/fhir/us/qicore/StructureDefinition/qicore-condition-encounter-diagnosis" ]
      },
      "clinicalStatus": {
        "coding": [ {
          "system": "http://terminology.hl7.org/CodeSystem/condition-clinical",
          "code": "active"
        } ]
      },
      "verificationStatus": {
        "coding": [ {
          "system": "http://terminology.hl7.org/CodeSystem/condition-ver-status",
          "code": "confirmed"
        } ]
      },
      "category": [ {
        "coding": [ {
          "system": "http://terminology.hl7.org/CodeSystem/condition-category",
          "code": "encounter-diagnosis",
          "display": "Encounter Diagnosis"
        } ]
      } ],
      "code": {
        "coding": [ {
          "system": "http://snomed.info/sct",
          "version": "2020-09",
          "code": "111297002",
          "display": "Nonparalytic stroke (disorder)",
          "userSelected": true
        } ]
      },
      "subject": {
        "reference": "Patient/3ab85f43-dd45-4827-8f13-ad9d1208d2e0"
      },
      "recordedDate": "2026-08-13T08:00:00.000+00:00"
    },
    "request": {
      "method": "PUT",
      "url": "Condition/90d387a0-a110-4a3c-8a6d-d454bea2696f"
    }
  }, {
    "fullUrl": "https://madie.cms.gov/Organization/c6a66c6f-b466-4b9e-a0b4-cdb536ed771c",
    "resource": {
      "resourceType": "Organization",
      "id": "c6a66c6f-b466-4b9e-a0b4-cdb536ed771c",
      "meta": {
        "profile": [ "http://hl7.org/fhir/us/qicore/StructureDefinition/qicore-organization" ]
      },
      "identifier": [ {
        "use": "temp",
        "system": "urn:oid:2.16.840.1.113883.4.4",
        "value": "21-3259825"
      } ],
      "active": true,
      "type": [ {
        "coding": [ {
          "system": "http://terminology.hl7.org/CodeSystem/organization-type",
          "code": "pay",
          "display": "Payer"
        } ]
      } ],
      "name": "Blue Cross Blue Shield of Texas",
      "telecom": [ {
        "system": "phone",
        "value": "(+1) 972-766-6900"
      } ],
      "address": [ {
        "use": "billing",
        "type": "postal",
        "line": [ "P.O. Box 660044" ],
        "city": "Dallas",
        "state": "TX",
        "postalCode": "75266-0044",
        "country": "USA"
      } ]
    },
    "request": {
      "method": "PUT",
      "url": "Organization/c6a66c6f-b466-4b9e-a0b4-cdb536ed771c"
    }
  }, {
    "fullUrl": "https://madie.cms.gov/MeasureReport/381ebd76-3a64-4a74-a8b7-e5ad0755e825",
    "resource": {
      "resourceType": "MeasureReport",
      "id": "381ebd76-3a64-4a74-a8b7-e5ad0755e825",
      "meta": {
        "profile": [ "http://hl7.org/fhir/us/cqfmeasures/StructureDefinition/test-case-cqfm" ]
      },
      "contained": [ {
        "resourceType": "Parameters",
        "id": "a35ac288-460f-4c85-b3f0-9304682ac7be-parameters",
        "parameter": [ {
          "name": "subject",
          "valueString": "3ab85f43-dd45-4827-8f13-ad9d1208d2e0"
        } ]
      } ],
      "extension": [ {
        "url": "http://hl7.org/fhir/StructureDefinition/cqf-inputParameters",
        "valueReference": {
          "reference": "#a35ac288-460f-4c85-b3f0-9304682ac7be-parameters"
        }
      }, {
        "url": "http://hl7.org/fhir/us/cqfmeasures/StructureDefinition/cqfm-testCaseDescription",
        "valueMarkdown": "LOS= 1 Day, timing starts with ED Visit since ED visit <= 1 hour before IP encounter. global.Hospitalization ( =Ed +IP)\n"
      } ],
      "modifierExtension": [ {
        "url": "http://hl7.org/fhir/us/cqfmeasures/StructureDefinition/cqfm-isTestCase",
        "valueBoolean": true
      } ],
      "status": "complete",
      "type": "individual",
      "measure": "https://madie.cms.gov/Measure/CMS72FHIRSTKAntithromboticDay2",
      "period": {
        "start": "2026-01-01",
        "end": "2026-12-31"
      },
      "group": [ {
        "id": "Group_1",
        "population": [ {
          "id": "InitialPopulation_1",
          "code": {
            "coding": [ {
              "system": "http://terminology.hl7.org/CodeSystem/measure-population",
              "code": "initial-population",
              "display": "Initial Population"
            } ]
          },
          "count": 1
        }, {
          "id": "Denominator_1",
          "code": {
            "coding": [ {
              "system": "http://terminology.hl7.org/CodeSystem/measure-population",
              "code": "denominator",
              "display": "Denominator"
            } ]
          },
          "count": 1
        }, {
          "id": "DenominatorExclusion_1",
          "code": {
            "coding": [ {
              "system": "http://terminology.hl7.org/CodeSystem/measure-population",
              "code": "denominator-exclusion",
              "display": "Denominator Exclusion"
            } ]
          },
          "count": 1
        }, {
          "id": "Numerator_1",
          "code": {
            "coding": [ {
              "system": "http://terminology.hl7.org/CodeSystem/measure-population",
              "code": "numerator",
              "display": "Numerator"
            } ]
          },
          "count": 0
        }, {
          "id": "DenominatorException_1",
          "code": {
            "coding": [ {
              "system": "http://terminology.hl7.org/CodeSystem/measure-population",
              "code": "denominator-exception",
              "display": "Denominator Exception"
            } ]
          },
          "count": 0
        } ],
        "measureScore": {
          "value": 0.0
        }
      } ],
      "evaluatedResource": [ {
        "reference": "Patient/3ab85f43-dd45-4827-8f13-ad9d1208d2e0"
      }, {
        "reference": "Encounter/376e3684-f90a-4719-a57b-f9b38c23b95e"
      }, {
        "reference": "Encounter/41edff45-d35b-41b0-8a6e-d0292d36ae45"
      }, {
        "reference": "Claim/5ca62962b8484628b8de1ec5"
      }, {
        "reference": "Coverage/268e6b92-5209-4455-8365-6d78a3c8d1a7"
      }, {
        "reference": "Condition/90d387a0-a110-4a3c-8a6d-d454bea2696f"
      }, {
        "reference": "Organization/c6a66c6f-b466-4b9e-a0b4-cdb536ed771c"
      } ]
    },
    "request": {
      "method": "PUT",
      "url": "MeasureReport/381ebd76-3a64-4a74-a8b7-e5ad0755e825"
    }
  } ]
}