{
  "resourceType": "Bundle",
  "id": "62a8cd1974bff1b9a703d290",
  "type": "collection",
  "entry": [ {
    "fullUrl": "https://madie.cms.gov/Patient/b7a34d3f-446e-4a40-adff-595b8614977c",
    "resource": {
      "resourceType": "Patient",
      "id": "b7a34d3f-446e-4a40-adff-595b8614977c",
      "meta": {
        "profile": [ "http://hl7.org/fhir/us/qicore/StructureDefinition/qicore-patient" ]
      },
      "extension": [ {
        "url": "http://hl7.org/fhir/us/core/StructureDefinition/us-core-race",
        "extension": [ {
          "url": "ombCategory",
          "valueCoding": {
            "system": "urn:oid:2.16.840.1.113883.6.238",
            "code": "1002-5",
            "display": "American Indian or Alaska Native",
            "userSelected": true
          }
        }, {
          "url": "text",
          "valueString": "American Indian or Alaska Native"
        } ]
      }, {
        "url": "http://hl7.org/fhir/us/core/StructureDefinition/us-core-ethnicity",
        "extension": [ {
          "url": "ombCategory",
          "valueCoding": {
            "system": "urn:oid:2.16.840.1.113883.6.238",
            "code": "2135-2",
            "display": "Hispanic or Latino",
            "userSelected": true
          }
        }, {
          "url": "text",
          "valueString": "Hispanic or Latino"
        } ]
      } ],
      "identifier": [ {
        "type": {
          "coding": [ {
            "system": "http://terminology.hl7.org/CodeSystem/v2-0203",
            "code": "MR"
          } ]
        },
        "system": "https://bonnie-fhir.healthit.gov/",
        "value": "62a8cd1974bff1b9a703d290"
      } ],
      "name": [ {
        "family": "DENEXCEPPass",
        "given": [ "DXProstateCaPain" ]
      } ],
      "gender": "male",
      "birthDate": "1987-06-27"
    }
  }, {
    "fullUrl": "https://madie.cms.gov/Condition/cceaff73-5969-4bcd-a0f5-4cd00792508a",
    "resource": {
      "resourceType": "Condition",
      "id": "cceaff73-5969-4bcd-a0f5-4cd00792508a",
      "meta": {
        "profile": [ "http://hl7.org/fhir/us/qicore/StructureDefinition/qicore-condition-problems-health-concerns" ]
      },
      "clinicalStatus": {
        "coding": [ {
          "system": "http://terminology.hl7.org/CodeSystem/condition-clinical",
          "code": "active",
          "display": "active",
          "userSelected": true
        } ]
      },
      "category": [ {
        "coding": [ {
          "system": "http://terminology.hl7.org/CodeSystem/condition-category",
          "code": "problem-list-item",
          "display": "Problem List Item"
        }, {
          "system": "http://snomed.info/sct",
          "code": "439401001",
          "display": "Diagnosis"
        } ]
      } ],
      "code": {
        "coding": [ {
          "system": "http://snomed.info/sct",
          "code": "254900004",
          "display": "Carcinoma of prostate (disorder)",
          "userSelected": true
        } ]
      },
      "subject": {
        "reference": "Patient/b7a34d3f-446e-4a40-adff-595b8614977c"
      },
      "onsetDateTime": "2026-01-07T08:00:00.000Z",
      "recordedDate": "2026-06-02T08:00:00.000Z"
    }
  }, {
    "fullUrl": "https://madie.cms.gov/Procedure/0bca10b9-3966-4f3a-a2be-c531836b7b88",
    "resource": {
      "resourceType": "Procedure",
      "id": "0bca10b9-3966-4f3a-a2be-c531836b7b88",
      "meta": {
        "profile": [ "http://hl7.org/fhir/us/qicore/StructureDefinition/qicore-procedure" ]
      },
      "extension": [ {
        "url": "http://hl7.org/fhir/us/qicore/StructureDefinition/qicore-recorded",
        "valueDateTime": "2026-02-01T09:00:00.000Z"
      } ],
      "status": "completed",
      "code": {
        "coding": [ {
          "system": "http://snomed.info/sct",
          "code": "38915000",
          "display": "Radionuclide therapy for gland ablation (procedure)",
          "userSelected": true
        } ]
      },
      "subject": {
        "reference": "Patient/b7a34d3f-446e-4a40-adff-595b8614977c"
      },
      "performedDateTime": "2026-06-02T08:00:00.000Z"
    }
  }, {
    "fullUrl": "https://madie.cms.gov/Observation/b8192356-25a9-491c-8237-d87508cb7ccd",
    "resource": {
      "resourceType": "Observation",
      "id": "b8192356-25a9-491c-8237-d87508cb7ccd",
      "meta": {
        "profile": [ "http://hl7.org/fhir/us/qicore/StructureDefinition/qicore-observation-lab" ]
      },
      "status": "final",
      "category": [ {
        "coding": [ {
          "system": "http://terminology.hl7.org/CodeSystem/observation-category",
          "code": "laboratory",
          "display": "Laboratory"
        } ]
      } ],
      "code": {
        "coding": [ {
          "system": "http://loinc.org",
          "version": "2.72",
          "code": "2857-1",
          "display": "Prostate specific Ag [Mass/volume] in Serum or Plasma",
          "userSelected": true
        } ]
      },
      "subject": {
        "reference": "Patient/b7a34d3f-446e-4a40-adff-595b8614977c"
      },
      "effectiveDateTime": "2026-01-07T08:00:00.000Z",
      "issued": "2026-04-02T08:00:00.000Z",
      "valueQuantity": {
        "value": 8,
        "system": "http://unitsofmeasure.org",
        "code": "ng/mL"
      }
    }
  }, {
    "fullUrl": "https://madie.cms.gov/Observation/bd8830b0-0992-4d6b-bdff-4441dda102b8",
    "resource": {
      "resourceType": "Observation",
      "id": "bd8830b0-0992-4d6b-bdff-4441dda102b8",
      "meta": {
        "profile": [ "http://hl7.org/fhir/us/qicore/StructureDefinition/qicore-observation-clinical-result" ]
      },
      "status": "final",
      "category": [ {
        "coding": [ {
          "system": "http://terminology.hl7.org/CodeSystem/observation-category",
          "code": "procedure",
          "display": "Procedure"
        } ]
      } ],
      "code": {
        "coding": [ {
          "system": "http://loinc.org",
          "code": "35266-6",
          "display": "Gleason score in Specimen Qualitative",
          "userSelected": true
        } ]
      },
      "subject": {
        "reference": "Patient/b7a34d3f-446e-4a40-adff-595b8614977c"
      },
      "effectivePeriod": {
        "start": "2026-04-02T08:00:00.000Z"
      },
      "issued": "2026-04-02T08:00:00.000Z",
      "valueInteger": 5
    }
  }, {
    "fullUrl": "https://madie.cms.gov/Observation/588e4b3e-87a6-4c27-9c71-8365e38fc0de",
    "resource": {
      "resourceType": "Observation",
      "id": "588e4b3e-87a6-4c27-9c71-8365e38fc0de",
      "meta": {
        "profile": [ "http://hl7.org/fhir/us/qicore/StructureDefinition/qicore-observation-clinical-result" ]
      },
      "status": "final",
      "category": [ {
        "coding": [ {
          "system": "http://terminology.hl7.org/CodeSystem/observation-category",
          "code": "procedure",
          "display": "Procedure"
        } ]
      } ],
      "code": {
        "coding": [ {
          "system": "http://snomed.info/sct",
          "code": "254292007",
          "display": "Tumor staging (tumor staging)",
          "userSelected": true
        } ]
      },
      "subject": {
        "reference": "Patient/b7a34d3f-446e-4a40-adff-595b8614977c"
      },
      "focus": [ {
        "reference": "Condition/cceaff73-5969-4bcd-a0f5-4cd00792508a"
      } ],
      "effectivePeriod": {
        "start": "2026-02-07T08:00:00.000Z"
      },
      "issued": "2026-02-02T08:00:00.000Z",
      "valueCodeableConcept": {
        "coding": [ {
          "system": "http://snomed.info/sct",
          "code": "1228892002",
          "display": "American Joint Committee on Cancer cT1a (qualifier value)",
          "userSelected": true
        } ]
      }
    }
  }, {
    "fullUrl": "https://madie.cms.gov/Observation/276138d9-b0df-4d3f-9b81-ee4f1455c084",
    "resource": {
      "resourceType": "Observation",
      "id": "276138d9-b0df-4d3f-9b81-ee4f1455c084",
      "meta": {
        "profile": [ "http://hl7.org/fhir/us/qicore/StructureDefinition/qicore-observation-clinical-result" ]
      },
      "status": "final",
      "category": [ {
        "coding": [ {
          "system": "http://terminology.hl7.org/CodeSystem/observation-category",
          "code": "procedure",
          "display": "Procedure"
        } ]
      }, {
        "coding": [ {
          "system": "http://terminology.hl7.org/CodeSystem/observation-category",
          "code": "imaging",
          "display": "Imaging"
        } ]
      } ],
      "code": {
        "coding": [ {
          "system": "http://loinc.org",
          "version": "2.72",
          "code": "25031-6",
          "display": "NM Bone Views",
          "userSelected": true
        } ]
      },
      "subject": {
        "reference": "Patient/b7a34d3f-446e-4a40-adff-595b8614977c"
      },
      "effectivePeriod": {
        "start": "2026-06-14T08:00:00.000Z",
        "end": "2026-06-14T09:15:00.000Z"
      },
      "issued": "2026-06-14T08:00:00.000Z",
      "valueCodeableConcept": {
        "coding": [ {
          "system": "http://snomed.info/sct",
          "code": "433611000124109",
          "display": "Procedure reason record (record artifact)",
          "userSelected": true
        } ]
      }
    }
  }, {
    "fullUrl": "https://madie.cms.gov/Condition/1069c6c4-04e2-4584-94fc-e65beb94ded3",
    "resource": {
      "resourceType": "Condition",
      "id": "1069c6c4-04e2-4584-94fc-e65beb94ded3",
      "meta": {
        "profile": [ "http://hl7.org/fhir/us/qicore/StructureDefinition/qicore-condition-problems-health-concerns" ]
      },
      "clinicalStatus": {
        "coding": [ {
          "system": "http://terminology.hl7.org/CodeSystem/condition-clinical",
          "code": "active",
          "display": "active",
          "userSelected": true
        } ]
      },
      "category": [ {
        "coding": [ {
          "system": "http://terminology.hl7.org/CodeSystem/condition-category",
          "code": "problem-list-item",
          "display": "Problem List Item"
        }, {
          "system": "http://snomed.info/sct",
          "code": "439401001",
          "display": "Diagnosis"
        } ]
      } ],
      "code": {
        "coding": [ {
          "system": "http://snomed.info/sct",
          "code": "12584003",
          "display": "Bone pain (finding)",
          "userSelected": true
        } ]
      },
      "subject": {
        "reference": "Patient/b7a34d3f-446e-4a40-adff-595b8614977c"
      },
      "onsetPeriod": {
        "start": "2026-02-14T08:00:00.000Z"
      },
      "recordedDate": "2026-06-14T08:00:00.000Z"
    }
  }, {
    "fullUrl": "https://madie.cms.gov/Condition/1069c6c4-04e2-4584-94fc-e65beb94ded3",
    "resource": {
      "resourceType": "Condition",
      "id": "1069c6c4-04e2-4584-94fc-e65beb94ded3",
      "meta": {
        "profile": [ "http://hl7.org/fhir/us/qicore/StructureDefinition/qicore-condition-encounter-diagnosis" ]
      },
      "clinicalStatus": {
        "coding": [ {
          "system": "http://terminology.hl7.org/CodeSystem/condition-clinical",
          "code": "active",
          "display": "active",
          "userSelected": true
        } ]
      },
      "category": [ {
        "coding": [ {
          "system": "http://terminology.hl7.org/CodeSystem/condition-category",
          "code": "encounter-diagnosis",
          "display": "Encounter Diagnosis"
        }, {
          "system": "http://snomed.info/sct",
          "code": "439401001",
          "display": "Diagnosis"
        } ]
      } ],
      "code": {
        "coding": [ {
          "system": "http://snomed.info/sct",
          "code": "12584003",
          "display": "Bone pain (finding)",
          "userSelected": true
        } ]
      },
      "subject": {
        "reference": "Patient/b7a34d3f-446e-4a40-adff-595b8614977c"
      },
      "onsetPeriod": {
        "start": "2026-02-14T08:00:00.000Z"
      },
      "recordedDate": "2026-06-14T08:00:00.000Z"
    }
  }, {
    "fullUrl": "https://madie.cms.gov/Coverage/133e6bbe-7515-4f5f-8a5d-f105335ebc1c",
    "resource": {
      "resourceType": "Coverage",
      "id": "133e6bbe-7515-4f5f-8a5d-f105335ebc1c",
      "meta": {
        "profile": [ "http://hl7.org/fhir/us/qicore/StructureDefinition/qicore-coverage" ]
      },
      "status": "active",
      "subscriberId": "123456789",
      "beneficiary": {
        "reference": "Patient/b7a34d3f-446e-4a40-adff-595b8614977c"
      },
      "relationship": {
        "coding": [ {
          "system": "http://terminology.hl7.org/CodeSystem/subscriber-relationship",
          "code": "self",
          "display": "Self",
          "userSelected": true
        } ]
      },
      "payor": [ {
        "reference": "Organization/79444b17-0daa-43fe-abf0-1bc5458f4619"
      } ]
    }
  }, {
    "fullUrl": "https://madie.cms.gov/Organization/79444b17-0daa-43fe-abf0-1bc5458f4619",
    "resource": {
      "resourceType": "Organization",
      "id": "79444b17-0daa-43fe-abf0-1bc5458f4619",
      "meta": {
        "profile": [ "http://hl7.org/fhir/us/qicore/StructureDefinition/qicore-organization" ]
      },
      "identifier": [ {
        "use": "temp",
        "system": "urn:oid:2.16.840.1.113883.4.4",
        "value": "21-3259825"
      } ],
      "active": true,
      "type": [ {
        "coding": [ {
          "system": "http://terminology.hl7.org/CodeSystem/organization-type",
          "code": "pay",
          "display": "Payer"
        } ]
      } ],
      "name": "Blue Cross Blue Shield of Texas",
      "telecom": [ {
        "system": "phone",
        "value": "(+1) 972-766-6900"
      } ],
      "address": [ {
        "use": "billing",
        "type": "postal",
        "line": [ "P.O. Box 660044" ],
        "city": "Dallas",
        "state": "TX",
        "postalCode": "75266-0044",
        "country": "USA"
      } ]
    }
  }, {
    "fullUrl": "https://madie.cms.gov/Practitioner/0d66d9e0-d011-4c2f-9c67-5d54760cf51e",
    "resource": {
      "resourceType": "Practitioner",
      "id": "0d66d9e0-d011-4c2f-9c67-5d54760cf51e",
      "meta": {
        "profile": [ "http://hl7.org/fhir/us/qicore/StructureDefinition/qicore-practitioner" ]
      },
      "identifier": [ {
        "system": "http://hl7.org/fhir/sid/us-npi",
        "value": "1234567893"
      } ],
      "name": [ {
        "family": "Evil",
        "prefix": [ "Dr" ]
      } ]
    }
  }, {
    "fullUrl": "https://madie.cms.gov/MeasureReport/beb99261-c96c-4300-acc3-ec0da17cb9f4",
    "resource": {
      "resourceType": "MeasureReport",
      "id": "beb99261-c96c-4300-acc3-ec0da17cb9f4",
      "meta": {
        "profile": [ "http://hl7.org/fhir/us/cqfmeasures/StructureDefinition/test-case-cqfm" ]
      },
      "contained": [ {
        "resourceType": "Parameters",
        "id": "1d51b78d-0266-45ad-bfd4-90e8ac451466-parameters",
        "parameter": [ {
          "name": "subject",
          "valueString": "b7a34d3f-446e-4a40-adff-595b8614977c"
        } ]
      } ],
      "extension": [ {
        "url": "http://hl7.org/fhir/StructureDefinition/cqf-inputParameters",
        "valueReference": {
          "reference": "#1d51b78d-0266-45ad-bfd4-90e8ac451466-parameters"
        }
      }, {
        "url": "http://hl7.org/fhir/us/cqfmeasures/StructureDefinition/cqfm-testCaseDescription",
        "valueMarkdown": "Patient with pain during MP related to prostate cancer diagnosis. "
      } ],
      "modifierExtension": [ {
        "url": "http://hl7.org/fhir/us/cqfmeasures/StructureDefinition/cqfm-isTestCase",
        "valueBoolean": true
      } ],
      "status": "complete",
      "type": "individual",
      "measure": "https://madie.cms.gov/Measure/CMS129FHIRProstCaBoneScanUse",
      "period": {
        "start": "2026-01-01",
        "end": "2026-12-31"
      },
      "group": [ {
        "id": "Group_1",
        "population": [ {
          "id": "InitialPopulation_1",
          "code": {
            "coding": [ {
              "system": "http://terminology.hl7.org/CodeSystem/measure-population",
              "code": "initial-population",
              "display": "Initial Population"
            } ]
          },
          "count": 1
        }, {
          "id": "Denominator_1",
          "code": {
            "coding": [ {
              "system": "http://terminology.hl7.org/CodeSystem/measure-population",
              "code": "denominator",
              "display": "Denominator"
            } ]
          },
          "count": 1
        }, {
          "id": "Numerator_1",
          "code": {
            "coding": [ {
              "system": "http://terminology.hl7.org/CodeSystem/measure-population",
              "code": "numerator",
              "display": "Numerator"
            } ]
          },
          "count": 0
        }, {
          "id": "DenominatorException_1",
          "code": {
            "coding": [ {
              "system": "http://terminology.hl7.org/CodeSystem/measure-population",
              "code": "denominator-exception",
              "display": "Denominator Exception"
            } ]
          },
          "count": 1
        } ],
        "measureScore": {
          "value": 1.0
        }
      } ],
      "evaluatedResource": [ {
        "reference": "Patient/b7a34d3f-446e-4a40-adff-595b8614977c"
      }, {
        "reference": "Condition/cceaff73-5969-4bcd-a0f5-4cd00792508a"
      }, {
        "reference": "Procedure/0bca10b9-3966-4f3a-a2be-c531836b7b88"
      }, {
        "reference": "Observation/b8192356-25a9-491c-8237-d87508cb7ccd"
      }, {
        "reference": "Observation/bd8830b0-0992-4d6b-bdff-4441dda102b8"
      }, {
        "reference": "Observation/588e4b3e-87a6-4c27-9c71-8365e38fc0de"
      }, {
        "reference": "Observation/276138d9-b0df-4d3f-9b81-ee4f1455c084"
      }, {
        "reference": "Condition/1069c6c4-04e2-4584-94fc-e65beb94ded3"
      }, {
        "reference": "Condition/1069c6c4-04e2-4584-94fc-e65beb94ded3"
      }, {
        "reference": "Coverage/133e6bbe-7515-4f5f-8a5d-f105335ebc1c"
      }, {
        "reference": "Organization/79444b17-0daa-43fe-abf0-1bc5458f4619"
      }, {
        "reference": "Practitioner/0d66d9e0-d011-4c2f-9c67-5d54760cf51e"
      } ]
    }
  } ]
}