{
  "resourceType": "Bundle",
  "id": "61095b0998086b53805591a5",
  "type": "collection",
  "entry": [ {
    "fullUrl": "https://madie.cms.gov/Patient/d8a4576a-abf4-4ef5-878b-44b6333e13b5",
    "resource": {
      "resourceType": "Patient",
      "id": "d8a4576a-abf4-4ef5-878b-44b6333e13b5",
      "meta": {
        "profile": [ "http://hl7.org/fhir/us/qicore/StructureDefinition/qicore-patient" ]
      },
      "text": {
        "status": "generated",
        "div": "<div xmlns=\"http://www.w3.org/1999/xhtml\"><div class=\"hapiHeaderText\">Age@18 <b>DENOMPASS </b></div><table class=\"hapiPropertyTable\"><tbody><tr><td>Identifier</td><td>67f3e33acf17bcb386e754d726ed064ccd48ba21ff0ffb2eb678740a684398be</td></tr><tr><td>Date of birth</td><td><span>01 January 1994</span></td></tr></tbody></table></div>"
      },
      "extension": [ {
        "url": "http://hl7.org/fhir/us/core/StructureDefinition/us-core-race",
        "extension": [ {
          "url": "ombCategory",
          "valueCoding": {
            "system": "urn:oid:2.16.840.1.113883.6.238",
            "code": "1002-5",
            "display": "American Indian or Alaska Native",
            "userSelected": true
          }
        }, {
          "url": "text",
          "valueString": "American Indian or Alaska Native"
        } ]
      }, {
        "url": "http://hl7.org/fhir/us/core/StructureDefinition/us-core-ethnicity",
        "extension": [ {
          "url": "ombCategory",
          "valueCoding": {
            "system": "urn:oid:2.16.840.1.113883.6.238",
            "code": "2135-2",
            "display": "Hispanic or Latino",
            "userSelected": true
          }
        }, {
          "url": "text",
          "valueString": "Hispanic or Latino"
        } ]
      } ],
      "identifier": [ {
        "type": {
          "coding": [ {
            "system": "http://terminology.hl7.org/CodeSystem/v2-0203",
            "code": "MR"
          } ]
        },
        "system": "https://bonnie-fhir.healthit.gov/",
        "value": "61095b0998086b53805591a5"
      } ],
      "active": true,
      "name": [ {
        "use": "usual",
        "family": "DENEXPASS",
        "given": [ "InjurytoOpticNerveWithCatSurg" ]
      } ],
      "gender": "female",
      "birthDate": "1996-01-01"
    }
  }, {
    "fullUrl": "https://madie.cms.gov/Observation/0892f93f-804c-4954-ba67-b2d72bea72ce",
    "resource": {
      "resourceType": "Observation",
      "id": "0892f93f-804c-4954-ba67-b2d72bea72ce",
      "meta": {
        "profile": [ "http://hl7.org/fhir/us/qicore/StructureDefinition/qicore-observation-clinical-result" ]
      },
      "status": "final",
      "category": [ {
        "coding": [ {
          "system": "http://terminology.hl7.org/CodeSystem/observation-category",
          "code": "exam",
          "display": "exam"
        } ]
      }, {
        "coding": [ {
          "system": "http://terminology.hl7.org/CodeSystem/observation-category",
          "code": "survey"
        } ]
      } ],
      "code": {
        "coding": [ {
          "system": "http://snomed.info/sct",
          "version": "http://snomed.info/sct/731000124108/version/20250301",
          "code": "419775003"
        } ]
      },
      "subject": {
        "reference": "Patient/d8a4576a-abf4-4ef5-878b-44b6333e13b5"
      },
      "effectivePeriod": {
        "start": "2026-03-13T09:00:00.000Z",
        "end": "2026-03-13T09:30:00.000Z"
      },
      "dataAbsentReason": {
        "coding": [ {
          "system": "http://terminology.hl7.org/CodeSystem/data-absent-reason",
          "code": "unknown",
          "display": "Unknown"
        } ]
      }
    }
  }, {
    "fullUrl": "https://madie.cms.gov/Procedure/da2b43d2-2956-45d0-a0a5-fff11313c063",
    "resource": {
      "resourceType": "Procedure",
      "id": "da2b43d2-2956-45d0-a0a5-fff11313c063",
      "meta": {
        "profile": [ "http://hl7.org/fhir/us/qicore/StructureDefinition/qicore-procedure" ]
      },
      "extension": [ {
        "url": "http://hl7.org/fhir/us/qicore/StructureDefinition/qicore-recorded",
        "valueDateTime": "2026-03-05T13:35:00.000Z"
      } ],
      "status": "completed",
      "code": {
        "coding": [ {
          "system": "http://snomed.info/sct",
          "code": "84149000"
        } ]
      },
      "subject": {
        "reference": "Patient/d8a4576a-abf4-4ef5-878b-44b6333e13b5"
      },
      "performedPeriod": {
        "start": "2026-03-05T13:20:00.000Z",
        "end": "2026-04-05T14:30:00.000Z"
      }
    }
  }, {
    "fullUrl": "https://madie.cms.gov/Condition/5af5e5c8-8648-40ad-a2da-24f7bbf24a2b",
    "resource": {
      "resourceType": "Condition",
      "id": "5af5e5c8-8648-40ad-a2da-24f7bbf24a2b",
      "meta": {
        "profile": [ "http://hl7.org/fhir/us/qicore/StructureDefinition/qicore-condition-encounter-diagnosis" ]
      },
      "clinicalStatus": {
        "coding": [ {
          "system": "http://terminology.hl7.org/CodeSystem/condition-clinical",
          "code": "active",
          "display": "active",
          "userSelected": true
        } ]
      },
      "category": [ {
        "coding": [ {
          "system": "http://terminology.hl7.org/CodeSystem/condition-clinical",
          "code": "active",
          "display": "active",
          "userSelected": true
        } ]
      }, {
        "coding": [ {
          "system": "http://terminology.hl7.org/CodeSystem/condition-category",
          "code": "encounter-diagnosis",
          "display": "Encounter Diagnosis"
        } ]
      } ],
      "code": {
        "coding": [ {
          "system": "http://hl7.org/fhir/sid/icd-10-cm",
          "code": "S04.032A",
          "userSelected": true
        }, {
          "system": "http://snomed.info/sct",
          "version": "http://snomed.info/sct/731000124108/version/20250301",
          "code": "212141007",
          "userSelected": true
        } ]
      },
      "subject": {
        "reference": "Patient/d8a4576a-abf4-4ef5-878b-44b6333e13b5"
      },
      "onsetDateTime": "2024-11-01T08:00:00.000Z"
    }
  }, {
    "fullUrl": "https://madie.cms.gov/Coverage/0011a357-f579-4544-8bf3-b4b7fab78085",
    "resource": {
      "resourceType": "Coverage",
      "id": "0011a357-f579-4544-8bf3-b4b7fab78085",
      "meta": {
        "profile": [ "http://hl7.org/fhir/us/qicore/StructureDefinition/qicore-coverage" ]
      },
      "status": "active",
      "subscriberId": "123456",
      "beneficiary": {
        "reference": "Patient/d8a4576a-abf4-4ef5-878b-44b6333e13b5"
      },
      "relationship": {
        "coding": [ {
          "system": "http://terminology.hl7.org/CodeSystem/subscriber-relationship",
          "code": "self",
          "display": "Self"
        } ]
      },
      "payor": [ {
        "reference": "Organization/77e2b799-e71f-499c-bc53-7f76af34fa8e"
      } ]
    }
  }, {
    "fullUrl": "https://madie.cms.gov/Organization/77e2b799-e71f-499c-bc53-7f76af34fa8e",
    "resource": {
      "resourceType": "Organization",
      "id": "77e2b799-e71f-499c-bc53-7f76af34fa8e",
      "meta": {
        "profile": [ "http://hl7.org/fhir/us/qicore/StructureDefinition/qicore-organization" ]
      },
      "identifier": [ {
        "use": "temp",
        "system": "urn:oid:2.16.840.1.113883.4.4",
        "value": "21-3259825"
      } ],
      "active": true,
      "type": [ {
        "coding": [ {
          "system": "http://terminology.hl7.org/CodeSystem/organization-type",
          "code": "pay",
          "display": "Payer"
        } ]
      } ],
      "name": "Blue Cross Blue Shield of Texas",
      "telecom": [ {
        "system": "phone",
        "value": "(+1) 972-766-6900"
      } ],
      "address": [ {
        "use": "billing",
        "type": "postal",
        "line": [ "P.O. Box 660044" ],
        "city": "Dallas",
        "state": "TX",
        "postalCode": "75266-0044",
        "country": "USA"
      } ]
    }
  }, {
    "fullUrl": "https://madie.cms.gov/Practitioner/af191a76-0320-4c95-9ae7-e2a865121a77",
    "resource": {
      "resourceType": "Practitioner",
      "id": "af191a76-0320-4c95-9ae7-e2a865121a77",
      "meta": {
        "profile": [ "http://hl7.org/fhir/us/qicore/StructureDefinition/qicore-practitioner" ]
      },
      "identifier": [ {
        "system": "http://hl7.org/fhir/sid/us-npi",
        "value": "1689411712"
      } ],
      "name": [ {
        "family": "Evil",
        "prefix": [ "Dr" ]
      } ]
    }
  }, {
    "fullUrl": "https://madie.cms.gov/MeasureReport/91fac096-be38-40b7-90f7-15fefe8821f0",
    "resource": {
      "resourceType": "MeasureReport",
      "id": "91fac096-be38-40b7-90f7-15fefe8821f0",
      "meta": {
        "profile": [ "http://hl7.org/fhir/us/cqfmeasures/StructureDefinition/test-case-cqfm" ]
      },
      "contained": [ {
        "resourceType": "Parameters",
        "id": "b85c5e0a-8a17-44b1-b977-8da5c898c386-parameters",
        "parameter": [ {
          "name": "subject",
          "valueString": "d8a4576a-abf4-4ef5-878b-44b6333e13b5"
        } ]
      } ],
      "extension": [ {
        "url": "http://hl7.org/fhir/StructureDefinition/cqf-inputParameters",
        "valueReference": {
          "reference": "#b85c5e0a-8a17-44b1-b977-8da5c898c386-parameters"
        }
      }, {
        "url": "http://hl7.org/fhir/us/cqfmeasures/StructureDefinition/cqfm-testCaseDescription",
        "valueMarkdown": "Patient with Injury to Optic Nerve with cataract surgery. "
      } ],
      "modifierExtension": [ {
        "url": "http://hl7.org/fhir/us/cqfmeasures/StructureDefinition/cqfm-isTestCase",
        "valueBoolean": true
      } ],
      "status": "complete",
      "type": "individual",
      "measure": "https://madie.cms.gov/Measure/CMS133FHIRCataracts2040BCVA90Days",
      "period": {
        "start": "2026-01-01",
        "end": "2026-12-31"
      },
      "group": [ {
        "id": "Group_1",
        "population": [ {
          "id": "InitialPopulation_1",
          "code": {
            "coding": [ {
              "system": "http://terminology.hl7.org/CodeSystem/measure-population",
              "code": "initial-population",
              "display": "Initial Population"
            } ]
          },
          "count": 1
        }, {
          "id": "Denominator_1",
          "code": {
            "coding": [ {
              "system": "http://terminology.hl7.org/CodeSystem/measure-population",
              "code": "denominator",
              "display": "Denominator"
            } ]
          },
          "count": 1
        }, {
          "id": "DenominatorExclusion_1",
          "code": {
            "coding": [ {
              "system": "http://terminology.hl7.org/CodeSystem/measure-population",
              "code": "denominator-exclusion",
              "display": "Denominator Exclusion"
            } ]
          },
          "count": 1
        }, {
          "id": "Numerator_1",
          "code": {
            "coding": [ {
              "system": "http://terminology.hl7.org/CodeSystem/measure-population",
              "code": "numerator",
              "display": "Numerator"
            } ]
          },
          "count": 0
        } ],
        "measureScore": {
          "value": 0.0
        }
      } ],
      "evaluatedResource": [ {
        "reference": "Patient/d8a4576a-abf4-4ef5-878b-44b6333e13b5"
      }, {
        "reference": "Observation/0892f93f-804c-4954-ba67-b2d72bea72ce"
      }, {
        "reference": "Procedure/da2b43d2-2956-45d0-a0a5-fff11313c063"
      }, {
        "reference": "Condition/5af5e5c8-8648-40ad-a2da-24f7bbf24a2b"
      }, {
        "reference": "Coverage/0011a357-f579-4544-8bf3-b4b7fab78085"
      }, {
        "reference": "Organization/77e2b799-e71f-499c-bc53-7f76af34fa8e"
      }, {
        "reference": "Practitioner/af191a76-0320-4c95-9ae7-e2a865121a77"
      } ]
    }
  } ]
}