{
  "resourceType": "Bundle",
  "id": "62fbef57bf5132f90ee35d41",
  "type": "collection",
  "entry": [ {
    "fullUrl": "https://madie.cms.gov/Patient/1c607e84-c7c2-4dae-bf63-a75d7a9cfd38",
    "resource": {
      "resourceType": "Patient",
      "id": "1c607e84-c7c2-4dae-bf63-a75d7a9cfd38",
      "meta": {
        "profile": [ "http://hl7.org/fhir/us/qicore/StructureDefinition/qicore-patient" ]
      },
      "extension": [ {
        "url": "http://hl7.org/fhir/us/core/StructureDefinition/us-core-race",
        "extension": [ {
          "url": "ombCategory",
          "valueCoding": {
            "system": "urn:oid:2.16.840.1.113883.6.238",
            "code": "2106-3",
            "display": "White",
            "userSelected": true
          }
        }, {
          "url": "text",
          "valueString": "White"
        } ]
      }, {
        "url": "http://hl7.org/fhir/us/core/StructureDefinition/us-core-ethnicity",
        "extension": [ {
          "url": "ombCategory",
          "valueCoding": {
            "system": "urn:oid:2.16.840.1.113883.6.238",
            "code": "2186-5",
            "display": "Not Hispanic or Latino",
            "userSelected": true
          }
        }, {
          "url": "text",
          "valueString": "Not Hispanic or Latino"
        } ]
      } ],
      "identifier": [ {
        "type": {
          "coding": [ {
            "system": "http://terminology.hl7.org/CodeSystem/v2-0203",
            "code": "MR"
          } ]
        },
        "system": "https://bonnie-fhir.healthit.gov/",
        "value": "62fbef57bf5132f90ee35d41"
      } ],
      "name": [ {
        "family": "NUMERFail",
        "given": [ "ObeseDxEndsBeforeIntervention" ]
      } ],
      "gender": "unknown",
      "birthDate": "1957-11-07"
    }
  }, {
    "fullUrl": "https://madie.cms.gov/Encounter/03dcced5-ee3a-4de5-9f15-17d55020e017",
    "resource": {
      "resourceType": "Encounter",
      "id": "03dcced5-ee3a-4de5-9f15-17d55020e017",
      "meta": {
        "profile": [ "http://hl7.org/fhir/us/qicore/StructureDefinition/qicore-encounter" ]
      },
      "status": "finished",
      "class": {
        "system": "http://terminology.hl7.org/CodeSystem/v3-ActCode",
        "code": "AMB",
        "display": "ambulatory"
      },
      "type": [ {
        "coding": [ {
          "system": "http://snomed.info/sct",
          "code": "10197000",
          "display": "Psychiatric interview and evaluation (procedure)",
          "userSelected": true
        } ]
      } ],
      "subject": {
        "reference": "Patient/1c607e84-c7c2-4dae-bf63-a75d7a9cfd38"
      },
      "period": {
        "start": "2026-12-31T23:30:00.000+00:00",
        "end": "2026-12-31T23:59:00.000+00:00"
      }
    }
  }, {
    "fullUrl": "https://madie.cms.gov/Observation/4c811032-9300-43bb-8ec6-28c7b3924004",
    "resource": {
      "resourceType": "Observation",
      "id": "4c811032-9300-43bb-8ec6-28c7b3924004",
      "meta": {
        "profile": [ "http://hl7.org/fhir/us/core/StructureDefinition/us-core-bmi" ]
      },
      "status": "final",
      "category": [ {
        "coding": [ {
          "system": "http://terminology.hl7.org/CodeSystem/observation-category",
          "code": "vital-signs",
          "display": "Vital Signs"
        } ]
      } ],
      "code": {
        "coding": [ {
          "system": "http://loinc.org",
          "code": "39156-5",
          "display": "Body mass index (BMI) [Ratio]",
          "userSelected": true
        } ]
      },
      "subject": {
        "reference": "Patient/1c607e84-c7c2-4dae-bf63-a75d7a9cfd38"
      },
      "effectiveDateTime": "2026-12-30T08:05:00.000+00:00",
      "valueQuantity": {
        "value": 30,
        "unit": "kg/m2",
        "system": "http://unitsofmeasure.org",
        "code": "kg/m2"
      }
    }
  }, {
    "fullUrl": "https://madie.cms.gov/ServiceRequest/e228d5e8-5ad4-4a06-a00b-f3964e8d915d",
    "resource": {
      "resourceType": "ServiceRequest",
      "id": "e228d5e8-5ad4-4a06-a00b-f3964e8d915d",
      "meta": {
        "profile": [ "http://hl7.org/fhir/us/qicore/StructureDefinition/qicore-servicerequest" ]
      },
      "extension": [ {
        "url": "http://hl7.org/fhir/us/qicore/StructureDefinition/qicore-recorded",
        "valueDateTime": "2026-12-30T23:58:00.000+00:00"
      } ],
      "status": "completed",
      "intent": "order",
      "code": {
        "coding": [ {
          "system": "http://snomed.info/sct",
          "code": "182922004",
          "display": "Dietary regime (regime/therapy)",
          "userSelected": true
        } ]
      },
      "subject": {
        "reference": "Patient/1c607e84-c7c2-4dae-bf63-a75d7a9cfd38"
      },
      "authoredOn": "2024-12-31T08:00:00.000+00:00"
    }
  }, {
    "fullUrl": "https://madie.cms.gov/Condition/6cc746f7-4315-4e43-9232-9fbddf561d0f",
    "resource": {
      "resourceType": "Condition",
      "id": "6cc746f7-4315-4e43-9232-9fbddf561d0f",
      "meta": {
        "profile": [ "http://hl7.org/fhir/us/qicore/StructureDefinition/qicore-condition-problems-health-concerns" ]
      },
      "clinicalStatus": {
        "coding": [ {
          "system": "http://terminology.hl7.org/CodeSystem/condition-clinical",
          "code": "resolved",
          "display": "Resolved",
          "userSelected": true
        } ]
      },
      "category": [ {
        "coding": [ {
          "system": "http://terminology.hl7.org/CodeSystem/condition-category",
          "code": "problem-list-item",
          "display": "Problem List Item"
        }, {
          "system": "http://snomed.info/sct",
          "code": "439401001",
          "display": "Diagnosis"
        } ]
      } ],
      "code": {
        "coding": [ {
          "system": "http://snomed.info/sct",
          "code": "162863004",
          "display": "Body mass index 25-29 - overweight (finding)",
          "userSelected": true
        } ]
      },
      "subject": {
        "reference": "Patient/1c607e84-c7c2-4dae-bf63-a75d7a9cfd38"
      },
      "onsetDateTime": "2023-12-29T23:59:00.000+00:00",
      "abatementDateTime": "2026-12-29T23:59:00.000+00:00"
    }
  }, {
    "fullUrl": "https://madie.cms.gov/Coverage/98d5ff8f-7391-4b91-975c-b68ca78b79db",
    "resource": {
      "resourceType": "Coverage",
      "id": "98d5ff8f-7391-4b91-975c-b68ca78b79db",
      "meta": {
        "profile": [ "http://hl7.org/fhir/us/qicore/StructureDefinition/qicore-coverage" ]
      },
      "status": "active",
      "subscriberId": "123456",
      "beneficiary": {
        "reference": "Patient/1c607e84-c7c2-4dae-bf63-a75d7a9cfd38"
      },
      "relationship": {
        "coding": [ {
          "system": "http://terminology.hl7.org/CodeSystem/subscriber-relationship",
          "code": "self",
          "display": "Self",
          "userSelected": true
        } ]
      },
      "payor": [ {
        "reference": "Organization/9d04341c-581c-480b-b0a2-1548b59348af"
      } ]
    }
  }, {
    "fullUrl": "https://madie.cms.gov/Organization/9d04341c-581c-480b-b0a2-1548b59348af",
    "resource": {
      "resourceType": "Organization",
      "id": "9d04341c-581c-480b-b0a2-1548b59348af",
      "meta": {
        "profile": [ "http://hl7.org/fhir/us/qicore/StructureDefinition/qicore-organization" ]
      },
      "identifier": [ {
        "use": "temp",
        "system": "urn:oid:2.16.840.1.113883.4.4",
        "value": "21-3259825"
      } ],
      "active": true,
      "type": [ {
        "coding": [ {
          "system": "http://terminology.hl7.org/CodeSystem/organization-type",
          "code": "pay",
          "display": "Payer"
        } ]
      } ],
      "name": "Blue Cross Blue Shield of Texas",
      "telecom": [ {
        "system": "phone",
        "value": "(+1) 972-766-6900"
      } ],
      "address": [ {
        "use": "billing",
        "type": "postal",
        "line": [ "P.O. Box 660044" ],
        "city": "Dallas",
        "state": "TX",
        "postalCode": "75266-0044",
        "country": "USA"
      } ]
    }
  }, {
    "fullUrl": "https://madie.cms.gov/MeasureReport/aedcd9ea-26a3-4939-825a-374d08741197",
    "resource": {
      "resourceType": "MeasureReport",
      "id": "aedcd9ea-26a3-4939-825a-374d08741197",
      "meta": {
        "profile": [ "http://hl7.org/fhir/us/cqfmeasures/StructureDefinition/test-case-cqfm" ]
      },
      "contained": [ {
        "resourceType": "Parameters",
        "id": "b6901b30-47dd-4a48-a674-aa1835e23eb1-parameters",
        "parameter": [ {
          "name": "subject",
          "valueString": "1c607e84-c7c2-4dae-bf63-a75d7a9cfd38"
        } ]
      } ],
      "extension": [ {
        "url": "http://hl7.org/fhir/StructureDefinition/cqf-inputParameters",
        "valueReference": {
          "reference": "#b6901b30-47dd-4a48-a674-aa1835e23eb1-parameters"
        }
      }, {
        "url": "http://hl7.org/fhir/us/cqfmeasures/StructureDefinition/cqfm-testCaseDescription",
        "valueMarkdown": "Enc last day of MP @23:30-23:59, BMI 30 kg/m2 during enc, Obese dx 7/25/23, inactive 12/30, intervention after dx inactive, expected to fail the numer\n"
      } ],
      "modifierExtension": [ {
        "url": "http://hl7.org/fhir/us/cqfmeasures/StructureDefinition/cqfm-isTestCase",
        "valueBoolean": true
      } ],
      "status": "complete",
      "type": "individual",
      "measure": "https://madie.cms.gov/Measure/CMS69FHIRPCSBMIScreenAndFollowUp",
      "period": {
        "start": "2026-01-01",
        "end": "2026-12-31"
      },
      "group": [ {
        "id": "Group_1",
        "population": [ {
          "id": "InitialPopulation_1",
          "code": {
            "coding": [ {
              "system": "http://terminology.hl7.org/CodeSystem/measure-population",
              "code": "initial-population",
              "display": "Initial Population"
            } ]
          },
          "count": 1
        }, {
          "id": "Denominator_1",
          "code": {
            "coding": [ {
              "system": "http://terminology.hl7.org/CodeSystem/measure-population",
              "code": "denominator",
              "display": "Denominator"
            } ]
          },
          "count": 1
        }, {
          "id": "DenominatorExclusion_1",
          "code": {
            "coding": [ {
              "system": "http://terminology.hl7.org/CodeSystem/measure-population",
              "code": "denominator-exclusion",
              "display": "Denominator Exclusion"
            } ]
          },
          "count": 0
        }, {
          "id": "Numerator_1",
          "code": {
            "coding": [ {
              "system": "http://terminology.hl7.org/CodeSystem/measure-population",
              "code": "numerator",
              "display": "Numerator"
            } ]
          },
          "count": 0
        }, {
          "id": "DenominatorException_1",
          "code": {
            "coding": [ {
              "system": "http://terminology.hl7.org/CodeSystem/measure-population",
              "code": "denominator-exception",
              "display": "Denominator Exception"
            } ]
          },
          "count": 0
        } ],
        "measureScore": {
          "value": 1.0
        }
      } ],
      "evaluatedResource": [ {
        "reference": "Patient/1c607e84-c7c2-4dae-bf63-a75d7a9cfd38"
      }, {
        "reference": "Encounter/03dcced5-ee3a-4de5-9f15-17d55020e017"
      }, {
        "reference": "Observation/4c811032-9300-43bb-8ec6-28c7b3924004"
      }, {
        "reference": "ServiceRequest/e228d5e8-5ad4-4a06-a00b-f3964e8d915d"
      }, {
        "reference": "Condition/6cc746f7-4315-4e43-9232-9fbddf561d0f"
      }, {
        "reference": "Coverage/98d5ff8f-7391-4b91-975c-b68ca78b79db"
      }, {
        "reference": "Organization/9d04341c-581c-480b-b0a2-1548b59348af"
      } ]
    }
  } ]
}