{
  "resourceType": "Bundle",
  "id": "4616513133030",
  "type": "collection",
  "entry": [ {
    "fullUrl": "https://madie.cms.gov/Patient/790f8993-7a03-4ed7-94d7-c0e95587afa0",
    "resource": {
      "resourceType": "Patient",
      "id": "790f8993-7a03-4ed7-94d7-c0e95587afa0",
      "meta": {
        "profile": [ "http://hl7.org/fhir/us/qicore/StructureDefinition/qicore-patient" ]
      },
      "extension": [ {
        "url": "http://hl7.org/fhir/us/core/StructureDefinition/us-core-race",
        "extension": [ {
          "url": "ombCategory",
          "valueCoding": {
            "system": "urn:oid:2.16.840.1.113883.6.238",
            "code": "2076-8",
            "display": "Native Hawaiian or Other Pacific Islander"
          }
        }, {
          "url": "text",
          "valueString": "Native Hawaiian or Other Pacific Islander"
        } ]
      }, {
        "url": "http://hl7.org/fhir/us/core/StructureDefinition/us-core-ethnicity",
        "extension": [ {
          "url": "ombCategory",
          "valueCoding": {
            "system": "urn:oid:2.16.840.1.113883.6.238",
            "code": "2186-5",
            "display": "Not Hispanic or Latino"
          }
        }, {
          "url": "text",
          "valueString": "Not Hispanic or Latino"
        } ]
      } ],
      "identifier": [ {
        "type": {
          "coding": [ {
            "system": "http://terminology.hl7.org/CodeSystem/v2-0203",
            "code": "MR"
          } ]
        },
        "system": "https://bonnie-fhir.healthit.gov/",
        "value": "60d4bda907206d58cd96b128"
      } ],
      "name": [ {
        "family": "NUMERPass",
        "given": [ "BCGTwiceCheckForFirst" ]
      } ],
      "gender": "female",
      "birthDate": "1951-12-25"
    }
  }, {
    "fullUrl": "https://madie.cms.gov/Encounter/ae783575-b616-4249-9ecb-c2237936c5b4",
    "resource": {
      "resourceType": "Encounter",
      "id": "ae783575-b616-4249-9ecb-c2237936c5b4",
      "meta": {
        "profile": [ "http://hl7.org/fhir/us/qicore/StructureDefinition/qicore-encounter" ]
      },
      "status": "finished",
      "class": {
        "system": "http://terminology.hl7.org/CodeSystem/v3-ActCode",
        "code": "AMB",
        "display": "ambulatory"
      },
      "type": [ {
        "coding": [ {
          "system": "http://snomed.info/sct",
          "version": "http://snomed.info/sct/731000124108/version/20240301",
          "code": "185463005",
          "display": "Visit out of hours (procedure)"
        } ]
      } ],
      "subject": {
        "reference": "Patient/790f8993-7a03-4ed7-94d7-c0e95587afa0"
      },
      "period": {
        "start": "2026-02-02T08:00:00.000+00:00",
        "end": "2026-02-02T09:15:00.000+00:00"
      }
    }
  }, {
    "fullUrl": "https://madie.cms.gov/Condition/65aaf8c1-6c3a-4049-b964-f0b96de0b9b5",
    "resource": {
      "resourceType": "Condition",
      "id": "65aaf8c1-6c3a-4049-b964-f0b96de0b9b5",
      "meta": {
        "profile": [ "http://hl7.org/fhir/us/qicore/StructureDefinition/qicore-condition-problems-health-concerns" ]
      },
      "clinicalStatus": {
        "coding": [ {
          "system": "http://terminology.hl7.org/CodeSystem/condition-clinical",
          "code": "active",
          "display": "Active"
        } ]
      },
      "verificationStatus": {
        "coding": [ {
          "system": "http://terminology.hl7.org/CodeSystem/condition-ver-status",
          "code": "confirmed",
          "display": "Confirmed"
        } ]
      },
      "category": [ {
        "coding": [ {
          "system": "http://terminology.hl7.org/CodeSystem/condition-category",
          "code": "problem-list-item",
          "display": "Problem List Item"
        } ]
      } ],
      "code": {
        "coding": [ {
          "system": "http://hl7.org/fhir/sid/icd-10-cm",
          "version": "2024",
          "code": "C67.1",
          "display": "Malignant neoplasm of dome of bladder"
        } ]
      },
      "subject": {
        "reference": "Patient/790f8993-7a03-4ed7-94d7-c0e95587afa0"
      },
      "onsetPeriod": {
        "start": "2026-02-02T08:00:00.000+00:00"
      }
    }
  }, {
    "fullUrl": "https://madie.cms.gov/Procedure/a8105f96-3080-49f9-bd81-1ea131988f21",
    "resource": {
      "resourceType": "Procedure",
      "id": "a8105f96-3080-49f9-bd81-1ea131988f21",
      "meta": {
        "profile": [ "http://hl7.org/fhir/us/qicore/StructureDefinition/qicore-procedure" ]
      },
      "extension": [ {
        "url": "http://hl7.org/fhir/us/qicore/StructureDefinition/qicore-recorded",
        "valueDateTime": "2026-02-01T08:00:00.000+00:00"
      } ],
      "status": "completed",
      "code": {
        "coding": [ {
          "system": "http://snomed.info/sct",
          "version": "http://snomed.info/sct/731000124108/version/20250301",
          "code": "254292007",
          "display": "Tumor staging"
        } ]
      },
      "subject": {
        "reference": "Patient/790f8993-7a03-4ed7-94d7-c0e95587afa0"
      },
      "performedPeriod": {
        "start": "2026-02-01T08:00:00.000+00:00",
        "end": "2026-02-02T08:15:00.000+00:00"
      }
    }
  }, {
    "fullUrl": "https://madie.cms.gov/Observation/1359299f-8ad5-4729-bbd4-0f873ba2f813",
    "resource": {
      "resourceType": "Observation",
      "id": "1359299f-8ad5-4729-bbd4-0f873ba2f813",
      "meta": {
        "profile": [ "http://hl7.org/fhir/us/qicore/StructureDefinition/qicore-observation-lab" ]
      },
      "partOf": [ {
        "reference": "Procedure/a8105f96-3080-49f9-bd81-1ea131988f21"
      } ],
      "status": "final",
      "category": [ {
        "coding": [ {
          "system": "http://terminology.hl7.org/CodeSystem/observation-category",
          "code": "procedure",
          "display": "Procedure"
        } ]
      }, {
        "coding": [ {
          "system": "http://terminology.hl7.org/CodeSystem/observation-category",
          "code": "laboratory",
          "display": "Laboratory"
        } ]
      } ],
      "code": {
        "coding": [ {
          "system": "http://loinc.org",
          "version": "2.76",
          "code": "21902-2",
          "display": "Stage group.pathology Cancer"
        } ]
      },
      "subject": {
        "reference": "Patient/790f8993-7a03-4ed7-94d7-c0e95587afa0"
      },
      "effectivePeriod": {
        "start": "2026-02-01T08:00:00.000+00:00",
        "end": "2026-02-02T08:15:00.000+00:00"
      },
      "issued": "2026-02-02T08:15:00.000+00:00",
      "valueCodeableConcept": {
        "coding": [ {
          "system": "http://snomed.info/sct",
          "version": "http://snomed.info/sct/731000124108/version/20240301",
          "code": "1228883000",
          "display": "American Joint Committee on Cancer cTa (qualifier value)"
        } ]
      }
    }
  }, {
    "fullUrl": "https://madie.cms.gov/MedicationAdministration/cf961ac9-cd54-4602-8260-fe21dcaa1721",
    "resource": {
      "resourceType": "MedicationAdministration",
      "id": "cf961ac9-cd54-4602-8260-fe21dcaa1721",
      "meta": {
        "profile": [ "http://hl7.org/fhir/us/qicore/StructureDefinition/qicore-medicationadministration" ]
      },
      "status": "completed",
      "medicationCodeableConcept": {
        "coding": [ {
          "system": "http://www.nlm.nih.gov/research/umls/rxnorm",
          "version": "06052023",
          "code": "1653484",
          "display": "BCG, live, Tice strain 50 MG/ML Topical Suspension"
        } ]
      },
      "subject": {
        "reference": "Patient/790f8993-7a03-4ed7-94d7-c0e95587afa0"
      },
      "effectivePeriod": {
        "start": "2026-06-02T08:00:00.000+00:00",
        "end": "2026-06-02T08:15:00.000+00:00"
      }
    }
  }, {
    "fullUrl": "https://madie.cms.gov/MedicationAdministration/c20af83c-c8e6-4be7-a7e1-e5781bd31dbf",
    "resource": {
      "resourceType": "MedicationAdministration",
      "id": "c20af83c-c8e6-4be7-a7e1-e5781bd31dbf",
      "meta": {
        "profile": [ "http://hl7.org/fhir/us/qicore/StructureDefinition/qicore-medicationadministration" ]
      },
      "status": "completed",
      "medicationCodeableConcept": {
        "coding": [ {
          "system": "http://www.nlm.nih.gov/research/umls/rxnorm",
          "version": "06052023",
          "code": "1653484",
          "display": "BCG, live, Tice strain 50 MG/ML Topical Suspension"
        } ]
      },
      "subject": {
        "reference": "Patient/790f8993-7a03-4ed7-94d7-c0e95587afa0"
      },
      "effectivePeriod": {
        "start": "2026-07-02T08:00:00.000+00:00",
        "end": "2026-07-02T08:15:00.000+00:00"
      }
    }
  }, {
    "fullUrl": "https://madie.cms.gov/MeasureReport/77832829-c8fa-4b33-ad9e-c6dbc94583a7",
    "resource": {
      "resourceType": "MeasureReport",
      "id": "77832829-c8fa-4b33-ad9e-c6dbc94583a7",
      "meta": {
        "profile": [ "http://hl7.org/fhir/us/cqfmeasures/StructureDefinition/test-case-cqfm" ]
      },
      "contained": [ {
        "resourceType": "Parameters",
        "id": "13268835-6743-48f6-959c-6fb72bb7a43e-parameters",
        "parameter": [ {
          "name": "subject",
          "valueString": "790f8993-7a03-4ed7-94d7-c0e95587afa0"
        } ]
      } ],
      "extension": [ {
        "url": "http://hl7.org/fhir/StructureDefinition/cqf-inputParameters",
        "valueReference": {
          "reference": "#13268835-6743-48f6-959c-6fb72bb7a43e-parameters"
        }
      }, {
        "url": "http://hl7.org/fhir/us/cqfmeasures/StructureDefinition/cqfm-testCaseDescription",
        "valueMarkdown": "BCa, OV and staging present.  BCG given twice.  First is within 6 months of staging and 2nd is at 7 months after staging.  Test to determine if 1st BCG is calculating the results. Passes as expected."
      } ],
      "modifierExtension": [ {
        "url": "http://hl7.org/fhir/us/cqfmeasures/StructureDefinition/cqfm-isTestCase",
        "valueBoolean": true
      } ],
      "status": "complete",
      "type": "individual",
      "measure": "https://madie.cms.gov/Measure/CMS646FHIRIntravesicalBCGTherapy",
      "period": {
        "start": "2026-01-01",
        "end": "2026-12-31"
      },
      "group": [ {
        "id": "Group_1",
        "population": [ {
          "id": "InitialPopulation_1",
          "code": {
            "coding": [ {
              "system": "http://terminology.hl7.org/CodeSystem/measure-population",
              "code": "initial-population",
              "display": "Initial Population"
            } ]
          },
          "count": 1
        }, {
          "id": "Denominator_1",
          "code": {
            "coding": [ {
              "system": "http://terminology.hl7.org/CodeSystem/measure-population",
              "code": "denominator",
              "display": "Denominator"
            } ]
          },
          "count": 1
        }, {
          "id": "DenominatorExclusion_1",
          "code": {
            "coding": [ {
              "system": "http://terminology.hl7.org/CodeSystem/measure-population",
              "code": "denominator-exclusion",
              "display": "Denominator Exclusion"
            } ]
          },
          "count": 0
        }, {
          "id": "Numerator_1",
          "code": {
            "coding": [ {
              "system": "http://terminology.hl7.org/CodeSystem/measure-population",
              "code": "numerator",
              "display": "Numerator"
            } ]
          },
          "count": 1
        }, {
          "id": "DenominatorException_1",
          "code": {
            "coding": [ {
              "system": "http://terminology.hl7.org/CodeSystem/measure-population",
              "code": "denominator-exception",
              "display": "Denominator Exception"
            } ]
          },
          "count": 0
        } ],
        "measureScore": {
          "value": 1.0
        }
      } ],
      "evaluatedResource": [ {
        "reference": "Patient/790f8993-7a03-4ed7-94d7-c0e95587afa0"
      }, {
        "reference": "Encounter/ae783575-b616-4249-9ecb-c2237936c5b4"
      }, {
        "reference": "Condition/65aaf8c1-6c3a-4049-b964-f0b96de0b9b5"
      }, {
        "reference": "Procedure/a8105f96-3080-49f9-bd81-1ea131988f21"
      }, {
        "reference": "Observation/1359299f-8ad5-4729-bbd4-0f873ba2f813"
      }, {
        "reference": "MedicationAdministration/cf961ac9-cd54-4602-8260-fe21dcaa1721"
      }, {
        "reference": "MedicationAdministration/c20af83c-c8e6-4be7-a7e1-e5781bd31dbf"
      } ]
    }
  } ]
}