{
  "resourceType": "Bundle",
  "id": "62fd4b660968f8012246b012",
  "type": "collection",
  "entry": [ {
    "fullUrl": "https://madie.cms.gov/Patient/37605377-59e5-4f97-b12f-797753056b96",
    "resource": {
      "resourceType": "Patient",
      "id": "37605377-59e5-4f97-b12f-797753056b96",
      "meta": {
        "profile": [ "http://hl7.org/fhir/us/qicore/StructureDefinition/qicore-patient" ]
      },
      "extension": [ {
        "url": "http://hl7.org/fhir/us/core/StructureDefinition/us-core-race",
        "extension": [ {
          "url": "ombCategory",
          "valueCoding": {
            "system": "urn:oid:2.16.840.1.113883.6.238",
            "code": "2028-9",
            "display": "Asian",
            "userSelected": true
          }
        }, {
          "url": "text",
          "valueString": "Asian"
        } ]
      }, {
        "url": "http://hl7.org/fhir/us/core/StructureDefinition/us-core-ethnicity",
        "extension": [ {
          "url": "ombCategory",
          "valueCoding": {
            "system": "urn:oid:2.16.840.1.113883.6.238",
            "code": "2186-5",
            "display": "Not Hispanic or Latino",
            "userSelected": true
          }
        }, {
          "url": "text",
          "valueString": "Not Hispanic or Latino"
        } ]
      } ],
      "identifier": [ {
        "type": {
          "coding": [ {
            "system": "http://terminology.hl7.org/CodeSystem/v2-0203",
            "code": "MR"
          } ]
        },
        "system": "https://bonnie-fhir.healthit.gov/",
        "value": "62fd4b660968f8012246b012"
      } ],
      "name": [ {
        "family": "DenomPass",
        "given": [ "EncRefNewPsychDRC" ]
      } ],
      "gender": "female",
      "birthDate": "1989-11-29"
    }
  }, {
    "fullUrl": "https://madie.cms.gov/ServiceRequest/9dcd4686-397d-4e2f-8859-5a44bbdfcc98",
    "resource": {
      "resourceType": "ServiceRequest",
      "id": "9dcd4686-397d-4e2f-8859-5a44bbdfcc98",
      "meta": {
        "profile": [ "http://hl7.org/fhir/us/qicore/StructureDefinition/qicore-servicerequest" ]
      },
      "status": "completed",
      "intent": "order",
      "code": {
        "coding": [ {
          "system": "http://snomed.info/sct",
          "version": "http://snomed.info/sct/731000124108/version/20250301",
          "code": "103696004",
          "display": "Patient referral to specialist (procedure)",
          "userSelected": true
        } ]
      },
      "subject": {
        "reference": "Patient/37605377-59e5-4f97-b12f-797753056b96"
      },
      "authoredOn": "2026-01-01T00:00:00.000+00:00"
    }
  }, {
    "fullUrl": "https://madie.cms.gov/Procedure/62cdf46c-9320-4db0-958a-03e7898e5ec1",
    "resource": {
      "resourceType": "Procedure",
      "id": "62cdf46c-9320-4db0-958a-03e7898e5ec1",
      "meta": {
        "profile": [ "http://hl7.org/fhir/us/qicore/StructureDefinition/qicore-procedure" ]
      },
      "extension": [ {
        "url": "http://hl7.org/fhir/us/qicore/StructureDefinition/qicore-recorded",
        "valueDateTime": "2026-01-01T00:00:00.000+00:00"
      } ],
      "status": "completed",
      "code": {
        "coding": [ {
          "system": "http://www.ama-assn.org/go/cpt",
          "version": "2021",
          "code": "96112",
          "display": "Developmental test administration (including assessment of fine and/or gross motor, language, cognitive level, social, memory and/or executive functions by standardized developmental instruments when performed), by physician or other qualified health care professional, with interpretation and report; first hour",
          "userSelected": true
        } ]
      },
      "subject": {
        "reference": "Patient/37605377-59e5-4f97-b12f-797753056b96"
      },
      "performedDateTime": "2026-01-01T00:00:00.000+00:00"
    }
  }, {
    "fullUrl": "https://madie.cms.gov/Coverage/a4f19431-78a4-42ef-b4dc-6802c92413f5",
    "resource": {
      "resourceType": "Coverage",
      "id": "a4f19431-78a4-42ef-b4dc-6802c92413f5",
      "meta": {
        "profile": [ "http://hl7.org/fhir/us/qicore/StructureDefinition/qicore-coverage" ]
      },
      "status": "active",
      "subscriberId": "123456",
      "beneficiary": {
        "reference": "Patient/37605377-59e5-4f97-b12f-797753056b96"
      },
      "relationship": {
        "coding": [ {
          "system": "http://terminology.hl7.org/CodeSystem/subscriber-relationship",
          "code": "self",
          "display": "Self"
        } ]
      },
      "payor": [ {
        "reference": "Organization/b9ac89ed-1f31-4903-b7d6-4c8e74d93fe4"
      } ]
    }
  }, {
    "fullUrl": "https://madie.cms.gov/Organization/b9ac89ed-1f31-4903-b7d6-4c8e74d93fe4",
    "resource": {
      "resourceType": "Organization",
      "id": "b9ac89ed-1f31-4903-b7d6-4c8e74d93fe4",
      "meta": {
        "profile": [ "http://hl7.org/fhir/us/qicore/StructureDefinition/qicore-organization" ]
      },
      "identifier": [ {
        "use": "temp",
        "system": "urn:oid:2.16.840.1.113883.4.4",
        "value": "21-3259825"
      } ],
      "active": true,
      "type": [ {
        "coding": [ {
          "system": "http://terminology.hl7.org/CodeSystem/organization-type",
          "code": "pay",
          "display": "Payer"
        } ]
      } ],
      "name": "Blue Cross Blue Shield of Texas",
      "telecom": [ {
        "system": "phone",
        "value": "(+1) 972-766-6900"
      } ],
      "address": [ {
        "use": "billing",
        "type": "postal",
        "line": [ "P.O. Box 660044" ],
        "city": "Dallas",
        "state": "TX",
        "postalCode": "75266-0044",
        "country": "USA"
      } ]
    }
  }, {
    "fullUrl": "https://madie.cms.gov/Practitioner/f62c632e-c143-4e14-a4ac-6f911c929a44",
    "resource": {
      "resourceType": "Practitioner",
      "id": "f62c632e-c143-4e14-a4ac-6f911c929a44",
      "meta": {
        "profile": [ "http://hl7.org/fhir/us/qicore/StructureDefinition/qicore-practitioner" ]
      },
      "identifier": [ {
        "system": "http://hl7.org/fhir/sid/us-npi",
        "value": "1689411712"
      } ],
      "name": [ {
        "family": "Evil",
        "prefix": [ "Dr" ]
      } ]
    }
  }, {
    "fullUrl": "https://madie.cms.gov/MeasureReport/7da31cd7-9ff0-428b-8891-33d4386facb9",
    "resource": {
      "resourceType": "MeasureReport",
      "id": "7da31cd7-9ff0-428b-8891-33d4386facb9",
      "meta": {
        "profile": [ "http://hl7.org/fhir/us/cqfmeasures/StructureDefinition/test-case-cqfm" ]
      },
      "contained": [ {
        "resourceType": "Parameters",
        "id": "ceece96f-1ca9-45fc-933c-7c541d4b3cae-parameters",
        "parameter": [ {
          "name": "subject",
          "valueString": "37605377-59e5-4f97-b12f-797753056b96"
        } ]
      } ],
      "extension": [ {
        "url": "http://hl7.org/fhir/StructureDefinition/cqf-inputParameters",
        "valueReference": {
          "reference": "#ceece96f-1ca9-45fc-933c-7c541d4b3cae-parameters"
        }
      }, {
        "url": "http://hl7.org/fhir/us/cqfmeasures/StructureDefinition/cqfm-testCaseDescription",
        "valueMarkdown": "Psychological-neuropsychological-test-admin-scoring-physician"
      } ],
      "modifierExtension": [ {
        "url": "http://hl7.org/fhir/us/cqfmeasures/StructureDefinition/cqfm-isTestCase",
        "valueBoolean": true
      } ],
      "status": "complete",
      "type": "individual",
      "measure": "https://madie.cms.gov/Measure/CMS50FHIRReceiptofSpecialistReport",
      "period": {
        "start": "2026-01-01",
        "end": "2026-12-31"
      },
      "group": [ {
        "id": "Group_1",
        "population": [ {
          "id": "InitialPopulation_1",
          "code": {
            "coding": [ {
              "system": "http://terminology.hl7.org/CodeSystem/measure-population",
              "code": "initial-population",
              "display": "Initial Population"
            } ]
          },
          "count": 1
        }, {
          "id": "Denominator_1",
          "code": {
            "coding": [ {
              "system": "http://terminology.hl7.org/CodeSystem/measure-population",
              "code": "denominator",
              "display": "Denominator"
            } ]
          },
          "count": 1
        }, {
          "id": "Numerator_1",
          "code": {
            "coding": [ {
              "system": "http://terminology.hl7.org/CodeSystem/measure-population",
              "code": "numerator",
              "display": "Numerator"
            } ]
          },
          "count": 0
        } ],
        "measureScore": {
          "value": 1.0
        }
      } ],
      "evaluatedResource": [ {
        "reference": "Patient/37605377-59e5-4f97-b12f-797753056b96"
      }, {
        "reference": "ServiceRequest/9dcd4686-397d-4e2f-8859-5a44bbdfcc98"
      }, {
        "reference": "Procedure/62cdf46c-9320-4db0-958a-03e7898e5ec1"
      }, {
        "reference": "Coverage/a4f19431-78a4-42ef-b4dc-6802c92413f5"
      }, {
        "reference": "Organization/b9ac89ed-1f31-4903-b7d6-4c8e74d93fe4"
      }, {
        "reference": "Practitioner/f62c632e-c143-4e14-a4ac-6f911c929a44"
      } ]
    }
  } ]
}