{
  "resourceType": "Bundle",
  "id": "612e6a9c02c62a011f2ea93c",
  "type": "transaction",
  "entry": [ {
    "fullUrl": "https://madie.cms.gov/Patient/4fe13533-3514-48d8-aba0-a7c790e796cc",
    "resource": {
      "resourceType": "Patient",
      "id": "4fe13533-3514-48d8-aba0-a7c790e796cc",
      "meta": {
        "profile": [ "http://hl7.org/fhir/us/qicore/StructureDefinition/qicore-patient" ]
      },
      "text": {
        "status": "generated",
        "div": "<div xmlns=\"http://www.w3.org/1999/xhtml\"><div class=\"hapiHeaderText\">MA_Glyco1DayAfterAnes <b>NUMERPASS </b></div><table class=\"hapiPropertyTable\"><tbody><tr><td>Identifier</td><td>66d2578ee9fbf1a6dd6e4e6d73908c98</td></tr><tr><td>Date of birth</td><td><span>02 January 1974</span></td></tr></tbody></table></div>"
      },
      "extension": [ {
        "url": "http://hl7.org/fhir/us/core/StructureDefinition/us-core-race",
        "extension": [ {
          "url": "ombCategory",
          "valueCoding": {
            "system": "urn:oid:2.16.840.1.113883.6.238",
            "code": "1002-5",
            "display": "American Indian or Alaska Native",
            "userSelected": true
          }
        }, {
          "url": "text",
          "valueString": "American Indian or Alaska Native"
        } ]
      }, {
        "url": "http://hl7.org/fhir/us/core/StructureDefinition/us-core-ethnicity",
        "extension": [ {
          "url": "ombCategory",
          "valueCoding": {
            "system": "urn:oid:2.16.840.1.113883.6.238",
            "code": "2135-2",
            "display": "Hispanic or Latino",
            "userSelected": true
          }
        }, {
          "url": "text",
          "valueString": "Hispanic or Latino"
        } ]
      } ],
      "identifier": [ {
        "type": {
          "coding": [ {
            "system": "http://terminology.hl7.org/CodeSystem/v2-0203",
            "code": "MR"
          } ]
        },
        "system": "https://bonnie-fhir.healthit.gov/",
        "value": "612e6a9c02c62a011f2ea93c"
      } ],
      "active": true,
      "name": [ {
        "use": "usual",
        "family": "NUMERPass",
        "given": [ "MAGlyco1DayAfterAnes" ]
      } ],
      "gender": "male",
      "birthDate": "1975-01-02"
    },
    "request": {
      "method": "PUT",
      "url": "Patient/4fe13533-3514-48d8-aba0-a7c790e796cc"
    }
  }, {
    "fullUrl": "https://madie.cms.gov/Encounter/8885b3d7-e305-42d7-977d-e13b88ab1785",
    "resource": {
      "resourceType": "Encounter",
      "id": "8885b3d7-e305-42d7-977d-e13b88ab1785",
      "meta": {
        "profile": [ "http://hl7.org/fhir/us/qicore/StructureDefinition/qicore-encounter" ]
      },
      "status": "finished",
      "class": {
        "system": "http://terminology.hl7.org/CodeSystem/v3-ActCode",
        "code": "IMP",
        "display": "inpatient encounter"
      },
      "type": [ {
        "coding": [ {
          "system": "http://snomed.info/sct",
          "code": "8715000"
        } ]
      } ],
      "subject": {
        "reference": "Patient/4fe13533-3514-48d8-aba0-a7c790e796cc"
      },
      "period": {
        "start": "2026-11-01T08:00:00.000+00:00",
        "end": "2026-11-26T08:15:00.000+00:00"
      },
      "length": {
        "value": 25,
        "unit": "days"
      }
    },
    "request": {
      "method": "PUT",
      "url": "Encounter/8885b3d7-e305-42d7-977d-e13b88ab1785"
    }
  }, {
    "fullUrl": "https://madie.cms.gov/Coverage/5b1c222b-1087-4ce1-9b7f-4bd722c66bf5",
    "resource": {
      "resourceType": "Coverage",
      "id": "5b1c222b-1087-4ce1-9b7f-4bd722c66bf5",
      "status": "active",
      "beneficiary": {
        "reference": "Patient/4fe13533-3514-48d8-aba0-a7c790e796cc"
      },
      "period": {
        "start": "1975-01-02T08:00:00.000+00:00"
      },
      "payor": [ {
        "reference": "Organization/b49941fa-581d-462a-a74d-c2983a90295a"
      } ]
    },
    "request": {
      "method": "PUT",
      "url": "Coverage/5b1c222b-1087-4ce1-9b7f-4bd722c66bf5"
    }
  }, {
    "fullUrl": "https://madie.cms.gov/MedicationAdministration/5389343c-6eb6-45af-ab72-b6b36196a68e",
    "resource": {
      "resourceType": "MedicationAdministration",
      "id": "5389343c-6eb6-45af-ab72-b6b36196a68e",
      "meta": {
        "profile": [ "http://hl7.org/fhir/us/qicore/StructureDefinition/qicore-medicationadministration" ]
      },
      "status": "completed",
      "medicationCodeableConcept": {
        "coding": [ {
          "system": "http://www.nlm.nih.gov/research/umls/rxnorm",
          "code": "200349"
        } ]
      },
      "subject": {
        "reference": "Patient/4fe13533-3514-48d8-aba0-a7c790e796cc"
      },
      "effectivePeriod": {
        "start": "2026-11-03T11:00:00.000+00:00",
        "end": "2026-11-03T11:15:00.000+00:00"
      }
    },
    "request": {
      "method": "PUT",
      "url": "MedicationAdministration/5389343c-6eb6-45af-ab72-b6b36196a68e"
    }
  }, {
    "fullUrl": "https://madie.cms.gov/Procedure/a7bb1f7f-ee21-4d8a-9daf-b96f1658701e",
    "resource": {
      "resourceType": "Procedure",
      "id": "a7bb1f7f-ee21-4d8a-9daf-b96f1658701e",
      "meta": {
        "profile": [ "http://hl7.org/fhir/us/qicore/StructureDefinition/qicore-procedure" ]
      },
      "extension": [ {
        "url": "http://hl7.org/fhir/us/qicore/StructureDefinition/qicore-recorded",
        "valueDateTime": "2013-11-03T13:35:00.000+00:00"
      } ],
      "status": "completed",
      "code": {
        "coding": [ {
          "system": "http://www.cms.gov/Medicare/Coding/ICD10",
          "code": "3E030FZ"
        }, {
          "system": "http://snomed.info/sct",
          "code": "18946005"
        } ]
      },
      "subject": {
        "reference": "Patient/4fe13533-3514-48d8-aba0-a7c790e796cc"
      },
      "performedPeriod": {
        "start": "2026-11-02T09:00:00.000+00:00",
        "end": "2026-11-02T10:15:00.000+00:00"
      }
    },
    "request": {
      "method": "PUT",
      "url": "Procedure/a7bb1f7f-ee21-4d8a-9daf-b96f1658701e"
    }
  }, {
    "fullUrl": "https://madie.cms.gov/Organization/b49941fa-581d-462a-a74d-c2983a90295a",
    "resource": {
      "resourceType": "Organization",
      "id": "b49941fa-581d-462a-a74d-c2983a90295a",
      "meta": {
        "profile": [ "http://hl7.org/fhir/us/qicore/StructureDefinition/qicore-organization" ]
      },
      "identifier": [ {
        "use": "temp",
        "system": "urn:oid:2.16.840.1.113883.4.4",
        "value": "21-3259825"
      } ],
      "active": true,
      "type": [ {
        "coding": [ {
          "system": "http://terminology.hl7.org/CodeSystem/organization-type",
          "code": "pay",
          "display": "Payer"
        } ]
      } ],
      "name": "Blue Cross Blue Shield of Texas",
      "telecom": [ {
        "system": "phone",
        "value": "(+1) 972-766-6900"
      } ],
      "address": [ {
        "use": "billing",
        "type": "postal",
        "line": [ "P.O. Box 660044" ],
        "city": "Dallas",
        "state": "TX",
        "postalCode": "75266-0044",
        "country": "USA"
      } ]
    },
    "request": {
      "method": "PUT",
      "url": "Organization/b49941fa-581d-462a-a74d-c2983a90295a"
    }
  }, {
    "fullUrl": "https://madie.cms.gov/Practitioner/6829f7f7-640b-432b-b480-63338780b92d",
    "resource": {
      "resourceType": "Practitioner",
      "id": "6829f7f7-640b-432b-b480-63338780b92d",
      "identifier": [ {
        "system": "http://hl7.org/fhir/sid/us-npi",
        "value": "123456"
      } ],
      "name": [ {
        "family": "Evil",
        "prefix": [ "Dr" ]
      } ]
    },
    "request": {
      "method": "PUT",
      "url": "Practitioner/6829f7f7-640b-432b-b480-63338780b92d"
    }
  }, {
    "fullUrl": "https://madie.cms.gov/MeasureReport/cf2f0e01-bd0f-4eed-a78f-865a45a92cea",
    "resource": {
      "resourceType": "MeasureReport",
      "id": "cf2f0e01-bd0f-4eed-a78f-865a45a92cea",
      "meta": {
        "profile": [ "http://hl7.org/fhir/us/cqfmeasures/StructureDefinition/test-case-cqfm" ]
      },
      "contained": [ {
        "resourceType": "Parameters",
        "id": "d33c4edd-ae6a-4f2b-95b4-90454a13a2d8-parameters",
        "parameter": [ {
          "name": "subject",
          "valueString": "4fe13533-3514-48d8-aba0-a7c790e796cc"
        } ]
      } ],
      "extension": [ {
        "url": "http://hl7.org/fhir/StructureDefinition/cqf-inputParameters",
        "valueReference": {
          "reference": "#d33c4edd-ae6a-4f2b-95b4-90454a13a2d8-parameters"
        }
      }, {
        "url": "http://hl7.org/fhir/us/cqfmeasures/StructureDefinition/cqfm-testCaseDescription",
        "valueMarkdown": "Glycoprotein IIb/IIIa Inhibitors administered = 1 day after end of anesthesia\n"
      } ],
      "modifierExtension": [ {
        "url": "http://hl7.org/fhir/us/cqfmeasures/StructureDefinition/cqfm-isTestCase",
        "valueBoolean": true
      } ],
      "status": "complete",
      "type": "individual",
      "measure": "https://madie.cms.gov/Measure/CMS108FHIRVTEProphylaxis",
      "period": {
        "start": "2026-01-01",
        "end": "2026-12-31"
      },
      "group": [ {
        "id": "Group_1",
        "population": [ {
          "id": "InitialPopulation_1",
          "code": {
            "coding": [ {
              "system": "http://terminology.hl7.org/CodeSystem/measure-population",
              "code": "initial-population",
              "display": "Initial Population"
            } ]
          },
          "count": 1
        }, {
          "id": "Denominator_1",
          "code": {
            "coding": [ {
              "system": "http://terminology.hl7.org/CodeSystem/measure-population",
              "code": "denominator",
              "display": "Denominator"
            } ]
          },
          "count": 1
        }, {
          "id": "DenominatorExclusion_1",
          "code": {
            "coding": [ {
              "system": "http://terminology.hl7.org/CodeSystem/measure-population",
              "code": "denominator-exclusion",
              "display": "Denominator Exclusion"
            } ]
          },
          "count": 0
        }, {
          "id": "Numerator_1",
          "code": {
            "coding": [ {
              "system": "http://terminology.hl7.org/CodeSystem/measure-population",
              "code": "numerator",
              "display": "Numerator"
            } ]
          },
          "count": 1
        } ],
        "measureScore": {
          "value": 0.0
        }
      } ],
      "evaluatedResource": [ {
        "reference": "Patient/4fe13533-3514-48d8-aba0-a7c790e796cc"
      }, {
        "reference": "Encounter/8885b3d7-e305-42d7-977d-e13b88ab1785"
      }, {
        "reference": "Coverage/5b1c222b-1087-4ce1-9b7f-4bd722c66bf5"
      }, {
        "reference": "MedicationAdministration/5389343c-6eb6-45af-ab72-b6b36196a68e"
      }, {
        "reference": "Procedure/a7bb1f7f-ee21-4d8a-9daf-b96f1658701e"
      }, {
        "reference": "Organization/b49941fa-581d-462a-a74d-c2983a90295a"
      }, {
        "reference": "Practitioner/6829f7f7-640b-432b-b480-63338780b92d"
      } ]
    },
    "request": {
      "method": "PUT",
      "url": "MeasureReport/cf2f0e01-bd0f-4eed-a78f-865a45a92cea"
    }
  } ]
}