{
  "resourceType": "Bundle",
  "id": "tests-NUMERPass-LabTest2Equals80-bundle",
  "type": "transaction",
  "entry": [ {
    "fullUrl": "https://madie.cms.gov/Patient/57365859-6f37-4647-b0e1-14eee92ebb71",
    "resource": {
      "resourceType": "Patient",
      "id": "57365859-6f37-4647-b0e1-14eee92ebb71",
      "meta": {
        "profile": [ "http://hl7.org/fhir/us/qicore/StructureDefinition/qicore-patient" ]
      },
      "identifier": [ {
        "system": "http://hospital.smarthealthit.org",
        "value": "999999999"
      } ],
      "name": [ {
        "use": "official",
        "family": "CMSNUMERPass",
        "given": [ "LabTest2Equals80" ]
      } ],
      "gender": "male",
      "birthDate": "1980-01-01"
    },
    "request": {
      "method": "PUT",
      "url": "Patient/57365859-6f37-4647-b0e1-14eee92ebb71"
    }
  }, {
    "fullUrl": "https://madie.cms.gov/Encounter/7a663394-578f-41df-b01f-7c2aff7402b3",
    "resource": {
      "resourceType": "Encounter",
      "id": "7a663394-578f-41df-b01f-7c2aff7402b3",
      "meta": {
        "profile": [ "http://hl7.org/fhir/us/qicore/StructureDefinition/qicore-encounter" ]
      },
      "status": "finished",
      "class": {
        "system": "http://terminology.hl7.org/CodeSystem/v3-ActCode",
        "code": "IMP",
        "display": "Inpatient encounter"
      },
      "type": [ {
        "coding": [ {
          "system": "http://snomed.info/sct",
          "code": "183452005",
          "display": "Emergency hospital admission"
        } ]
      } ],
      "subject": {
        "reference": "Patient/57365859-6f37-4647-b0e1-14eee92ebb71"
      },
      "period": {
        "start": "2026-01-11T08:00:00.000Z",
        "end": "2026-01-16T21:00:00.000Z"
      }
    },
    "request": {
      "method": "PUT",
      "url": "Encounter/7a663394-578f-41df-b01f-7c2aff7402b3"
    }
  }, {
    "fullUrl": "https://madie.cms.gov/MedicationAdministration/a4172bd8-1017-4480-a0e3-65bdb73c9880",
    "resource": {
      "resourceType": "MedicationAdministration",
      "id": "a4172bd8-1017-4480-a0e3-65bdb73c9880",
      "meta": {
        "profile": [ "http://hl7.org/fhir/us/qicore/StructureDefinition/qicore-medicationadministration" ]
      },
      "status": "completed",
      "medicationCodeableConcept": {
        "coding": [ {
          "system": "http://www.nlm.nih.gov/research/umls/rxnorm",
          "code": "1653202",
          "display": "3 ML insulin aspart, human 100 UNT/ML Pen Injector"
        } ]
      },
      "subject": {
        "reference": "Patient/57365859-6f37-4647-b0e1-14eee92ebb71"
      },
      "effectivePeriod": {
        "start": "2026-01-11T08:00:00.000Z",
        "end": "2026-01-11T09:00:00.000Z"
      }
    },
    "request": {
      "method": "PUT",
      "url": "MedicationAdministration/a4172bd8-1017-4480-a0e3-65bdb73c9880"
    }
  }, {
    "fullUrl": "https://madie.cms.gov/Observation/5dd35039-b6ed-4a67-b970-e1202132ce6a",
    "resource": {
      "resourceType": "Observation",
      "id": "5dd35039-b6ed-4a67-b970-e1202132ce6a",
      "meta": {
        "profile": [ "http://hl7.org/fhir/us/qicore/StructureDefinition/qicore-observation-lab" ]
      },
      "status": "final",
      "category": [ {
        "coding": [ {
          "system": "http://terminology.hl7.org/CodeSystem/observation-category",
          "code": "laboratory",
          "display": "Laboratory"
        } ],
        "text": "Laboratory"
      } ],
      "code": {
        "coding": [ {
          "system": "http://loinc.org",
          "code": "1556-0",
          "display": "Fasting glucose [Mass/volume] in Capillary blood"
        } ]
      },
      "subject": {
        "reference": "Patient/57365859-6f37-4647-b0e1-14eee92ebb71"
      },
      "effectivePeriod": {
        "start": "2026-01-11T08:00:00.000Z",
        "end": "2026-01-11T08:00:00.000Z"
      },
      "issued": "2026-01-11T08:00:00.000Z",
      "valueQuantity": {
        "value": 35,
        "unit": "mg/dL"
      }
    },
    "request": {
      "method": "PUT",
      "url": "Observation/5dd35039-b6ed-4a67-b970-e1202132ce6a"
    }
  }, {
    "fullUrl": "https://madie.cms.gov/Observation/0937e97f-062e-4bc0-b18d-ad2e5fb03b12",
    "resource": {
      "resourceType": "Observation",
      "id": "0937e97f-062e-4bc0-b18d-ad2e5fb03b12",
      "meta": {
        "profile": [ "http://hl7.org/fhir/us/qicore/StructureDefinition/qicore-observation-lab" ]
      },
      "status": "final",
      "category": [ {
        "coding": [ {
          "system": "http://terminology.hl7.org/CodeSystem/observation-category",
          "code": "laboratory",
          "display": "Laboratory"
        } ],
        "text": "Laboratory"
      } ],
      "code": {
        "coding": [ {
          "system": "http://loinc.org",
          "code": "1556-0",
          "display": "Fasting glucose [Mass/volume] in Capillary blood"
        } ]
      },
      "subject": {
        "reference": "Patient/57365859-6f37-4647-b0e1-14eee92ebb71"
      },
      "effectivePeriod": {
        "start": "2026-01-11T08:05:00.000Z",
        "end": "2026-01-11T08:05:00.000Z"
      },
      "issued": "2026-01-11T08:05:00.000Z",
      "valueQuantity": {
        "value": 80,
        "unit": "mg/dL"
      }
    },
    "request": {
      "method": "PUT",
      "url": "Observation/0937e97f-062e-4bc0-b18d-ad2e5fb03b12"
    }
  }, {
    "fullUrl": "https://madie.cms.gov/MeasureReport/5e4e5e2b-0574-4abd-bf82-3dd447873546",
    "resource": {
      "resourceType": "MeasureReport",
      "id": "5e4e5e2b-0574-4abd-bf82-3dd447873546",
      "meta": {
        "profile": [ "http://hl7.org/fhir/us/cqfmeasures/StructureDefinition/test-case-cqfm" ]
      },
      "contained": [ {
        "resourceType": "Parameters",
        "id": "69cddcc5-11ac-4496-8f52-4eee41f4635a-parameters",
        "parameter": [ {
          "name": "subject",
          "valueString": "57365859-6f37-4647-b0e1-14eee92ebb71"
        } ]
      } ],
      "extension": [ {
        "url": "http://hl7.org/fhir/StructureDefinition/cqf-inputParameters",
        "valueReference": {
          "reference": "#69cddcc5-11ac-4496-8f52-4eee41f4635a-parameters"
        }
      }, {
        "url": "http://hl7.org/fhir/us/cqfmeasures/StructureDefinition/cqfm-testCaseDescription",
        "valueMarkdown": "Encounter, meds administered, lab test 1 = 35, lab 2 result = exactly 80 within 5 minutes of first lab.\n\n(CMS #27)"
      } ],
      "modifierExtension": [ {
        "url": "http://hl7.org/fhir/us/cqfmeasures/StructureDefinition/cqfm-isTestCase",
        "valueBoolean": true
      } ],
      "status": "complete",
      "type": "individual",
      "measure": "https://madie.cms.gov/Measure/NHSNGlycemicControlHypoglycemiaInitialPopulation",
      "period": {
        "start": "2026-01-01",
        "end": "2026-12-31"
      },
      "group": [ {
        "id": "Group_1",
        "population": [ {
          "id": "InitialPopulation_1",
          "code": {
            "coding": [ {
              "system": "http://terminology.hl7.org/CodeSystem/measure-population",
              "code": "initial-population",
              "display": "Initial Population"
            } ]
          },
          "count": 1
        } ],
        "measureScore": {
          "value": 0.0
        }
      } ],
      "evaluatedResource": [ {
        "reference": "Patient/57365859-6f37-4647-b0e1-14eee92ebb71"
      }, {
        "reference": "Encounter/7a663394-578f-41df-b01f-7c2aff7402b3"
      }, {
        "reference": "MedicationAdministration/a4172bd8-1017-4480-a0e3-65bdb73c9880"
      }, {
        "reference": "Observation/5dd35039-b6ed-4a67-b970-e1202132ce6a"
      }, {
        "reference": "Observation/0937e97f-062e-4bc0-b18d-ad2e5fb03b12"
      } ]
    },
    "request": {
      "method": "PUT",
      "url": "MeasureReport/5e4e5e2b-0574-4abd-bf82-3dd447873546"
    }
  } ]
}