{
  "resourceType": "Bundle",
  "id": "62a89f7131a203bdc723752b",
  "type": "collection",
  "entry": [ {
    "fullUrl": "https://madie.cms.gov/Patient/d2b4a14a-a53d-44e8-aacf-baadd8865f63",
    "resource": {
      "resourceType": "Patient",
      "id": "d2b4a14a-a53d-44e8-aacf-baadd8865f63",
      "meta": {
        "profile": [ "http://hl7.org/fhir/us/qicore/StructureDefinition/qicore-patient" ]
      },
      "extension": [ {
        "url": "http://hl7.org/fhir/us/core/StructureDefinition/us-core-race",
        "extension": [ {
          "url": "ombCategory",
          "valueCoding": {
            "system": "urn:oid:2.16.840.1.113883.6.238",
            "code": "2054-5",
            "display": "Black or African American"
          }
        }, {
          "url": "text",
          "valueString": "Black or African American"
        } ]
      }, {
        "url": "http://hl7.org/fhir/us/core/StructureDefinition/us-core-ethnicity",
        "extension": [ {
          "url": "ombCategory",
          "valueCoding": {
            "system": "urn:oid:2.16.840.1.113883.6.238",
            "code": "2186-5",
            "display": "Not Hispanic or Latino"
          }
        }, {
          "url": "text",
          "valueString": "Not Hispanic or Latino"
        } ]
      } ],
      "identifier": [ {
        "type": {
          "coding": [ {
            "system": "http://terminology.hl7.org/CodeSystem/v2-0203",
            "code": "MR"
          } ]
        },
        "system": "https://GoodHealthcare.com/",
        "value": "41654161684974312"
      } ],
      "name": [ {
        "family": "IPFail",
        "given": [ "OV1MinAfterMPEnd" ]
      } ],
      "gender": "male",
      "birthDate": "1961-05-01"
    }
  }, {
    "fullUrl": "https://madie.cms.gov/Encounter/fdfb4e72-1160-41b1-9421-41bbe7040174",
    "resource": {
      "resourceType": "Encounter",
      "id": "fdfb4e72-1160-41b1-9421-41bbe7040174",
      "meta": {
        "profile": [ "http://hl7.org/fhir/us/qicore/StructureDefinition/qicore-encounter" ]
      },
      "status": "finished",
      "class": {
        "system": "http://terminology.hl7.org/CodeSystem/v3-ActCode",
        "code": "AMB",
        "display": "ambulatory"
      },
      "type": [ {
        "coding": [ {
          "system": "http://snomed.info/sct",
          "version": "http://snomed.info/sct/731000124108/version/20240301",
          "code": "439740005",
          "display": "Postoperative follow-up visit (procedure)"
        } ]
      } ],
      "subject": {
        "reference": "Patient/d2b4a14a-a53d-44e8-aacf-baadd8865f63"
      },
      "period": {
        "start": "2027-01-01T00:00:00.000+00:00",
        "end": "2027-01-01T00:35:00.000+00:00"
      }
    }
  }, {
    "fullUrl": "https://madie.cms.gov/Condition/2fb7ae28-d3a9-4a9d-b516-4f6a89a486b3",
    "resource": {
      "resourceType": "Condition",
      "id": "2fb7ae28-d3a9-4a9d-b516-4f6a89a486b3",
      "meta": {
        "profile": [ "http://hl7.org/fhir/us/qicore/StructureDefinition/qicore-condition-problems-health-concerns" ]
      },
      "clinicalStatus": {
        "coding": [ {
          "system": "http://terminology.hl7.org/CodeSystem/condition-clinical",
          "code": "active",
          "display": "active"
        } ]
      },
      "verificationStatus": {
        "coding": [ {
          "system": "http://terminology.hl7.org/CodeSystem/condition-ver-status",
          "code": "confirmed",
          "display": "Confirmed"
        } ]
      },
      "category": [ {
        "coding": [ {
          "system": "http://terminology.hl7.org/CodeSystem/condition-category",
          "code": "problem-list-item",
          "display": "Problem List Item"
        } ]
      } ],
      "code": {
        "coding": [ {
          "system": "http://hl7.org/fhir/sid/icd-10-cm",
          "version": "2024",
          "code": "N40.1",
          "display": "Benign prostatic hyperplasia with lower urinary tract symptoms"
        } ]
      },
      "subject": {
        "reference": "Patient/d2b4a14a-a53d-44e8-aacf-baadd8865f63"
      },
      "onsetPeriod": {
        "start": "2025-07-01T08:00:00.000+00:00"
      }
    }
  }, {
    "fullUrl": "https://madie.cms.gov/Observation/13f826ee-e05f-476d-a00e-5eb46c82dd6b",
    "resource": {
      "resourceType": "Observation",
      "id": "13f826ee-e05f-476d-a00e-5eb46c82dd6b",
      "meta": {
        "profile": [ "http://hl7.org/fhir/us/qicore/StructureDefinition/qicore-observation-screening-assessment" ]
      },
      "status": "final",
      "category": [ {
        "coding": [ {
          "system": "http://terminology.hl7.org/CodeSystem/observation-category",
          "code": "survey",
          "display": "Survey"
        } ]
      } ],
      "code": {
        "coding": [ {
          "system": "http://loinc.org",
          "version": "2.76",
          "code": "80976-4",
          "display": "International Prostate Symptom Score [IPSS]"
        } ]
      },
      "subject": {
        "reference": "Patient/d2b4a14a-a53d-44e8-aacf-baadd8865f63"
      },
      "effectiveDateTime": "2025-08-01T08:00:00.000+00:00",
      "valueInteger": 2
    }
  }, {
    "fullUrl": "https://madie.cms.gov/Observation/eaf54a83-f9ad-4129-9e55-bad8e9219590",
    "resource": {
      "resourceType": "Observation",
      "id": "eaf54a83-f9ad-4129-9e55-bad8e9219590",
      "meta": {
        "profile": [ "http://hl7.org/fhir/us/qicore/StructureDefinition/qicore-observation-screening-assessment" ]
      },
      "status": "final",
      "category": [ {
        "coding": [ {
          "system": "http://terminology.hl7.org/CodeSystem/observation-category",
          "code": "survey",
          "display": "Survey"
        } ]
      } ],
      "code": {
        "coding": [ {
          "system": "http://loinc.org",
          "version": "2.76",
          "code": "80976-4",
          "display": "International Prostate Symptom Score [IPSS]"
        } ]
      },
      "subject": {
        "reference": "Patient/d2b4a14a-a53d-44e8-aacf-baadd8865f63"
      },
      "effectiveDateTime": "2026-07-01T08:00:00.000+00:00",
      "valueInteger": 1
    }
  }, {
    "fullUrl": "https://madie.cms.gov/MeasureReport/464ff01d-d3c8-464a-ab2a-994398573439",
    "resource": {
      "resourceType": "MeasureReport",
      "id": "464ff01d-d3c8-464a-ab2a-994398573439",
      "meta": {
        "profile": [ "http://hl7.org/fhir/us/cqfmeasures/StructureDefinition/test-case-cqfm" ]
      },
      "contained": [ {
        "resourceType": "Parameters",
        "id": "62d6b24a-7586-4095-8424-8e1ee2e71dff-parameters",
        "parameter": [ {
          "name": "subject",
          "valueString": "d2b4a14a-a53d-44e8-aacf-baadd8865f63"
        } ]
      } ],
      "extension": [ {
        "url": "http://hl7.org/fhir/StructureDefinition/cqf-inputParameters",
        "valueReference": {
          "reference": "#62d6b24a-7586-4095-8424-8e1ee2e71dff-parameters"
        }
      }, {
        "url": "http://hl7.org/fhir/us/cqfmeasures/StructureDefinition/cqfm-testCaseDescription",
        "valueMarkdown": "Male Pt with BPH Dx, Initial and Followup USS, with OV starting 1 minute past MP end"
      } ],
      "modifierExtension": [ {
        "url": "http://hl7.org/fhir/us/cqfmeasures/StructureDefinition/cqfm-isTestCase",
        "valueBoolean": true
      } ],
      "status": "complete",
      "type": "individual",
      "measure": "https://madie.cms.gov/Measure/CMS771FHIRUrinarySymptomScoreBPH",
      "period": {
        "start": "2026-01-01",
        "end": "2026-12-31"
      },
      "group": [ {
        "id": "Group_1",
        "population": [ {
          "id": "InitialPopulation_1",
          "code": {
            "coding": [ {
              "system": "http://terminology.hl7.org/CodeSystem/measure-population",
              "code": "initial-population",
              "display": "Initial Population"
            } ]
          },
          "count": 0
        }, {
          "id": "Denominator_1",
          "code": {
            "coding": [ {
              "system": "http://terminology.hl7.org/CodeSystem/measure-population",
              "code": "denominator",
              "display": "Denominator"
            } ]
          },
          "count": 0
        }, {
          "id": "DenominatorExclusion_1",
          "code": {
            "coding": [ {
              "system": "http://terminology.hl7.org/CodeSystem/measure-population",
              "code": "denominator-exclusion",
              "display": "Denominator Exclusion"
            } ]
          },
          "count": 0
        }, {
          "id": "Numerator_1",
          "code": {
            "coding": [ {
              "system": "http://terminology.hl7.org/CodeSystem/measure-population",
              "code": "numerator",
              "display": "Numerator"
            } ]
          },
          "count": 0
        } ],
        "measureScore": {
          "value": 1.0
        }
      } ],
      "evaluatedResource": [ {
        "reference": "Patient/d2b4a14a-a53d-44e8-aacf-baadd8865f63"
      }, {
        "reference": "Encounter/fdfb4e72-1160-41b1-9421-41bbe7040174"
      }, {
        "reference": "Condition/2fb7ae28-d3a9-4a9d-b516-4f6a89a486b3"
      }, {
        "reference": "Observation/13f826ee-e05f-476d-a00e-5eb46c82dd6b"
      }, {
        "reference": "Observation/eaf54a83-f9ad-4129-9e55-bad8e9219590"
      } ]
    }
  } ]
}