{
  "resourceType": "Bundle",
  "id": "62c880eb0111a60120dc21eb",
  "type": "transaction",
  "entry": [ {
    "fullUrl": "https://madie.cms.gov/Patient/5327f324-e0f7-4e95-92ea-a534864a978b",
    "resource": {
      "resourceType": "Patient",
      "id": "5327f324-e0f7-4e95-92ea-a534864a978b",
      "meta": {
        "profile": [ "http://hl7.org/fhir/us/qicore/StructureDefinition/qicore-patient" ]
      },
      "extension": [ {
        "url": "http://hl7.org/fhir/us/core/StructureDefinition/us-core-race",
        "extension": [ {
          "url": "ombCategory",
          "valueCoding": {
            "system": "urn:oid:2.16.840.1.113883.6.238",
            "code": "1002-5",
            "display": "American Indian or Alaska Native",
            "userSelected": true
          }
        }, {
          "url": "text",
          "valueString": "American Indian or Alaska Native"
        } ]
      }, {
        "url": "http://hl7.org/fhir/us/core/StructureDefinition/us-core-ethnicity",
        "extension": [ {
          "url": "ombCategory",
          "valueCoding": {
            "system": "urn:oid:2.16.840.1.113883.6.238",
            "code": "2135-2",
            "display": "Hispanic or Latino",
            "userSelected": true
          }
        }, {
          "url": "text",
          "valueString": "Hispanic or Latino"
        } ]
      } ],
      "identifier": [ {
        "type": {
          "coding": [ {
            "system": "http://terminology.hl7.org/CodeSystem/v2-0203",
            "code": "MR"
          } ]
        },
        "system": "https://bonnie-fhir.healthit.gov/",
        "value": "62c880eb0111a60120dc21eb"
      } ],
      "active": true,
      "name": [ {
        "use": "usual",
        "family": "DENOMPassPop1",
        "given": [ "MultEncChemo30DaysAfterAndWithinMP" ]
      } ],
      "gender": "female",
      "birthDate": "1971-02-18"
    },
    "request": {
      "method": "PUT",
      "url": "Patient/5327f324-e0f7-4e95-92ea-a534864a978b"
    }
  }, {
    "fullUrl": "https://madie.cms.gov/Condition/0771bee4-469c-4b52-bfb5-5c5f70aec916",
    "resource": {
      "resourceType": "Condition",
      "id": "0771bee4-469c-4b52-bfb5-5c5f70aec916",
      "meta": {
        "profile": [ "http://hl7.org/fhir/us/qicore/StructureDefinition/qicore-condition-problems-health-concerns" ]
      },
      "clinicalStatus": {
        "coding": [ {
          "system": "http://terminology.hl7.org/CodeSystem/condition-clinical",
          "code": "active",
          "display": "active",
          "userSelected": true
        } ]
      },
      "verificationStatus": {
        "coding": [ {
          "system": "http://terminology.hl7.org/CodeSystem/condition-ver-status",
          "code": "confirmed",
          "display": "Confirmed"
        } ]
      },
      "category": [ {
        "coding": [ {
          "system": "http://terminology.hl7.org/CodeSystem/condition-category",
          "code": "problem-list-item",
          "display": "Problem List Item"
        } ]
      } ],
      "code": {
        "coding": [ {
          "system": "http://snomed.info/sct",
          "code": "107691000119101"
        }, {
          "system": "http://hl7.org/fhir/sid/icd-10-cm",
          "code": "C48.0"
        } ]
      },
      "subject": {
        "reference": "Patient/5327f324-e0f7-4e95-92ea-a534864a978b"
      },
      "onsetDateTime": "2026-11-01T08:00:00.000+00:00"
    },
    "request": {
      "method": "PUT",
      "url": "Condition/0771bee4-469c-4b52-bfb5-5c5f70aec916"
    }
  }, {
    "fullUrl": "https://madie.cms.gov/Encounter/9b8de385-cf16-4fe1-8eed-24bcd38f7e0c",
    "resource": {
      "resourceType": "Encounter",
      "id": "9b8de385-cf16-4fe1-8eed-24bcd38f7e0c",
      "meta": {
        "profile": [ "http://hl7.org/fhir/us/qicore/StructureDefinition/qicore-encounter" ]
      },
      "status": "finished",
      "class": {
        "system": "http://terminology.hl7.org/CodeSystem/v3-ActCode",
        "code": "AMB",
        "display": "ambulatory",
        "userSelected": true
      },
      "type": [ {
        "coding": [ {
          "system": "http://snomed.info/sct",
          "code": "185463005"
        } ]
      } ],
      "subject": {
        "reference": "Patient/5327f324-e0f7-4e95-92ea-a534864a978b"
      },
      "period": {
        "start": "2026-12-06T08:00:00.000+00:00",
        "end": "2026-12-06T08:15:00.000+00:00"
      }
    },
    "request": {
      "method": "PUT",
      "url": "Encounter/9b8de385-cf16-4fe1-8eed-24bcd38f7e0c"
    }
  }, {
    "fullUrl": "https://madie.cms.gov/Encounter/383d5b03-5879-4566-9d9b-87bf595b2d4a",
    "resource": {
      "resourceType": "Encounter",
      "id": "383d5b03-5879-4566-9d9b-87bf595b2d4a",
      "meta": {
        "profile": [ "http://hl7.org/fhir/us/qicore/StructureDefinition/qicore-encounter" ]
      },
      "status": "finished",
      "class": {
        "system": "http://terminology.hl7.org/CodeSystem/v3-ActCode",
        "code": "AMB",
        "display": "ambulatory",
        "userSelected": true
      },
      "type": [ {
        "coding": [ {
          "system": "http://snomed.info/sct",
          "code": "185463005"
        } ]
      } ],
      "subject": {
        "reference": "Patient/5327f324-e0f7-4e95-92ea-a534864a978b"
      },
      "period": {
        "start": "2026-01-02T08:00:00.000+00:00",
        "end": "2026-01-02T08:15:00.000+00:00"
      }
    },
    "request": {
      "method": "PUT",
      "url": "Encounter/383d5b03-5879-4566-9d9b-87bf595b2d4a"
    }
  }, {
    "fullUrl": "https://madie.cms.gov/Coverage/923201e0-e44a-4293-b7d9-c0e8b6a306e4",
    "resource": {
      "resourceType": "Coverage",
      "id": "923201e0-e44a-4293-b7d9-c0e8b6a306e4",
      "meta": {
        "profile": [ "http://hl7.org/fhir/us/qicore/StructureDefinition/qicore-coverage" ]
      },
      "status": "active",
      "beneficiary": {
        "reference": "Patient/5327f324-e0f7-4e95-92ea-a534864a978b"
      },
      "period": {
        "start": "1971-02-18T08:00:00.000+00:00"
      },
      "payor": [ {
        "reference": "Organization/dfa546c2-b1ef-46ec-845e-0a015077036c"
      } ]
    },
    "request": {
      "method": "PUT",
      "url": "Coverage/923201e0-e44a-4293-b7d9-c0e8b6a306e4"
    }
  }, {
    "fullUrl": "https://madie.cms.gov/Procedure/670be0ff-931d-4c1e-957a-849fc8439243",
    "resource": {
      "resourceType": "Procedure",
      "id": "670be0ff-931d-4c1e-957a-849fc8439243",
      "meta": {
        "profile": [ "http://hl7.org/fhir/us/qicore/StructureDefinition/qicore-procedure" ]
      },
      "extension": [ {
        "url": "http://hl7.org/fhir/us/qicore/StructureDefinition/qicore-recorded",
        "valueDateTime": "2026-12-06T12:35:00.000+00:00"
      } ],
      "status": "completed",
      "code": {
        "coding": [ {
          "system": "http://snomed.info/sct",
          "code": "169396008"
        } ]
      },
      "subject": {
        "reference": "Patient/5327f324-e0f7-4e95-92ea-a534864a978b"
      },
      "performedPeriod": {
        "start": "2026-12-06T08:00:00.000+00:00",
        "end": "2026-12-06T08:15:00.000+00:00"
      }
    },
    "request": {
      "method": "PUT",
      "url": "Procedure/670be0ff-931d-4c1e-957a-849fc8439243"
    }
  }, {
    "fullUrl": "https://madie.cms.gov/Procedure/bad67ffe-ebad-48c5-9d68-66467cdcf690",
    "resource": {
      "resourceType": "Procedure",
      "id": "bad67ffe-ebad-48c5-9d68-66467cdcf690",
      "meta": {
        "profile": [ "http://hl7.org/fhir/us/qicore/StructureDefinition/qicore-procedure" ]
      },
      "extension": [ {
        "url": "http://hl7.org/fhir/us/qicore/StructureDefinition/qicore-recorded",
        "valueDateTime": "2026-12-31T08:35:00.000+00:00"
      } ],
      "status": "completed",
      "code": {
        "coding": [ {
          "system": "http://snomed.info/sct",
          "code": "169396008"
        } ]
      },
      "subject": {
        "reference": "Patient/5327f324-e0f7-4e95-92ea-a534864a978b"
      },
      "performedPeriod": {
        "start": "2026-12-31T08:00:00.000+00:00",
        "end": "2026-12-31T08:15:00.000+00:00"
      }
    },
    "request": {
      "method": "PUT",
      "url": "Procedure/bad67ffe-ebad-48c5-9d68-66467cdcf690"
    }
  }, {
    "fullUrl": "https://madie.cms.gov/Procedure/e644b817-b811-42bb-baad-a4669ff4d1e0",
    "resource": {
      "resourceType": "Procedure",
      "id": "e644b817-b811-42bb-baad-a4669ff4d1e0",
      "meta": {
        "profile": [ "http://hl7.org/fhir/us/qicore/StructureDefinition/qicore-procedure" ]
      },
      "extension": [ {
        "url": "http://hl7.org/fhir/us/qicore/StructureDefinition/qicore-recorded",
        "valueDateTime": "2026-01-02T12:35:00.000+00:00"
      } ],
      "status": "completed",
      "code": {
        "coding": [ {
          "system": "http://snomed.info/sct",
          "code": "169396008"
        } ]
      },
      "subject": {
        "reference": "Patient/5327f324-e0f7-4e95-92ea-a534864a978b"
      },
      "performedPeriod": {
        "start": "2026-01-02T08:00:00.000+00:00",
        "end": "2026-01-02T08:15:00.000+00:00"
      }
    },
    "request": {
      "method": "PUT",
      "url": "Procedure/e644b817-b811-42bb-baad-a4669ff4d1e0"
    }
  }, {
    "fullUrl": "https://madie.cms.gov/Procedure/9ede5a3c-dd56-43e4-b1fd-d24db8d91591",
    "resource": {
      "resourceType": "Procedure",
      "id": "9ede5a3c-dd56-43e4-b1fd-d24db8d91591",
      "meta": {
        "profile": [ "http://hl7.org/fhir/us/qicore/StructureDefinition/qicore-procedure" ]
      },
      "extension": [ {
        "url": "http://hl7.org/fhir/us/qicore/StructureDefinition/qicore-recorded",
        "valueDateTime": "2026-01-09T12:35:00.000+00:00"
      } ],
      "status": "completed",
      "code": {
        "coding": [ {
          "system": "http://snomed.info/sct",
          "code": "169396008"
        } ]
      },
      "subject": {
        "reference": "Patient/5327f324-e0f7-4e95-92ea-a534864a978b"
      },
      "performedPeriod": {
        "start": "2026-01-09T08:00:00.000+00:00",
        "end": "2026-01-09T08:15:00.000+00:00"
      }
    },
    "request": {
      "method": "PUT",
      "url": "Procedure/9ede5a3c-dd56-43e4-b1fd-d24db8d91591"
    }
  }, {
    "fullUrl": "https://madie.cms.gov/Procedure/efaa6912-7666-4773-ae84-71eabdeeae8a",
    "resource": {
      "resourceType": "Procedure",
      "id": "efaa6912-7666-4773-ae84-71eabdeeae8a",
      "meta": {
        "profile": [ "http://hl7.org/fhir/us/qicore/StructureDefinition/qicore-procedure" ]
      },
      "extension": [ {
        "url": "http://hl7.org/fhir/us/qicore/StructureDefinition/qicore-recorded",
        "valueDateTime": "2026-01-16T12:35:00.000+00:00"
      } ],
      "status": "completed",
      "code": {
        "coding": [ {
          "system": "http://snomed.info/sct",
          "code": "169396008"
        } ]
      },
      "subject": {
        "reference": "Patient/5327f324-e0f7-4e95-92ea-a534864a978b"
      },
      "performedPeriod": {
        "start": "2026-01-16T08:00:00.000+00:00",
        "end": "2026-01-16T08:15:00.000+00:00"
      }
    },
    "request": {
      "method": "PUT",
      "url": "Procedure/efaa6912-7666-4773-ae84-71eabdeeae8a"
    }
  }, {
    "fullUrl": "https://madie.cms.gov/Procedure/6d913f5f-35b5-4035-9034-9265b5f44f4b",
    "resource": {
      "resourceType": "Procedure",
      "id": "6d913f5f-35b5-4035-9034-9265b5f44f4b",
      "meta": {
        "profile": [ "http://hl7.org/fhir/us/qicore/StructureDefinition/qicore-procedure" ]
      },
      "extension": [ {
        "url": "http://hl7.org/fhir/us/qicore/StructureDefinition/qicore-recorded",
        "valueDateTime": "2026-01-23T12:35:00.000+00:00"
      } ],
      "status": "completed",
      "code": {
        "coding": [ {
          "system": "http://snomed.info/sct",
          "code": "169396008"
        } ]
      },
      "subject": {
        "reference": "Patient/5327f324-e0f7-4e95-92ea-a534864a978b"
      },
      "performedPeriod": {
        "start": "2026-01-23T08:00:00.000+00:00",
        "end": "2026-01-23T08:15:00.000+00:00"
      }
    },
    "request": {
      "method": "PUT",
      "url": "Procedure/6d913f5f-35b5-4035-9034-9265b5f44f4b"
    }
  }, {
    "fullUrl": "https://madie.cms.gov/Organization/dfa546c2-b1ef-46ec-845e-0a015077036c",
    "resource": {
      "resourceType": "Organization",
      "id": "dfa546c2-b1ef-46ec-845e-0a015077036c",
      "meta": {
        "profile": [ "http://hl7.org/fhir/us/qicore/StructureDefinition/qicore-organization" ]
      },
      "identifier": [ {
        "use": "temp",
        "system": "urn:oid:2.16.840.1.113883.4.4",
        "value": "21-3259825"
      } ],
      "active": true,
      "type": [ {
        "coding": [ {
          "system": "http://terminology.hl7.org/CodeSystem/organization-type",
          "code": "pay",
          "display": "Payer"
        } ]
      } ],
      "name": "Blue Cross Blue Shield of Texas",
      "telecom": [ {
        "system": "phone",
        "value": "(+1) 972-766-6900"
      } ],
      "address": [ {
        "use": "billing",
        "type": "postal",
        "line": [ "P.O. Box 660044" ],
        "city": "Dallas",
        "state": "TX",
        "postalCode": "75266-0044",
        "country": "USA"
      } ]
    },
    "request": {
      "method": "PUT",
      "url": "Organization/dfa546c2-b1ef-46ec-845e-0a015077036c"
    }
  }, {
    "fullUrl": "https://madie.cms.gov/MeasureReport/d140c999-8ebe-47e2-b885-a0764976b5f6",
    "resource": {
      "resourceType": "MeasureReport",
      "id": "d140c999-8ebe-47e2-b885-a0764976b5f6",
      "meta": {
        "profile": [ "http://hl7.org/fhir/us/cqfmeasures/StructureDefinition/test-case-cqfm" ]
      },
      "contained": [ {
        "resourceType": "Parameters",
        "id": "31b346d5-5a98-4b4d-9958-b5a5b18fc301-parameters",
        "parameter": [ {
          "name": "subject",
          "valueString": "5327f324-e0f7-4e95-92ea-a534864a978b"
        } ]
      } ],
      "extension": [ {
        "url": "http://hl7.org/fhir/StructureDefinition/cqf-inputParameters",
        "valueReference": {
          "reference": "#31b346d5-5a98-4b4d-9958-b5a5b18fc301-parameters"
        }
      }, {
        "url": "http://hl7.org/fhir/us/cqfmeasures/StructureDefinition/cqfm-testCaseDescription",
        "valueMarkdown": "Patient encounter and chemo within 30 days after the measurement period, and has encounter and treatment during measurement period. "
      } ],
      "modifierExtension": [ {
        "url": "http://hl7.org/fhir/us/cqfmeasures/StructureDefinition/cqfm-isTestCase",
        "valueBoolean": true
      } ],
      "status": "complete",
      "type": "individual",
      "measure": "https://madie.cms.gov/Measure/CMS157FHIRPainIntensityQuantified",
      "period": {
        "start": "2026-01-01",
        "end": "2026-12-31"
      },
      "group": [ {
        "id": "Group_1",
        "population": [ {
          "id": "InitialPopulation_1",
          "code": {
            "coding": [ {
              "system": "http://terminology.hl7.org/CodeSystem/measure-population",
              "code": "initial-population",
              "display": "Initial Population"
            } ]
          },
          "count": 1
        }, {
          "id": "Denominator_1",
          "code": {
            "coding": [ {
              "system": "http://terminology.hl7.org/CodeSystem/measure-population",
              "code": "denominator",
              "display": "Denominator"
            } ]
          },
          "count": 1
        }, {
          "id": "Numerator_1",
          "code": {
            "coding": [ {
              "system": "http://terminology.hl7.org/CodeSystem/measure-population",
              "code": "numerator",
              "display": "Numerator"
            } ]
          },
          "count": 0
        } ],
        "measureScore": {
          "value": 0.0
        }
      }, {
        "id": "Group_2",
        "population": [ {
          "id": "InitialPopulation_2",
          "code": {
            "coding": [ {
              "system": "http://terminology.hl7.org/CodeSystem/measure-population",
              "code": "initial-population",
              "display": "Initial Population"
            } ]
          },
          "count": 0
        }, {
          "id": "Denominator_2",
          "code": {
            "coding": [ {
              "system": "http://terminology.hl7.org/CodeSystem/measure-population",
              "code": "denominator",
              "display": "Denominator"
            } ]
          },
          "count": 0
        }, {
          "id": "Numerator_2",
          "code": {
            "coding": [ {
              "system": "http://terminology.hl7.org/CodeSystem/measure-population",
              "code": "numerator",
              "display": "Numerator"
            } ]
          },
          "count": 0
        } ],
        "measureScore": {
          "value": 0.0
        }
      } ],
      "evaluatedResource": [ {
        "reference": "Patient/5327f324-e0f7-4e95-92ea-a534864a978b"
      }, {
        "reference": "Condition/0771bee4-469c-4b52-bfb5-5c5f70aec916"
      }, {
        "reference": "Encounter/9b8de385-cf16-4fe1-8eed-24bcd38f7e0c"
      }, {
        "reference": "Encounter/383d5b03-5879-4566-9d9b-87bf595b2d4a"
      }, {
        "reference": "Coverage/923201e0-e44a-4293-b7d9-c0e8b6a306e4"
      }, {
        "reference": "Procedure/670be0ff-931d-4c1e-957a-849fc8439243"
      }, {
        "reference": "Procedure/bad67ffe-ebad-48c5-9d68-66467cdcf690"
      }, {
        "reference": "Procedure/e644b817-b811-42bb-baad-a4669ff4d1e0"
      }, {
        "reference": "Procedure/9ede5a3c-dd56-43e4-b1fd-d24db8d91591"
      }, {
        "reference": "Procedure/efaa6912-7666-4773-ae84-71eabdeeae8a"
      }, {
        "reference": "Procedure/6d913f5f-35b5-4035-9034-9265b5f44f4b"
      }, {
        "reference": "Organization/dfa546c2-b1ef-46ec-845e-0a015077036c"
      } ]
    },
    "request": {
      "method": "PUT",
      "url": "MeasureReport/d140c999-8ebe-47e2-b885-a0764976b5f6"
    }
  } ]
}