{
  "resourceType": "Bundle",
  "id": "4163431316163131",
  "type": "collection",
  "entry": [ {
    "fullUrl": "https://madie.cms.gov/Patient/426369f7-d9ec-4923-8628-465229c5f958",
    "resource": {
      "resourceType": "Patient",
      "id": "426369f7-d9ec-4923-8628-465229c5f958",
      "meta": {
        "profile": [ "http://hl7.org/fhir/us/qicore/StructureDefinition/qicore-patient" ]
      },
      "extension": [ {
        "url": "http://hl7.org/fhir/us/core/StructureDefinition/us-core-race",
        "extension": [ {
          "url": "ombCategory",
          "valueCoding": {
            "system": "http://terminology.hl7.org/CodeSystem/v3-NullFlavor",
            "code": "UNK",
            "display": "unknown"
          }
        }, {
          "url": "text",
          "valueString": "unknown"
        } ]
      }, {
        "url": "http://hl7.org/fhir/us/core/StructureDefinition/us-core-ethnicity",
        "extension": [ {
          "url": "ombCategory",
          "valueCoding": {
            "system": "urn:oid:2.16.840.1.113883.6.238",
            "code": "2186-5",
            "display": "Not Hispanic or Latino"
          }
        }, {
          "url": "text",
          "valueString": "Not Hispanic or Latino"
        } ]
      } ],
      "identifier": [ {
        "type": {
          "coding": [ {
            "system": "http://terminology.hl7.org/CodeSystem/v2-0203",
            "code": "MR"
          } ]
        },
        "system": "https://bonnie-fhir.healthit.gov/",
        "value": "6543131313"
      } ],
      "active": true,
      "name": [ {
        "use": "usual",
        "family": "NUMERPass",
        "given": [ "PtHasActiveBetaBlocker" ]
      } ],
      "gender": "female",
      "birthDate": "1983-07-27"
    }
  }, {
    "fullUrl": "https://madie.cms.gov/Encounter/b51a1829-0a59-4ee8-b946-41435c2921e0",
    "resource": {
      "resourceType": "Encounter",
      "id": "b51a1829-0a59-4ee8-b946-41435c2921e0",
      "meta": {
        "profile": [ "http://hl7.org/fhir/us/qicore/StructureDefinition/qicore-encounter" ]
      },
      "status": "finished",
      "class": {
        "system": "http://terminology.hl7.org/CodeSystem/v3-ActCode",
        "code": "AMB",
        "display": "ambulatory"
      },
      "type": [ {
        "coding": [ {
          "system": "http://www.ama-assn.org/go/cpt",
          "version": "2024",
          "code": "99213",
          "display": "Established patient office or other outpatient visit, 20-29 minutes"
        } ]
      } ],
      "subject": {
        "reference": "Patient/426369f7-d9ec-4923-8628-465229c5f958"
      },
      "period": {
        "start": "2026-02-27T14:40:00.000+00:00",
        "end": "2026-02-27T14:55:00.000+00:00"
      },
      "length": {
        "value": 0,
        "unit": "days"
      }
    }
  }, {
    "fullUrl": "https://madie.cms.gov/Encounter/2a4a9b59-2735-4409-8220-50c76f3a7264",
    "resource": {
      "resourceType": "Encounter",
      "id": "2a4a9b59-2735-4409-8220-50c76f3a7264",
      "meta": {
        "profile": [ "http://hl7.org/fhir/us/qicore/StructureDefinition/qicore-encounter" ]
      },
      "status": "finished",
      "class": {
        "system": "http://terminology.hl7.org/CodeSystem/v3-ActCode",
        "code": "AMB",
        "display": "ambulatory"
      },
      "type": [ {
        "coding": [ {
          "system": "http://www.ama-assn.org/go/cpt",
          "version": "2024",
          "code": "99212"
        } ]
      } ],
      "subject": {
        "reference": "Patient/426369f7-d9ec-4923-8628-465229c5f958"
      },
      "period": {
        "start": "2026-06-12T11:50:00.000+00:00",
        "end": "2026-06-12T12:00:00.000+00:00"
      },
      "length": {
        "value": 0,
        "unit": "days"
      }
    }
  }, {
    "fullUrl": "https://madie.cms.gov/Condition/fa1e8668-b603-46a6-8e53-d26ffdb458b9",
    "resource": {
      "resourceType": "Condition",
      "id": "fa1e8668-b603-46a6-8e53-d26ffdb458b9",
      "meta": {
        "profile": [ "http://hl7.org/fhir/us/qicore/StructureDefinition/qicore-condition-problems-health-concerns" ]
      },
      "clinicalStatus": {
        "coding": [ {
          "system": "http://terminology.hl7.org/CodeSystem/condition-clinical",
          "code": "active",
          "display": "Active"
        } ]
      },
      "verificationStatus": {
        "coding": [ {
          "system": "http://terminology.hl7.org/CodeSystem/condition-ver-status",
          "code": "confirmed",
          "display": "Confirmed"
        } ]
      },
      "category": [ {
        "coding": [ {
          "system": "http://terminology.hl7.org/CodeSystem/condition-category",
          "code": "problem-list-item",
          "display": "problem list item"
        } ]
      } ],
      "code": {
        "coding": [ {
          "system": "http://hl7.org/fhir/sid/icd-10-cm",
          "version": "2024",
          "code": "I11.0",
          "display": "Hypertensive heart disease with heart failure"
        } ]
      },
      "subject": {
        "reference": "Patient/426369f7-d9ec-4923-8628-465229c5f958"
      },
      "onsetPeriod": {
        "start": "2026-02-22T14:40:00.000+00:00"
      }
    }
  }, {
    "fullUrl": "https://madie.cms.gov/Practitioner/3f9a65b6-a3bd-42ef-a71f-b0abd721d9ba",
    "resource": {
      "resourceType": "Practitioner",
      "id": "3f9a65b6-a3bd-42ef-a71f-b0abd721d9ba",
      "meta": {
        "profile": [ "http://hl7.org/fhir/us/qicore/StructureDefinition/qicore-practitioner" ]
      },
      "identifier": [ {
        "use": "temp",
        "system": "urn:oid:2.16.840.1.113883.4.336",
        "value": "Practitioner-23"
      } ],
      "active": true,
      "name": [ {
        "family": "Careful",
        "given": [ "Adam" ],
        "prefix": [ "Dr" ]
      } ],
      "address": [ {
        "use": "home",
        "line": [ "534 Erewhon St" ],
        "city": "PleasantVille",
        "state": "UT",
        "postalCode": "84414"
      } ],
      "qualification": [ {
        "identifier": [ {
          "system": "http://mock-data.org/UniversityIdentifier",
          "value": "12345"
        } ],
        "code": {
          "coding": [ {
            "system": "http://terminology.hl7.org/CodeSystem/v2-0360",
            "code": "BS",
            "display": "Bachelor of Science"
          } ],
          "text": "Bachelor of Science"
        },
        "period": {
          "start": "1996"
        },
        "issuer": {
          "display": "Example University"
        }
      } ]
    }
  }, {
    "fullUrl": "https://madie.cms.gov/MedicationRequest/a6677cd0-35f6-4df8-8244-ace9b690da80",
    "resource": {
      "resourceType": "MedicationRequest",
      "id": "a6677cd0-35f6-4df8-8244-ace9b690da80",
      "meta": {
        "profile": [ "http://hl7.org/fhir/us/qicore/StructureDefinition/qicore-medicationrequest" ]
      },
      "status": "completed",
      "intent": "order",
      "medicationCodeableConcept": {
        "coding": [ {
          "system": "http://www.nlm.nih.gov/research/umls/rxnorm",
          "version": "06052023",
          "code": "200031"
        } ]
      },
      "subject": {
        "reference": "Patient/426369f7-d9ec-4923-8628-465229c5f958"
      },
      "authoredOn": "2026-06-12T14:57:00.000+00:00",
      "requester": {
        "reference": "Practitioner/3f9a65b6-a3bd-42ef-a71f-b0abd721d9ba"
      },
      "dosageInstruction": [ {
        "timing": {
          "event": [ "2026-02-27T11:45:00+00:00" ],
          "repeat": {
            "boundsPeriod": {
              "start": "2026-02-27"
            },
            "frequency": 1,
            "period": 1,
            "periodUnit": "d"
          },
          "code": {
            "coding": [ {
              "system": "http://terminology.hl7.org/CodeSystem/v3-GTSAbbreviation",
              "code": "QD"
            } ]
          }
        },
        "route": {
          "coding": [ {
            "system": "http://snomed.info/sct",
            "code": "26643006",
            "display": "Oral use"
          } ]
        },
        "doseAndRate": [ {
          "doseQuantity": {
            "value": 4,
            "unit": "mg",
            "system": "http://unitsofmeasure.org",
            "code": "mg"
          }
        } ]
      } ]
    }
  }, {
    "fullUrl": "https://madie.cms.gov/Observation/29ae8c26-38dc-4210-978f-458d145ce971",
    "resource": {
      "resourceType": "Observation",
      "id": "29ae8c26-38dc-4210-978f-458d145ce971",
      "meta": {
        "profile": [ "http://hl7.org/fhir/us/core/StructureDefinition/us-core-heart-rate" ]
      },
      "status": "final",
      "category": [ {
        "coding": [ {
          "system": "http://terminology.hl7.org/CodeSystem/observation-category",
          "code": "vital-signs",
          "display": "Vital Signs"
        } ]
      }, {
        "coding": [ {
          "system": "http://terminology.hl7.org/CodeSystem/observation-category",
          "code": "survey"
        } ]
      } ],
      "code": {
        "coding": [ {
          "system": "http://loinc.org",
          "version": "2.76",
          "code": "8867-4"
        } ]
      },
      "subject": {
        "reference": "Patient/426369f7-d9ec-4923-8628-465229c5f958"
      },
      "effectiveDateTime": "2026-02-27T11:52:00.000+00:00",
      "valueQuantity": {
        "value": 45,
        "unit": "/min",
        "system": "http://unitsofmeasure.org",
        "code": "/min"
      }
    }
  }, {
    "fullUrl": "https://madie.cms.gov/Observation/3d519fa4-5cec-4dad-a2cb-08e51169588c",
    "resource": {
      "resourceType": "Observation",
      "id": "3d519fa4-5cec-4dad-a2cb-08e51169588c",
      "meta": {
        "profile": [ "http://hl7.org/fhir/us/core/StructureDefinition/us-core-heart-rate" ]
      },
      "status": "final",
      "category": [ {
        "coding": [ {
          "system": "http://terminology.hl7.org/CodeSystem/observation-category",
          "code": "vital-signs",
          "display": "Vital Signs"
        } ]
      }, {
        "coding": [ {
          "system": "http://terminology.hl7.org/CodeSystem/observation-category",
          "code": "survey"
        } ]
      } ],
      "code": {
        "coding": [ {
          "system": "http://loinc.org",
          "version": "2.76",
          "code": "8867-4"
        } ]
      },
      "subject": {
        "reference": "Patient/426369f7-d9ec-4923-8628-465229c5f958"
      },
      "effectiveDateTime": "2026-02-27T14:45:00.000+00:00",
      "valueQuantity": {
        "value": 45,
        "unit": "/min",
        "system": "http://unitsofmeasure.org",
        "code": "/min"
      }
    }
  }, {
    "fullUrl": "https://madie.cms.gov/Condition/e372c5e5-442d-46aa-892c-834cd16d67da",
    "resource": {
      "resourceType": "Condition",
      "id": "e372c5e5-442d-46aa-892c-834cd16d67da",
      "meta": {
        "profile": [ "http://hl7.org/fhir/us/qicore/StructureDefinition/qicore-condition-problems-health-concerns" ]
      },
      "clinicalStatus": {
        "coding": [ {
          "system": "http://terminology.hl7.org/CodeSystem/condition-clinical",
          "code": "active",
          "display": "Active"
        } ]
      },
      "verificationStatus": {
        "coding": [ {
          "system": "http://terminology.hl7.org/CodeSystem/condition-ver-status",
          "code": "confirmed",
          "display": "Confirmed"
        } ]
      },
      "category": [ {
        "coding": [ {
          "system": "http://terminology.hl7.org/CodeSystem/condition-category",
          "code": "problem-list-item",
          "display": "problem list item"
        } ]
      } ],
      "severity": {
        "coding": [ {
          "system": "http://snomed.info/sct",
          "version": "http://snomed.info/sct/731000124108/version/20240301",
          "code": "24484000",
          "display": "Severe (severity modifier) (qualifier value)"
        } ]
      },
      "code": {
        "coding": [ {
          "system": "http://snomed.info/sct",
          "version": "http://snomed.info/sct/731000124108/version/20250301",
          "code": "134401001",
          "display": "Left ventricular systolic dysfunction (disorder)"
        } ]
      },
      "subject": {
        "reference": "Patient/426369f7-d9ec-4923-8628-465229c5f958"
      },
      "onsetPeriod": {
        "start": "2026-02-18T14:40:00.000+00:00",
        "end": "2026-02-18T14:55:00.000+00:00"
      }
    }
  }, {
    "fullUrl": "https://madie.cms.gov/MeasureReport/79d2fc58-71b1-49a3-a119-25127666e470",
    "resource": {
      "resourceType": "MeasureReport",
      "id": "79d2fc58-71b1-49a3-a119-25127666e470",
      "meta": {
        "profile": [ "http://hl7.org/fhir/us/cqfmeasures/StructureDefinition/test-case-cqfm" ]
      },
      "contained": [ {
        "resourceType": "Parameters",
        "id": "374af3fa-8a32-4218-ab68-d44902a1cad0-parameters",
        "parameter": [ {
          "name": "subject",
          "valueString": "426369f7-d9ec-4923-8628-465229c5f958"
        } ]
      } ],
      "extension": [ {
        "url": "http://hl7.org/fhir/StructureDefinition/cqf-inputParameters",
        "valueReference": {
          "reference": "#374af3fa-8a32-4218-ab68-d44902a1cad0-parameters"
        }
      }, {
        "url": "http://hl7.org/fhir/us/cqfmeasures/StructureDefinition/cqfm-testCaseDescription",
        "valueMarkdown": "Patient is currently taking a beta blocker and falls into numerator"
      } ],
      "modifierExtension": [ {
        "url": "http://hl7.org/fhir/us/cqfmeasures/StructureDefinition/cqfm-isTestCase",
        "valueBoolean": true
      } ],
      "status": "complete",
      "type": "individual",
      "measure": "https://madie.cms.gov/Measure/CMS144FHIRHFBetaBlockerForLVSD",
      "period": {
        "start": "2026-01-01",
        "end": "2026-12-31"
      },
      "group": [ {
        "id": "Group_1",
        "population": [ {
          "id": "InitialPopulation_1",
          "code": {
            "coding": [ {
              "system": "http://terminology.hl7.org/CodeSystem/measure-population",
              "code": "initial-population",
              "display": "Initial Population"
            } ]
          },
          "count": 1
        }, {
          "id": "Denominator_1",
          "code": {
            "coding": [ {
              "system": "http://terminology.hl7.org/CodeSystem/measure-population",
              "code": "denominator",
              "display": "Denominator"
            } ]
          },
          "count": 1
        }, {
          "id": "DenominatorExclusion_1",
          "code": {
            "coding": [ {
              "system": "http://terminology.hl7.org/CodeSystem/measure-population",
              "code": "denominator-exclusion",
              "display": "Denominator Exclusion"
            } ]
          },
          "count": 0
        }, {
          "id": "Numerator_1",
          "code": {
            "coding": [ {
              "system": "http://terminology.hl7.org/CodeSystem/measure-population",
              "code": "numerator",
              "display": "Numerator"
            } ]
          },
          "count": 1
        }, {
          "id": "DenominatorException_1",
          "code": {
            "coding": [ {
              "system": "http://terminology.hl7.org/CodeSystem/measure-population",
              "code": "denominator-exception",
              "display": "Denominator Exception"
            } ]
          },
          "count": 0
        } ],
        "measureScore": {
          "value": 1.0
        }
      } ],
      "evaluatedResource": [ {
        "reference": "Patient/426369f7-d9ec-4923-8628-465229c5f958"
      }, {
        "reference": "Encounter/b51a1829-0a59-4ee8-b946-41435c2921e0"
      }, {
        "reference": "Encounter/2a4a9b59-2735-4409-8220-50c76f3a7264"
      }, {
        "reference": "Condition/fa1e8668-b603-46a6-8e53-d26ffdb458b9"
      }, {
        "reference": "Practitioner/3f9a65b6-a3bd-42ef-a71f-b0abd721d9ba"
      }, {
        "reference": "MedicationRequest/a6677cd0-35f6-4df8-8244-ace9b690da80"
      }, {
        "reference": "Observation/29ae8c26-38dc-4210-978f-458d145ce971"
      }, {
        "reference": "Observation/3d519fa4-5cec-4dad-a2cb-08e51169588c"
      }, {
        "reference": "Condition/e372c5e5-442d-46aa-892c-834cd16d67da"
      } ]
    }
  } ]
}