{
  "resourceType": "Bundle",
  "id": "6359776b6aee9629c8298235",
  "type": "transaction",
  "entry": [ {
    "fullUrl": "https://madie.cms.gov/Patient/e53da87f-22c3-4c04-919c-31d136a49e83",
    "resource": {
      "resourceType": "Patient",
      "id": "e53da87f-22c3-4c04-919c-31d136a49e83",
      "meta": {
        "profile": [ "http://hl7.org/fhir/us/qicore/StructureDefinition/qicore-patient" ]
      },
      "text": {
        "status": "generated",
        "div": "<div xmlns=\"http://www.w3.org/1999/xhtml\"><div class=\"hapiHeaderText\">RISKWBCRsltDtTimeEQDelStart <b>RISKFail </b></div><table class=\"hapiPropertyTable\"><tbody><tr><td>Date of birth</td><td><span>01 February 2004</span></td></tr></tbody></table></div>"
      },
      "extension": [ {
        "url": "http://hl7.org/fhir/us/core/StructureDefinition/us-core-race",
        "extension": [ {
          "url": "ombCategory",
          "valueCoding": {
            "system": "urn:oid:2.16.840.1.113883.6.238",
            "code": "1002-5",
            "display": "American Indian or Alaska Native",
            "userSelected": true
          }
        }, {
          "url": "text",
          "valueString": "American Indian or Alaska Native"
        } ]
      }, {
        "url": "http://hl7.org/fhir/us/core/StructureDefinition/us-core-ethnicity",
        "extension": [ {
          "url": "ombCategory",
          "valueCoding": {
            "system": "urn:oid:2.16.840.1.113883.6.238",
            "code": "2135-2",
            "display": "Hispanic or Latino",
            "userSelected": true
          }
        }, {
          "url": "text",
          "valueString": "Hispanic or Latino"
        } ]
      } ],
      "identifier": [ {
        "type": {
          "coding": [ {
            "system": "http://terminology.hl7.org/CodeSystem/v2-0203",
            "code": "MR"
          } ]
        },
        "system": "https://bonnie-fhir.healthit.gov/",
        "value": "6359776b6aee9629c8298235"
      } ],
      "active": true,
      "name": [ {
        "use": "usual",
        "family": "RiskFail",
        "given": [ "RISKWBCRsltDtTimeEQDelStart" ]
      } ],
      "gender": "female",
      "birthDate": "2005-02-01"
    },
    "request": {
      "method": "PUT",
      "url": "Patient/e53da87f-22c3-4c04-919c-31d136a49e83"
    }
  }, {
    "fullUrl": "https://madie.cms.gov/Observation/6dfa9d4c-5050-4274-a2fb-a0d50800c6aa",
    "resource": {
      "resourceType": "Observation",
      "id": "6dfa9d4c-5050-4274-a2fb-a0d50800c6aa",
      "meta": {
        "profile": [ "http://hl7.org/fhir/us/qicore/StructureDefinition/qicore-simple-observation" ]
      },
      "status": "final",
      "category": [ {
        "coding": [ {
          "system": "http://terminology.hl7.org/CodeSystem/observation-category",
          "code": "exam",
          "display": "exam",
          "userSelected": true
        } ]
      } ],
      "code": {
        "coding": [ {
          "system": "http://loinc.org",
          "code": "93857-1"
        } ]
      },
      "subject": {
        "reference": "Patient/e53da87f-22c3-4c04-919c-31d136a49e83"
      },
      "effectiveDateTime": "2026-02-01T08:00:00.000+00:00",
      "valueDateTime": "2026-02-01T08:00:00.000+00:00"
    },
    "request": {
      "method": "PUT",
      "url": "Observation/6dfa9d4c-5050-4274-a2fb-a0d50800c6aa"
    }
  }, {
    "fullUrl": "https://madie.cms.gov/Observation/9b9115ba-70b7-47ba-a3ec-c3b9dee44298",
    "resource": {
      "resourceType": "Observation",
      "id": "9b9115ba-70b7-47ba-a3ec-c3b9dee44298",
      "meta": {
        "profile": [ "http://hl7.org/fhir/us/qicore/StructureDefinition/qicore-simple-observation" ]
      },
      "status": "final",
      "category": [ {
        "coding": [ {
          "system": "http://terminology.hl7.org/CodeSystem/observation-category",
          "code": "exam",
          "display": "exam",
          "userSelected": true
        } ]
      } ],
      "code": {
        "coding": [ {
          "system": "http://loinc.org",
          "code": "11884-4"
        } ]
      },
      "subject": {
        "reference": "Patient/e53da87f-22c3-4c04-919c-31d136a49e83"
      },
      "effectiveDateTime": "2026-02-01T08:00:00.000+00:00",
      "valueQuantity": {
        "value": 21,
        "system": "http://unitsofmeasure.org",
        "code": "wk"
      }
    },
    "request": {
      "method": "PUT",
      "url": "Observation/9b9115ba-70b7-47ba-a3ec-c3b9dee44298"
    }
  }, {
    "fullUrl": "https://madie.cms.gov/Encounter/66e5fa6c-59b4-49ca-867a-3c4e5aa56f76",
    "resource": {
      "resourceType": "Encounter",
      "id": "66e5fa6c-59b4-49ca-867a-3c4e5aa56f76",
      "meta": {
        "profile": [ "http://hl7.org/fhir/us/qicore/StructureDefinition/qicore-encounter" ]
      },
      "status": "finished",
      "class": {
        "system": "http://terminology.hl7.org/CodeSystem/v3-ActCode",
        "code": "IMP",
        "display": "inpatient encounter"
      },
      "type": [ {
        "coding": [ {
          "system": "http://snomed.info/sct",
          "code": "183452005"
        } ]
      } ],
      "subject": {
        "reference": "Patient/e53da87f-22c3-4c04-919c-31d136a49e83"
      },
      "period": {
        "start": "2026-02-01T08:00:00.000+00:00",
        "end": "2026-02-05T08:15:00.000+00:00"
      }
    },
    "request": {
      "method": "PUT",
      "url": "Encounter/66e5fa6c-59b4-49ca-867a-3c4e5aa56f76"
    }
  }, {
    "fullUrl": "https://madie.cms.gov/Encounter/5e0a1df7-37fa-4917-ab43-9f9658e8fb22",
    "resource": {
      "resourceType": "Encounter",
      "id": "5e0a1df7-37fa-4917-ab43-9f9658e8fb22",
      "meta": {
        "profile": [ "http://hl7.org/fhir/us/qicore/StructureDefinition/qicore-encounter" ]
      },
      "status": "finished",
      "class": {
        "system": "http://terminology.hl7.org/CodeSystem/v3-ActCode",
        "code": "EMER",
        "display": "emergency"
      },
      "type": [ {
        "coding": [ {
          "system": "http://snomed.info/sct",
          "code": "4525004"
        } ]
      } ],
      "subject": {
        "reference": "Patient/e53da87f-22c3-4c04-919c-31d136a49e83"
      },
      "period": {
        "start": "2026-02-01T07:00:00.000+00:00",
        "end": "2026-02-01T07:59:00.000+00:00"
      }
    },
    "request": {
      "method": "PUT",
      "url": "Encounter/5e0a1df7-37fa-4917-ab43-9f9658e8fb22"
    }
  }, {
    "fullUrl": "https://madie.cms.gov/Procedure/34a147e4-461c-4d7f-8a1e-696788849fa6",
    "resource": {
      "resourceType": "Procedure",
      "id": "34a147e4-461c-4d7f-8a1e-696788849fa6",
      "meta": {
        "profile": [ "http://hl7.org/fhir/us/qicore/StructureDefinition/qicore-procedure" ]
      },
      "extension": [ {
        "url": "http://hl7.org/fhir/us/qicore/StructureDefinition/qicore-recorded",
        "valueDateTime": "2026-02-04T13:35:00.000+00:00"
      } ],
      "status": "completed",
      "code": {
        "coding": [ {
          "system": "http://snomed.info/sct",
          "code": "10745001"
        } ]
      },
      "subject": {
        "reference": "Patient/e53da87f-22c3-4c04-919c-31d136a49e83"
      },
      "performedPeriod": {
        "start": "2026-02-01T08:00:00.000+00:00",
        "end": "2026-02-05T08:15:00.000+00:00"
      }
    },
    "request": {
      "method": "PUT",
      "url": "Procedure/34a147e4-461c-4d7f-8a1e-696788849fa6"
    }
  }, {
    "fullUrl": "https://madie.cms.gov/Observation/04037ad9-5995-4648-956a-754e47d40930",
    "resource": {
      "resourceType": "Observation",
      "id": "04037ad9-5995-4648-956a-754e47d40930",
      "meta": {
        "profile": [ "http://hl7.org/fhir/us/qicore/StructureDefinition/qicore-observation-lab" ]
      },
      "status": "final",
      "category": [ {
        "coding": [ {
          "system": "http://terminology.hl7.org/CodeSystem/observation-category",
          "code": "laboratory",
          "display": "laboratory",
          "userSelected": true
        } ]
      } ],
      "code": {
        "coding": [ {
          "system": "http://loinc.org",
          "version": "2.73",
          "code": "26464-8",
          "display": "Leukocytes [#/volume] in Blood",
          "userSelected": true
        } ]
      },
      "subject": {
        "reference": "Patient/e53da87f-22c3-4c04-919c-31d136a49e83"
      },
      "effectiveDateTime": "2026-02-01T08:00:00.000+00:00",
      "issued": "2026-02-01T08:00:00.000+00:00",
      "valueQuantity": {
        "value": 20,
        "unit": "10*3/u"
      }
    },
    "request": {
      "method": "PUT",
      "url": "Observation/04037ad9-5995-4648-956a-754e47d40930"
    }
  }, {
    "fullUrl": "https://madie.cms.gov/MeasureReport/03e6321f-7553-450d-b4bb-06446dbeb02b",
    "resource": {
      "resourceType": "MeasureReport",
      "id": "03e6321f-7553-450d-b4bb-06446dbeb02b",
      "meta": {
        "profile": [ "http://hl7.org/fhir/us/cqfmeasures/StructureDefinition/test-case-cqfm" ]
      },
      "contained": [ {
        "resourceType": "Parameters",
        "id": "12aade4b-02de-4f73-ab90-429f36a6c125-parameters",
        "parameter": [ {
          "name": "subject",
          "valueString": "e53da87f-22c3-4c04-919c-31d136a49e83"
        } ]
      } ],
      "extension": [ {
        "url": "http://hl7.org/fhir/StructureDefinition/cqf-inputParameters",
        "valueReference": {
          "reference": "#12aade4b-02de-4f73-ab90-429f36a6c125-parameters"
        }
      }, {
        "url": "http://hl7.org/fhir/us/cqfmeasures/StructureDefinition/cqfm-testCaseDescription",
        "valueMarkdown": "Patient with WBC result date/time = delivery date/time \n"
      } ],
      "modifierExtension": [ {
        "url": "http://hl7.org/fhir/us/cqfmeasures/StructureDefinition/cqfm-isTestCase",
        "valueBoolean": true
      } ],
      "status": "complete",
      "type": "individual",
      "measure": "https://madie.cms.gov/Measure/CMS1028FHIRPCSevereOBComps",
      "period": {
        "start": "2026-01-01",
        "end": "2026-12-31"
      },
      "group": [ {
        "id": "Group_1",
        "population": [ {
          "id": "InitialPopulation_1",
          "code": {
            "coding": [ {
              "system": "http://terminology.hl7.org/CodeSystem/measure-population",
              "code": "initial-population",
              "display": "Initial Population"
            } ]
          },
          "count": 1
        }, {
          "id": "Denominator_1",
          "code": {
            "coding": [ {
              "system": "http://terminology.hl7.org/CodeSystem/measure-population",
              "code": "denominator",
              "display": "Denominator"
            } ]
          },
          "count": 1
        }, {
          "id": "Numerator_1",
          "code": {
            "coding": [ {
              "system": "http://terminology.hl7.org/CodeSystem/measure-population",
              "code": "numerator",
              "display": "Numerator"
            } ]
          },
          "count": 0
        }, {
          "id": "NumeratorExclusion_1",
          "code": {
            "coding": [ {
              "system": "http://terminology.hl7.org/CodeSystem/measure-population",
              "code": "numerator-exclusion",
              "display": "Numerator Exclusion"
            } ]
          },
          "count": 0
        } ],
        "measureScore": {
          "value": 0.0
        }
      }, {
        "id": "Group_2",
        "population": [ {
          "id": "InitialPopulation_2",
          "code": {
            "coding": [ {
              "system": "http://terminology.hl7.org/CodeSystem/measure-population",
              "code": "initial-population",
              "display": "Initial Population"
            } ]
          },
          "count": 1
        }, {
          "id": "Denominator_2",
          "code": {
            "coding": [ {
              "system": "http://terminology.hl7.org/CodeSystem/measure-population",
              "code": "denominator",
              "display": "Denominator"
            } ]
          },
          "count": 1
        }, {
          "id": "Numerator_2",
          "code": {
            "coding": [ {
              "system": "http://terminology.hl7.org/CodeSystem/measure-population",
              "code": "numerator",
              "display": "Numerator"
            } ]
          },
          "count": 0
        }, {
          "id": "NumeratorExclusion_2",
          "code": {
            "coding": [ {
              "system": "http://terminology.hl7.org/CodeSystem/measure-population",
              "code": "numerator-exclusion",
              "display": "Numerator Exclusion"
            } ]
          },
          "count": 0
        } ],
        "measureScore": {
          "value": 0.0
        }
      } ],
      "evaluatedResource": [ {
        "reference": "Patient/e53da87f-22c3-4c04-919c-31d136a49e83"
      }, {
        "reference": "Observation/6dfa9d4c-5050-4274-a2fb-a0d50800c6aa"
      }, {
        "reference": "Observation/9b9115ba-70b7-47ba-a3ec-c3b9dee44298"
      }, {
        "reference": "Encounter/66e5fa6c-59b4-49ca-867a-3c4e5aa56f76"
      }, {
        "reference": "Encounter/5e0a1df7-37fa-4917-ab43-9f9658e8fb22"
      }, {
        "reference": "Procedure/34a147e4-461c-4d7f-8a1e-696788849fa6"
      }, {
        "reference": "Observation/04037ad9-5995-4648-956a-754e47d40930"
      } ]
    },
    "request": {
      "method": "PUT",
      "url": "MeasureReport/03e6321f-7553-450d-b4bb-06446dbeb02b"
    }
  } ]
}