{
  "resourceType": "Bundle",
  "id": "63233350414ba67d4e1d1c2f",
  "type": "transaction",
  "entry": [ {
    "fullUrl": "https://madie.cms.gov/Patient/90d1df13-46fe-4dbf-b934-6eff4f884a72",
    "resource": {
      "resourceType": "Patient",
      "id": "90d1df13-46fe-4dbf-b934-6eff4f884a72",
      "meta": {
        "profile": [ "http://hl7.org/fhir/us/qicore/StructureDefinition/qicore-patient" ]
      },
      "extension": [ {
        "url": "http://hl7.org/fhir/us/core/StructureDefinition/us-core-sex",
        "valueCode": "248152002"
      }, {
        "url": "http://hl7.org/fhir/us/core/StructureDefinition/us-core-race",
        "extension": [ {
          "url": "ombCategory",
          "valueCoding": {
            "system": "urn:oid:2.16.840.1.113883.6.238",
            "code": "2028-9",
            "display": "Asian",
            "userSelected": true
          }
        }, {
          "url": "text",
          "valueString": "Asian"
        } ]
      }, {
        "url": "http://hl7.org/fhir/us/core/StructureDefinition/us-core-ethnicity",
        "extension": [ {
          "url": "ombCategory",
          "valueCoding": {
            "system": "urn:oid:2.16.840.1.113883.6.238",
            "code": "2186-5",
            "display": "Not Hispanic or Latino",
            "userSelected": true
          }
        }, {
          "url": "text",
          "valueString": "Not Hispanic or Latino"
        } ]
      } ],
      "identifier": [ {
        "system": "http://hospital.smarthealthit.org",
        "value": "999999999"
      } ],
      "name": [ {
        "family": "DENEXFail",
        "given": [ "HasCancer" ]
      } ],
      "gender": "female",
      "birthDate": "1944-02-01"
    },
    "request": {
      "method": "PUT",
      "url": "Patient/90d1df13-46fe-4dbf-b934-6eff4f884a72"
    }
  }, {
    "fullUrl": "https://madie.cms.gov/Encounter/717a213c-f580-42d9-bd80-aee4c46c1790",
    "resource": {
      "resourceType": "Encounter",
      "id": "717a213c-f580-42d9-bd80-aee4c46c1790",
      "meta": {
        "profile": [ "http://hl7.org/fhir/us/qicore/StructureDefinition/qicore-encounter" ]
      },
      "status": "finished",
      "class": {
        "system": "http://terminology.hl7.org/CodeSystem/v3-ActCode",
        "code": "IMP",
        "display": "inpatient encounter",
        "userSelected": true
      },
      "type": [ {
        "coding": [ {
          "system": "http://snomed.info/sct",
          "code": "183452005",
          "display": "Emergency hospital admission (procedure)",
          "userSelected": true
        } ]
      } ],
      "subject": {
        "reference": "Patient/90d1df13-46fe-4dbf-b934-6eff4f884a72"
      },
      "period": {
        "start": "2026-01-01T23:59:00.000+00:00",
        "end": "2026-01-03T23:59:00.000+00:00"
      },
      "reasonReference": [ {
        "reference": "Condition/2f585828-5d5c-4769-aa09-525a70ad00fd"
      } ]
    },
    "request": {
      "method": "PUT",
      "url": "Encounter/717a213c-f580-42d9-bd80-aee4c46c1790"
    }
  }, {
    "fullUrl": "https://madie.cms.gov/MedicationRequest/a35f7ad5-9aab-4543-bb1b-9a89b7aa0d9d",
    "resource": {
      "resourceType": "MedicationRequest",
      "id": "a35f7ad5-9aab-4543-bb1b-9a89b7aa0d9d",
      "meta": {
        "profile": [ "http://hl7.org/fhir/us/qicore/StructureDefinition/qicore-medicationrequest" ]
      },
      "status": "active",
      "intent": "order",
      "category": [ {
        "coding": [ {
          "system": "http://terminology.hl7.org/CodeSystem/medicationrequest-category",
          "code": "discharge",
          "display": "Discharge",
          "userSelected": true
        } ]
      } ],
      "doNotPerform": false,
      "medicationCodeableConcept": {
        "coding": [ {
          "system": "http://www.nlm.nih.gov/research/umls/rxnorm",
          "code": "2103192",
          "display": "sufentanil 0.03 MG Sublingual Tablet",
          "userSelected": true
        } ]
      },
      "subject": {
        "reference": "Patient/90d1df13-46fe-4dbf-b934-6eff4f884a72"
      },
      "authoredOn": "2026-01-03T23:59:00.000+00:00",
      "requester": {
        "reference": "Practitioner/49b7b749-c340-4111-80fe-17972b98166d"
      }
    },
    "request": {
      "method": "PUT",
      "url": "MedicationRequest/a35f7ad5-9aab-4543-bb1b-9a89b7aa0d9d"
    }
  }, {
    "fullUrl": "https://madie.cms.gov/Practitioner/49b7b749-c340-4111-80fe-17972b98166d",
    "resource": {
      "resourceType": "Practitioner",
      "id": "49b7b749-c340-4111-80fe-17972b98166d",
      "meta": {
        "profile": [ "http://hl7.org/fhir/us/qicore/StructureDefinition/qicore-practitioner" ]
      },
      "identifier": [ {
        "system": "http://hl7.org/fhir/sid/us-npi",
        "value": "9999999896"
      } ],
      "active": true,
      "name": [ {
        "family": "Ramires",
        "given": [ "Alma" ],
        "prefix": [ "Dr" ]
      } ],
      "address": [ {
        "use": "home",
        "line": [ "534 Erewhon St" ],
        "city": "Netherville",
        "state": "IN",
        "postalCode": "46131"
      } ],
      "qualification": [ {
        "identifier": [ {
          "system": "http://goodhealth.org/prIdentifier",
          "value": "12345"
        } ],
        "code": {
          "coding": [ {
            "system": "http://terminology.hl7.org/CodeSystem/v2-0360|2.7",
            "code": "BS",
            "display": "Bachelor of Science"
          } ],
          "text": "Bachelor of Science"
        },
        "period": {
          "start": "1995"
        },
        "issuer": {
          "display": "Example University"
        }
      } ]
    },
    "request": {
      "method": "PUT",
      "url": "Practitioner/49b7b749-c340-4111-80fe-17972b98166d"
    }
  }, {
    "fullUrl": "https://madie.cms.gov/Condition/2f585828-5d5c-4769-aa09-525a70ad00fd",
    "resource": {
      "resourceType": "Condition",
      "id": "2f585828-5d5c-4769-aa09-525a70ad00fd",
      "meta": {
        "profile": [ "http://hl7.org/fhir/us/qicore/StructureDefinition/qicore-condition-encounter-diagnosis" ]
      },
      "clinicalStatus": {
        "coding": [ {
          "system": "http://terminology.hl7.org/CodeSystem/condition-clinical",
          "code": "active",
          "display": "Active",
          "userSelected": true
        } ]
      },
      "verificationStatus": {
        "coding": [ {
          "system": "http://terminology.hl7.org/CodeSystem/condition-ver-status",
          "code": "confirmed"
        } ]
      },
      "category": [ {
        "coding": [ {
          "system": "http://terminology.hl7.org/CodeSystem/condition-category",
          "code": "encounter-diagnosis",
          "display": "Encounter Diagnosis"
        } ]
      } ],
      "code": {
        "coding": [ {
          "system": "http://snomed.info/sct",
          "code": "145194251000119106",
          "display": "Primary basal cell carcinoma of skin of right foot (disorder)",
          "userSelected": true
        } ]
      },
      "subject": {
        "reference": "Patient/90d1df13-46fe-4dbf-b934-6eff4f884a72"
      },
      "encounter": {
        "reference": "Encounter/717a213c-f580-42d9-bd80-aee4c46c1790"
      },
      "onsetPeriod": {
        "start": "2025-12-31T08:00:00.000+00:00"
      }
    },
    "request": {
      "method": "PUT",
      "url": "Condition/2f585828-5d5c-4769-aa09-525a70ad00fd"
    }
  }, {
    "fullUrl": "https://madie.cms.gov/Coverage/bd7a41a2-b503-4c0c-b974-aa142ae6b799",
    "resource": {
      "resourceType": "Coverage",
      "id": "bd7a41a2-b503-4c0c-b974-aa142ae6b799",
      "meta": {
        "profile": [ "http://hl7.org/fhir/us/qicore/StructureDefinition/qicore-coverage" ]
      },
      "status": "active",
      "subscriberId": "523435",
      "beneficiary": {
        "reference": "Patient/90d1df13-46fe-4dbf-b934-6eff4f884a72"
      },
      "relationship": {
        "coding": [ {
          "system": "http://terminology.hl7.org/CodeSystem/subscriber-relationship",
          "code": "self"
        } ]
      },
      "payor": [ {
        "reference": "Organization/d72279d4-88d3-4fe3-951c-5a50b566374f"
      } ]
    },
    "request": {
      "method": "PUT",
      "url": "Coverage/bd7a41a2-b503-4c0c-b974-aa142ae6b799"
    }
  }, {
    "fullUrl": "https://madie.cms.gov/Organization/d72279d4-88d3-4fe3-951c-5a50b566374f",
    "resource": {
      "resourceType": "Organization",
      "id": "d72279d4-88d3-4fe3-951c-5a50b566374f",
      "meta": {
        "profile": [ "http://hl7.org/fhir/us/qicore/StructureDefinition/qicore-organization" ]
      },
      "identifier": [ {
        "use": "temp",
        "system": "urn:oid:2.16.840.1.113883.4.4",
        "value": "21-3259825"
      } ],
      "active": true,
      "type": [ {
        "coding": [ {
          "system": "http://terminology.hl7.org/CodeSystem/organization-type",
          "code": "pay",
          "display": "Payer"
        } ]
      } ],
      "name": "Blue Cross Blue Shield of Texas",
      "telecom": [ {
        "system": "phone",
        "value": "(+1) 972-766-6900"
      } ],
      "address": [ {
        "use": "billing",
        "type": "postal",
        "line": [ "P.O. Box 660044" ],
        "city": "Dallas",
        "state": "TX",
        "postalCode": "75266-0044",
        "country": "USA"
      } ]
    },
    "request": {
      "method": "PUT",
      "url": "Organization/d72279d4-88d3-4fe3-951c-5a50b566374f"
    }
  }, {
    "fullUrl": "https://madie.cms.gov/MeasureReport/2850342c-165f-4c71-a549-a23a39aedd82",
    "resource": {
      "resourceType": "MeasureReport",
      "id": "2850342c-165f-4c71-a549-a23a39aedd82",
      "meta": {
        "profile": [ "http://hl7.org/fhir/us/cqfmeasures/StructureDefinition/test-case-cqfm" ]
      },
      "contained": [ {
        "resourceType": "Parameters",
        "id": "af4dbbc2-05ea-4623-9649-698c5193b2da-parameters",
        "parameter": [ {
          "name": "subject",
          "valueString": "90d1df13-46fe-4dbf-b934-6eff4f884a72"
        } ]
      } ],
      "extension": [ {
        "url": "http://hl7.org/fhir/StructureDefinition/cqf-inputParameters",
        "valueReference": {
          "reference": "#af4dbbc2-05ea-4623-9649-698c5193b2da-parameters"
        }
      }, {
        "url": "http://hl7.org/fhir/us/cqfmeasures/StructureDefinition/cqfm-testCaseDescription",
        "valueMarkdown": "Enc.  1/1  at 2359 - 1/3 at 2359; encounter dx basal cell cancer (not cancer pain/not from vs), diagnosed last day of prior year, opioid at 2359 on discharge date\n\nEncounter Dx using reasonReference"
      } ],
      "modifierExtension": [ {
        "url": "http://hl7.org/fhir/us/cqfmeasures/StructureDefinition/cqfm-isTestCase",
        "valueBoolean": true
      } ],
      "status": "complete",
      "type": "individual",
      "measure": "https://madie.cms.gov/Measure/CMS506FHIRSafeUseofOpioids",
      "period": {
        "start": "2026-01-01",
        "end": "2026-12-31"
      },
      "group": [ {
        "id": "Group_1",
        "population": [ {
          "id": "InitialPopulation_1",
          "code": {
            "coding": [ {
              "system": "http://terminology.hl7.org/CodeSystem/measure-population",
              "code": "initial-population",
              "display": "Initial Population"
            } ]
          },
          "count": 1
        }, {
          "id": "Denominator_1",
          "code": {
            "coding": [ {
              "system": "http://terminology.hl7.org/CodeSystem/measure-population",
              "code": "denominator",
              "display": "Denominator"
            } ]
          },
          "count": 1
        }, {
          "id": "DenominatorExclusion_1",
          "code": {
            "coding": [ {
              "system": "http://terminology.hl7.org/CodeSystem/measure-population",
              "code": "denominator-exclusion",
              "display": "Denominator Exclusion"
            } ]
          },
          "count": 0
        }, {
          "id": "Numerator_1",
          "code": {
            "coding": [ {
              "system": "http://terminology.hl7.org/CodeSystem/measure-population",
              "code": "numerator",
              "display": "Numerator"
            } ]
          },
          "count": 0
        } ],
        "measureScore": {
          "value": 0.0
        }
      } ],
      "evaluatedResource": [ {
        "reference": "Patient/90d1df13-46fe-4dbf-b934-6eff4f884a72"
      }, {
        "reference": "Encounter/717a213c-f580-42d9-bd80-aee4c46c1790"
      }, {
        "reference": "MedicationRequest/a35f7ad5-9aab-4543-bb1b-9a89b7aa0d9d"
      }, {
        "reference": "Practitioner/49b7b749-c340-4111-80fe-17972b98166d"
      }, {
        "reference": "Condition/2f585828-5d5c-4769-aa09-525a70ad00fd"
      }, {
        "reference": "Coverage/bd7a41a2-b503-4c0c-b974-aa142ae6b799"
      }, {
        "reference": "Organization/d72279d4-88d3-4fe3-951c-5a50b566374f"
      } ]
    },
    "request": {
      "method": "PUT",
      "url": "MeasureReport/2850342c-165f-4c71-a549-a23a39aedd82"
    }
  } ]
}