{
  "resourceType": "Bundle",
  "id": "635307b6224f3b053967124e",
  "type": "transaction",
  "entry": [ {
    "fullUrl": "https://madie.cms.gov/Patient/255bb207-c5b4-470f-8b40-bca6506cc159",
    "resource": {
      "resourceType": "Patient",
      "id": "255bb207-c5b4-470f-8b40-bca6506cc159",
      "meta": {
        "profile": [ "http://hl7.org/fhir/us/qicore/StructureDefinition/qicore-patient" ]
      },
      "extension": [ {
        "url": "http://hl7.org/fhir/us/core/StructureDefinition/us-core-race",
        "extension": [ {
          "url": "ombCategory",
          "valueCoding": {
            "system": "urn:oid:2.16.840.1.113883.6.238",
            "code": "1002-5",
            "display": "American Indian or Alaska Native",
            "userSelected": true
          }
        }, {
          "url": "text",
          "valueString": "American Indian or Alaska Native"
        } ]
      }, {
        "url": "http://hl7.org/fhir/us/core/StructureDefinition/us-core-ethnicity",
        "extension": [ {
          "url": "ombCategory",
          "valueCoding": {
            "system": "urn:oid:2.16.840.1.113883.6.238",
            "code": "2135-2",
            "display": "Hispanic or Latino",
            "userSelected": true
          }
        }, {
          "url": "text",
          "valueString": "Hispanic or Latino"
        } ]
      } ],
      "identifier": [ {
        "type": {
          "coding": [ {
            "system": "http://terminology.hl7.org/CodeSystem/v2-0203",
            "code": "MR"
          } ]
        },
        "system": "https://bonnie-fhir.healthit.gov/",
        "value": "635307b6224f3b053967124e"
      } ],
      "name": [ {
        "family": "DENOMPass",
        "given": [ "LastAssPrfEDDRelvTm1MinShortOf42WksB4DELRsltDT" ]
      } ],
      "gender": "female",
      "birthDate": "2001-02-01"
    },
    "request": {
      "method": "PUT",
      "url": "Patient/255bb207-c5b4-470f-8b40-bca6506cc159"
    }
  }, {
    "fullUrl": "https://madie.cms.gov/Encounter/63710052-c3aa-47b9-9f5d-dba718fbb80d",
    "resource": {
      "resourceType": "Encounter",
      "id": "63710052-c3aa-47b9-9f5d-dba718fbb80d",
      "meta": {
        "profile": [ "http://hl7.org/fhir/us/qicore/StructureDefinition/qicore-encounter" ]
      },
      "status": "finished",
      "class": {
        "system": "http://terminology.hl7.org/CodeSystem/v3-ActCode",
        "code": "IMP",
        "display": "inpatient encounter"
      },
      "type": [ {
        "coding": [ {
          "system": "http://snomed.info/sct",
          "version": "2022-09",
          "code": "183452005",
          "display": "Emergency hospital admission (procedure)",
          "userSelected": true
        } ]
      } ],
      "subject": {
        "reference": "Patient/255bb207-c5b4-470f-8b40-bca6506cc159"
      },
      "period": {
        "start": "2026-01-30T08:00:00.000+00:00",
        "end": "2026-02-05T08:15:00.000+00:00"
      }
    },
    "request": {
      "method": "PUT",
      "url": "Encounter/63710052-c3aa-47b9-9f5d-dba718fbb80d"
    }
  }, {
    "fullUrl": "https://madie.cms.gov/Procedure/9dfc2520-279a-4877-826f-1e96d96f240e",
    "resource": {
      "resourceType": "Procedure",
      "id": "9dfc2520-279a-4877-826f-1e96d96f240e",
      "meta": {
        "profile": [ "http://hl7.org/fhir/us/qicore/StructureDefinition/qicore-procedure" ]
      },
      "extension": [ {
        "url": "http://hl7.org/fhir/us/qicore/StructureDefinition/qicore-recorded",
        "valueDateTime": "2014-04-05T13:35:00.000+00:00"
      } ],
      "status": "completed",
      "code": {
        "coding": [ {
          "system": "http://snomed.info/sct",
          "version": "2022-09",
          "code": "10745001",
          "display": "Delivery of transverse presentation (procedure)",
          "userSelected": true
        } ]
      },
      "subject": {
        "reference": "Patient/255bb207-c5b4-470f-8b40-bca6506cc159"
      },
      "performedPeriod": {
        "start": "2026-02-01T08:00:00.000+00:00",
        "end": "2026-02-05T08:15:00.000+00:00"
      }
    },
    "request": {
      "method": "PUT",
      "url": "Procedure/9dfc2520-279a-4877-826f-1e96d96f240e"
    }
  }, {
    "fullUrl": "https://madie.cms.gov/Observation/b1b74e18-a896-4df9-9166-222dff6bd514",
    "resource": {
      "resourceType": "Observation",
      "id": "b1b74e18-a896-4df9-9166-222dff6bd514",
      "meta": {
        "profile": [ "http://hl7.org/fhir/us/qicore/StructureDefinition/qicore-simple-observation" ]
      },
      "status": "final",
      "category": [ {
        "coding": [ {
          "system": "http://terminology.hl7.org/CodeSystem/observation-category",
          "code": "exam",
          "display": "exam",
          "userSelected": true
        } ]
      } ],
      "code": {
        "coding": [ {
          "system": "http://loinc.org",
          "code": "93857-1",
          "display": "Date and time of obstetric delivery",
          "userSelected": true
        } ]
      },
      "subject": {
        "reference": "Patient/255bb207-c5b4-470f-8b40-bca6506cc159"
      },
      "effectiveDateTime": "2026-02-01T08:00:00.000+00:00",
      "performer": [ {
        "reference": "Organization/example1",
        "display": "Hendricks Country Hospital"
      } ],
      "valueDateTime": "2026-02-01T08:00:00.000+00:00"
    },
    "request": {
      "method": "PUT",
      "url": "Observation/b1b74e18-a896-4df9-9166-222dff6bd514"
    }
  }, {
    "fullUrl": "https://madie.cms.gov/Observation/2c0d057d-5cc1-4246-8d0c-522fd8b59253",
    "resource": {
      "resourceType": "Observation",
      "id": "2c0d057d-5cc1-4246-8d0c-522fd8b59253",
      "meta": {
        "profile": [ "http://hl7.org/fhir/us/qicore/StructureDefinition/qicore-simple-observation" ]
      },
      "status": "final",
      "category": [ {
        "coding": [ {
          "system": "http://terminology.hl7.org/CodeSystem/observation-category",
          "code": "exam",
          "display": "exam",
          "userSelected": true
        } ]
      } ],
      "code": {
        "coding": [ {
          "system": "http://loinc.org",
          "code": "11778-8",
          "display": "Delivery date Estimated",
          "userSelected": true
        } ]
      },
      "subject": {
        "reference": "Patient/255bb207-c5b4-470f-8b40-bca6506cc159"
      },
      "effectiveDateTime": "2025-04-13T08:01:00.000+00:00",
      "performer": [ {
        "reference": "Organization/example1",
        "display": "Hendricks Country Hospital"
      } ],
      "valueDateTime": "2026-02-01T08:00:00.000+00:00"
    },
    "request": {
      "method": "PUT",
      "url": "Observation/2c0d057d-5cc1-4246-8d0c-522fd8b59253"
    }
  }, {
    "fullUrl": "https://madie.cms.gov/Coverage/26b54309-5096-4b76-9c47-67a590a039b7",
    "resource": {
      "resourceType": "Coverage",
      "id": "26b54309-5096-4b76-9c47-67a590a039b7",
      "meta": {
        "profile": [ "http://hl7.org/fhir/us/qicore/StructureDefinition/qicore-coverage" ]
      },
      "status": "active",
      "subscriberId": "523435",
      "beneficiary": {
        "reference": "Patient/255bb207-c5b4-470f-8b40-bca6506cc159"
      },
      "relationship": {
        "coding": [ {
          "system": "http://terminology.hl7.org/CodeSystem/subscriber-relationship",
          "code": "self"
        } ]
      },
      "payor": [ {
        "reference": "Organization/623ffe78-0ec2-4ea9-ba80-235095f86568"
      } ]
    },
    "request": {
      "method": "PUT",
      "url": "Coverage/26b54309-5096-4b76-9c47-67a590a039b7"
    }
  }, {
    "fullUrl": "https://madie.cms.gov/Organization/623ffe78-0ec2-4ea9-ba80-235095f86568",
    "resource": {
      "resourceType": "Organization",
      "id": "623ffe78-0ec2-4ea9-ba80-235095f86568",
      "meta": {
        "profile": [ "http://hl7.org/fhir/us/qicore/StructureDefinition/qicore-organization" ]
      },
      "identifier": [ {
        "use": "temp",
        "system": "urn:oid:2.16.840.1.113883.4.4",
        "value": "21-3259825"
      } ],
      "active": true,
      "type": [ {
        "coding": [ {
          "system": "http://terminology.hl7.org/CodeSystem/organization-type",
          "code": "pay",
          "display": "Payer"
        } ]
      } ],
      "name": "Blue Cross Blue Shield of Texas",
      "telecom": [ {
        "system": "phone",
        "value": "(+1) 972-766-6900"
      } ],
      "address": [ {
        "use": "billing",
        "type": "postal",
        "line": [ "P.O. Box 660044" ],
        "city": "Dallas",
        "state": "TX",
        "postalCode": "75266-0044",
        "country": "USA"
      } ]
    },
    "request": {
      "method": "PUT",
      "url": "Organization/623ffe78-0ec2-4ea9-ba80-235095f86568"
    }
  }, {
    "fullUrl": "https://madie.cms.gov/Practitioner/da637ed0-3f99-4c36-b6ce-ad7fca89cd16",
    "resource": {
      "resourceType": "Practitioner",
      "id": "da637ed0-3f99-4c36-b6ce-ad7fca89cd16",
      "meta": {
        "profile": [ "http://hl7.org/fhir/us/qicore/StructureDefinition/qicore-practitioner" ]
      },
      "identifier": [ {
        "system": "http://hl7.org/fhir/sid/us-npi",
        "value": "1234567890"
      } ],
      "name": [ {
        "family": "Evil",
        "prefix": [ "Dr" ]
      } ]
    },
    "request": {
      "method": "PUT",
      "url": "Practitioner/da637ed0-3f99-4c36-b6ce-ad7fca89cd16"
    }
  }, {
    "fullUrl": "https://madie.cms.gov/MeasureReport/7826a316-f2b4-4a07-8d6b-591810938ca7",
    "resource": {
      "resourceType": "MeasureReport",
      "id": "7826a316-f2b4-4a07-8d6b-591810938ca7",
      "meta": {
        "profile": [ "http://hl7.org/fhir/us/cqfmeasures/StructureDefinition/test-case-cqfm" ]
      },
      "contained": [ {
        "resourceType": "Parameters",
        "id": "10fbf8af-5eb1-4c99-a72a-ae5591d2103a-parameters",
        "parameter": [ {
          "name": "subject",
          "valueString": "255bb207-c5b4-470f-8b40-bca6506cc159"
        } ]
      } ],
      "extension": [ {
        "url": "http://hl7.org/fhir/StructureDefinition/cqf-inputParameters",
        "valueReference": {
          "reference": "#10fbf8af-5eb1-4c99-a72a-ae5591d2103a-parameters"
        }
      }, {
        "url": "http://hl7.org/fhir/us/cqfmeasures/StructureDefinition/cqfm-testCaseDescription",
        "valueMarkdown": "Last assessment Performed, Estimated Delivery Date, Relevant time, 1 minute short of 42 weeks before Delivery Result Date/Time\n"
      } ],
      "modifierExtension": [ {
        "url": "http://hl7.org/fhir/us/cqfmeasures/StructureDefinition/cqfm-isTestCase",
        "valueBoolean": true
      } ],
      "status": "complete",
      "type": "individual",
      "measure": "https://madie.cms.gov/Measure/CMS1028FHIRPCSevereOBComps",
      "period": {
        "start": "2026-01-01",
        "end": "2026-12-31"
      },
      "group": [ {
        "id": "Group_1",
        "population": [ {
          "id": "InitialPopulation_1",
          "code": {
            "coding": [ {
              "system": "http://terminology.hl7.org/CodeSystem/measure-population",
              "code": "initial-population",
              "display": "Initial Population"
            } ]
          },
          "count": 1
        }, {
          "id": "Denominator_1",
          "code": {
            "coding": [ {
              "system": "http://terminology.hl7.org/CodeSystem/measure-population",
              "code": "denominator",
              "display": "Denominator"
            } ]
          },
          "count": 1
        }, {
          "id": "Numerator_1",
          "code": {
            "coding": [ {
              "system": "http://terminology.hl7.org/CodeSystem/measure-population",
              "code": "numerator",
              "display": "Numerator"
            } ]
          },
          "count": 0
        }, {
          "id": "NumeratorExclusion_1",
          "code": {
            "coding": [ {
              "system": "http://terminology.hl7.org/CodeSystem/measure-population",
              "code": "numerator-exclusion",
              "display": "Numerator Exclusion"
            } ]
          },
          "count": 0
        } ],
        "measureScore": {
          "value": 0.0
        }
      }, {
        "id": "Group_2",
        "population": [ {
          "id": "InitialPopulation_2",
          "code": {
            "coding": [ {
              "system": "http://terminology.hl7.org/CodeSystem/measure-population",
              "code": "initial-population",
              "display": "Initial Population"
            } ]
          },
          "count": 1
        }, {
          "id": "Denominator_2",
          "code": {
            "coding": [ {
              "system": "http://terminology.hl7.org/CodeSystem/measure-population",
              "code": "denominator",
              "display": "Denominator"
            } ]
          },
          "count": 1
        }, {
          "id": "Numerator_2",
          "code": {
            "coding": [ {
              "system": "http://terminology.hl7.org/CodeSystem/measure-population",
              "code": "numerator",
              "display": "Numerator"
            } ]
          },
          "count": 0
        }, {
          "id": "NumeratorExclusion_2",
          "code": {
            "coding": [ {
              "system": "http://terminology.hl7.org/CodeSystem/measure-population",
              "code": "numerator-exclusion",
              "display": "Numerator Exclusion"
            } ]
          },
          "count": 0
        } ],
        "measureScore": {
          "value": 0.0
        }
      } ],
      "evaluatedResource": [ {
        "reference": "Patient/255bb207-c5b4-470f-8b40-bca6506cc159"
      }, {
        "reference": "Encounter/63710052-c3aa-47b9-9f5d-dba718fbb80d"
      }, {
        "reference": "Procedure/9dfc2520-279a-4877-826f-1e96d96f240e"
      }, {
        "reference": "Observation/b1b74e18-a896-4df9-9166-222dff6bd514"
      }, {
        "reference": "Observation/2c0d057d-5cc1-4246-8d0c-522fd8b59253"
      }, {
        "reference": "Coverage/26b54309-5096-4b76-9c47-67a590a039b7"
      }, {
        "reference": "Organization/623ffe78-0ec2-4ea9-ba80-235095f86568"
      }, {
        "reference": "Practitioner/da637ed0-3f99-4c36-b6ce-ad7fca89cd16"
      } ]
    },
    "request": {
      "method": "PUT",
      "url": "MeasureReport/7826a316-f2b4-4a07-8d6b-591810938ca7"
    }
  } ]
}