{
  "resourceType": "Bundle",
  "id": "tests-7d065cf3-b345-4761-a9cb-1246372b933f-bundle",
  "type": "transaction",
  "entry": [ {
    "fullUrl": "https://madie.cms.gov/Observation/f1b1e0f5-3dc5-4586-a78e-46ed966c8139",
    "resource": {
      "resourceType": "Observation",
      "id": "f1b1e0f5-3dc5-4586-a78e-46ed966c8139",
      "meta": {
        "profile": [ "http://hl7.org/fhir/us/qicore/StructureDefinition/qicore-observation-lab" ]
      },
      "status": "final",
      "category": [ {
        "coding": [ {
          "system": "http://terminology.hl7.org/CodeSystem/observation-category",
          "code": "laboratory",
          "display": "Laboratory"
        } ]
      } ],
      "code": {
        "coding": [ {
          "system": "http://loinc.org",
          "version": "2.72",
          "code": "2160-0",
          "display": "Creatinine [Mass/volume] in Serum or Plasma",
          "userSelected": true
        } ]
      },
      "subject": {
        "reference": "Patient/7d065cf3-b345-4761-a9cb-1246372b933f"
      },
      "effectiveDateTime": "2026-10-02T08:00:00.000+00:00",
      "issued": "2026-10-02T08:30:00.000+00:00",
      "valueQuantity": {
        "value": 1.1,
        "unit": "mg/dL",
        "system": "http://unitsofmeasure.org",
        "code": "mg/dL"
      }
    },
    "request": {
      "method": "PUT",
      "url": "Observation/f1b1e0f5-3dc5-4586-a78e-46ed966c8139"
    }
  }, {
    "fullUrl": "https://madie.cms.gov/Encounter/81525fc1-9675-4b74-93e4-2ecc41c1de50",
    "resource": {
      "resourceType": "Encounter",
      "id": "81525fc1-9675-4b74-93e4-2ecc41c1de50",
      "meta": {
        "profile": [ "http://hl7.org/fhir/us/qicore/StructureDefinition/qicore-encounter" ]
      },
      "status": "finished",
      "class": {
        "system": "http://terminology.hl7.org/CodeSystem/v3-ActCode",
        "code": "IMP",
        "display": "inpatient encounter"
      },
      "type": [ {
        "coding": [ {
          "system": "http://snomed.info/sct",
          "code": "183452005"
        } ]
      } ],
      "subject": {
        "reference": "Patient/7d065cf3-b345-4761-a9cb-1246372b933f"
      },
      "period": {
        "start": "2026-09-29T20:00:00.000+00:00",
        "end": "2026-10-11T08:15:00.000+00:00"
      }
    },
    "request": {
      "method": "PUT",
      "url": "Encounter/81525fc1-9675-4b74-93e4-2ecc41c1de50"
    }
  }, {
    "fullUrl": "https://madie.cms.gov/Observation/61788a6b-ab1d-4584-9b40-782f5ae6d44f",
    "resource": {
      "resourceType": "Observation",
      "id": "61788a6b-ab1d-4584-9b40-782f5ae6d44f",
      "meta": {
        "profile": [ "http://hl7.org/fhir/us/qicore/StructureDefinition/qicore-observation-lab" ]
      },
      "status": "final",
      "category": [ {
        "coding": [ {
          "system": "http://terminology.hl7.org/CodeSystem/observation-category",
          "code": "laboratory",
          "display": "Laboratory"
        } ]
      } ],
      "code": {
        "coding": [ {
          "system": "http://loinc.org",
          "code": "2160-0",
          "display": "Creatinine [Mass/volume] in Serum or Plasma"
        } ]
      },
      "subject": {
        "reference": "Patient/7d065cf3-b345-4761-a9cb-1246372b933f"
      },
      "effectiveDateTime": "2026-10-03T08:00:00.000+00:00",
      "issued": "2026-10-03T08:30:00.000+00:00",
      "valueQuantity": {
        "value": 2.2,
        "unit": "mg/dL",
        "system": "http://unitsofmeasure.org",
        "code": "mg/dL"
      }
    },
    "request": {
      "method": "PUT",
      "url": "Observation/61788a6b-ab1d-4584-9b40-782f5ae6d44f"
    }
  }, {
    "fullUrl": "https://madie.cms.gov/MeasureReport/ccc595f3-9404-41fc-bcf6-90f45787813f",
    "resource": {
      "resourceType": "MeasureReport",
      "id": "ccc595f3-9404-41fc-bcf6-90f45787813f",
      "meta": {
        "profile": [ "http://hl7.org/fhir/us/cqfmeasures/StructureDefinition/test-case-cqfm" ]
      },
      "contained": [ {
        "resourceType": "Parameters",
        "id": "4278a632-4f90-4cb2-833e-f48009673948-parameters",
        "parameter": [ {
          "name": "subject",
          "valueString": "7d065cf3-b345-4761-a9cb-1246372b933f"
        } ]
      } ],
      "extension": [ {
        "url": "http://hl7.org/fhir/us/cqfmeasures/StructureDefinition/cqfm-inputParameters",
        "valueReference": {
          "reference": "#4278a632-4f90-4cb2-833e-f48009673948-parameters"
        }
      }, {
        "url": "http://hl7.org/fhir/us/cqfmeasures/StructureDefinition/cqfm-testCaseDescription",
        "valueMarkdown": "2TimeIncreaseInCreatUseRelevantPeriod MALE\nVScode: Numerator=[Encounter(id=NUMERPass-SCrIncrease2xExtended-02)]"
      } ],
      "modifierExtension": [ {
        "url": "http://hl7.org/fhir/us/cqfmeasures/StructureDefinition/cqfm-isTestCase",
        "valueBoolean": true
      } ],
      "status": "complete",
      "type": "individual",
      "measure": "https://madie.cms.gov/Measure/CMS832HHAKIFHIR",
      "period": {
        "start": "2026-01-01",
        "end": "2026-12-31"
      },
      "group": [ {
        "id": "67b50f879214df46de2f1fdb",
        "population": [ {
          "id": "DA0D3694-7F57-4FB9-8410-1F64E44CA01E",
          "code": {
            "coding": [ {
              "system": "http://terminology.hl7.org/CodeSystem/measure-population",
              "code": "initial-population",
              "display": "Initial Population"
            } ]
          },
          "count": 1
        }, {
          "id": "624D8554-9CB0-4BF0-882D-05C4F88BCC2C",
          "code": {
            "coding": [ {
              "system": "http://terminology.hl7.org/CodeSystem/measure-population",
              "code": "denominator",
              "display": "Denominator"
            } ]
          },
          "count": 1
        }, {
          "id": "000FF050-D4A2-4C8B-8123-4538D35D5441",
          "code": {
            "coding": [ {
              "system": "http://terminology.hl7.org/CodeSystem/measure-population",
              "code": "denominator-exclusion",
              "display": "Denominator Exclusion"
            } ]
          },
          "count": 0
        }, {
          "id": "01644D07-D9F8-403E-A66D-109ABA29BB6E",
          "code": {
            "coding": [ {
              "system": "http://terminology.hl7.org/CodeSystem/measure-population",
              "code": "numerator",
              "display": "Numerator"
            } ]
          },
          "count": 1
        } ],
        "measureScore": {
          "value": 0
        }
      } ],
      "evaluatedResource": [ {
        "reference": "Patient/7d065cf3-b345-4761-a9cb-1246372b933f"
      }, {
        "reference": "Encounter/74729dc0-8a72-4b8e-9d1b-987b68e1973b"
      }, {
        "reference": "Encounter/81525fc1-9675-4b74-93e4-2ecc41c1de50"
      }, {
        "reference": "Observation/953bcce4-5b04-4b24-b17d-a686aca25722"
      }, {
        "reference": "Observation/aca8c437-b9eb-4051-980e-9259e438fbcd"
      }, {
        "reference": "Observation/f1b1e0f5-3dc5-4586-a78e-46ed966c8139"
      }, {
        "reference": "Observation/61788a6b-ab1d-4584-9b40-782f5ae6d44f"
      }, {
        "reference": "Observation/d17e590d-c793-4c18-9100-b7699816c662"
      }, {
        "reference": "Observation/4662e258-9f3b-4ddd-b09d-2d9ea04f537c"
      }, {
        "reference": "Coverage/5abe3af5-309b-45cd-92f6-46c07fb98a6d"
      }, {
        "reference": "Organization/ab1afda0-f8ca-47fa-b9cc-637e5b1e40be"
      } ]
    },
    "request": {
      "method": "PUT",
      "url": "MeasureReport/ccc595f3-9404-41fc-bcf6-90f45787813f"
    }
  }, {
    "fullUrl": "https://madie.cms.gov/Coverage/5abe3af5-309b-45cd-92f6-46c07fb98a6d",
    "resource": {
      "resourceType": "Coverage",
      "id": "5abe3af5-309b-45cd-92f6-46c07fb98a6d",
      "meta": {
        "profile": [ "http://hl7.org/fhir/us/qicore/StructureDefinition/qicore-coverage" ]
      },
      "status": "active",
      "type": {
        "coding": [ {
          "system": "https://nahdo.org/sopt",
          "version": "9.2",
          "code": "211",
          "display": "Medicaid HMO"
        } ]
      },
      "beneficiary": {
        "reference": "Patient/7d065cf3-b345-4761-a9cb-1246372b933f"
      },
      "period": {
        "start": "2024-12-01T00:00:00.000+00:00"
      },
      "payor": [ {
        "reference": "Organization/ab1afda0-f8ca-47fa-b9cc-637e5b1e40be"
      } ]
    },
    "request": {
      "method": "PUT",
      "url": "Coverage/5abe3af5-309b-45cd-92f6-46c07fb98a6d"
    }
  }, {
    "fullUrl": "https://madie.cms.gov/Encounter/74729dc0-8a72-4b8e-9d1b-987b68e1973b",
    "resource": {
      "resourceType": "Encounter",
      "id": "74729dc0-8a72-4b8e-9d1b-987b68e1973b",
      "meta": {
        "profile": [ "http://hl7.org/fhir/us/qicore/StructureDefinition/qicore-encounter" ]
      },
      "status": "finished",
      "class": {
        "system": "http://terminology.hl7.org/CodeSystem/v3-ActCode",
        "code": "EMER",
        "display": "emergency"
      },
      "type": [ {
        "coding": [ {
          "system": "http://snomed.info/sct",
          "code": "4525004"
        } ]
      } ],
      "subject": {
        "reference": "Patient/7d065cf3-b345-4761-a9cb-1246372b933f"
      },
      "period": {
        "start": "2026-09-29T08:00:00.000+00:00",
        "end": "2026-09-30T20:00:00.000+00:00"
      }
    },
    "request": {
      "method": "PUT",
      "url": "Encounter/74729dc0-8a72-4b8e-9d1b-987b68e1973b"
    }
  }, {
    "fullUrl": "https://madie.cms.gov/Patient/7d065cf3-b345-4761-a9cb-1246372b933f",
    "resource": {
      "resourceType": "Patient",
      "id": "7d065cf3-b345-4761-a9cb-1246372b933f",
      "meta": {
        "profile": [ "http://hl7.org/fhir/us/qicore/StructureDefinition/qicore-patient" ]
      },
      "text": {
        "status": "generated",
        "div": "<div xmlns=\"http://www.w3.org/1999/xhtml\"><div class=\"hapiHeaderText\">Turns 18 day of Encounter <b>NUMERPass </b></div><table class=\"hapiPropertyTable\"><tbody><tr><td>Identifier</td><td>f0eda1c9668fdacdcad3378589bf6e0a71e7dec1618f14fca4d442ec96e402b1</td></tr><tr><td>Date of birth</td><td><span>29 September 2006</span></td></tr></tbody></table></div>"
      },
      "extension": [ {
        "url": "http://hl7.org/fhir/us/core/StructureDefinition/us-core-race",
        "extension": [ {
          "url": "ombCategory",
          "valueCoding": {
            "system": "urn:oid:2.16.840.1.113883.6.238",
            "code": "1002-5",
            "display": "American Indian or Alaska Native",
            "userSelected": true
          }
        }, {
          "url": "text",
          "valueString": "American Indian or Alaska Native"
        } ]
      }, {
        "url": "http://hl7.org/fhir/us/core/StructureDefinition/us-core-ethnicity",
        "extension": [ {
          "url": "ombCategory",
          "valueCoding": {
            "system": "urn:oid:2.16.840.1.113883.6.238",
            "code": "2135-2",
            "display": "Hispanic or Latino",
            "userSelected": true
          }
        }, {
          "url": "text",
          "valueString": "Hispanic or Latino"
        } ]
      }, {
        "url": "http://hl7.org/fhir/us/core/StructureDefinition/us-core-sex",
        "valueCode": "248153007"
      } ],
      "identifier": [ {
        "type": {
          "coding": [ {
            "system": "http://terminology.hl7.org/CodeSystem/v2-0203",
            "code": "MR"
          } ]
        },
        "system": "http://bonnie-fhir.healthit.gov/",
        "value": "NUMERPass-SCrIncrease2xExtended"
      } ],
      "active": true,
      "name": [ {
        "use": "usual",
        "family": "NUMERPass",
        "given": [ "SCrIncrease2xExtended" ]
      } ],
      "gender": "male",
      "birthDate": "1983-10-10"
    },
    "request": {
      "method": "PUT",
      "url": "Patient/7d065cf3-b345-4761-a9cb-1246372b933f"
    }
  }, {
    "fullUrl": "https://madie.cms.gov/Observation/d17e590d-c793-4c18-9100-b7699816c662",
    "resource": {
      "resourceType": "Observation",
      "id": "d17e590d-c793-4c18-9100-b7699816c662",
      "meta": {
        "profile": [ "http://hl7.org/fhir/us/qicore/StructureDefinition/qicore-observation-lab" ]
      },
      "status": "final",
      "category": [ {
        "coding": [ {
          "system": "http://terminology.hl7.org/CodeSystem/observation-category",
          "code": "laboratory",
          "display": "Laboratory"
        } ]
      } ],
      "code": {
        "coding": [ {
          "system": "http://loinc.org",
          "code": "2160-0",
          "display": "Creatinine [Mass/volume] in Serum or Plasma"
        } ]
      },
      "subject": {
        "reference": "Patient/7d065cf3-b345-4761-a9cb-1246372b933f"
      },
      "effectiveDateTime": "2026-10-05T08:00:00.000+00:00",
      "issued": "2026-10-05T08:30:00.000+00:00",
      "valueQuantity": {
        "value": 1.9,
        "unit": "mg/dL",
        "system": "http://unitsofmeasure.org",
        "code": "mg/dL"
      }
    },
    "request": {
      "method": "PUT",
      "url": "Observation/d17e590d-c793-4c18-9100-b7699816c662"
    }
  }, {
    "fullUrl": "https://madie.cms.gov/Organization/ab1afda0-f8ca-47fa-b9cc-637e5b1e40be",
    "resource": {
      "resourceType": "Organization",
      "id": "ab1afda0-f8ca-47fa-b9cc-637e5b1e40be",
      "meta": {
        "profile": [ "http://hl7.org/fhir/us/qicore/StructureDefinition/qicore-organization" ]
      },
      "identifier": [ {
        "use": "temp",
        "system": "urn:oid:2.16.840.1.113883.4.4",
        "value": "21-3259825"
      } ],
      "active": true,
      "type": [ {
        "coding": [ {
          "system": "http://terminology.hl7.org/CodeSystem/organization-type",
          "code": "pay",
          "display": "Payer"
        } ]
      } ],
      "name": "Blue Cross Blue Shield of Texas",
      "telecom": [ {
        "system": "phone",
        "value": "(+1) 972-766-6900"
      } ],
      "address": [ {
        "use": "billing",
        "type": "postal",
        "line": [ "P.O. Box 660044" ],
        "city": "Dallas",
        "state": "TX",
        "postalCode": "75266-0044",
        "country": "USA"
      } ]
    },
    "request": {
      "method": "PUT",
      "url": "Organization/ab1afda0-f8ca-47fa-b9cc-637e5b1e40be"
    }
  }, {
    "fullUrl": "https://madie.cms.gov/Observation/953bcce4-5b04-4b24-b17d-a686aca25722",
    "resource": {
      "resourceType": "Observation",
      "id": "953bcce4-5b04-4b24-b17d-a686aca25722",
      "meta": {
        "profile": [ "http://hl7.org/fhir/us/qicore/StructureDefinition/qicore-observation-lab" ]
      },
      "status": "final",
      "category": [ {
        "coding": [ {
          "system": "http://terminology.hl7.org/CodeSystem/observation-category",
          "code": "laboratory",
          "display": "Laboratory"
        } ]
      } ],
      "code": {
        "coding": [ {
          "system": "http://loinc.org",
          "version": "2.72",
          "code": "2160-0",
          "display": "Creatinine [Mass/volume] in Serum or Plasma",
          "userSelected": true
        } ]
      },
      "subject": {
        "reference": "Patient/7d065cf3-b345-4761-a9cb-1246372b933f"
      },
      "effectiveDateTime": "2026-09-30T09:00:00.000+00:00",
      "issued": "2026-09-30T09:30:00.000+00:00",
      "valueQuantity": {
        "value": 1.1,
        "unit": "mg/dL",
        "system": "http://unitsofmeasure.org",
        "code": "mg/dL"
      }
    },
    "request": {
      "method": "PUT",
      "url": "Observation/953bcce4-5b04-4b24-b17d-a686aca25722"
    }
  }, {
    "fullUrl": "https://madie.cms.gov/Observation/aca8c437-b9eb-4051-980e-9259e438fbcd",
    "resource": {
      "resourceType": "Observation",
      "id": "aca8c437-b9eb-4051-980e-9259e438fbcd",
      "meta": {
        "profile": [ "http://hl7.org/fhir/us/qicore/StructureDefinition/qicore-observation-lab" ]
      },
      "status": "final",
      "category": [ {
        "coding": [ {
          "system": "http://terminology.hl7.org/CodeSystem/observation-category",
          "code": "laboratory",
          "display": "Laboratory"
        } ]
      } ],
      "code": {
        "coding": [ {
          "system": "http://loinc.org",
          "version": "2.72",
          "code": "2160-0",
          "display": "Creatinine [Mass/volume] in Serum or Plasma",
          "userSelected": true
        } ]
      },
      "subject": {
        "reference": "Patient/7d065cf3-b345-4761-a9cb-1246372b933f"
      },
      "effectiveDateTime": "2026-09-30T08:00:00.000+00:00",
      "issued": "2026-09-30T08:30:00.000+00:00",
      "valueQuantity": {
        "value": 1,
        "unit": "mg/dL",
        "system": "http://unitsofmeasure.org",
        "code": "mg/dL"
      }
    },
    "request": {
      "method": "PUT",
      "url": "Observation/aca8c437-b9eb-4051-980e-9259e438fbcd"
    }
  }, {
    "fullUrl": "https://madie.cms.gov/Observation/4662e258-9f3b-4ddd-b09d-2d9ea04f537c",
    "resource": {
      "resourceType": "Observation",
      "id": "4662e258-9f3b-4ddd-b09d-2d9ea04f537c",
      "meta": {
        "profile": [ "http://hl7.org/fhir/us/qicore/StructureDefinition/qicore-observation-lab" ]
      },
      "status": "final",
      "category": [ {
        "coding": [ {
          "system": "http://terminology.hl7.org/CodeSystem/observation-category",
          "code": "laboratory",
          "display": "Laboratory"
        } ]
      } ],
      "code": {
        "coding": [ {
          "system": "http://loinc.org",
          "code": "2160-0",
          "display": "Creatinine [Mass/volume] in Serum or Plasma"
        } ]
      },
      "subject": {
        "reference": "Patient/7d065cf3-b345-4761-a9cb-1246372b933f"
      },
      "effectiveDateTime": "2026-10-07T08:00:00.000+00:00",
      "issued": "2026-10-07T08:30:00.000+00:00",
      "valueQuantity": {
        "value": 1.8,
        "unit": "mg/dL",
        "system": "http://unitsofmeasure.org",
        "code": "mg/dL"
      }
    },
    "request": {
      "method": "PUT",
      "url": "Observation/4662e258-9f3b-4ddd-b09d-2d9ea04f537c"
    }
  }, {
    "fullUrl": "https://madie.cms.gov/MeasureReport/9ed770bd-5deb-4f2f-96dd-6efef24ab60c",
    "resource": {
      "resourceType": "MeasureReport",
      "id": "9ed770bd-5deb-4f2f-96dd-6efef24ab60c",
      "meta": {
        "profile": [ "http://hl7.org/fhir/us/cqfmeasures/StructureDefinition/test-case-cqfm" ]
      },
      "contained": [ {
        "resourceType": "Parameters",
        "id": "34134aef-70c7-40ce-b8d0-4f6460203e55-parameters",
        "parameter": [ {
          "name": "subject",
          "valueString": "7d065cf3-b345-4761-a9cb-1246372b933f"
        } ]
      } ],
      "extension": [ {
        "url": "http://hl7.org/fhir/StructureDefinition/cqf-inputParameters",
        "valueReference": {
          "reference": "#34134aef-70c7-40ce-b8d0-4f6460203e55-parameters"
        }
      }, {
        "url": "http://hl7.org/fhir/us/cqfmeasures/StructureDefinition/cqfm-testCaseDescription",
        "valueMarkdown": "2TimeIncreaseInCreatUseRelevantPeriod MALE\nVScode: Numerator=[Encounter(id=NUMERPass-SCrIncrease2xExtended-02)]"
      } ],
      "modifierExtension": [ {
        "url": "http://hl7.org/fhir/us/cqfmeasures/StructureDefinition/cqfm-isTestCase",
        "valueBoolean": true
      } ],
      "status": "complete",
      "type": "individual",
      "measure": "https://madie.cms.gov/Measure/CMS832FHIRHHAKI",
      "period": {
        "start": "2026-01-01",
        "end": "2026-12-31"
      },
      "group": [ {
        "id": "Group_1",
        "population": [ {
          "id": "InitialPopulation_1",
          "code": {
            "coding": [ {
              "system": "http://terminology.hl7.org/CodeSystem/measure-population",
              "code": "initial-population",
              "display": "Initial Population"
            } ]
          },
          "count": 1
        }, {
          "id": "Denominator_1",
          "code": {
            "coding": [ {
              "system": "http://terminology.hl7.org/CodeSystem/measure-population",
              "code": "denominator",
              "display": "Denominator"
            } ]
          },
          "count": 1
        }, {
          "id": "DenominatorExclusion_1",
          "code": {
            "coding": [ {
              "system": "http://terminology.hl7.org/CodeSystem/measure-population",
              "code": "denominator-exclusion",
              "display": "Denominator Exclusion"
            } ]
          },
          "count": 0
        }, {
          "id": "Numerator_1",
          "code": {
            "coding": [ {
              "system": "http://terminology.hl7.org/CodeSystem/measure-population",
              "code": "numerator",
              "display": "Numerator"
            } ]
          },
          "count": 1
        } ],
        "measureScore": {
          "value": 0.0
        }
      } ],
      "evaluatedResource": [ {
        "reference": "Observation/f1b1e0f5-3dc5-4586-a78e-46ed966c8139"
      }, {
        "reference": "Encounter/81525fc1-9675-4b74-93e4-2ecc41c1de50"
      }, {
        "reference": "Observation/61788a6b-ab1d-4584-9b40-782f5ae6d44f"
      }, {
        "reference": "MeasureReport/ccc595f3-9404-41fc-bcf6-90f45787813f"
      }, {
        "reference": "Coverage/5abe3af5-309b-45cd-92f6-46c07fb98a6d"
      }, {
        "reference": "Encounter/74729dc0-8a72-4b8e-9d1b-987b68e1973b"
      }, {
        "reference": "Patient/7d065cf3-b345-4761-a9cb-1246372b933f"
      }, {
        "reference": "Observation/d17e590d-c793-4c18-9100-b7699816c662"
      }, {
        "reference": "Organization/ab1afda0-f8ca-47fa-b9cc-637e5b1e40be"
      }, {
        "reference": "Observation/953bcce4-5b04-4b24-b17d-a686aca25722"
      }, {
        "reference": "Observation/aca8c437-b9eb-4051-980e-9259e438fbcd"
      }, {
        "reference": "Observation/4662e258-9f3b-4ddd-b09d-2d9ea04f537c"
      } ]
    },
    "request": {
      "method": "PUT",
      "url": "MeasureReport/9ed770bd-5deb-4f2f-96dd-6efef24ab60c"
    }
  } ]
}