{
  "resourceType": "Bundle",
  "id": "612e6f9102c62a011f2f24d3",
  "type": "transaction",
  "entry": [ {
    "fullUrl": "https://madie.cms.gov/Patient/a1a991db-e4b4-46d4-bb51-befa8e7feaad",
    "resource": {
      "resourceType": "Patient",
      "id": "a1a991db-e4b4-46d4-bb51-befa8e7feaad",
      "meta": {
        "profile": [ "http://hl7.org/fhir/us/qicore/StructureDefinition/qicore-patient" ]
      },
      "text": {
        "status": "generated",
        "div": "<div xmlns=\"http://www.w3.org/1999/xhtml\"><div class=\"hapiHeaderText\">ThrombinDayAfterAneWRvlntDT <b>NUMERPASS </b></div><table class=\"hapiPropertyTable\"><tbody><tr><td>Identifier</td><td>477ee240f9d3831dbb4bc572c0c7b010</td></tr><tr><td>Date of birth</td><td><span>03 March 1974</span></td></tr></tbody></table></div>"
      },
      "extension": [ {
        "url": "http://hl7.org/fhir/us/core/StructureDefinition/us-core-race",
        "extension": [ {
          "url": "ombCategory",
          "valueCoding": {
            "system": "urn:oid:2.16.840.1.113883.6.238",
            "code": "1002-5",
            "display": "American Indian or Alaska Native",
            "userSelected": true
          }
        }, {
          "url": "text",
          "valueString": "American Indian or Alaska Native"
        } ]
      }, {
        "url": "http://hl7.org/fhir/us/core/StructureDefinition/us-core-ethnicity",
        "extension": [ {
          "url": "ombCategory",
          "valueCoding": {
            "system": "urn:oid:2.16.840.1.113883.6.238",
            "code": "2135-2",
            "display": "Hispanic or Latino",
            "userSelected": true
          }
        }, {
          "url": "text",
          "valueString": "Hispanic or Latino"
        } ]
      } ],
      "identifier": [ {
        "type": {
          "coding": [ {
            "system": "http://terminology.hl7.org/CodeSystem/v2-0203",
            "code": "MR"
          } ]
        },
        "system": "https://bonnie-fhir.healthit.gov/",
        "value": "612e6f9102c62a011f2f24d3"
      } ],
      "active": true,
      "name": [ {
        "use": "usual",
        "family": "NUMERPass",
        "given": [ "ThrombinDayAfterAneWRvlntDT" ]
      } ],
      "gender": "female",
      "birthDate": "1975-03-03"
    },
    "request": {
      "method": "PUT",
      "url": "Patient/a1a991db-e4b4-46d4-bb51-befa8e7feaad"
    }
  }, {
    "fullUrl": "https://madie.cms.gov/Encounter/2954e17c-2c25-451e-a669-cc85ae0421bc",
    "resource": {
      "resourceType": "Encounter",
      "id": "2954e17c-2c25-451e-a669-cc85ae0421bc",
      "meta": {
        "profile": [ "http://hl7.org/fhir/us/qicore/StructureDefinition/qicore-encounter" ]
      },
      "status": "finished",
      "class": {
        "system": "http://terminology.hl7.org/CodeSystem/v3-ActCode",
        "code": "IMP",
        "display": "inpatient encounter"
      },
      "type": [ {
        "coding": [ {
          "system": "http://snomed.info/sct",
          "code": "8715000"
        } ]
      } ],
      "subject": {
        "reference": "Patient/a1a991db-e4b4-46d4-bb51-befa8e7feaad"
      },
      "period": {
        "start": "2026-12-04T08:00:00.000+00:00",
        "end": "2026-12-30T08:15:00.000+00:00"
      },
      "length": {
        "value": 26.0,
        "unit": "days"
      },
      "location": [ {
        "location": {
          "reference": "Location/41797d60-5165-4c1e-b7cc-828d2c34a6c4"
        },
        "period": {
          "start": "2026-12-06T08:00:00.000+00:00",
          "end": "2026-12-12T08:15:00.000+00:00"
        }
      } ]
    },
    "request": {
      "method": "PUT",
      "url": "Encounter/2954e17c-2c25-451e-a669-cc85ae0421bc"
    }
  }, {
    "fullUrl": "https://madie.cms.gov/Coverage/16c99fc8-3254-4b9a-bf92-883bfe6b4b0b",
    "resource": {
      "resourceType": "Coverage",
      "id": "16c99fc8-3254-4b9a-bf92-883bfe6b4b0b",
      "status": "active",
      "beneficiary": {
        "reference": "Patient/a1a991db-e4b4-46d4-bb51-befa8e7feaad"
      },
      "period": {
        "start": "1975-03-03T08:00:00.000+00:00"
      },
      "payor": [ {
        "reference": "Organization/bd84d1fc-a2ec-4c3d-9593-62dcebae7b2f"
      } ]
    },
    "request": {
      "method": "PUT",
      "url": "Coverage/16c99fc8-3254-4b9a-bf92-883bfe6b4b0b"
    }
  }, {
    "fullUrl": "https://madie.cms.gov/MedicationAdministration/3276145f-1a3b-4852-8725-df1f37071fa2",
    "resource": {
      "resourceType": "MedicationAdministration",
      "id": "3276145f-1a3b-4852-8725-df1f37071fa2",
      "meta": {
        "profile": [ "http://hl7.org/fhir/us/qicore/StructureDefinition/qicore-medicationadministration" ]
      },
      "status": "completed",
      "medicationCodeableConcept": {
        "coding": [ {
          "system": "http://www.nlm.nih.gov/research/umls/rxnorm",
          "code": "308351"
        } ]
      },
      "subject": {
        "reference": "Patient/a1a991db-e4b4-46d4-bb51-befa8e7feaad"
      },
      "effectiveDateTime": "2026-12-08T11:30:00.000+00:00"
    },
    "request": {
      "method": "PUT",
      "url": "MedicationAdministration/3276145f-1a3b-4852-8725-df1f37071fa2"
    }
  }, {
    "fullUrl": "https://madie.cms.gov/Procedure/4edcd490-2016-493f-bc29-7d28ff7a23bc",
    "resource": {
      "resourceType": "Procedure",
      "id": "4edcd490-2016-493f-bc29-7d28ff7a23bc",
      "meta": {
        "profile": [ "http://hl7.org/fhir/us/qicore/StructureDefinition/qicore-procedure" ]
      },
      "extension": [ {
        "url": "http://hl7.org/fhir/us/qicore/StructureDefinition/qicore-recorded",
        "valueDateTime": "2013-12-07T13:35:00.000+00:00"
      } ],
      "status": "completed",
      "code": {
        "coding": [ {
          "system": "http://www.cms.gov/Medicare/Coding/ICD10",
          "code": "3E030FZ"
        } ]
      },
      "subject": {
        "reference": "Patient/a1a991db-e4b4-46d4-bb51-befa8e7feaad"
      },
      "performedDateTime": "2026-12-07T11:15:00.000+00:00"
    },
    "request": {
      "method": "PUT",
      "url": "Procedure/4edcd490-2016-493f-bc29-7d28ff7a23bc"
    }
  }, {
    "fullUrl": "https://madie.cms.gov/Location/41797d60-5165-4c1e-b7cc-828d2c34a6c4",
    "resource": {
      "resourceType": "Location",
      "id": "41797d60-5165-4c1e-b7cc-828d2c34a6c4",
      "meta": {
        "profile": [ "http://hl7.org/fhir/us/qicore/StructureDefinition/qicore-location" ]
      },
      "identifier": [ {
        "use": "usual",
        "system": "http://exampleoflocation.com",
        "value": "B1-S.F2"
      } ],
      "name": "Medical Surgical East, first floor",
      "type": [ {
        "coding": [ {
          "system": "https://www.cdc.gov/nhsn/cdaportal/terminology/codesystem/hsloc.html",
          "code": "1025-6",
          "display": "Trauma Critical Care",
          "userSelected": true
        } ]
      } ]
    },
    "request": {
      "method": "PUT",
      "url": "Location/41797d60-5165-4c1e-b7cc-828d2c34a6c4"
    }
  }, {
    "fullUrl": "https://madie.cms.gov/Organization/bd84d1fc-a2ec-4c3d-9593-62dcebae7b2f",
    "resource": {
      "resourceType": "Organization",
      "id": "bd84d1fc-a2ec-4c3d-9593-62dcebae7b2f",
      "meta": {
        "profile": [ "http://hl7.org/fhir/us/qicore/StructureDefinition/qicore-organization" ]
      },
      "identifier": [ {
        "use": "temp",
        "system": "urn:oid:2.16.840.1.113883.4.4",
        "value": "21-3259825"
      } ],
      "active": true,
      "type": [ {
        "coding": [ {
          "system": "http://terminology.hl7.org/CodeSystem/organization-type",
          "code": "pay",
          "display": "Payer"
        } ]
      } ],
      "name": "Blue Cross Blue Shield of Texas",
      "telecom": [ {
        "system": "phone",
        "value": "(+1) 972-766-6900"
      } ],
      "address": [ {
        "use": "billing",
        "type": "postal",
        "line": [ "P.O. Box 660044" ],
        "city": "Dallas",
        "state": "TX",
        "postalCode": "75266-0044",
        "country": "USA"
      } ]
    },
    "request": {
      "method": "PUT",
      "url": "Organization/bd84d1fc-a2ec-4c3d-9593-62dcebae7b2f"
    }
  }, {
    "fullUrl": "https://madie.cms.gov/Practitioner/dc52af3f-192a-499e-b7c7-75c2265cc122",
    "resource": {
      "resourceType": "Practitioner",
      "id": "dc52af3f-192a-499e-b7c7-75c2265cc122",
      "identifier": [ {
        "system": "http://hl7.org/fhir/sid/us-npi",
        "value": "123456"
      } ],
      "name": [ {
        "family": "Evil",
        "prefix": [ "Dr" ]
      } ]
    },
    "request": {
      "method": "PUT",
      "url": "Practitioner/dc52af3f-192a-499e-b7c7-75c2265cc122"
    }
  }, {
    "fullUrl": "https://madie.cms.gov/MeasureReport/0b2c379e-fd06-45a4-a6ed-0eb485a1b472",
    "resource": {
      "resourceType": "MeasureReport",
      "id": "0b2c379e-fd06-45a4-a6ed-0eb485a1b472",
      "meta": {
        "profile": [ "http://hl7.org/fhir/us/cqfmeasures/StructureDefinition/test-case-cqfm" ]
      },
      "contained": [ {
        "resourceType": "Parameters",
        "id": "cc851f3d-a2b2-4eb5-b3ca-031fb9bb9808-parameters",
        "parameter": [ {
          "name": "subject",
          "valueString": "a1a991db-e4b4-46d4-bb51-befa8e7feaad"
        } ]
      } ],
      "extension": [ {
        "url": "http://hl7.org/fhir/StructureDefinition/cqf-inputParameters",
        "valueReference": {
          "reference": "#cc851f3d-a2b2-4eb5-b3ca-031fb9bb9808-parameters"
        }
      }, {
        "url": "http://hl7.org/fhir/us/cqfmeasures/StructureDefinition/cqfm-testCaseDescription",
        "valueMarkdown": "ThrombinDayAfterAnes_MedAdmRvlntDT_PorcRvlntDT\n"
      } ],
      "modifierExtension": [ {
        "url": "http://hl7.org/fhir/us/cqfmeasures/StructureDefinition/cqfm-isTestCase",
        "valueBoolean": true
      } ],
      "status": "complete",
      "type": "individual",
      "measure": "https://madie.cms.gov/Measure/CMS190FHIRVTEProphylaxisICU",
      "period": {
        "start": "2026-01-01",
        "end": "2026-12-31"
      },
      "group": [ {
        "id": "Group_1",
        "population": [ {
          "id": "InitialPopulation_1",
          "code": {
            "coding": [ {
              "system": "http://terminology.hl7.org/CodeSystem/measure-population",
              "code": "initial-population",
              "display": "Initial Population"
            } ]
          },
          "count": 1
        }, {
          "id": "Denominator_1",
          "code": {
            "coding": [ {
              "system": "http://terminology.hl7.org/CodeSystem/measure-population",
              "code": "denominator",
              "display": "Denominator"
            } ]
          },
          "count": 1
        }, {
          "id": "DenominatorExclusion_1",
          "code": {
            "coding": [ {
              "system": "http://terminology.hl7.org/CodeSystem/measure-population",
              "code": "denominator-exclusion",
              "display": "Denominator Exclusion"
            } ]
          },
          "count": 0
        }, {
          "id": "Numerator_1",
          "code": {
            "coding": [ {
              "system": "http://terminology.hl7.org/CodeSystem/measure-population",
              "code": "numerator",
              "display": "Numerator"
            } ]
          },
          "count": 1
        }, {
          "id": "DenominatorException_1",
          "code": {
            "coding": [ {
              "system": "http://terminology.hl7.org/CodeSystem/measure-population",
              "code": "denominator-exception",
              "display": "Denominator Exception"
            } ]
          },
          "count": 0
        } ],
        "measureScore": {
          "value": 0.0
        }
      } ],
      "evaluatedResource": [ {
        "reference": "Patient/a1a991db-e4b4-46d4-bb51-befa8e7feaad"
      }, {
        "reference": "Encounter/2954e17c-2c25-451e-a669-cc85ae0421bc"
      }, {
        "reference": "Coverage/16c99fc8-3254-4b9a-bf92-883bfe6b4b0b"
      }, {
        "reference": "MedicationAdministration/3276145f-1a3b-4852-8725-df1f37071fa2"
      }, {
        "reference": "Procedure/4edcd490-2016-493f-bc29-7d28ff7a23bc"
      }, {
        "reference": "Location/41797d60-5165-4c1e-b7cc-828d2c34a6c4"
      }, {
        "reference": "Organization/bd84d1fc-a2ec-4c3d-9593-62dcebae7b2f"
      }, {
        "reference": "Practitioner/dc52af3f-192a-499e-b7c7-75c2265cc122"
      } ]
    },
    "request": {
      "method": "PUT",
      "url": "MeasureReport/0b2c379e-fd06-45a4-a6ed-0eb485a1b472"
    }
  } ]
}