{
  "resourceType": "Bundle",
  "id": "6129135702c62a011f2e75cf",
  "type": "transaction",
  "entry": [ {
    "fullUrl": "https://madie.cms.gov/Patient/23a8b7f2-ec1b-4d2e-9ad0-5565ce7bba8c",
    "resource": {
      "resourceType": "Patient",
      "id": "23a8b7f2-ec1b-4d2e-9ad0-5565ce7bba8c",
      "meta": {
        "profile": [ "http://hl7.org/fhir/us/qicore/StructureDefinition/qicore-patient" ]
      },
      "text": {
        "status": "generated",
        "div": "<div xmlns=\"http://www.w3.org/1999/xhtml\"><div class=\"hapiHeaderText\">BadDef_NoneSTK <b>IPFAIL </b></div><table class=\"hapiPropertyTable\"><tbody><tr><td>Identifier</td><td>05f04bc3a037918e7f8e8e698f994329</td></tr><tr><td>Date of birth</td><td><span>21 August 1994</span></td></tr></tbody></table></div>"
      },
      "extension": [ {
        "url": "http://hl7.org/fhir/us/core/StructureDefinition/us-core-race",
        "extension": [ {
          "url": "ombCategory",
          "valueCoding": {
            "system": "urn:oid:2.16.840.1.113883.6.238",
            "code": "1002-5",
            "display": "American Indian or Alaska Native",
            "userSelected": true
          }
        }, {
          "url": "text",
          "valueString": "American Indian or Alaska Native"
        } ]
      }, {
        "url": "http://hl7.org/fhir/us/core/StructureDefinition/us-core-ethnicity",
        "extension": [ {
          "url": "ombCategory",
          "valueCoding": {
            "system": "urn:oid:2.16.840.1.113883.6.238",
            "code": "2135-2",
            "display": "Hispanic or Latino",
            "userSelected": true
          }
        }, {
          "url": "text",
          "valueString": "Hispanic or Latino"
        } ]
      } ],
      "identifier": [ {
        "type": {
          "coding": [ {
            "system": "http://terminology.hl7.org/CodeSystem/v2-0203",
            "code": "MR"
          } ]
        },
        "system": "https://bonnie-fhir.healthit.gov/",
        "value": "6129135702c62a011f2e75cf"
      } ],
      "active": true,
      "name": [ {
        "use": "usual",
        "family": "IPFail",
        "given": [ "BadDef_NoneSTK" ]
      } ],
      "gender": "male",
      "birthDate": "2004-08-21"
    },
    "request": {
      "method": "PUT",
      "url": "Patient/23a8b7f2-ec1b-4d2e-9ad0-5565ce7bba8c"
    }
  }, {
    "fullUrl": "https://madie.cms.gov/Encounter/eadab1aa-e607-458c-a509-026fb51c9088",
    "resource": {
      "resourceType": "Encounter",
      "id": "eadab1aa-e607-458c-a509-026fb51c9088",
      "meta": {
        "profile": [ "http://hl7.org/fhir/us/qicore/StructureDefinition/qicore-encounter" ]
      },
      "status": "finished",
      "class": {
        "system": "http://terminology.hl7.org/CodeSystem/v3-ActCode",
        "code": "IMP",
        "display": "inpatient encounter",
        "userSelected": true
      },
      "type": [ {
        "coding": [ {
          "system": "http://snomed.info/sct",
          "code": "32485007"
        } ]
      } ],
      "subject": {
        "reference": "Patient/23a8b7f2-ec1b-4d2e-9ad0-5565ce7bba8c"
      },
      "period": {
        "start": "2026-08-21T09:30:00.000+00:00",
        "end": "2026-12-19T10:30:00.000+00:00"
      },
      "length": {
        "value": 120.0,
        "unit": "days"
      }
    },
    "request": {
      "method": "PUT",
      "url": "Encounter/eadab1aa-e607-458c-a509-026fb51c9088"
    }
  }, {
    "fullUrl": "https://madie.cms.gov/Coverage/e5150628-43ea-47a4-aa59-cb8ad2540952",
    "resource": {
      "resourceType": "Coverage",
      "id": "e5150628-43ea-47a4-aa59-cb8ad2540952",
      "meta": {
        "profile": [ "http://hl7.org/fhir/us/qicore/StructureDefinition/qicore-coverage" ]
      },
      "status": "active",
      "beneficiary": {
        "reference": "Patient/23a8b7f2-ec1b-4d2e-9ad0-5565ce7bba8c"
      },
      "payor": [ {
        "reference": "Organization/4d732193-758c-4471-b8ee-66b346fdf496"
      } ]
    },
    "request": {
      "method": "PUT",
      "url": "Coverage/e5150628-43ea-47a4-aa59-cb8ad2540952"
    }
  }, {
    "fullUrl": "https://madie.cms.gov/Organization/4d732193-758c-4471-b8ee-66b346fdf496",
    "resource": {
      "resourceType": "Organization",
      "id": "4d732193-758c-4471-b8ee-66b346fdf496",
      "meta": {
        "profile": [ "http://hl7.org/fhir/us/qicore/StructureDefinition/qicore-organization" ]
      },
      "identifier": [ {
        "use": "temp",
        "system": "urn:oid:2.16.840.1.113883.4.4",
        "value": "21-3259825"
      } ],
      "active": true,
      "type": [ {
        "coding": [ {
          "system": "http://terminology.hl7.org/CodeSystem/organization-type",
          "code": "pay",
          "display": "Payer"
        } ]
      } ],
      "name": "Blue Cross Blue Shield of Texas",
      "telecom": [ {
        "system": "phone",
        "value": "(+1) 972-766-6900"
      } ],
      "address": [ {
        "use": "billing",
        "type": "postal",
        "line": [ "P.O. Box 660044" ],
        "city": "Dallas",
        "state": "TX",
        "postalCode": "75266-0044",
        "country": "USA"
      } ]
    },
    "request": {
      "method": "PUT",
      "url": "Organization/4d732193-758c-4471-b8ee-66b346fdf496"
    }
  }, {
    "fullUrl": "https://madie.cms.gov/MeasureReport/af92ac70-b724-429d-ab36-9ac0cf652985",
    "resource": {
      "resourceType": "MeasureReport",
      "id": "af92ac70-b724-429d-ab36-9ac0cf652985",
      "meta": {
        "profile": [ "http://hl7.org/fhir/us/cqfmeasures/StructureDefinition/test-case-cqfm" ]
      },
      "contained": [ {
        "resourceType": "Parameters",
        "id": "31c9a51f-5cae-490d-b402-ad0b65c56e86-parameters",
        "parameter": [ {
          "name": "subject",
          "valueString": "23a8b7f2-ec1b-4d2e-9ad0-5565ce7bba8c"
        } ]
      } ],
      "extension": [ {
        "url": "http://hl7.org/fhir/StructureDefinition/cqf-inputParameters",
        "valueReference": {
          "reference": "#31c9a51f-5cae-490d-b402-ad0b65c56e86-parameters"
        }
      }, {
        "url": "http://hl7.org/fhir/us/cqfmeasures/StructureDefinition/cqfm-testCaseDescription",
        "valueMarkdown": "Patient is 18 with Non-Elective Inpatient Encounter (LOS 120 days) ends during MP with no principal diagnosis of stroke\n"
      } ],
      "modifierExtension": [ {
        "url": "http://hl7.org/fhir/us/cqfmeasures/StructureDefinition/cqfm-isTestCase",
        "valueBoolean": true
      } ],
      "status": "complete",
      "type": "individual",
      "measure": "https://madie.cms.gov/Measure/CMS104FHIRSTKDCAntithrombotic",
      "period": {
        "start": "2026-01-01",
        "end": "2026-12-31"
      },
      "group": [ {
        "id": "Group_1",
        "population": [ {
          "id": "InitialPopulation_1",
          "code": {
            "coding": [ {
              "system": "http://terminology.hl7.org/CodeSystem/measure-population",
              "code": "initial-population",
              "display": "Initial Population"
            } ]
          },
          "count": 0
        }, {
          "id": "Denominator_1",
          "code": {
            "coding": [ {
              "system": "http://terminology.hl7.org/CodeSystem/measure-population",
              "code": "denominator",
              "display": "Denominator"
            } ]
          },
          "count": 0
        }, {
          "id": "DenominatorExclusion_1",
          "code": {
            "coding": [ {
              "system": "http://terminology.hl7.org/CodeSystem/measure-population",
              "code": "denominator-exclusion",
              "display": "Denominator Exclusion"
            } ]
          },
          "count": 0
        }, {
          "id": "Numerator_1",
          "code": {
            "coding": [ {
              "system": "http://terminology.hl7.org/CodeSystem/measure-population",
              "code": "numerator",
              "display": "Numerator"
            } ]
          },
          "count": 0
        }, {
          "id": "DenominatorException_1",
          "code": {
            "coding": [ {
              "system": "http://terminology.hl7.org/CodeSystem/measure-population",
              "code": "denominator-exception",
              "display": "Denominator Exception"
            } ]
          },
          "count": 0
        } ],
        "measureScore": {
          "value": 0.0
        }
      } ],
      "evaluatedResource": [ {
        "reference": "Patient/23a8b7f2-ec1b-4d2e-9ad0-5565ce7bba8c"
      }, {
        "reference": "Encounter/eadab1aa-e607-458c-a509-026fb51c9088"
      }, {
        "reference": "Coverage/e5150628-43ea-47a4-aa59-cb8ad2540952"
      }, {
        "reference": "Organization/4d732193-758c-4471-b8ee-66b346fdf496"
      } ]
    },
    "request": {
      "method": "PUT",
      "url": "MeasureReport/af92ac70-b724-429d-ab36-9ac0cf652985"
    }
  } ]
}