{
  "resourceType": "Bundle",
  "id": "612e6b2902c62a011f2ecaf3",
  "type": "transaction",
  "entry": [ {
    "fullUrl": "https://madie.cms.gov/Patient/73673965-9b35-446e-bad7-1701991e6906",
    "resource": {
      "resourceType": "Patient",
      "id": "73673965-9b35-446e-bad7-1701991e6906",
      "meta": {
        "profile": [ "http://hl7.org/fhir/us/qicore/StructureDefinition/qicore-patient" ]
      },
      "text": {
        "status": "generated",
        "div": "<div xmlns=\"http://www.w3.org/1999/xhtml\"><div class=\"hapiHeaderText\">VTERiskAssStartEDendOnIPEncStart <b>NUMERPASS </b></div><table class=\"hapiPropertyTable\"><tbody><tr><td>Identifier</td><td>9eeaae30f2c13f342ba722a8c92cd6bf</td></tr><tr><td>Date of birth</td><td><span>02 January 1974</span></td></tr></tbody></table></div>"
      },
      "extension": [ {
        "url": "http://hl7.org/fhir/us/core/StructureDefinition/us-core-race",
        "extension": [ {
          "url": "ombCategory",
          "valueCoding": {
            "system": "urn:oid:2.16.840.1.113883.6.238",
            "code": "1002-5",
            "display": "American Indian or Alaska Native",
            "userSelected": true
          }
        }, {
          "url": "text",
          "valueString": "American Indian or Alaska Native"
        } ]
      }, {
        "url": "http://hl7.org/fhir/us/core/StructureDefinition/us-core-ethnicity",
        "extension": [ {
          "url": "ombCategory",
          "valueCoding": {
            "system": "urn:oid:2.16.840.1.113883.6.238",
            "code": "2135-2",
            "display": "Hispanic or Latino",
            "userSelected": true
          }
        }, {
          "url": "text",
          "valueString": "Hispanic or Latino"
        } ]
      } ],
      "identifier": [ {
        "type": {
          "coding": [ {
            "system": "http://terminology.hl7.org/CodeSystem/v2-0203",
            "code": "MR"
          } ]
        },
        "system": "https://bonnie-fhir.healthit.gov/",
        "value": "612e6b2902c62a011f2ecaf3"
      } ],
      "active": true,
      "name": [ {
        "use": "usual",
        "family": "NUMERPass",
        "given": [ "VTERiskAssStartEDendOnIPEncStart" ]
      } ],
      "gender": "male",
      "birthDate": "1975-01-02"
    },
    "request": {
      "method": "PUT",
      "url": "Patient/73673965-9b35-446e-bad7-1701991e6906"
    }
  }, {
    "fullUrl": "https://madie.cms.gov/Encounter/edbfe906-e8d2-442c-b9ec-f753a2f8f47a",
    "resource": {
      "resourceType": "Encounter",
      "id": "edbfe906-e8d2-442c-b9ec-f753a2f8f47a",
      "meta": {
        "profile": [ "http://hl7.org/fhir/us/qicore/StructureDefinition/qicore-encounter" ]
      },
      "status": "finished",
      "class": {
        "system": "http://terminology.hl7.org/CodeSystem/v3-ActCode",
        "code": "EMER",
        "display": "emergency"
      },
      "type": [ {
        "coding": [ {
          "system": "http://snomed.info/sct",
          "code": "4525004"
        } ]
      } ],
      "subject": {
        "reference": "Patient/73673965-9b35-446e-bad7-1701991e6906"
      },
      "period": {
        "start": "2026-11-01T06:00:00.000+00:00",
        "end": "2026-11-01T08:00:00.000+00:00"
      },
      "length": {
        "value": 0,
        "unit": "days"
      }
    },
    "request": {
      "method": "PUT",
      "url": "Encounter/edbfe906-e8d2-442c-b9ec-f753a2f8f47a"
    }
  }, {
    "fullUrl": "https://madie.cms.gov/Encounter/07edc2b3-68b6-4a2d-a034-f0a772ac5f70",
    "resource": {
      "resourceType": "Encounter",
      "id": "07edc2b3-68b6-4a2d-a034-f0a772ac5f70",
      "meta": {
        "profile": [ "http://hl7.org/fhir/us/qicore/StructureDefinition/qicore-encounter" ]
      },
      "status": "finished",
      "class": {
        "system": "http://terminology.hl7.org/CodeSystem/v3-ActCode",
        "code": "IMP",
        "display": "inpatient encounter"
      },
      "type": [ {
        "coding": [ {
          "system": "http://snomed.info/sct",
          "code": "8715000"
        } ]
      } ],
      "subject": {
        "reference": "Patient/73673965-9b35-446e-bad7-1701991e6906"
      },
      "period": {
        "start": "2026-11-01T08:00:00.000+00:00",
        "end": "2026-11-26T08:15:00.000+00:00"
      },
      "length": {
        "value": 25,
        "unit": "days"
      }
    },
    "request": {
      "method": "PUT",
      "url": "Encounter/07edc2b3-68b6-4a2d-a034-f0a772ac5f70"
    }
  }, {
    "fullUrl": "https://madie.cms.gov/Observation/c1d29293-e7f0-48bd-8b69-2162d327935d",
    "resource": {
      "resourceType": "Observation",
      "id": "c1d29293-e7f0-48bd-8b69-2162d327935d",
      "meta": {
        "profile": [ "http://hl7.org/fhir/us/qicore/StructureDefinition/qicore-simple-observation" ]
      },
      "status": "final",
      "category": [ {
        "coding": [ {
          "system": "http://terminology.hl7.org/CodeSystem/observation-category",
          "code": "exam",
          "display": "Exam",
          "userSelected": true
        } ]
      } ],
      "code": {
        "coding": [ {
          "system": "http://loinc.org",
          "code": "72136-5"
        } ]
      },
      "subject": {
        "reference": "Patient/73673965-9b35-446e-bad7-1701991e6906"
      },
      "effectivePeriod": {
        "start": "2026-11-01T07:15:00.000+00:00"
      },
      "valueCodeableConcept": {
        "coding": [ {
          "system": "http://snomed.info/sct",
          "code": "260362008",
          "display": "Low Risk"
        } ]
      }
    },
    "request": {
      "method": "PUT",
      "url": "Observation/c1d29293-e7f0-48bd-8b69-2162d327935d"
    }
  }, {
    "fullUrl": "https://madie.cms.gov/Coverage/bbbfd07f-edef-4850-a970-93d5d6ae5363",
    "resource": {
      "resourceType": "Coverage",
      "id": "bbbfd07f-edef-4850-a970-93d5d6ae5363",
      "status": "active",
      "beneficiary": {
        "reference": "Patient/73673965-9b35-446e-bad7-1701991e6906"
      },
      "period": {
        "start": "1975-01-02T08:00:00.000+00:00"
      },
      "payor": [ {
        "reference": "Organization/4150d894-2853-4b0d-b4cf-feaf1f1475ac"
      } ]
    },
    "request": {
      "method": "PUT",
      "url": "Coverage/bbbfd07f-edef-4850-a970-93d5d6ae5363"
    }
  }, {
    "fullUrl": "https://madie.cms.gov/Organization/4150d894-2853-4b0d-b4cf-feaf1f1475ac",
    "resource": {
      "resourceType": "Organization",
      "id": "4150d894-2853-4b0d-b4cf-feaf1f1475ac",
      "meta": {
        "profile": [ "http://hl7.org/fhir/us/qicore/StructureDefinition/qicore-organization" ]
      },
      "identifier": [ {
        "use": "temp",
        "system": "urn:oid:2.16.840.1.113883.4.4",
        "value": "21-3259825"
      } ],
      "active": true,
      "type": [ {
        "coding": [ {
          "system": "http://terminology.hl7.org/CodeSystem/organization-type",
          "code": "pay",
          "display": "Payer"
        } ]
      } ],
      "name": "Blue Cross Blue Shield of Texas",
      "telecom": [ {
        "system": "phone",
        "value": "(+1) 972-766-6900"
      } ],
      "address": [ {
        "use": "billing",
        "type": "postal",
        "line": [ "P.O. Box 660044" ],
        "city": "Dallas",
        "state": "TX",
        "postalCode": "75266-0044",
        "country": "USA"
      } ]
    },
    "request": {
      "method": "PUT",
      "url": "Organization/4150d894-2853-4b0d-b4cf-feaf1f1475ac"
    }
  }, {
    "fullUrl": "https://madie.cms.gov/Practitioner/3b438d83-aa9a-4edd-a2e0-f390eb5488a8",
    "resource": {
      "resourceType": "Practitioner",
      "id": "3b438d83-aa9a-4edd-a2e0-f390eb5488a8",
      "identifier": [ {
        "system": "http://hl7.org/fhir/sid/us-npi",
        "value": "123456"
      } ],
      "name": [ {
        "family": "Evil",
        "prefix": [ "Dr" ]
      } ]
    },
    "request": {
      "method": "PUT",
      "url": "Practitioner/3b438d83-aa9a-4edd-a2e0-f390eb5488a8"
    }
  }, {
    "fullUrl": "https://madie.cms.gov/MeasureReport/62d2864d-f0e7-4af5-a613-22bd893ae90b",
    "resource": {
      "resourceType": "MeasureReport",
      "id": "62d2864d-f0e7-4af5-a613-22bd893ae90b",
      "meta": {
        "profile": [ "http://hl7.org/fhir/us/cqfmeasures/StructureDefinition/test-case-cqfm" ]
      },
      "contained": [ {
        "resourceType": "Parameters",
        "id": "a42355cb-a013-4d86-8295-bdb10ab15133-parameters",
        "parameter": [ {
          "name": "subject",
          "valueString": "73673965-9b35-446e-bad7-1701991e6906"
        } ]
      } ],
      "extension": [ {
        "url": "http://hl7.org/fhir/StructureDefinition/cqf-inputParameters",
        "valueReference": {
          "reference": "#a42355cb-a013-4d86-8295-bdb10ab15133-parameters"
        }
      }, {
        "url": "http://hl7.org/fhir/us/cqfmeasures/StructureDefinition/cqfm-testCaseDescription",
        "valueMarkdown": "\">18, LOS<120 day,Risk, RCA period start in ED (RCA endtime is null, and ED.end = IP.start\n\"\n"
      } ],
      "modifierExtension": [ {
        "url": "http://hl7.org/fhir/us/cqfmeasures/StructureDefinition/cqfm-isTestCase",
        "valueBoolean": true
      } ],
      "status": "complete",
      "type": "individual",
      "measure": "https://madie.cms.gov/Measure/CMS108FHIRVTEProphylaxis",
      "period": {
        "start": "2026-01-01",
        "end": "2026-12-31"
      },
      "group": [ {
        "id": "Group_1",
        "population": [ {
          "id": "InitialPopulation_1",
          "code": {
            "coding": [ {
              "system": "http://terminology.hl7.org/CodeSystem/measure-population",
              "code": "initial-population",
              "display": "Initial Population"
            } ]
          },
          "count": 1
        }, {
          "id": "Denominator_1",
          "code": {
            "coding": [ {
              "system": "http://terminology.hl7.org/CodeSystem/measure-population",
              "code": "denominator",
              "display": "Denominator"
            } ]
          },
          "count": 1
        }, {
          "id": "DenominatorExclusion_1",
          "code": {
            "coding": [ {
              "system": "http://terminology.hl7.org/CodeSystem/measure-population",
              "code": "denominator-exclusion",
              "display": "Denominator Exclusion"
            } ]
          },
          "count": 0
        }, {
          "id": "Numerator_1",
          "code": {
            "coding": [ {
              "system": "http://terminology.hl7.org/CodeSystem/measure-population",
              "code": "numerator",
              "display": "Numerator"
            } ]
          },
          "count": 1
        } ],
        "measureScore": {
          "value": 0.0
        }
      } ],
      "evaluatedResource": [ {
        "reference": "Patient/73673965-9b35-446e-bad7-1701991e6906"
      }, {
        "reference": "Encounter/edbfe906-e8d2-442c-b9ec-f753a2f8f47a"
      }, {
        "reference": "Encounter/07edc2b3-68b6-4a2d-a034-f0a772ac5f70"
      }, {
        "reference": "Observation/c1d29293-e7f0-48bd-8b69-2162d327935d"
      }, {
        "reference": "Coverage/bbbfd07f-edef-4850-a970-93d5d6ae5363"
      }, {
        "reference": "Organization/4150d894-2853-4b0d-b4cf-feaf1f1475ac"
      }, {
        "reference": "Practitioner/3b438d83-aa9a-4edd-a2e0-f390eb5488a8"
      } ]
    },
    "request": {
      "method": "PUT",
      "url": "MeasureReport/62d2864d-f0e7-4af5-a613-22bd893ae90b"
    }
  } ]
}