{
  "resourceType": "Bundle",
  "id": "SecondHighBPECGMedsNonPharm",
  "type": "collection",
  "entry": [ {
    "fullUrl": "https://madie.cms.gov/Patient/c3f55d79-b10c-4d2b-8699-a7538867159d",
    "resource": {
      "resourceType": "Patient",
      "id": "c3f55d79-b10c-4d2b-8699-a7538867159d",
      "meta": {
        "profile": [ "http://hl7.org/fhir/us/qicore/StructureDefinition/qicore-patient" ]
      },
      "extension": [ {
        "url": "http://hl7.org/fhir/us/core/StructureDefinition/us-core-race",
        "extension": [ {
          "url": "ombCategory",
          "valueCoding": {
            "system": "urn:oid:2.16.840.1.113883.6.238",
            "code": "1002-5",
            "display": "American Indian or Alaska Native",
            "userSelected": true
          }
        }, {
          "url": "text",
          "valueString": "American Indian or Alaska Native"
        } ]
      }, {
        "url": "http://hl7.org/fhir/us/core/StructureDefinition/us-core-ethnicity",
        "extension": [ {
          "url": "ombCategory",
          "valueCoding": {
            "system": "urn:oid:2.16.840.1.113883.6.238",
            "code": "2135-2",
            "display": "Hispanic or Latino",
            "userSelected": true
          }
        }, {
          "url": "text",
          "valueString": "Hispanic or Latino"
        } ]
      } ],
      "identifier": [ {
        "type": {
          "coding": [ {
            "system": "http://terminology.hl7.org/CodeSystem/v2-0203",
            "code": "MR"
          } ]
        },
        "system": "https://bonnie-fhir.healthit.gov/",
        "value": "SecondHighBPECGMedsNonPharm"
      } ],
      "name": [ {
        "family": "NUMERPass",
        "given": [ "SecondHighBPECGMedsNonPharm" ]
      } ],
      "gender": "male",
      "birthDate": "1976-12-31"
    }
  }, {
    "fullUrl": "https://madie.cms.gov/Encounter/7242f613-dbb3-4e2d-a8c8-7891897ae07f",
    "resource": {
      "resourceType": "Encounter",
      "id": "7242f613-dbb3-4e2d-a8c8-7891897ae07f",
      "meta": {
        "profile": [ "http://hl7.org/fhir/us/qicore/StructureDefinition/qicore-encounter" ]
      },
      "status": "finished",
      "class": {
        "system": "http://terminology.hl7.org/CodeSystem/v3-ActCode",
        "code": "AMB",
        "display": "ambulatory"
      },
      "type": [ {
        "coding": [ {
          "system": "http://snomed.info/sct",
          "version": "2022-03",
          "code": "103705002",
          "display": "Patient status observation (procedure)",
          "userSelected": true
        } ]
      } ],
      "subject": {
        "reference": "Patient/c3f55d79-b10c-4d2b-8699-a7538867159d"
      },
      "period": {
        "start": "2026-01-01T08:00:00.000Z",
        "end": "2026-01-01T08:45:00.000Z"
      }
    }
  }, {
    "fullUrl": "https://madie.cms.gov/ServiceRequest/6af65b48-013d-4f8f-8b9e-bf83dc44ebc0",
    "resource": {
      "resourceType": "ServiceRequest",
      "id": "6af65b48-013d-4f8f-8b9e-bf83dc44ebc0",
      "meta": {
        "profile": [ "http://hl7.org/fhir/us/qicore/StructureDefinition/qicore-servicerequest" ]
      },
      "status": "active",
      "intent": "order",
      "code": {
        "coding": [ {
          "system": "http://snomed.info/sct",
          "version": "2022-03",
          "code": "183617005",
          "display": "Follow-up 1 day (finding)",
          "userSelected": true
        } ]
      },
      "subject": {
        "reference": "Patient/c3f55d79-b10c-4d2b-8699-a7538867159d"
      },
      "authoredOn": "2026-01-01T08:30:00.000Z"
    }
  }, {
    "fullUrl": "https://madie.cms.gov/Encounter/74d2c4e5-d7c5-45c4-9fb0-7049331116e6",
    "resource": {
      "resourceType": "Encounter",
      "id": "74d2c4e5-d7c5-45c4-9fb0-7049331116e6",
      "meta": {
        "profile": [ "http://hl7.org/fhir/us/qicore/StructureDefinition/qicore-encounter" ]
      },
      "status": "finished",
      "class": {
        "system": "http://terminology.hl7.org/CodeSystem/v3-ActCode",
        "code": "AMB",
        "display": "ambulatory"
      },
      "type": [ {
        "coding": [ {
          "system": "http://snomed.info/sct",
          "version": "2022-03",
          "code": "103705002",
          "display": "Patient status observation (procedure)",
          "userSelected": true
        } ]
      } ],
      "subject": {
        "reference": "Patient/c3f55d79-b10c-4d2b-8699-a7538867159d"
      },
      "period": {
        "start": "2026-12-31T10:00:00.000Z",
        "end": "2026-12-31T10:45:00.000Z"
      }
    }
  }, {
    "fullUrl": "https://madie.cms.gov/ServiceRequest/d12d95de-508a-4599-9553-2a66bb674d27",
    "resource": {
      "resourceType": "ServiceRequest",
      "id": "d12d95de-508a-4599-9553-2a66bb674d27",
      "meta": {
        "profile": [ "http://hl7.org/fhir/us/qicore/StructureDefinition/qicore-servicerequest" ]
      },
      "status": "active",
      "intent": "order",
      "code": {
        "coding": [ {
          "system": "http://snomed.info/sct",
          "version": "2022-03",
          "code": "183620002",
          "display": "Follow-up 1 week (finding)",
          "userSelected": true
        } ]
      },
      "subject": {
        "reference": "Patient/c3f55d79-b10c-4d2b-8699-a7538867159d"
      },
      "authoredOn": "2026-12-31T10:10:00.000Z"
    }
  }, {
    "fullUrl": "https://madie.cms.gov/ServiceRequest/5cdfec1e-06d8-4b3d-9b09-89b3434cf8c9",
    "resource": {
      "resourceType": "ServiceRequest",
      "id": "5cdfec1e-06d8-4b3d-9b09-89b3434cf8c9",
      "meta": {
        "profile": [ "http://hl7.org/fhir/us/qicore/StructureDefinition/qicore-servicerequest" ]
      },
      "status": "active",
      "intent": "order",
      "code": {
        "coding": [ {
          "system": "http://snomed.info/sct",
          "version": "2022-03",
          "code": "20093000",
          "display": "Alcohol rehabilitation and detoxification (regime/therapy)",
          "userSelected": true
        } ]
      },
      "subject": {
        "reference": "Patient/c3f55d79-b10c-4d2b-8699-a7538867159d"
      },
      "authoredOn": "2026-01-01T08:30:00.000Z"
    }
  }, {
    "fullUrl": "https://madie.cms.gov/ServiceRequest/85f5c264-0731-42b5-9169-dfd9e925f7dd",
    "resource": {
      "resourceType": "ServiceRequest",
      "id": "85f5c264-0731-42b5-9169-dfd9e925f7dd",
      "meta": {
        "profile": [ "http://hl7.org/fhir/us/qicore/StructureDefinition/qicore-servicerequest" ]
      },
      "status": "active",
      "intent": "order",
      "code": {
        "coding": [ {
          "system": "http://loinc.org",
          "code": "34534-8",
          "display": "12 lead EKG panel",
          "userSelected": true
        } ]
      },
      "subject": {
        "reference": "Patient/c3f55d79-b10c-4d2b-8699-a7538867159d"
      },
      "authoredOn": "2026-12-31T10:10:00.000Z"
    }
  }, {
    "fullUrl": "https://madie.cms.gov/ServiceRequest/b256a4fa-f551-43d2-837b-299d39353fdc",
    "resource": {
      "resourceType": "ServiceRequest",
      "id": "b256a4fa-f551-43d2-837b-299d39353fdc",
      "meta": {
        "profile": [ "http://hl7.org/fhir/us/qicore/StructureDefinition/qicore-servicerequest" ]
      },
      "status": "active",
      "intent": "order",
      "code": {
        "coding": [ {
          "system": "http://snomed.info/sct",
          "version": "2022-03",
          "code": "313204009",
          "display": "Lifestyle education (procedure)",
          "userSelected": true
        } ]
      },
      "subject": {
        "reference": "Patient/c3f55d79-b10c-4d2b-8699-a7538867159d"
      },
      "authoredOn": "2026-12-31T10:10:00.000Z"
    }
  }, {
    "fullUrl": "https://madie.cms.gov/MedicationRequest/4ca8db8c-0d9c-48f8-ae10-7a6833b173c6",
    "resource": {
      "resourceType": "MedicationRequest",
      "id": "4ca8db8c-0d9c-48f8-ae10-7a6833b173c6",
      "meta": {
        "profile": [ "http://hl7.org/fhir/us/qicore/StructureDefinition/qicore-medicationrequest" ]
      },
      "status": "active",
      "intent": "order",
      "medicationCodeableConcept": {
        "coding": [ {
          "system": "http://www.nlm.nih.gov/research/umls/rxnorm",
          "code": "1000001",
          "display": "amlodipine 5 MG / hydrochlorothiazide 25 MG / olmesartan medoxomil 40 MG Oral Tablet",
          "userSelected": true
        } ]
      },
      "subject": {
        "reference": "Patient/c3f55d79-b10c-4d2b-8699-a7538867159d"
      },
      "authoredOn": "2026-12-31T10:10:00.000Z",
      "requester": {
        "reference": "Practitioner/f007",
        "display": "Patrick Pump"
      }
    }
  }, {
    "fullUrl": "https://madie.cms.gov/Observation/191ddae9-be31-4dac-9e43-7a7ecaf1ec16",
    "resource": {
      "resourceType": "Observation",
      "id": "191ddae9-be31-4dac-9e43-7a7ecaf1ec16",
      "meta": {
        "profile": [ "http://hl7.org/fhir/us/core/StructureDefinition/us-core-blood-pressure" ]
      },
      "status": "final",
      "category": [ {
        "coding": [ {
          "system": "http://terminology.hl7.org/CodeSystem/observation-category",
          "code": "vital-signs",
          "display": "Vital Signs"
        } ],
        "text": "Vital Signs"
      } ],
      "code": {
        "coding": [ {
          "system": "http://loinc.org",
          "code": "85354-9",
          "display": "Blood pressure panel with all children optional"
        } ]
      },
      "subject": {
        "reference": "Patient/c3f55d79-b10c-4d2b-8699-a7538867159d"
      },
      "effectiveDateTime": "2026-01-01T08:05:00.000Z",
      "component": [ {
        "code": {
          "coding": [ {
            "system": "http://loinc.org",
            "code": "8480-6",
            "display": "Systolic blood pressure"
          } ]
        },
        "valueQuantity": {
          "value": 140,
          "unit": "mmHg",
          "system": "http://unitsofmeasure.org",
          "code": "mm[Hg]"
        }
      }, {
        "code": {
          "coding": [ {
            "system": "http://loinc.org",
            "code": "8462-4",
            "display": "Diastolic blood pressure"
          } ]
        },
        "valueQuantity": {
          "value": 90,
          "unit": "mmHg",
          "system": "http://unitsofmeasure.org",
          "code": "mm[Hg]"
        }
      } ]
    }
  }, {
    "fullUrl": "https://madie.cms.gov/Observation/98e02c42-1c80-4e23-8eb4-da396ffefc02",
    "resource": {
      "resourceType": "Observation",
      "id": "98e02c42-1c80-4e23-8eb4-da396ffefc02",
      "meta": {
        "profile": [ "http://hl7.org/fhir/us/core/StructureDefinition/us-core-blood-pressure" ]
      },
      "status": "final",
      "category": [ {
        "coding": [ {
          "system": "http://terminology.hl7.org/CodeSystem/observation-category",
          "code": "vital-signs",
          "display": "Vital Signs"
        } ],
        "text": "Vital Signs"
      } ],
      "code": {
        "coding": [ {
          "system": "http://loinc.org",
          "code": "85354-9",
          "display": "Blood pressure panel with all children optional"
        } ]
      },
      "subject": {
        "reference": "Patient/c3f55d79-b10c-4d2b-8699-a7538867159d"
      },
      "effectiveDateTime": "2026-12-31T10:05:00.000Z",
      "component": [ {
        "code": {
          "coding": [ {
            "system": "http://loinc.org",
            "code": "8480-6",
            "display": "Systolic blood pressure"
          } ]
        },
        "valueQuantity": {
          "value": 160,
          "unit": "mmHg",
          "system": "http://unitsofmeasure.org",
          "code": "mm[Hg]"
        }
      }, {
        "code": {
          "coding": [ {
            "system": "http://loinc.org",
            "code": "8462-4",
            "display": "Diastolic blood pressure"
          } ]
        },
        "valueQuantity": {
          "value": 90,
          "unit": "mmHg",
          "system": "http://unitsofmeasure.org",
          "code": "mm[Hg]"
        }
      } ]
    }
  }, {
    "fullUrl": "https://madie.cms.gov/Coverage/248ab60f-076a-4128-9159-80ed1afb04f9",
    "resource": {
      "resourceType": "Coverage",
      "id": "248ab60f-076a-4128-9159-80ed1afb04f9",
      "meta": {
        "profile": [ "http://hl7.org/fhir/us/qicore/StructureDefinition/qicore-coverage" ]
      },
      "status": "active",
      "subscriberId": "6834041",
      "beneficiary": {
        "reference": "Patient/c3f55d79-b10c-4d2b-8699-a7538867159d"
      },
      "relationship": {
        "coding": [ {
          "system": "http://terminology.hl7.org/CodeSystem/subscriber-relationship",
          "code": "self",
          "display": "Self"
        } ]
      },
      "payor": [ {
        "reference": "Organization/7c0e19ef-e887-464e-91fa-6c60cdb6cfb9"
      } ]
    }
  }, {
    "fullUrl": "https://madie.cms.gov/Organization/7c0e19ef-e887-464e-91fa-6c60cdb6cfb9",
    "resource": {
      "resourceType": "Organization",
      "id": "7c0e19ef-e887-464e-91fa-6c60cdb6cfb9",
      "meta": {
        "profile": [ "http://hl7.org/fhir/us/qicore/StructureDefinition/qicore-organization" ]
      },
      "identifier": [ {
        "use": "temp",
        "system": "urn:oid:2.16.840.1.113883.4.4",
        "value": "21-3259825"
      } ],
      "active": true,
      "type": [ {
        "coding": [ {
          "system": "http://terminology.hl7.org/CodeSystem/organization-type",
          "code": "pay",
          "display": "Payer"
        } ]
      } ],
      "name": "Blue Cross Blue Shield of Texas",
      "telecom": [ {
        "system": "phone",
        "value": "(+1) 972-766-6900"
      } ],
      "address": [ {
        "use": "billing",
        "type": "postal",
        "line": [ "P.O. Box 660044" ],
        "city": "Dallas",
        "state": "TX",
        "postalCode": "75266-0044",
        "country": "USA"
      } ]
    }
  }, {
    "fullUrl": "https://madie.cms.gov/MeasureReport/6f0a7e35-7b41-4bac-b650-900b4e9844d1",
    "resource": {
      "resourceType": "MeasureReport",
      "id": "6f0a7e35-7b41-4bac-b650-900b4e9844d1",
      "meta": {
        "profile": [ "http://hl7.org/fhir/us/cqfmeasures/StructureDefinition/test-case-cqfm" ]
      },
      "contained": [ {
        "resourceType": "Parameters",
        "id": "99d6aa27-0f79-4411-a16b-2165336b6323-parameters",
        "parameter": [ {
          "name": "subject",
          "valueString": "c3f55d79-b10c-4d2b-8699-a7538867159d"
        } ]
      } ],
      "extension": [ {
        "url": "http://hl7.org/fhir/StructureDefinition/cqf-inputParameters",
        "valueReference": {
          "reference": "#99d6aa27-0f79-4411-a16b-2165336b6323-parameters"
        }
      }, {
        "url": "http://hl7.org/fhir/us/cqfmeasures/StructureDefinition/cqfm-testCaseDescription",
        "valueMarkdown": "Enc 1/1  0800-0845 during MP, BP 140/90, follow up in 1 day, alcohol consumption for rehab/detox, \n2nd Enc 12/31 @1000-1045 BP 160/90, f/u in 2 -3 mo. EKG, lifestyle changes recommended, medication.\nBoth encounters are expected to pass the numerator"
      } ],
      "modifierExtension": [ {
        "url": "http://hl7.org/fhir/us/cqfmeasures/StructureDefinition/cqfm-isTestCase",
        "valueBoolean": true
      } ],
      "status": "complete",
      "type": "individual",
      "measure": "https://madie.cms.gov/Measure/CMS22FHIRPCSBPScreeningFollowUp",
      "period": {
        "start": "2026-01-01",
        "end": "2026-12-31"
      },
      "group": [ {
        "id": "Group_1",
        "population": [ {
          "id": "InitialPopulation_1",
          "code": {
            "coding": [ {
              "system": "http://terminology.hl7.org/CodeSystem/measure-population",
              "code": "initial-population",
              "display": "Initial Population"
            } ]
          },
          "count": 2
        }, {
          "id": "Denominator_1",
          "code": {
            "coding": [ {
              "system": "http://terminology.hl7.org/CodeSystem/measure-population",
              "code": "denominator",
              "display": "Denominator"
            } ]
          },
          "count": 2
        }, {
          "id": "DenominatorExclusion_1",
          "code": {
            "coding": [ {
              "system": "http://terminology.hl7.org/CodeSystem/measure-population",
              "code": "denominator-exclusion",
              "display": "Denominator Exclusion"
            } ]
          },
          "count": 0
        }, {
          "id": "Numerator_1",
          "code": {
            "coding": [ {
              "system": "http://terminology.hl7.org/CodeSystem/measure-population",
              "code": "numerator",
              "display": "Numerator"
            } ]
          },
          "count": 2
        }, {
          "id": "DenominatorException_1",
          "code": {
            "coding": [ {
              "system": "http://terminology.hl7.org/CodeSystem/measure-population",
              "code": "denominator-exception",
              "display": "Denominator Exception"
            } ]
          },
          "count": 0
        } ],
        "measureScore": {
          "value": 0.0
        }
      } ],
      "evaluatedResource": [ {
        "reference": "Patient/c3f55d79-b10c-4d2b-8699-a7538867159d"
      }, {
        "reference": "Encounter/7242f613-dbb3-4e2d-a8c8-7891897ae07f"
      }, {
        "reference": "ServiceRequest/6af65b48-013d-4f8f-8b9e-bf83dc44ebc0"
      }, {
        "reference": "Encounter/74d2c4e5-d7c5-45c4-9fb0-7049331116e6"
      }, {
        "reference": "ServiceRequest/d12d95de-508a-4599-9553-2a66bb674d27"
      }, {
        "reference": "ServiceRequest/5cdfec1e-06d8-4b3d-9b09-89b3434cf8c9"
      }, {
        "reference": "ServiceRequest/85f5c264-0731-42b5-9169-dfd9e925f7dd"
      }, {
        "reference": "ServiceRequest/b256a4fa-f551-43d2-837b-299d39353fdc"
      }, {
        "reference": "MedicationRequest/4ca8db8c-0d9c-48f8-ae10-7a6833b173c6"
      }, {
        "reference": "Observation/191ddae9-be31-4dac-9e43-7a7ecaf1ec16"
      }, {
        "reference": "Observation/98e02c42-1c80-4e23-8eb4-da396ffefc02"
      }, {
        "reference": "Coverage/248ab60f-076a-4128-9159-80ed1afb04f9"
      }, {
        "reference": "Organization/7c0e19ef-e887-464e-91fa-6c60cdb6cfb9"
      } ]
    }
  } ]
}