{
  "resourceType": "Bundle",
  "id": "tests-DenexFail-HighGlucoseTwoHoursBeforeEncounter-bundle",
  "type": "transaction",
  "entry": [ {
    "fullUrl": "https://madie.cms.gov/Condition/34e19653-bba5-4ccf-a9b5-4b0a0393f049",
    "resource": {
      "resourceType": "Condition",
      "id": "34e19653-bba5-4ccf-a9b5-4b0a0393f049",
      "meta": {
        "profile": [ "http://hl7.org/fhir/us/qicore/StructureDefinition/qicore-condition-encounter-diagnosis" ]
      },
      "clinicalStatus": {
        "coding": [ {
          "system": "http://terminology.hl7.org/CodeSystem/condition-clinical",
          "code": "active"
        } ]
      },
      "verificationStatus": {
        "coding": [ {
          "system": "http://terminology.hl7.org/CodeSystem/condition-ver-status",
          "code": "confirmed"
        } ]
      },
      "category": [ {
        "coding": [ {
          "system": "http://terminology.hl7.org/CodeSystem/condition-category",
          "code": "encounter-diagnosis",
          "display": "Encounter Diagnosis"
        } ]
      } ],
      "code": {
        "coding": [ {
          "system": "http://snomed.info/sct",
          "code": "46635009",
          "display": "Diabetes mellitus type I"
        } ]
      },
      "subject": {
        "reference": "Patient/a52510f5-d529-419e-97ae-3979ae9b4d9a"
      },
      "encounter": {
        "reference": "Encounter/01f274be-214a-4d2b-a63c-ca39acba719e"
      },
      "onsetPeriod": {
        "start": "2026-07-09T08:00:00.000Z",
        "end": "2026-07-11T08:00:00.000Z"
      }
    },
    "request": {
      "method": "PUT",
      "url": "Condition/34e19653-bba5-4ccf-a9b5-4b0a0393f049"
    }
  }, {
    "fullUrl": "https://madie.cms.gov/Encounter/01f274be-214a-4d2b-a63c-ca39acba719e",
    "resource": {
      "resourceType": "Encounter",
      "id": "01f274be-214a-4d2b-a63c-ca39acba719e",
      "meta": {
        "profile": [ "http://hl7.org/fhir/us/qicore/StructureDefinition/qicore-encounter" ]
      },
      "status": "finished",
      "class": {
        "system": "http://terminology.hl7.org/CodeSystem/v3-ActCode",
        "code": "IMP",
        "display": "inpatient encounter"
      },
      "type": [ {
        "coding": [ {
          "system": "http://snomed.info/sct",
          "code": "183452005",
          "display": "Emergency hospital admission"
        } ]
      } ],
      "subject": {
        "reference": "Patient/a52510f5-d529-419e-97ae-3979ae9b4d9a"
      },
      "period": {
        "start": "2026-07-11T08:00:00.000Z",
        "end": "2026-07-13T09:00:00.000Z"
      },
      "reasonReference": [ {
        "reference": "Condition/34e19653-bba5-4ccf-a9b5-4b0a0393f049"
      } ]
    },
    "request": {
      "method": "PUT",
      "url": "Encounter/01f274be-214a-4d2b-a63c-ca39acba719e"
    }
  }, {
    "fullUrl": "https://madie.cms.gov/Patient/a52510f5-d529-419e-97ae-3979ae9b4d9a",
    "resource": {
      "resourceType": "Patient",
      "id": "a52510f5-d529-419e-97ae-3979ae9b4d9a",
      "meta": {
        "profile": [ "http://hl7.org/fhir/us/qicore/StructureDefinition/qicore-patient" ]
      },
      "extension": [ {
        "url": "http://hl7.org/fhir/us/core/StructureDefinition/us-core-race",
        "extension": [ {
          "url": "ombCategory",
          "valueCoding": {
            "system": "urn:oid:2.16.840.1.113883.6.238",
            "code": "2106-3",
            "display": "White"
          }
        }, {
          "url": "text",
          "valueString": "White"
        } ]
      }, {
        "url": "http://hl7.org/fhir/us/core/StructureDefinition/us-core-ethnicity",
        "extension": [ {
          "url": "ombCategory",
          "valueCoding": {
            "system": "urn:oid:2.16.840.1.113883.6.238",
            "code": "2135-2",
            "display": "Hispanic or Latino"
          }
        }, {
          "url": "text",
          "valueString": "Hispanic or Latino"
        } ]
      }, {
        "url": "http://hl7.org/fhir/us/core/StructureDefinition/us-core-sex",
        "valueCode": "248153007"
      } ],
      "identifier": [ {
        "system": "http://hospital.smarthealthit.org",
        "value": "999999999"
      } ],
      "name": [ {
        "family": "Example",
        "given": [ "Patient" ]
      } ],
      "gender": "female",
      "birthDate": "1956-01-01"
    },
    "request": {
      "method": "PUT",
      "url": "Patient/a52510f5-d529-419e-97ae-3979ae9b4d9a"
    }
  }, {
    "fullUrl": "https://madie.cms.gov/Observation/00080c8f-9fef-471f-a68d-fe7c087878bb",
    "resource": {
      "resourceType": "Observation",
      "id": "00080c8f-9fef-471f-a68d-fe7c087878bb",
      "meta": {
        "profile": [ "http://hl7.org/fhir/us/qicore/StructureDefinition/qicore-observation-lab" ]
      },
      "status": "final",
      "category": [ {
        "coding": [ {
          "system": "http://terminology.hl7.org/CodeSystem/observation-category",
          "code": "laboratory",
          "display": "Laboratory"
        } ]
      } ],
      "code": {
        "coding": [ {
          "system": "http://loinc.org",
          "version": "2.72",
          "code": "1556-0",
          "display": "Fasting glucose [Mass/volume] in Capillary blood",
          "userSelected": true
        } ]
      },
      "subject": {
        "reference": "Patient/a52510f5-d529-419e-97ae-3979ae9b4d9a"
      },
      "effectiveDateTime": "2026-07-11T06:00:00.000Z",
      "valueQuantity": {
        "value": 601,
        "unit": "mg/dL"
      }
    },
    "request": {
      "method": "PUT",
      "url": "Observation/00080c8f-9fef-471f-a68d-fe7c087878bb"
    }
  }, {
    "fullUrl": "https://madie.cms.gov/MeasureReport/79a43e8f-47d7-4e40-adcb-4e3dc843083d",
    "resource": {
      "resourceType": "MeasureReport",
      "id": "79a43e8f-47d7-4e40-adcb-4e3dc843083d",
      "meta": {
        "profile": [ "http://hl7.org/fhir/us/cqfmeasures/StructureDefinition/test-case-cqfm" ]
      },
      "contained": [ {
        "resourceType": "Parameters",
        "id": "d982106d-c390-4eb4-ad86-efb2af825ee9-parameters",
        "parameter": [ {
          "name": "subject",
          "valueString": "a52510f5-d529-419e-97ae-3979ae9b4d9a"
        } ]
      } ],
      "extension": [ {
        "url": "http://hl7.org/fhir/StructureDefinition/cqf-inputParameters",
        "valueReference": {
          "reference": "#d982106d-c390-4eb4-ad86-efb2af825ee9-parameters"
        }
      }, {
        "url": "http://hl7.org/fhir/us/cqfmeasures/StructureDefinition/cqfm-testCaseDescription",
        "valueMarkdown": "Encounter with diabetes dx, glucose lab test relevant datetime was 2 hours prior to start of encounter and result = 601. Does not meet Exclusion, as lab test relevant datetime must be within 1 hr (60 min) before start of enc."
      } ],
      "modifierExtension": [ {
        "url": "http://hl7.org/fhir/us/cqfmeasures/StructureDefinition/cqfm-isTestCase",
        "valueBoolean": true
      } ],
      "status": "complete",
      "type": "individual",
      "measure": "https://madie.cms.gov/Measure/CMS871FHIRHHHyper",
      "period": {
        "start": "2026-01-01",
        "end": "2026-12-31"
      },
      "group": [ {
        "id": "Group_1",
        "population": [ {
          "id": "InitialPopulation_1",
          "code": {
            "coding": [ {
              "system": "http://terminology.hl7.org/CodeSystem/measure-population",
              "code": "initial-population",
              "display": "Initial Population"
            } ]
          },
          "count": 1
        }, {
          "id": "Denominator_1",
          "code": {
            "coding": [ {
              "system": "http://terminology.hl7.org/CodeSystem/measure-population",
              "code": "denominator",
              "display": "Denominator"
            } ]
          },
          "count": 1
        }, {
          "id": "DenominatorExclusion_1",
          "code": {
            "coding": [ {
              "system": "http://terminology.hl7.org/CodeSystem/measure-population",
              "code": "denominator-exclusion",
              "display": "Denominator Exclusion"
            } ]
          },
          "count": 0
        }, {
          "id": "Numerator_1",
          "code": {
            "coding": [ {
              "system": "http://terminology.hl7.org/CodeSystem/measure-population",
              "code": "numerator",
              "display": "Numerator"
            } ]
          },
          "count": 0
        }, {
          "id": "NumeratorExclusion_1",
          "code": {
            "coding": [ {
              "system": "http://terminology.hl7.org/CodeSystem/measure-population",
              "code": "numerator-exclusion",
              "display": "Numerator Exclusion"
            } ]
          },
          "count": 0
        }, {
          "id": "MeasureObservation_1_1_1",
          "code": {
            "coding": [ {
              "system": "http://terminology.hl7.org/CodeSystem/measure-population",
              "code": "measure-observation",
              "display": "Measure Observation"
            } ]
          },
          "count": 1
        } ],
        "measureScore": {
          "value": 0.0
        }
      } ],
      "evaluatedResource": [ {
        "reference": "Condition/34e19653-bba5-4ccf-a9b5-4b0a0393f049"
      }, {
        "reference": "Encounter/01f274be-214a-4d2b-a63c-ca39acba719e"
      }, {
        "reference": "Patient/a52510f5-d529-419e-97ae-3979ae9b4d9a"
      }, {
        "reference": "Observation/00080c8f-9fef-471f-a68d-fe7c087878bb"
      } ]
    },
    "request": {
      "method": "PUT",
      "url": "MeasureReport/79a43e8f-47d7-4e40-adcb-4e3dc843083d"
    }
  } ]
}