{
  "resourceType": "Bundle",
  "id": "62fd4b670968f8012246b12a",
  "type": "collection",
  "entry": [ {
    "fullUrl": "https://madie.cms.gov/Patient/25b1e840-7e85-4140-9c1b-773d4daa6dee",
    "resource": {
      "resourceType": "Patient",
      "id": "25b1e840-7e85-4140-9c1b-773d4daa6dee",
      "meta": {
        "profile": [ "http://hl7.org/fhir/us/qicore/StructureDefinition/qicore-patient" ]
      },
      "extension": [ {
        "url": "http://hl7.org/fhir/us/core/StructureDefinition/us-core-ethnicity",
        "extension": [ {
          "url": "ombCategory",
          "valueCoding": {
            "system": "urn:oid:2.16.840.1.113883.6.238",
            "code": "2135-2",
            "display": "Hispanic or Latino",
            "userSelected": true
          }
        }, {
          "url": "text",
          "valueString": "Hispanic or Latino"
        } ]
      } ],
      "identifier": [ {
        "type": {
          "coding": [ {
            "system": "http://terminology.hl7.org/CodeSystem/v2-0203",
            "code": "MR"
          } ]
        },
        "system": "https://bonnie-fhir.healthit.gov/",
        "value": "62fd4b670968f8012246b12a"
      } ],
      "name": [ {
        "family": "IPFail",
        "given": [ "ReferralAfterRefPeriodNextMP" ]
      } ],
      "gender": "unknown",
      "birthDate": "1991-07-01"
    }
  }, {
    "fullUrl": "https://madie.cms.gov/ServiceRequest/3c154825-2ef7-4cf9-bf56-768fcaca0541",
    "resource": {
      "resourceType": "ServiceRequest",
      "id": "3c154825-2ef7-4cf9-bf56-768fcaca0541",
      "meta": {
        "profile": [ "http://hl7.org/fhir/us/qicore/StructureDefinition/qicore-servicerequest" ]
      },
      "status": "active",
      "intent": "order",
      "code": {
        "coding": [ {
          "system": "http://snomed.info/sct",
          "version": "http://snomed.info/sct/731000124108/version/20250301",
          "code": "103696004",
          "display": "Patient referral to specialist (procedure)",
          "userSelected": true
        } ]
      },
      "subject": {
        "reference": "Patient/25b1e840-7e85-4140-9c1b-773d4daa6dee"
      },
      "authoredOn": "2027-01-01T00:00:00.000+00:00"
    }
  }, {
    "fullUrl": "https://madie.cms.gov/Encounter/dad59787-a6f6-4745-b5ef-11888f1e0746",
    "resource": {
      "resourceType": "Encounter",
      "id": "dad59787-a6f6-4745-b5ef-11888f1e0746",
      "meta": {
        "profile": [ "http://hl7.org/fhir/us/qicore/StructureDefinition/qicore-encounter" ]
      },
      "status": "finished",
      "class": {
        "system": "http://terminology.hl7.org/CodeSystem/v3-ActCode",
        "code": "AMB",
        "display": "ambulatory"
      },
      "type": [ {
        "coding": [ {
          "system": "http://www.ama-assn.org/go/cpt",
          "version": "2021",
          "code": "99381",
          "display": "Initial comprehensive preventive medicine evaluation and management of an individual including an age and gender appropriate history, examination, counseling/anticipatory guidance/risk factor reduction interventions, and the ordering of laboratory/diagnostic procedures, new patient; infant (age younger than 1 year)",
          "userSelected": true
        } ]
      } ],
      "subject": {
        "reference": "Patient/25b1e840-7e85-4140-9c1b-773d4daa6dee"
      },
      "period": {
        "start": "2026-12-31T23:00:00.000+00:00",
        "end": "2026-12-31T23:59:00.000+00:00"
      }
    }
  }, {
    "fullUrl": "https://madie.cms.gov/Coverage/601c8d8d-fa84-4625-887b-f977a08e81ff",
    "resource": {
      "resourceType": "Coverage",
      "id": "601c8d8d-fa84-4625-887b-f977a08e81ff",
      "meta": {
        "profile": [ "http://hl7.org/fhir/us/qicore/StructureDefinition/qicore-coverage" ]
      },
      "status": "active",
      "subscriberId": "123456",
      "beneficiary": {
        "reference": "Patient/25b1e840-7e85-4140-9c1b-773d4daa6dee"
      },
      "relationship": {
        "coding": [ {
          "system": "http://terminology.hl7.org/CodeSystem/subscriber-relationship",
          "code": "self",
          "display": "Self"
        } ]
      },
      "payor": [ {
        "reference": "Organization/1467cb4b-bec3-482a-997e-57505341f23c"
      } ]
    }
  }, {
    "fullUrl": "https://madie.cms.gov/Organization/1467cb4b-bec3-482a-997e-57505341f23c",
    "resource": {
      "resourceType": "Organization",
      "id": "1467cb4b-bec3-482a-997e-57505341f23c",
      "meta": {
        "profile": [ "http://hl7.org/fhir/us/qicore/StructureDefinition/qicore-organization" ]
      },
      "identifier": [ {
        "use": "temp",
        "system": "urn:oid:2.16.840.1.113883.4.4",
        "value": "21-3259825"
      } ],
      "active": true,
      "type": [ {
        "coding": [ {
          "system": "http://terminology.hl7.org/CodeSystem/organization-type",
          "code": "pay",
          "display": "Payer"
        } ]
      } ],
      "name": "Blue Cross Blue Shield of Texas",
      "telecom": [ {
        "system": "phone",
        "value": "(+1) 972-766-6900"
      } ],
      "address": [ {
        "use": "billing",
        "type": "postal",
        "line": [ "P.O. Box 660044" ],
        "city": "Dallas",
        "state": "TX",
        "postalCode": "75266-0044",
        "country": "USA"
      } ]
    }
  }, {
    "fullUrl": "https://madie.cms.gov/Practitioner/451440f4-b60b-47b1-9f8b-848c53e10bb0",
    "resource": {
      "resourceType": "Practitioner",
      "id": "451440f4-b60b-47b1-9f8b-848c53e10bb0",
      "meta": {
        "profile": [ "http://hl7.org/fhir/us/qicore/StructureDefinition/qicore-practitioner" ]
      },
      "identifier": [ {
        "system": "http://hl7.org/fhir/sid/us-npi",
        "value": "1689411712"
      } ],
      "name": [ {
        "family": "Evil",
        "prefix": [ "Dr" ]
      } ]
    }
  }, {
    "fullUrl": "https://madie.cms.gov/MeasureReport/f087069f-bc5c-4b3a-b954-e99d1f992a20",
    "resource": {
      "resourceType": "MeasureReport",
      "id": "f087069f-bc5c-4b3a-b954-e99d1f992a20",
      "meta": {
        "profile": [ "http://hl7.org/fhir/us/cqfmeasures/StructureDefinition/test-case-cqfm" ]
      },
      "contained": [ {
        "resourceType": "Parameters",
        "id": "bd9a2aa3-4120-4f94-ae97-f982358606d7-parameters",
        "parameter": [ {
          "name": "subject",
          "valueString": "25b1e840-7e85-4140-9c1b-773d4daa6dee"
        } ]
      } ],
      "extension": [ {
        "url": "http://hl7.org/fhir/StructureDefinition/cqf-inputParameters",
        "valueReference": {
          "reference": "#bd9a2aa3-4120-4f94-ae97-f982358606d7-parameters"
        }
      }, {
        "url": "http://hl7.org/fhir/us/cqfmeasures/StructureDefinition/cqfm-testCaseDescription",
        "valueMarkdown": "Encounter after MP (12/31  ends at 23:59) status finished Referral Status Active Intent Order after Referral period (\"202x-01-01T00:00:00.000+00:00\")"
      } ],
      "modifierExtension": [ {
        "url": "http://hl7.org/fhir/us/cqfmeasures/StructureDefinition/cqfm-isTestCase",
        "valueBoolean": true
      } ],
      "status": "complete",
      "type": "individual",
      "measure": "https://madie.cms.gov/Measure/CMS50FHIRReceiptofSpecialistReport",
      "period": {
        "start": "2026-01-01",
        "end": "2026-12-31"
      },
      "group": [ {
        "id": "Group_1",
        "population": [ {
          "id": "InitialPopulation_1",
          "code": {
            "coding": [ {
              "system": "http://terminology.hl7.org/CodeSystem/measure-population",
              "code": "initial-population",
              "display": "Initial Population"
            } ]
          },
          "count": 0
        }, {
          "id": "Denominator_1",
          "code": {
            "coding": [ {
              "system": "http://terminology.hl7.org/CodeSystem/measure-population",
              "code": "denominator",
              "display": "Denominator"
            } ]
          },
          "count": 0
        }, {
          "id": "Numerator_1",
          "code": {
            "coding": [ {
              "system": "http://terminology.hl7.org/CodeSystem/measure-population",
              "code": "numerator",
              "display": "Numerator"
            } ]
          },
          "count": 0
        } ],
        "measureScore": {
          "value": 1.0
        }
      } ],
      "evaluatedResource": [ {
        "reference": "Patient/25b1e840-7e85-4140-9c1b-773d4daa6dee"
      }, {
        "reference": "ServiceRequest/3c154825-2ef7-4cf9-bf56-768fcaca0541"
      }, {
        "reference": "Encounter/dad59787-a6f6-4745-b5ef-11888f1e0746"
      }, {
        "reference": "Coverage/601c8d8d-fa84-4625-887b-f977a08e81ff"
      }, {
        "reference": "Organization/1467cb4b-bec3-482a-997e-57505341f23c"
      }, {
        "reference": "Practitioner/451440f4-b60b-47b1-9f8b-848c53e10bb0"
      } ]
    }
  } ]
}