{
  "resourceType": "Bundle",
  "id": "64d1201f1252352a0771c3bd",
  "type": "transaction",
  "entry": [ {
    "fullUrl": "https://madie.cms.gov/Patient/dfbb41c5-26aa-4d9f-988b-8f02910ac5c4",
    "resource": {
      "resourceType": "Patient",
      "id": "dfbb41c5-26aa-4d9f-988b-8f02910ac5c4",
      "meta": {
        "profile": [ "http://hl7.org/fhir/us/qicore/StructureDefinition/qicore-patient" ]
      },
      "extension": [ {
        "url": "http://hl7.org/fhir/us/core/StructureDefinition/us-core-race",
        "extension": [ {
          "url": "ombCategory",
          "valueCoding": {
            "system": "urn:oid:2.16.840.1.113883.6.238",
            "code": "1002-5",
            "display": "American Indian or Alaska Native",
            "userSelected": true
          }
        }, {
          "url": "text",
          "valueString": "American Indian or Alaska Native"
        } ]
      }, {
        "url": "http://hl7.org/fhir/us/core/StructureDefinition/us-core-ethnicity",
        "extension": [ {
          "url": "ombCategory",
          "valueCoding": {
            "system": "urn:oid:2.16.840.1.113883.6.238",
            "code": "2186-5",
            "display": "Not Hispanic or Latino",
            "userSelected": true
          }
        }, {
          "url": "text",
          "valueString": "Not Hispanic or Latino"
        } ]
      } ],
      "identifier": [ {
        "type": {
          "coding": [ {
            "system": "http://terminology.hl7.org/CodeSystem/v2-0203",
            "code": "MR"
          } ]
        },
        "system": "https://bonnie-fhir.healthit.gov/",
        "value": "64d1201f1252352a0771c3bd"
      } ],
      "name": [ {
        "family": "IPFail",
        "given": [ "Age17YrOnJan1Edge" ]
      } ],
      "gender": "female",
      "birthDate": "2010-01-01"
    },
    "request": {
      "method": "PUT",
      "url": "Patient/dfbb41c5-26aa-4d9f-988b-8f02910ac5c4"
    }
  }, {
    "fullUrl": "https://madie.cms.gov/Encounter/6069d110-7e0b-48ee-812a-9854bd099af0",
    "resource": {
      "resourceType": "Encounter",
      "id": "6069d110-7e0b-48ee-812a-9854bd099af0",
      "status": "finished",
      "class": {
        "system": "http://terminology.hl7.org/CodeSystem/v3-ActCode",
        "code": "AMB",
        "display": "ambulatory",
        "userSelected": true
      },
      "type": [ {
        "coding": [ {
          "system": "http://www.ama-assn.org/go/cpt",
          "code": "99242",
          "userSelected": true
        } ]
      } ],
      "subject": {
        "reference": "Patient/dfbb41c5-26aa-4d9f-988b-8f02910ac5c4"
      },
      "period": {
        "start": "2027-11-15T09:00:00.000+00:00",
        "end": "2027-11-15T09:48:00.000+00:00"
      },
      "diagnosis": [ {
        "condition": {
          "reference": "Condition/f21dc1ef-0a43-4859-bf7e-e1968a060dae"
        },
        "use": {
          "coding": [ {
            "system": "http://snomed.info/sct",
            "version": "2022-09",
            "code": "77911002",
            "display": "Severe major depression, single episode, with psychotic features, mood-congruent (disorder)",
            "userSelected": true
          } ]
        }
      } ]
    },
    "request": {
      "method": "PUT",
      "url": "Encounter/6069d110-7e0b-48ee-812a-9854bd099af0"
    }
  }, {
    "fullUrl": "https://madie.cms.gov/Condition/f21dc1ef-0a43-4859-bf7e-e1968a060dae",
    "resource": {
      "resourceType": "Condition",
      "id": "f21dc1ef-0a43-4859-bf7e-e1968a060dae",
      "category": [ {
        "coding": [ {
          "system": "http://terminology.hl7.org/CodeSystem/condition-category",
          "code": "encounter-diagnosis",
          "display": "encounter-diagnosis",
          "userSelected": true
        } ]
      } ],
      "code": {
        "coding": [ {
          "system": "http://snomed.info/sct",
          "version": "2022-09",
          "code": "10811121000119102",
          "display": "Major depressive disorder in mother complicating childbirth (disorder)",
          "userSelected": true
        } ]
      },
      "subject": {
        "reference": "Patient/dfbb41c5-26aa-4d9f-988b-8f02910ac5c4"
      },
      "recordedDate": "2027-08-07T08:00:00.000+00:00"
    },
    "request": {
      "method": "PUT",
      "url": "Condition/f21dc1ef-0a43-4859-bf7e-e1968a060dae"
    }
  }, {
    "fullUrl": "https://madie.cms.gov/Coverage/706f3fe0-504b-45b5-ad47-ba50dddce6ed",
    "resource": {
      "resourceType": "Coverage",
      "id": "706f3fe0-504b-45b5-ad47-ba50dddce6ed",
      "status": "active",
      "type": {
        "coding": [ {
          "system": "http://www.nlm.nih.gov/research/umls/sop",
          "version": "9.2",
          "code": "1",
          "display": "MEDICARE",
          "userSelected": true
        } ]
      },
      "beneficiary": {
        "reference": "Patient/dfbb41c5-26aa-4d9f-988b-8f02910ac5c4"
      },
      "period": {
        "start": "2027-01-01T08:00:00.000+00:00",
        "end": "2027-12-31T08:15:00.000+00:00"
      },
      "payor": [ {
        "reference": "Organization/65d6be81-08a8-4d49-8bec-001ca1aeec39"
      } ]
    },
    "request": {
      "method": "PUT",
      "url": "Coverage/706f3fe0-504b-45b5-ad47-ba50dddce6ed"
    }
  }, {
    "fullUrl": "https://madie.cms.gov/Organization/65d6be81-08a8-4d49-8bec-001ca1aeec39",
    "resource": {
      "resourceType": "Organization",
      "id": "65d6be81-08a8-4d49-8bec-001ca1aeec39",
      "meta": {
        "profile": [ "http://hl7.org/fhir/us/qicore/StructureDefinition/qicore-organization" ]
      },
      "identifier": [ {
        "use": "temp",
        "system": "urn:oid:2.16.840.1.113883.4.4",
        "value": "21-3259825"
      } ],
      "active": true,
      "type": [ {
        "coding": [ {
          "system": "http://terminology.hl7.org/CodeSystem/organization-type",
          "code": "pay",
          "display": "Payer"
        } ]
      } ],
      "name": "Blue Cross Blue Shield of Texas",
      "telecom": [ {
        "system": "phone",
        "value": "(+1) 972-766-6900"
      } ],
      "address": [ {
        "use": "billing",
        "type": "postal",
        "line": [ "P.O. Box 660044" ],
        "city": "Dallas",
        "state": "TX",
        "postalCode": "75266-0044",
        "country": "USA"
      } ]
    },
    "request": {
      "method": "PUT",
      "url": "Organization/65d6be81-08a8-4d49-8bec-001ca1aeec39"
    }
  }, {
    "fullUrl": "https://madie.cms.gov/Practitioner/8886058c-f4f6-4556-afa3-3e77093e02d7",
    "resource": {
      "resourceType": "Practitioner",
      "id": "8886058c-f4f6-4556-afa3-3e77093e02d7",
      "identifier": [ {
        "system": "http://hl7.org/fhir/sid/us-npi",
        "value": "123456"
      } ],
      "name": [ {
        "family": "Evil",
        "prefix": [ "Dr" ]
      } ]
    },
    "request": {
      "method": "PUT",
      "url": "Practitioner/8886058c-f4f6-4556-afa3-3e77093e02d7"
    }
  }, {
    "fullUrl": "https://madie.cms.gov/MeasureReport/9e615778-40cf-4945-892e-1ba4e3aa1436",
    "resource": {
      "resourceType": "MeasureReport",
      "id": "9e615778-40cf-4945-892e-1ba4e3aa1436",
      "meta": {
        "profile": [ "http://hl7.org/fhir/us/cqfmeasures/StructureDefinition/test-case-cqfm" ]
      },
      "contained": [ {
        "resourceType": "Parameters",
        "id": "aaa63d41-ea86-415e-bfdb-b2d07db30606-parameters",
        "parameter": [ {
          "name": "subject",
          "valueString": "dfbb41c5-26aa-4d9f-988b-8f02910ac5c4"
        } ]
      } ],
      "extension": [ {
        "url": "http://hl7.org/fhir/StructureDefinition/cqf-inputParameters",
        "valueReference": {
          "reference": "#aaa63d41-ea86-415e-bfdb-b2d07db30606-parameters"
        }
      }, {
        "url": "http://hl7.org/fhir/us/cqfmeasures/StructureDefinition/cqfm-testCaseDescription",
        "valueMarkdown": "Patient is 17 years 0 months 0 days on Jan 1"
      } ],
      "modifierExtension": [ {
        "url": "http://hl7.org/fhir/us/cqfmeasures/StructureDefinition/cqfm-isTestCase",
        "valueBoolean": true
      } ],
      "status": "complete",
      "type": "individual",
      "measure": "https://madie.cms.gov/Measure/CMS177FHIRChildMDDSuicideAssmt",
      "period": {
        "start": "2026-01-01",
        "end": "2026-12-31"
      },
      "group": [ {
        "id": "Group_1",
        "population": [ {
          "id": "InitialPopulation_1",
          "code": {
            "coding": [ {
              "system": "http://terminology.hl7.org/CodeSystem/measure-population",
              "code": "initial-population",
              "display": "Initial Population"
            } ]
          },
          "count": 0
        }, {
          "id": "Denominator_1",
          "code": {
            "coding": [ {
              "system": "http://terminology.hl7.org/CodeSystem/measure-population",
              "code": "denominator",
              "display": "Denominator"
            } ]
          },
          "count": 0
        }, {
          "id": "Numerator_1",
          "code": {
            "coding": [ {
              "system": "http://terminology.hl7.org/CodeSystem/measure-population",
              "code": "numerator",
              "display": "Numerator"
            } ]
          },
          "count": 0
        } ],
        "measureScore": {
          "value": 0.0
        }
      } ],
      "evaluatedResource": [ {
        "reference": "Patient/dfbb41c5-26aa-4d9f-988b-8f02910ac5c4"
      }, {
        "reference": "Encounter/6069d110-7e0b-48ee-812a-9854bd099af0"
      }, {
        "reference": "Condition/f21dc1ef-0a43-4859-bf7e-e1968a060dae"
      }, {
        "reference": "Coverage/706f3fe0-504b-45b5-ad47-ba50dddce6ed"
      }, {
        "reference": "Organization/65d6be81-08a8-4d49-8bec-001ca1aeec39"
      }, {
        "reference": "Practitioner/8886058c-f4f6-4556-afa3-3e77093e02d7"
      } ]
    },
    "request": {
      "method": "PUT",
      "url": "MeasureReport/9e615778-40cf-4945-892e-1ba4e3aa1436"
    }
  } ]
}