{
  "resourceType": "Bundle",
  "id": "DENEXPass-FallPOAisW",
  "type": "transaction",
  "entry": [ {
    "fullUrl": "https://madie.cms.gov/Patient/951a2d40-7274-4820-bfa5-51d28cfd91ab",
    "resource": {
      "resourceType": "Patient",
      "id": "951a2d40-7274-4820-bfa5-51d28cfd91ab",
      "meta": {
        "profile": [ "http://hl7.org/fhir/us/qicore/StructureDefinition/qicore-patient" ]
      },
      "extension": [ {
        "url": "http://hl7.org/fhir/us/core/StructureDefinition/us-core-race",
        "extension": [ {
          "url": "ombCategory",
          "valueCoding": {
            "system": "urn:oid:2.16.840.1.113883.6.238",
            "code": "1002-5",
            "display": "American Indian or Alaska Native",
            "userSelected": true
          }
        }, {
          "url": "text",
          "valueString": "American Indian or Alaska Native"
        } ]
      }, {
        "url": "http://hl7.org/fhir/us/core/StructureDefinition/us-core-ethnicity",
        "extension": [ {
          "url": "ombCategory",
          "valueCoding": {
            "system": "urn:oid:2.16.840.1.113883.6.238",
            "code": "2135-2",
            "display": "Hispanic or Latino",
            "userSelected": true
          }
        }, {
          "url": "text",
          "valueString": "Hispanic or Latino"
        } ]
      } ],
      "identifier": [ {
        "type": {
          "coding": [ {
            "system": "http://terminology.hl7.org/CodeSystem/v2-0203",
            "code": "MR"
          } ]
        },
        "system": "https://bonnie-fhir.healthit.gov/",
        "value": "61152a3b98086b7a79cbd7c1"
      } ],
      "active": true,
      "name": [ {
        "use": "usual",
        "family": "DENEXPass",
        "given": [ "FallPOAisW" ]
      } ],
      "gender": "female",
      "birthDate": "1964-12-11"
    },
    "request": {
      "method": "PUT",
      "url": "Patient/951a2d40-7274-4820-bfa5-51d28cfd91ab"
    }
  }, {
    "fullUrl": "https://madie.cms.gov/Encounter/d4586373-a58c-4a19-8c2d-e03f0b008f13",
    "resource": {
      "resourceType": "Encounter",
      "id": "d4586373-a58c-4a19-8c2d-e03f0b008f13",
      "meta": {
        "profile": [ "http://hl7.org/fhir/us/qicore/StructureDefinition/qicore-encounter" ]
      },
      "status": "finished",
      "class": {
        "system": "http://terminology.hl7.org/CodeSystem/v3-ActCode",
        "code": "IMP",
        "display": "inpatient encounter"
      },
      "type": [ {
        "coding": [ {
          "system": "http://snomed.info/sct",
          "code": "4525004"
        } ]
      } ],
      "subject": {
        "reference": "Patient/951a2d40-7274-4820-bfa5-51d28cfd91ab"
      },
      "period": {
        "start": "2026-11-09T08:00:00.000+00:00",
        "end": "2026-11-09T10:15:00.000+00:00"
      }
    },
    "request": {
      "method": "PUT",
      "url": "Encounter/d4586373-a58c-4a19-8c2d-e03f0b008f13"
    }
  }, {
    "fullUrl": "https://madie.cms.gov/Encounter/9c5edc21-0f62-4fb8-89a0-57d3c86ddd7b",
    "resource": {
      "resourceType": "Encounter",
      "id": "9c5edc21-0f62-4fb8-89a0-57d3c86ddd7b",
      "meta": {
        "profile": [ "http://hl7.org/fhir/us/qicore/StructureDefinition/qicore-encounter" ]
      },
      "status": "finished",
      "class": {
        "system": "http://terminology.hl7.org/CodeSystem/v3-ActCode",
        "code": "IMP",
        "display": "inpatient encounter"
      },
      "type": [ {
        "coding": [ {
          "system": "http://snomed.info/sct",
          "code": "183452005"
        } ]
      } ],
      "subject": {
        "reference": "Patient/951a2d40-7274-4820-bfa5-51d28cfd91ab"
      },
      "period": {
        "start": "2026-11-09T11:00:00.000+00:00",
        "end": "2026-11-12T08:15:00.000+00:00"
      }
    },
    "request": {
      "method": "PUT",
      "url": "Encounter/9c5edc21-0f62-4fb8-89a0-57d3c86ddd7b"
    }
  }, {
    "fullUrl": "https://madie.cms.gov/Encounter/1de3e826-425a-466e-ac95-29c79e126a8b",
    "resource": {
      "resourceType": "Encounter",
      "id": "1de3e826-425a-466e-ac95-29c79e126a8b",
      "meta": {
        "profile": [ "http://hl7.org/fhir/us/qicore/StructureDefinition/qicore-encounter" ]
      },
      "status": "finished",
      "class": {
        "system": "http://terminology.hl7.org/CodeSystem/v3-ActCode",
        "code": "IMP",
        "display": "inpatient encounter"
      },
      "type": [ {
        "coding": [ {
          "system": "http://snomed.info/sct",
          "code": "448951000124107"
        } ]
      } ],
      "subject": {
        "reference": "Patient/951a2d40-7274-4820-bfa5-51d28cfd91ab"
      },
      "period": {
        "start": "2026-11-09T11:00:00.000+00:00",
        "end": "2026-11-09T22:15:00.000+00:00"
      },
      "reasonReference": [ {
        "reference": "Condition/3b7f88fd-f6f4-463f-a4f6-e6b99d152536"
      } ]
    },
    "request": {
      "method": "PUT",
      "url": "Encounter/1de3e826-425a-466e-ac95-29c79e126a8b"
    }
  }, {
    "fullUrl": "https://madie.cms.gov/Condition/3b7f88fd-f6f4-463f-a4f6-e6b99d152536",
    "resource": {
      "resourceType": "Condition",
      "id": "3b7f88fd-f6f4-463f-a4f6-e6b99d152536",
      "meta": {
        "profile": [ "http://hl7.org/fhir/us/qicore/StructureDefinition/qicore-condition-encounter-diagnosis" ]
      },
      "clinicalStatus": {
        "coding": [ {
          "system": "http://terminology.hl7.org/CodeSystem/condition-clinical",
          "code": "active"
        } ]
      },
      "verificationStatus": {
        "coding": [ {
          "system": "http://terminology.hl7.org/CodeSystem/condition-ver-status",
          "code": "confirmed"
        } ]
      },
      "category": [ {
        "coding": [ {
          "system": "http://terminology.hl7.org/CodeSystem/condition-category",
          "code": "encounter-diagnosis",
          "display": "Encounter Diagnosis"
        } ]
      } ],
      "code": {
        "coding": [ {
          "system": "http://snomed.info/sct",
          "code": "56307009"
        } ]
      },
      "subject": {
        "reference": "Patient/951a2d40-7274-4820-bfa5-51d28cfd91ab"
      },
      "encounter": {
        "reference": "Encounter/9c5edc21-0f62-4fb8-89a0-57d3c86ddd7b"
      }
    },
    "request": {
      "method": "PUT",
      "url": "Condition/3b7f88fd-f6f4-463f-a4f6-e6b99d152536"
    }
  }, {
    "fullUrl": "https://madie.cms.gov/Claim/45974469-2240-4d0a-8f49-a1deb515dc27",
    "resource": {
      "resourceType": "Claim",
      "id": "45974469-2240-4d0a-8f49-a1deb515dc27",
      "meta": {
        "profile": [ "http://hl7.org/fhir/us/qicore/StructureDefinition/qicore-claim" ]
      },
      "status": "active",
      "type": {
        "coding": [ {
          "system": "http://terminology.hl7.org/CodeSystem/claim-type",
          "code": "professional",
          "display": "Professional"
        } ]
      },
      "use": "claim",
      "patient": {
        "reference": "Patient/951a2d40-7274-4820-bfa5-51d28cfd91ab"
      },
      "created": "2026-11-10",
      "provider": {
        "reference": "Practitioner/5d14afb7-ac8a-47c0-b45d-c5a639efee04"
      },
      "priority": {
        "coding": [ {
          "system": "http://terminology.hl7.org/CodeSystem/processpriority",
          "code": "normal"
        } ]
      },
      "diagnosis": [ {
        "sequence": 1,
        "diagnosisCodeableConcept": {
          "coding": [ {
            "system": "http://snomed.info/sct",
            "code": "56307009"
          } ]
        },
        "onAdmission": {
          "coding": [ {
            "system": "https://www.cms.gov/Medicare/Medicare-Fee-for-Service-Payment/HospitalAcqCond/Coding",
            "code": "W"
          } ]
        }
      } ],
      "insurance": [ {
        "sequence": 1,
        "focal": true,
        "coverage": {
          "reference": "Coverage/c4a4318c-1af2-4531-841b-d559503d8016"
        }
      } ],
      "item": [ {
        "sequence": 1,
        "diagnosisSequence": [ 1, 2 ],
        "productOrService": {
          "coding": [ {
            "system": "http://terminology.hl7.org/CodeSystem/ex-USCLS",
            "code": "1101"
          } ]
        },
        "encounter": [ {
          "reference": "Encounter/9c5edc21-0f62-4fb8-89a0-57d3c86ddd7b"
        } ]
      } ]
    },
    "request": {
      "method": "PUT",
      "url": "Claim/45974469-2240-4d0a-8f49-a1deb515dc27"
    }
  }, {
    "fullUrl": "https://madie.cms.gov/Practitioner/5d14afb7-ac8a-47c0-b45d-c5a639efee04",
    "resource": {
      "resourceType": "Practitioner",
      "id": "5d14afb7-ac8a-47c0-b45d-c5a639efee04",
      "meta": {
        "profile": [ "http://hl7.org/fhir/us/qicore/StructureDefinition/qicore-practitioner" ]
      },
      "identifier": [ {
        "system": "http://www.cms.gov/identifiers/pracitioners",
        "value": "P12345"
      } ],
      "name": [ {
        "use": "official",
        "family": "Smith",
        "given": [ "John" ]
      } ],
      "qualification": [ {
        "identifier": [ {
          "system": "http://hl7.org/fhir/sid/us-npi",
          "value": "1234567890"
        } ],
        "code": {
          "coding": [ {
            "system": "http://terminology.hl7.org/CodeSystem/v2-0203",
            "code": "MD",
            "display": "Medical License number"
          } ]
        }
      } ]
    },
    "request": {
      "method": "PUT",
      "url": "Practitioner/5d14afb7-ac8a-47c0-b45d-c5a639efee04"
    }
  }, {
    "fullUrl": "https://madie.cms.gov/Coverage/c4a4318c-1af2-4531-841b-d559503d8016",
    "resource": {
      "resourceType": "Coverage",
      "id": "c4a4318c-1af2-4531-841b-d559503d8016",
      "meta": {
        "profile": [ "http://hl7.org/fhir/us/qicore/StructureDefinition/qicore-coverage" ]
      },
      "identifier": [ {
        "use": "official",
        "type": {
          "coding": [ {
            "system": "http://terminology.hl7.org/CodeSystem/v2-0203",
            "code": "MB"
          } ]
        },
        "system": "http://insuranceNumber.org/",
        "value": "123456789"
      } ],
      "status": "active",
      "beneficiary": {
        "reference": "Patient/951a2d40-7274-4820-bfa5-51d28cfd91ab"
      },
      "relationship": {
        "coding": [ {
          "system": "http://terminology.hl7.org/CodeSystem/subscriber-relationship",
          "code": "self",
          "display": "Self"
        } ]
      },
      "payor": [ {
        "reference": "Organization/afad132a-7290-47a5-85b7-1dde2be89b50"
      } ]
    },
    "request": {
      "method": "PUT",
      "url": "Coverage/c4a4318c-1af2-4531-841b-d559503d8016"
    }
  }, {
    "fullUrl": "https://madie.cms.gov/Organization/afad132a-7290-47a5-85b7-1dde2be89b50",
    "resource": {
      "resourceType": "Organization",
      "id": "afad132a-7290-47a5-85b7-1dde2be89b50",
      "meta": {
        "profile": [ "http://hl7.org/fhir/us/qicore/StructureDefinition/qicore-organization" ]
      },
      "identifier": [ {
        "system": "http://cms.gov/insurance-ids",
        "value": "AET12345"
      } ],
      "active": true,
      "type": [ {
        "coding": [ {
          "system": "http://terminology.hl7.org/CodeSystem/organization-type",
          "code": "prov",
          "display": "Healthcare Provider"
        } ]
      } ],
      "name": "Aetna Insurance",
      "telecom": [ {
        "system": "phone",
        "value": "+1-800-123-4567"
      } ],
      "address": [ {
        "line": [ "123 Main Street" ],
        "city": "Cityville",
        "state": "CA",
        "postalCode": "12345",
        "country": "USA"
      } ]
    },
    "request": {
      "method": "PUT",
      "url": "Organization/afad132a-7290-47a5-85b7-1dde2be89b50"
    }
  }, {
    "fullUrl": "https://madie.cms.gov/MeasureReport/f9f72035-8739-482a-b1f0-dedb9a472081",
    "resource": {
      "resourceType": "MeasureReport",
      "id": "f9f72035-8739-482a-b1f0-dedb9a472081",
      "meta": {
        "profile": [ "http://hl7.org/fhir/us/cqfmeasures/StructureDefinition/test-case-cqfm" ]
      },
      "contained": [ {
        "resourceType": "Parameters",
        "id": "77bcd75e-38e3-4a7d-acc6-411660af6451-parameters",
        "parameter": [ {
          "name": "subject",
          "valueString": "951a2d40-7274-4820-bfa5-51d28cfd91ab"
        } ]
      } ],
      "extension": [ {
        "url": "http://hl7.org/fhir/StructureDefinition/cqf-inputParameters",
        "valueReference": {
          "reference": "#77bcd75e-38e3-4a7d-acc6-411660af6451-parameters"
        }
      }, {
        "url": "http://hl7.org/fhir/us/cqfmeasures/StructureDefinition/cqfm-testCaseDescription",
        "valueMarkdown": "Encounter starts in ED, then Observation, then IP with a fall POA (ind = W). Denom excluded\n"
      } ],
      "modifierExtension": [ {
        "url": "http://hl7.org/fhir/us/cqfmeasures/StructureDefinition/cqfm-isTestCase",
        "valueBoolean": true
      } ],
      "status": "complete",
      "type": "individual",
      "measure": "https://madie.cms.gov/Measure/CMS1017FHIRHHFI",
      "period": {
        "start": "2026-01-01",
        "end": "2026-12-31"
      },
      "group": [ {
        "id": "Group_1",
        "population": [ {
          "id": "InitialPopulation_1",
          "code": {
            "coding": [ {
              "system": "http://terminology.hl7.org/CodeSystem/measure-population",
              "code": "initial-population",
              "display": "Initial Population"
            } ]
          },
          "count": 1
        }, {
          "id": "Denominator_1",
          "code": {
            "coding": [ {
              "system": "http://terminology.hl7.org/CodeSystem/measure-population",
              "code": "denominator",
              "display": "Denominator"
            } ]
          },
          "count": 1
        }, {
          "id": "DenominatorExclusion_1",
          "code": {
            "coding": [ {
              "system": "http://terminology.hl7.org/CodeSystem/measure-population",
              "code": "denominator-exclusion",
              "display": "Denominator Exclusion"
            } ]
          },
          "count": 1
        }, {
          "id": "Numerator_1",
          "code": {
            "coding": [ {
              "system": "http://terminology.hl7.org/CodeSystem/measure-population",
              "code": "numerator",
              "display": "Numerator"
            } ]
          },
          "count": 0
        }, {
          "id": "NumeratorExclusion_1",
          "code": {
            "coding": [ {
              "system": "http://terminology.hl7.org/CodeSystem/measure-population",
              "code": "numerator-exclusion",
              "display": "Numerator Exclusion"
            } ]
          },
          "count": 0
        } ],
        "measureScore": {
          "value": 0.0
        }
      } ],
      "evaluatedResource": [ {
        "reference": "Patient/951a2d40-7274-4820-bfa5-51d28cfd91ab"
      }, {
        "reference": "Encounter/d4586373-a58c-4a19-8c2d-e03f0b008f13"
      }, {
        "reference": "Encounter/9c5edc21-0f62-4fb8-89a0-57d3c86ddd7b"
      }, {
        "reference": "Encounter/1de3e826-425a-466e-ac95-29c79e126a8b"
      }, {
        "reference": "Condition/3b7f88fd-f6f4-463f-a4f6-e6b99d152536"
      }, {
        "reference": "Claim/45974469-2240-4d0a-8f49-a1deb515dc27"
      }, {
        "reference": "Practitioner/5d14afb7-ac8a-47c0-b45d-c5a639efee04"
      }, {
        "reference": "Coverage/c4a4318c-1af2-4531-841b-d559503d8016"
      }, {
        "reference": "Organization/afad132a-7290-47a5-85b7-1dde2be89b50"
      } ]
    },
    "request": {
      "method": "PUT",
      "url": "MeasureReport/f9f72035-8739-482a-b1f0-dedb9a472081"
    }
  } ]
}