{
  "resourceType": "Bundle",
  "id": "845e80a15a66f70123cr8999",
  "type": "transaction",
  "entry": [ {
    "fullUrl": "https://madie.cms.gov/Patient/1c6d80a4-8d22-42fc-8257-18a1e1be073a",
    "resource": {
      "resourceType": "Patient",
      "id": "1c6d80a4-8d22-42fc-8257-18a1e1be073a",
      "meta": {
        "profile": [ "http://hl7.org/fhir/us/qicore/StructureDefinition/qicore-patient" ]
      },
      "extension": [ {
        "url": "http://hl7.org/fhir/us/core/StructureDefinition/us-core-race",
        "extension": [ {
          "url": "ombCategory",
          "valueCoding": {
            "system": "urn:oid:2.16.840.1.113883.6.238",
            "code": "2028-9",
            "display": "Asian",
            "userSelected": true
          }
        }, {
          "url": "text",
          "valueString": "Asian"
        } ]
      }, {
        "url": "http://hl7.org/fhir/us/core/StructureDefinition/us-core-ethnicity",
        "extension": [ {
          "url": "ombCategory",
          "valueCoding": {
            "system": "urn:oid:2.16.840.1.113883.6.238",
            "code": "2186-5",
            "display": "Not Hispanic or Latino",
            "userSelected": true
          }
        }, {
          "url": "text",
          "valueString": "Not Hispanic or Latino"
        } ]
      } ],
      "identifier": [ {
        "system": "http://hospital.smarthealthit.org",
        "value": "999999999"
      } ],
      "name": [ {
        "family": "NUMERFail",
        "given": [ "NonoralAntagonistInOR" ]
      } ],
      "gender": "male",
      "birthDate": "1984-12-02"
    },
    "request": {
      "method": "PUT",
      "url": "Patient/1c6d80a4-8d22-42fc-8257-18a1e1be073a"
    }
  }, {
    "fullUrl": "https://madie.cms.gov/Encounter/bc9e5c84-5f81-4a07-ba6d-f272370c7c37",
    "resource": {
      "resourceType": "Encounter",
      "id": "bc9e5c84-5f81-4a07-ba6d-f272370c7c37",
      "meta": {
        "profile": [ "http://hl7.org/fhir/us/qicore/StructureDefinition/qicore-encounter" ]
      },
      "status": "finished",
      "class": {
        "system": "http://terminology.hl7.org/CodeSystem/v3-ActCode",
        "code": "IMP",
        "display": "inpatient encounter"
      },
      "type": [ {
        "coding": [ {
          "system": "http://snomed.info/sct",
          "code": "183452005"
        } ]
      } ],
      "subject": {
        "reference": "Patient/1c6d80a4-8d22-42fc-8257-18a1e1be073a"
      },
      "period": {
        "start": "2025-12-30T08:00:00.000+00:00",
        "end": "2026-02-08T08:15:00.000+00:00"
      },
      "location": [ {
        "location": {
          "reference": "Location/429e68ed-75ce-4b77-bf29-69bb6cf8e009"
        },
        "period": {
          "start": "2025-12-31T09:00:00.000+00:00",
          "end": "2025-12-31T11:15:00.000+00:00"
        }
      } ]
    },
    "request": {
      "method": "PUT",
      "url": "Encounter/bc9e5c84-5f81-4a07-ba6d-f272370c7c37"
    }
  }, {
    "fullUrl": "https://madie.cms.gov/Location/429e68ed-75ce-4b77-bf29-69bb6cf8e009",
    "resource": {
      "resourceType": "Location",
      "id": "429e68ed-75ce-4b77-bf29-69bb6cf8e009",
      "meta": {
        "profile": [ "http://hl7.org/fhir/us/qicore/StructureDefinition/qicore-location" ]
      },
      "identifier": [ {
        "use": "usual",
        "system": "http://exampleoflocation.com",
        "value": "B1-S.F2"
      } ],
      "name": "Medical Surgical East, first floor",
      "type": [ {
        "coding": [ {
          "system": "https://www.cdc.gov/nhsn/cdaportal/terminology/codesystem/hsloc.html",
          "code": "1096-7",
          "display": "Operating Room/Suite"
        } ]
      } ]
    },
    "request": {
      "method": "PUT",
      "url": "Location/429e68ed-75ce-4b77-bf29-69bb6cf8e009"
    }
  }, {
    "fullUrl": "https://madie.cms.gov/MedicationAdministration/21f1547e-0521-432a-a196-80a5c3227cbf",
    "resource": {
      "resourceType": "MedicationAdministration",
      "id": "21f1547e-0521-432a-a196-80a5c3227cbf",
      "meta": {
        "profile": [ "http://hl7.org/fhir/us/qicore/StructureDefinition/qicore-medicationadministration" ]
      },
      "status": "completed",
      "medicationCodeableConcept": {
        "coding": [ {
          "system": "http://www.nlm.nih.gov/research/umls/rxnorm",
          "code": "1010600",
          "display": "Opioids, All"
        } ]
      },
      "subject": {
        "reference": "Patient/1c6d80a4-8d22-42fc-8257-18a1e1be073a"
      },
      "effectivePeriod": {
        "start": "2025-12-31T08:00:00.000+00:00",
        "end": "2025-12-31T08:15:00.000+00:00"
      }
    },
    "request": {
      "method": "PUT",
      "url": "MedicationAdministration/21f1547e-0521-432a-a196-80a5c3227cbf"
    }
  }, {
    "fullUrl": "https://madie.cms.gov/MedicationAdministration/30b737b3-bf80-4408-8d3f-aaae7efa6d6e",
    "resource": {
      "resourceType": "MedicationAdministration",
      "id": "30b737b3-bf80-4408-8d3f-aaae7efa6d6e",
      "meta": {
        "profile": [ "http://hl7.org/fhir/us/qicore/StructureDefinition/qicore-medicationadministration" ]
      },
      "status": "completed",
      "medicationCodeableConcept": {
        "coding": [ {
          "system": "http://www.nlm.nih.gov/research/umls/rxnorm",
          "code": "2589612",
          "display": "Opioid Antagonist"
        } ]
      },
      "subject": {
        "reference": "Patient/1c6d80a4-8d22-42fc-8257-18a1e1be073a"
      },
      "effectiveDateTime": "2025-12-31T10:00:00.000+00:00",
      "dosage": {
        "route": {
          "coding": [ {
            "system": "http://snomed.info/sct",
            "code": "420201002",
            "display": "Intrapulmonary route"
          } ]
        }
      }
    },
    "request": {
      "method": "PUT",
      "url": "MedicationAdministration/30b737b3-bf80-4408-8d3f-aaae7efa6d6e"
    }
  }, {
    "fullUrl": "https://madie.cms.gov/Coverage/83596da5-4d65-4f42-9571-d7a0c11d0dbb",
    "resource": {
      "resourceType": "Coverage",
      "id": "83596da5-4d65-4f42-9571-d7a0c11d0dbb",
      "meta": {
        "profile": [ "http://hl7.org/fhir/us/qicore/StructureDefinition/qicore-coverage" ]
      },
      "status": "active",
      "subscriberId": "523435",
      "beneficiary": {
        "reference": "Patient/1c6d80a4-8d22-42fc-8257-18a1e1be073a"
      },
      "relationship": {
        "coding": [ {
          "system": "http://terminology.hl7.org/CodeSystem/subscriber-relationship",
          "code": "self"
        } ]
      },
      "payor": [ {
        "reference": "Organization/54e3dc9f-aa6e-449f-9a70-d7bee06e1ad4"
      } ]
    },
    "request": {
      "method": "PUT",
      "url": "Coverage/83596da5-4d65-4f42-9571-d7a0c11d0dbb"
    }
  }, {
    "fullUrl": "https://madie.cms.gov/Organization/54e3dc9f-aa6e-449f-9a70-d7bee06e1ad4",
    "resource": {
      "resourceType": "Organization",
      "id": "54e3dc9f-aa6e-449f-9a70-d7bee06e1ad4",
      "meta": {
        "profile": [ "http://hl7.org/fhir/us/qicore/StructureDefinition/qicore-organization" ]
      },
      "identifier": [ {
        "use": "temp",
        "system": "urn:oid:2.16.840.1.113883.4.4",
        "value": "21-3259825"
      } ],
      "active": true,
      "type": [ {
        "coding": [ {
          "system": "http://terminology.hl7.org/CodeSystem/organization-type",
          "code": "pay",
          "display": "Payer"
        } ]
      } ],
      "name": "Blue Cross Blue Shield of Texas",
      "telecom": [ {
        "system": "phone",
        "value": "(+1) 972-766-6900"
      } ],
      "address": [ {
        "use": "billing",
        "type": "postal",
        "line": [ "P.O. Box 660044" ],
        "city": "Dallas",
        "state": "TX",
        "postalCode": "75266-0044",
        "country": "USA"
      } ]
    },
    "request": {
      "method": "PUT",
      "url": "Organization/54e3dc9f-aa6e-449f-9a70-d7bee06e1ad4"
    }
  }, {
    "fullUrl": "https://madie.cms.gov/MeasureReport/c625c14a-4de7-4441-b331-6917c7df930c",
    "resource": {
      "resourceType": "MeasureReport",
      "id": "c625c14a-4de7-4441-b331-6917c7df930c",
      "meta": {
        "profile": [ "http://hl7.org/fhir/us/cqfmeasures/StructureDefinition/test-case-cqfm" ]
      },
      "contained": [ {
        "resourceType": "Parameters",
        "id": "92c8a31d-afeb-4a78-9138-602b2051f22b-parameters",
        "parameter": [ {
          "name": "subject",
          "valueString": "1c6d80a4-8d22-42fc-8257-18a1e1be073a"
        } ]
      } ],
      "extension": [ {
        "url": "http://hl7.org/fhir/StructureDefinition/cqf-inputParameters",
        "valueReference": {
          "reference": "#92c8a31d-afeb-4a78-9138-602b2051f22b-parameters"
        }
      }, {
        "url": "http://hl7.org/fhir/us/cqfmeasures/StructureDefinition/cqfm-testCaseDescription",
        "valueMarkdown": "Encounter-1 12/30 0800 of prev yr - 2/08 0815 of MP, in OR 12/31 0900 - 1115,  MedAdmin-1 12/31 Opioid 0800-0815, MedAdmin-2 12/31 Nonoral Antagonist at 1000 in OR"
      } ],
      "modifierExtension": [ {
        "url": "http://hl7.org/fhir/us/cqfmeasures/StructureDefinition/cqfm-isTestCase",
        "valueBoolean": true
      } ],
      "status": "complete",
      "type": "individual",
      "measure": "https://madie.cms.gov/Measure/CMS819FHIRHHORAE",
      "period": {
        "start": "2026-01-01",
        "end": "2026-12-31"
      },
      "group": [ {
        "id": "Group_1",
        "population": [ {
          "id": "InitialPopulation_1",
          "code": {
            "coding": [ {
              "system": "http://terminology.hl7.org/CodeSystem/measure-population",
              "code": "initial-population",
              "display": "Initial Population"
            } ]
          },
          "count": 1
        }, {
          "id": "Denominator_1",
          "code": {
            "coding": [ {
              "system": "http://terminology.hl7.org/CodeSystem/measure-population",
              "code": "denominator",
              "display": "Denominator"
            } ]
          },
          "count": 1
        }, {
          "id": "Numerator_1",
          "code": {
            "coding": [ {
              "system": "http://terminology.hl7.org/CodeSystem/measure-population",
              "code": "numerator",
              "display": "Numerator"
            } ]
          },
          "count": 0
        } ],
        "measureScore": {
          "value": 0.0
        }
      } ],
      "evaluatedResource": [ {
        "reference": "Patient/1c6d80a4-8d22-42fc-8257-18a1e1be073a"
      }, {
        "reference": "Encounter/bc9e5c84-5f81-4a07-ba6d-f272370c7c37"
      }, {
        "reference": "Location/429e68ed-75ce-4b77-bf29-69bb6cf8e009"
      }, {
        "reference": "MedicationAdministration/21f1547e-0521-432a-a196-80a5c3227cbf"
      }, {
        "reference": "MedicationAdministration/30b737b3-bf80-4408-8d3f-aaae7efa6d6e"
      }, {
        "reference": "Coverage/83596da5-4d65-4f42-9571-d7a0c11d0dbb"
      }, {
        "reference": "Organization/54e3dc9f-aa6e-449f-9a70-d7bee06e1ad4"
      } ]
    },
    "request": {
      "method": "PUT",
      "url": "MeasureReport/c625c14a-4de7-4441-b331-6917c7df930c"
    }
  } ]
}