{
  "resourceType": "Bundle",
  "id": "64137f014b11b147841ab90a",
  "type": "transaction",
  "entry": [ {
    "fullUrl": "https://madie.cms.gov/Patient/ac7a62b6-a440-4d4c-849d-0ce05743109c",
    "resource": {
      "resourceType": "Patient",
      "id": "ac7a62b6-a440-4d4c-849d-0ce05743109c",
      "meta": {
        "profile": [ "http://hl7.org/fhir/us/qicore/StructureDefinition/qicore-patient" ]
      },
      "extension": [ {
        "url": "http://hl7.org/fhir/us/core/StructureDefinition/us-core-race",
        "extension": [ {
          "url": "ombCategory",
          "valueCoding": {
            "system": "urn:oid:2.16.840.1.113883.6.238",
            "code": "2076-8",
            "display": "Native Hawaiian or Other Pacific Islander",
            "userSelected": true
          }
        }, {
          "url": "text",
          "valueString": "Native Hawaiian or Other Pacific Islander"
        } ]
      }, {
        "url": "http://hl7.org/fhir/us/core/StructureDefinition/us-core-ethnicity",
        "extension": [ {
          "url": "ombCategory",
          "valueCoding": {
            "system": "urn:oid:2.16.840.1.113883.6.238",
            "code": "2186-5",
            "display": "Not Hispanic or Latino",
            "userSelected": true
          }
        }, {
          "url": "text",
          "valueString": "Not Hispanic or Latino"
        } ]
      } ],
      "identifier": [ {
        "type": {
          "coding": [ {
            "system": "http://terminology.hl7.org/CodeSystem/v2-0203",
            "code": "MR"
          } ]
        },
        "system": "https://bonnie-fhir.healthit.gov/",
        "value": "64137f014b11b147841ab90a"
      } ],
      "name": [ {
        "family": "NUMERPass",
        "given": [ "EdgeAge18Jan1" ]
      } ],
      "gender": "male",
      "birthDate": "2008-01-01"
    },
    "request": {
      "method": "PUT",
      "url": "Patient/ac7a62b6-a440-4d4c-849d-0ce05743109c"
    }
  }, {
    "fullUrl": "https://madie.cms.gov/Condition/ca575523-ec7b-47c1-851a-bc7968c62adb",
    "resource": {
      "resourceType": "Condition",
      "id": "ca575523-ec7b-47c1-851a-bc7968c62adb",
      "meta": {
        "profile": [ "http://hl7.org/fhir/us/qicore/StructureDefinition/qicore-condition-encounter-diagnosis" ]
      },
      "clinicalStatus": {
        "coding": [ {
          "system": "http://terminology.hl7.org/CodeSystem/condition-clinical",
          "code": "active",
          "display": "active",
          "userSelected": true
        } ]
      },
      "category": [ {
        "coding": [ {
          "system": "http://terminology.hl7.org/CodeSystem/condition-category",
          "code": "encounter-diagnosis",
          "display": "Encounter Diagnosis",
          "userSelected": true
        } ]
      } ],
      "code": {
        "coding": [ {
          "system": "http://snomed.info/sct",
          "version": "2021-09",
          "code": "102781000119107",
          "display": "Sensory neuropathy due to type 1 diabetes mellitus (disorder)",
          "userSelected": true
        } ]
      },
      "subject": {
        "reference": "Patient/ac7a62b6-a440-4d4c-849d-0ce05743109c"
      },
      "onsetDateTime": "2025-09-01T08:00:00.000+00:00"
    },
    "request": {
      "method": "PUT",
      "url": "Condition/ca575523-ec7b-47c1-851a-bc7968c62adb"
    }
  }, {
    "fullUrl": "https://madie.cms.gov/Encounter/f2c4239e-9134-4a6e-a282-81d366a0ad1f",
    "resource": {
      "resourceType": "Encounter",
      "id": "f2c4239e-9134-4a6e-a282-81d366a0ad1f",
      "meta": {
        "profile": [ "http://hl7.org/fhir/us/qicore/StructureDefinition/qicore-encounter" ]
      },
      "status": "finished",
      "class": {
        "system": "http://terminology.hl7.org/CodeSystem/v3-ActCode",
        "code": "AMB",
        "display": "ambulatory",
        "userSelected": true
      },
      "type": [ {
        "coding": [ {
          "system": "http://www.ama-assn.org/go/cpt",
          "version": "2021",
          "code": "99385",
          "display": "Initial comprehensive preventive medicine evaluation and management of an individual including an age and gender appropriate history, examination, counseling/anticipatory guidance/risk factor reduction interventions, and the ordering of laboratory/diagnostic procedures, new patient; 18-39 years",
          "userSelected": true
        } ]
      } ],
      "subject": {
        "reference": "Patient/ac7a62b6-a440-4d4c-849d-0ce05743109c"
      },
      "period": {
        "start": "2026-03-16T08:00:00.000+00:00",
        "end": "2026-03-16T08:15:00.000+00:00"
      }
    },
    "request": {
      "method": "PUT",
      "url": "Encounter/f2c4239e-9134-4a6e-a282-81d366a0ad1f"
    }
  }, {
    "fullUrl": "https://madie.cms.gov/Observation/31c23d58-b37f-47ad-82c0-eb20c607b2c1",
    "resource": {
      "resourceType": "Observation",
      "id": "31c23d58-b37f-47ad-82c0-eb20c607b2c1",
      "meta": {
        "profile": [ "http://hl7.org/fhir/us/qicore/StructureDefinition/qicore-observation-lab" ]
      },
      "status": "final",
      "category": [ {
        "coding": [ {
          "system": "http://terminology.hl7.org/CodeSystem/observation-category",
          "code": "laboratory",
          "display": "Laboratory",
          "userSelected": true
        } ]
      } ],
      "code": {
        "coding": [ {
          "system": "http://loinc.org",
          "version": "2.71",
          "code": "48642-3",
          "display": "Glomerular filtration rate [Volume Rate/Area] in Serum, Plasma or Blood by Creatinine-based formula (MDRD)/1.73 sq M among non black population",
          "userSelected": true
        } ]
      },
      "subject": {
        "reference": "Patient/ac7a62b6-a440-4d4c-849d-0ce05743109c"
      },
      "effectiveDateTime": "2026-01-05T08:00:00.000+00:00",
      "valueBoolean": true
    },
    "request": {
      "method": "PUT",
      "url": "Observation/31c23d58-b37f-47ad-82c0-eb20c607b2c1"
    }
  }, {
    "fullUrl": "https://madie.cms.gov/Observation/917d222d-4ee2-46c9-bb03-05b8ae010d56",
    "resource": {
      "resourceType": "Observation",
      "id": "917d222d-4ee2-46c9-bb03-05b8ae010d56",
      "meta": {
        "profile": [ "http://hl7.org/fhir/us/qicore/StructureDefinition/qicore-observation-lab" ]
      },
      "status": "final",
      "category": [ {
        "coding": [ {
          "system": "http://terminology.hl7.org/CodeSystem/observation-category",
          "code": "laboratory",
          "display": "Laboratory",
          "userSelected": true
        } ]
      } ],
      "code": {
        "coding": [ {
          "system": "http://loinc.org",
          "version": "2.71",
          "code": "13705-9",
          "display": "Albumin/Creatinine [Mass Ratio] in 24 hour Urine",
          "userSelected": true
        } ]
      },
      "subject": {
        "reference": "Patient/ac7a62b6-a440-4d4c-849d-0ce05743109c"
      },
      "effectiveDateTime": "2026-01-05T08:00:00.000+00:00",
      "valueQuantity": {
        "value": 30,
        "unit": "mg/g",
        "system": "http://unitsofmeasure.org",
        "code": "mg/g"
      }
    },
    "request": {
      "method": "PUT",
      "url": "Observation/917d222d-4ee2-46c9-bb03-05b8ae010d56"
    }
  }, {
    "fullUrl": "https://madie.cms.gov/MeasureReport/f79ffa99-1097-443f-acc3-fd7d06ce5e4b",
    "resource": {
      "resourceType": "MeasureReport",
      "id": "f79ffa99-1097-443f-acc3-fd7d06ce5e4b",
      "meta": {
        "profile": [ "http://hl7.org/fhir/us/cqfmeasures/StructureDefinition/test-case-cqfm" ]
      },
      "contained": [ {
        "resourceType": "Parameters",
        "id": "5560b021-5251-48a6-92e0-1ef8eb0e6673-parameters",
        "parameter": [ {
          "name": "subject",
          "valueString": "ac7a62b6-a440-4d4c-849d-0ce05743109c"
        } ]
      } ],
      "extension": [ {
        "url": "http://hl7.org/fhir/StructureDefinition/cqf-inputParameters",
        "valueReference": {
          "reference": "#5560b021-5251-48a6-92e0-1ef8eb0e6673-parameters"
        }
      }, {
        "url": "http://hl7.org/fhir/us/cqfmeasures/StructureDefinition/cqfm-testCaseDescription",
        "valueMarkdown": "This patient turns 18 years the first day of the measurement period, and has a qualifying encounter, active diabetes diagnosis, and both qualifying labs. This case tests the IPP age criteria."
      } ],
      "modifierExtension": [ {
        "url": "http://hl7.org/fhir/us/cqfmeasures/StructureDefinition/cqfm-isTestCase",
        "valueBoolean": true
      } ],
      "status": "complete",
      "type": "individual",
      "measure": "https://madie.cms.gov/Measure/CMS951FHIRKidneyHealthEval",
      "period": {
        "start": "2026-01-01",
        "end": "2026-12-31"
      },
      "group": [ {
        "id": "Group_1",
        "population": [ {
          "id": "InitialPopulation_1",
          "code": {
            "coding": [ {
              "system": "http://terminology.hl7.org/CodeSystem/measure-population",
              "code": "initial-population",
              "display": "Initial Population"
            } ]
          },
          "count": 1
        }, {
          "id": "Denominator_1",
          "code": {
            "coding": [ {
              "system": "http://terminology.hl7.org/CodeSystem/measure-population",
              "code": "denominator",
              "display": "Denominator"
            } ]
          },
          "count": 1
        }, {
          "id": "DenominatorExclusion_1",
          "code": {
            "coding": [ {
              "system": "http://terminology.hl7.org/CodeSystem/measure-population",
              "code": "denominator-exclusion",
              "display": "Denominator Exclusion"
            } ]
          },
          "count": 0
        }, {
          "id": "Numerator_1",
          "code": {
            "coding": [ {
              "system": "http://terminology.hl7.org/CodeSystem/measure-population",
              "code": "numerator",
              "display": "Numerator"
            } ]
          },
          "count": 1
        } ],
        "measureScore": {
          "value": 1.0
        }
      } ],
      "evaluatedResource": [ {
        "reference": "Patient/ac7a62b6-a440-4d4c-849d-0ce05743109c"
      }, {
        "reference": "Condition/ca575523-ec7b-47c1-851a-bc7968c62adb"
      }, {
        "reference": "Encounter/f2c4239e-9134-4a6e-a282-81d366a0ad1f"
      }, {
        "reference": "Observation/31c23d58-b37f-47ad-82c0-eb20c607b2c1"
      }, {
        "reference": "Observation/917d222d-4ee2-46c9-bb03-05b8ae010d56"
      } ]
    },
    "request": {
      "method": "PUT",
      "url": "MeasureReport/f79ffa99-1097-443f-acc3-fd7d06ce5e4b"
    }
  } ]
}