{
  "resourceType": "Bundle",
  "id": "689erae12a56ae25g96a54p0",
  "type": "transaction",
  "entry": [ {
    "fullUrl": "https://madie.cms.gov/Patient/132d772a-bf2d-4a80-998a-bef3b655501e",
    "resource": {
      "resourceType": "Patient",
      "id": "132d772a-bf2d-4a80-998a-bef3b655501e",
      "meta": {
        "profile": [ "http://hl7.org/fhir/us/qicore/StructureDefinition/qicore-patient" ]
      },
      "extension": [ {
        "url": "http://hl7.org/fhir/us/core/StructureDefinition/us-core-ethnicity",
        "extension": [ {
          "url": "ombCategory",
          "valueCoding": {
            "system": "urn:oid:2.16.840.1.113883.6.238",
            "code": "2135-2",
            "display": "Hispanic or Latino",
            "userSelected": true
          }
        }, {
          "url": "text",
          "valueString": "Hispanic or Latino"
        } ]
      } ],
      "identifier": [ {
        "system": "http://hospital.smarthealthit.org",
        "value": "999999999"
      } ],
      "name": [ {
        "family": "NUMERPass",
        "given": [ "2ConcurrentOpioidMedsAtDisch" ]
      } ],
      "gender": "male",
      "birthDate": "2005-04-07"
    },
    "request": {
      "method": "PUT",
      "url": "Patient/132d772a-bf2d-4a80-998a-bef3b655501e"
    }
  }, {
    "fullUrl": "https://madie.cms.gov/Encounter/4cd6ed2e-753b-4e7c-9d2b-e6d1b7def0cd",
    "resource": {
      "resourceType": "Encounter",
      "id": "4cd6ed2e-753b-4e7c-9d2b-e6d1b7def0cd",
      "meta": {
        "profile": [ "http://hl7.org/fhir/us/qicore/StructureDefinition/qicore-encounter" ]
      },
      "status": "finished",
      "class": {
        "system": "http://terminology.hl7.org/CodeSystem/v3-ActCode",
        "code": "IMP",
        "display": "inpatient encounter"
      },
      "type": [ {
        "coding": [ {
          "system": "http://snomed.info/sct",
          "code": "32485007",
          "display": "Hospital admission (procedure)",
          "userSelected": true
        } ]
      } ],
      "subject": {
        "reference": "Patient/132d772a-bf2d-4a80-998a-bef3b655501e"
      },
      "period": {
        "start": "2026-03-26T10:00:00.000+00:00",
        "end": "2026-03-28T10:20:00.000+00:00"
      }
    },
    "request": {
      "method": "PUT",
      "url": "Encounter/4cd6ed2e-753b-4e7c-9d2b-e6d1b7def0cd"
    }
  }, {
    "fullUrl": "https://madie.cms.gov/MedicationRequest/57ba46c7-3339-4d9a-b9fa-c6f182dc3f7d",
    "resource": {
      "resourceType": "MedicationRequest",
      "id": "57ba46c7-3339-4d9a-b9fa-c6f182dc3f7d",
      "meta": {
        "profile": [ "http://hl7.org/fhir/us/qicore/StructureDefinition/qicore-medicationrequest" ]
      },
      "status": "completed",
      "intent": "order",
      "category": [ {
        "coding": [ {
          "system": "http://terminology.hl7.org/CodeSystem/medicationrequest-category",
          "code": "community",
          "display": "Community",
          "userSelected": true
        } ]
      } ],
      "doNotPerform": false,
      "medicationCodeableConcept": {
        "coding": [ {
          "system": "http://www.nlm.nih.gov/research/umls/rxnorm",
          "code": "1014599",
          "display": "acetaminophen 300 MG / oxycodone hydrochloride 10 MG Oral Tablet",
          "userSelected": true
        } ]
      },
      "subject": {
        "reference": "Patient/132d772a-bf2d-4a80-998a-bef3b655501e"
      },
      "authoredOn": "2026-03-28T10:20:00.000+00:00",
      "requester": {
        "reference": "Practitioner/de513e05-27d2-4221-afaa-85287bf11932"
      }
    },
    "request": {
      "method": "PUT",
      "url": "MedicationRequest/57ba46c7-3339-4d9a-b9fa-c6f182dc3f7d"
    }
  }, {
    "fullUrl": "https://madie.cms.gov/MedicationRequest/1b830b3b-41b0-4011-ab2d-ba8aea02b67e",
    "resource": {
      "resourceType": "MedicationRequest",
      "id": "1b830b3b-41b0-4011-ab2d-ba8aea02b67e",
      "meta": {
        "profile": [ "http://hl7.org/fhir/us/qicore/StructureDefinition/qicore-medicationrequest" ]
      },
      "status": "active",
      "intent": "reflex-order",
      "category": [ {
        "coding": [ {
          "system": "http://terminology.hl7.org/CodeSystem/medicationrequest-category",
          "code": "discharge",
          "display": "Discharge",
          "userSelected": true
        } ]
      } ],
      "doNotPerform": false,
      "medicationCodeableConcept": {
        "coding": [ {
          "system": "http://www.nlm.nih.gov/research/umls/rxnorm",
          "code": "1791567",
          "display": "Abuse-Deterrent 12 HR oxycodone 18 MG Extended Release Oral Capsule",
          "userSelected": true
        } ]
      },
      "subject": {
        "reference": "Patient/132d772a-bf2d-4a80-998a-bef3b655501e"
      },
      "authoredOn": "2026-03-28T08:00:00.000+00:00",
      "requester": {
        "reference": "Practitioner/de513e05-27d2-4221-afaa-85287bf11932"
      }
    },
    "request": {
      "method": "PUT",
      "url": "MedicationRequest/1b830b3b-41b0-4011-ab2d-ba8aea02b67e"
    }
  }, {
    "fullUrl": "https://madie.cms.gov/MedicationRequest/c33a9194-7858-48ec-9375-ebdd13f31c13",
    "resource": {
      "resourceType": "MedicationRequest",
      "id": "c33a9194-7858-48ec-9375-ebdd13f31c13",
      "meta": {
        "profile": [ "http://hl7.org/fhir/us/qicore/StructureDefinition/qicore-medicationrequest" ]
      },
      "status": "completed",
      "intent": "order",
      "category": [ {
        "coding": [ {
          "system": "http://terminology.hl7.org/CodeSystem/medicationrequest-category",
          "code": "community",
          "display": "Community",
          "userSelected": true
        } ]
      } ],
      "doNotPerform": false,
      "medicationCodeableConcept": {
        "coding": [ {
          "system": "http://www.nlm.nih.gov/research/umls/rxnorm",
          "code": "1298088",
          "display": "flurazepam hydrochloride 15 MG Oral Capsule",
          "userSelected": true
        } ]
      },
      "subject": {
        "reference": "Patient/132d772a-bf2d-4a80-998a-bef3b655501e"
      },
      "authoredOn": "2026-01-22T08:00:00.000+00:00",
      "requester": {
        "reference": "Practitioner/de513e05-27d2-4221-afaa-85287bf11932"
      }
    },
    "request": {
      "method": "PUT",
      "url": "MedicationRequest/c33a9194-7858-48ec-9375-ebdd13f31c13"
    }
  }, {
    "fullUrl": "https://madie.cms.gov/Practitioner/de513e05-27d2-4221-afaa-85287bf11932",
    "resource": {
      "resourceType": "Practitioner",
      "id": "de513e05-27d2-4221-afaa-85287bf11932",
      "meta": {
        "profile": [ "http://hl7.org/fhir/us/qicore/StructureDefinition/qicore-practitioner" ]
      },
      "identifier": [ {
        "system": "http://hl7.org/fhir/sid/us-npi",
        "value": "9999999896"
      } ],
      "active": true,
      "name": [ {
        "family": "Ramires",
        "given": [ "Alma" ],
        "prefix": [ "Dr" ]
      } ],
      "address": [ {
        "use": "home",
        "line": [ "534 Erewhon St" ],
        "city": "Netherville",
        "state": "IN",
        "postalCode": "46131"
      } ],
      "qualification": [ {
        "identifier": [ {
          "system": "http://goodhealth.org/prIdentifier",
          "value": "12345"
        } ],
        "code": {
          "coding": [ {
            "system": "http://terminology.hl7.org/CodeSystem/v2-0360|2.7",
            "code": "BS",
            "display": "Bachelor of Science"
          } ],
          "text": "Bachelor of Science"
        },
        "period": {
          "start": "1995"
        },
        "issuer": {
          "display": "Example University"
        }
      } ]
    },
    "request": {
      "method": "PUT",
      "url": "Practitioner/de513e05-27d2-4221-afaa-85287bf11932"
    }
  }, {
    "fullUrl": "https://madie.cms.gov/Coverage/fd193b38-3b35-445e-a5e4-8aad109abc2e",
    "resource": {
      "resourceType": "Coverage",
      "id": "fd193b38-3b35-445e-a5e4-8aad109abc2e",
      "meta": {
        "profile": [ "http://hl7.org/fhir/us/qicore/StructureDefinition/qicore-coverage" ]
      },
      "status": "active",
      "subscriberId": "523435",
      "beneficiary": {
        "reference": "Patient/132d772a-bf2d-4a80-998a-bef3b655501e"
      },
      "relationship": {
        "coding": [ {
          "system": "http://terminology.hl7.org/CodeSystem/subscriber-relationship",
          "code": "self"
        } ]
      },
      "payor": [ {
        "reference": "Organization/7926aa24-cc16-40f5-bb1a-10882a42e4d8"
      } ]
    },
    "request": {
      "method": "PUT",
      "url": "Coverage/fd193b38-3b35-445e-a5e4-8aad109abc2e"
    }
  }, {
    "fullUrl": "https://madie.cms.gov/Organization/7926aa24-cc16-40f5-bb1a-10882a42e4d8",
    "resource": {
      "resourceType": "Organization",
      "id": "7926aa24-cc16-40f5-bb1a-10882a42e4d8",
      "meta": {
        "profile": [ "http://hl7.org/fhir/us/qicore/StructureDefinition/qicore-organization" ]
      },
      "identifier": [ {
        "use": "temp",
        "system": "urn:oid:2.16.840.1.113883.4.4",
        "value": "21-3259825"
      } ],
      "active": true,
      "type": [ {
        "coding": [ {
          "system": "http://terminology.hl7.org/CodeSystem/organization-type",
          "code": "pay",
          "display": "Payer"
        } ]
      } ],
      "name": "Blue Cross Blue Shield of Texas",
      "telecom": [ {
        "system": "phone",
        "value": "(+1) 972-766-6900"
      } ],
      "address": [ {
        "use": "billing",
        "type": "postal",
        "line": [ "P.O. Box 660044" ],
        "city": "Dallas",
        "state": "TX",
        "postalCode": "75266-0044",
        "country": "USA"
      } ]
    },
    "request": {
      "method": "PUT",
      "url": "Organization/7926aa24-cc16-40f5-bb1a-10882a42e4d8"
    }
  }, {
    "fullUrl": "https://madie.cms.gov/MeasureReport/74eae626-6900-4908-80a9-a2ddc2d108ca",
    "resource": {
      "resourceType": "MeasureReport",
      "id": "74eae626-6900-4908-80a9-a2ddc2d108ca",
      "meta": {
        "profile": [ "http://hl7.org/fhir/us/cqfmeasures/StructureDefinition/test-case-cqfm" ]
      },
      "contained": [ {
        "resourceType": "Parameters",
        "id": "bf874e94-19fa-4dd6-bd6f-3b5ceb9292d4-parameters",
        "parameter": [ {
          "name": "subject",
          "valueString": "132d772a-bf2d-4a80-998a-bef3b655501e"
        } ]
      } ],
      "extension": [ {
        "url": "http://hl7.org/fhir/StructureDefinition/cqf-inputParameters",
        "valueReference": {
          "reference": "#bf874e94-19fa-4dd6-bd6f-3b5ceb9292d4-parameters"
        }
      }, {
        "url": "http://hl7.org/fhir/us/cqfmeasures/StructureDefinition/cqfm-testCaseDescription",
        "valueMarkdown": "Correct age, Encounter-1 3/26-3/28 during MP, discharged with 2 Opioids MedReq-1 and -2, MedReq-3 benzo prescription before encounter 1/22, 1 opioid (Discharge) starts during Enc"
      } ],
      "modifierExtension": [ {
        "url": "http://hl7.org/fhir/us/cqfmeasures/StructureDefinition/cqfm-isTestCase",
        "valueBoolean": true
      } ],
      "status": "complete",
      "type": "individual",
      "measure": "https://madie.cms.gov/Measure/CMS506FHIRSafeUseofOpioids",
      "period": {
        "start": "2026-01-01",
        "end": "2026-12-31"
      },
      "group": [ {
        "id": "Group_1",
        "population": [ {
          "id": "InitialPopulation_1",
          "code": {
            "coding": [ {
              "system": "http://terminology.hl7.org/CodeSystem/measure-population",
              "code": "initial-population",
              "display": "Initial Population"
            } ]
          },
          "count": 1
        }, {
          "id": "Denominator_1",
          "code": {
            "coding": [ {
              "system": "http://terminology.hl7.org/CodeSystem/measure-population",
              "code": "denominator",
              "display": "Denominator"
            } ]
          },
          "count": 1
        }, {
          "id": "DenominatorExclusion_1",
          "code": {
            "coding": [ {
              "system": "http://terminology.hl7.org/CodeSystem/measure-population",
              "code": "denominator-exclusion",
              "display": "Denominator Exclusion"
            } ]
          },
          "count": 0
        }, {
          "id": "Numerator_1",
          "code": {
            "coding": [ {
              "system": "http://terminology.hl7.org/CodeSystem/measure-population",
              "code": "numerator",
              "display": "Numerator"
            } ]
          },
          "count": 1
        } ],
        "measureScore": {
          "value": 0.0
        }
      } ],
      "evaluatedResource": [ {
        "reference": "Patient/132d772a-bf2d-4a80-998a-bef3b655501e"
      }, {
        "reference": "Encounter/4cd6ed2e-753b-4e7c-9d2b-e6d1b7def0cd"
      }, {
        "reference": "MedicationRequest/57ba46c7-3339-4d9a-b9fa-c6f182dc3f7d"
      }, {
        "reference": "MedicationRequest/1b830b3b-41b0-4011-ab2d-ba8aea02b67e"
      }, {
        "reference": "MedicationRequest/c33a9194-7858-48ec-9375-ebdd13f31c13"
      }, {
        "reference": "Practitioner/de513e05-27d2-4221-afaa-85287bf11932"
      }, {
        "reference": "Coverage/fd193b38-3b35-445e-a5e4-8aad109abc2e"
      }, {
        "reference": "Organization/7926aa24-cc16-40f5-bb1a-10882a42e4d8"
      } ]
    },
    "request": {
      "method": "PUT",
      "url": "MeasureReport/74eae626-6900-4908-80a9-a2ddc2d108ca"
    }
  } ]
}