{
  "resourceType": "Bundle",
  "id": "642713b678c9438489949adf",
  "type": "collection",
  "entry": [ {
    "fullUrl": "https://madie.cms.gov/Patient/fd115ded-69a6-4766-bdd9-d6364347401e",
    "resource": {
      "resourceType": "Patient",
      "id": "fd115ded-69a6-4766-bdd9-d6364347401e",
      "meta": {
        "profile": [ "http://hl7.org/fhir/us/qicore/StructureDefinition/qicore-patient" ]
      },
      "extension": [ {
        "url": "http://hl7.org/fhir/us/core/StructureDefinition/us-core-race",
        "extension": [ {
          "url": "ombCategory",
          "valueCoding": {
            "system": "urn:oid:2.16.840.1.113883.6.238",
            "code": "1002-5",
            "display": "American Indian or Alaska Native",
            "userSelected": true
          }
        }, {
          "url": "text",
          "valueString": "American Indian or Alaska Native"
        } ]
      }, {
        "url": "http://hl7.org/fhir/us/core/StructureDefinition/us-core-ethnicity",
        "extension": [ {
          "url": "ombCategory",
          "valueCoding": {
            "system": "urn:oid:2.16.840.1.113883.6.238",
            "code": "2135-2",
            "display": "Hispanic or Latino",
            "userSelected": true
          }
        }, {
          "url": "text",
          "valueString": "Hispanic or Latino"
        } ]
      } ],
      "identifier": [ {
        "type": {
          "coding": [ {
            "system": "http://terminology.hl7.org/CodeSystem/v2-0203",
            "code": "MR"
          } ]
        },
        "system": "https://bonnie-fhir.healthit.gov/",
        "value": "642713b678c9438489949adf"
      } ],
      "name": [ {
        "family": "NUMERPass",
        "given": [ "Assessment1MinB4EncounterEdge" ]
      } ],
      "gender": "female",
      "birthDate": "1979-01-02"
    }
  }, {
    "fullUrl": "https://madie.cms.gov/Condition/41ac310f-8e97-4c2e-ae16-080288223229",
    "resource": {
      "resourceType": "Condition",
      "id": "41ac310f-8e97-4c2e-ae16-080288223229",
      "meta": {
        "profile": [ "http://hl7.org/fhir/us/qicore/StructureDefinition/qicore-condition-problems-health-concerns" ]
      },
      "clinicalStatus": {
        "coding": [ {
          "system": "http://terminology.hl7.org/CodeSystem/condition-clinical",
          "code": "active",
          "display": "Active",
          "userSelected": true
        } ]
      },
      "verificationStatus": {
        "coding": [ {
          "system": "http://terminology.hl7.org/CodeSystem/condition-ver-status",
          "code": "confirmed",
          "display": "Confirmed",
          "userSelected": true
        } ]
      },
      "category": [ {
        "coding": [ {
          "system": "http://terminology.hl7.org/CodeSystem/condition-category",
          "code": "encounter-diagnosis",
          "display": "Encounter Diagnosis",
          "userSelected": true
        } ]
      }, {
        "coding": [ {
          "system": "http://terminology.hl7.org/CodeSystem/condition-category",
          "code": "problem-list-item",
          "display": "Problem List Item"
        } ]
      } ],
      "code": {
        "coding": [ {
          "system": "http://hl7.org/fhir/sid/icd-10-cm",
          "version": "2023",
          "code": "G31.83",
          "userSelected": true
        } ]
      },
      "subject": {
        "reference": "Patient/fd115ded-69a6-4766-bdd9-d6364347401e"
      },
      "onsetPeriod": {
        "start": "2023-03-30T08:00:00.000+00:00"
      }
    }
  }, {
    "fullUrl": "https://madie.cms.gov/Encounter/aafbdf25-99b1-4768-9387-f28f8079627c",
    "resource": {
      "resourceType": "Encounter",
      "id": "aafbdf25-99b1-4768-9387-f28f8079627c",
      "meta": {
        "profile": [ "http://hl7.org/fhir/us/qicore/StructureDefinition/qicore-encounter" ]
      },
      "status": "finished",
      "class": {
        "system": "http://terminology.hl7.org/CodeSystem/v3-ActCode",
        "code": "AMB",
        "display": "ambulatory",
        "userSelected": true
      },
      "type": [ {
        "coding": [ {
          "system": "http://www.ama-assn.org/go/cpt",
          "version": "2023",
          "code": "99212",
          "userSelected": true
        } ]
      } ],
      "subject": {
        "reference": "Patient/fd115ded-69a6-4766-bdd9-d6364347401e"
      },
      "period": {
        "start": "2026-03-31T08:00:00.000+00:00",
        "end": "2026-03-31T08:35:00.000+00:00"
      }
    }
  }, {
    "fullUrl": "https://madie.cms.gov/Encounter/cba3f120-e468-4d39-b4a2-bac36a339fd3",
    "resource": {
      "resourceType": "Encounter",
      "id": "cba3f120-e468-4d39-b4a2-bac36a339fd3",
      "meta": {
        "profile": [ "http://hl7.org/fhir/us/qicore/StructureDefinition/qicore-encounter" ]
      },
      "status": "finished",
      "class": {
        "system": "http://terminology.hl7.org/CodeSystem/v3-ActCode",
        "code": "AMB",
        "display": "ambulatory",
        "userSelected": true
      },
      "type": [ {
        "coding": [ {
          "system": "http://snomed.info/sct",
          "version": "http://snomed.info/sct/731000124108/version/202303",
          "code": "185463005",
          "display": "Visit out of hours (procedure)",
          "userSelected": true
        } ]
      } ],
      "subject": {
        "reference": "Patient/fd115ded-69a6-4766-bdd9-d6364347401e"
      },
      "period": {
        "start": "2026-08-31T08:00:00.000+00:00",
        "end": "2026-08-31T08:35:00.000+00:00"
      }
    }
  }, {
    "fullUrl": "https://madie.cms.gov/Observation/b57ead56-a9fc-4ca7-8431-a3fce6ac6480",
    "resource": {
      "resourceType": "Observation",
      "id": "b57ead56-a9fc-4ca7-8431-a3fce6ac6480",
      "meta": {
        "profile": [ "http://hl7.org/fhir/us/qicore/StructureDefinition/qicore-observation-screening-assessment" ]
      },
      "status": "amended",
      "category": [ {
        "coding": [ {
          "system": "http://terminology.hl7.org/CodeSystem/observation-category",
          "code": "survey",
          "display": "Survey",
          "userSelected": true
        } ]
      } ],
      "code": {
        "coding": [ {
          "system": "http://loinc.org",
          "version": "2.73",
          "code": "58151-2",
          "display": "Prior assessment Brief Interview for Mental Status (BIMS) summary score [MDSv3]",
          "userSelected": true
        } ]
      },
      "subject": {
        "reference": "Patient/fd115ded-69a6-4766-bdd9-d6364347401e"
      },
      "effectiveDateTime": "2026-08-31T08:34:00.000+00:00",
      "issued": "2026-08-31T08:34:00.000+00:00",
      "valueInteger": 26
    }
  }, {
    "fullUrl": "https://madie.cms.gov/Coverage/d5c94b0a-ff8a-420d-a59f-70d11c1c53da",
    "resource": {
      "resourceType": "Coverage",
      "id": "d5c94b0a-ff8a-420d-a59f-70d11c1c53da",
      "meta": {
        "profile": [ "http://hl7.org/fhir/us/qicore/StructureDefinition/qicore-coverage" ]
      },
      "status": "active",
      "subscriberId": "123456",
      "beneficiary": {
        "reference": "Patient/fd115ded-69a6-4766-bdd9-d6364347401e"
      },
      "relationship": {
        "coding": [ {
          "system": "http://terminology.hl7.org/CodeSystem/subscriber-relationship",
          "code": "self",
          "display": "Self"
        } ]
      },
      "payor": [ {
        "reference": "Organization/f01ef9c5-d21f-4785-969b-a78db101e41b"
      } ]
    }
  }, {
    "fullUrl": "https://madie.cms.gov/Organization/f01ef9c5-d21f-4785-969b-a78db101e41b",
    "resource": {
      "resourceType": "Organization",
      "id": "f01ef9c5-d21f-4785-969b-a78db101e41b",
      "meta": {
        "profile": [ "http://hl7.org/fhir/us/qicore/StructureDefinition/qicore-organization" ]
      },
      "identifier": [ {
        "use": "temp",
        "system": "urn:oid:2.16.840.1.113883.4.4",
        "value": "21-3259825"
      } ],
      "active": true,
      "type": [ {
        "coding": [ {
          "system": "http://terminology.hl7.org/CodeSystem/organization-type",
          "code": "pay",
          "display": "Payer"
        } ]
      } ],
      "name": "Blue Cross Blue Shield of Texas",
      "telecom": [ {
        "system": "phone",
        "value": "(+1) 972-766-6900"
      } ],
      "address": [ {
        "use": "billing",
        "type": "postal",
        "line": [ "P.O. Box 660044" ],
        "city": "Dallas",
        "state": "TX",
        "postalCode": "75266-0044",
        "country": "USA"
      } ]
    }
  }, {
    "fullUrl": "https://madie.cms.gov/Practitioner/610a2d89-eba6-4bf1-959b-893dcf9021b2",
    "resource": {
      "resourceType": "Practitioner",
      "id": "610a2d89-eba6-4bf1-959b-893dcf9021b2",
      "identifier": [ {
        "system": "http://hl7.org/fhir/sid/us-npi",
        "value": "1689411712"
      } ],
      "name": [ {
        "family": "Evil",
        "prefix": [ "Dr" ]
      } ]
    }
  }, {
    "fullUrl": "https://madie.cms.gov/MeasureReport/6056c907-3e01-4596-9693-7a807b995e96",
    "resource": {
      "resourceType": "MeasureReport",
      "id": "6056c907-3e01-4596-9693-7a807b995e96",
      "meta": {
        "profile": [ "http://hl7.org/fhir/us/cqfmeasures/StructureDefinition/test-case-cqfm" ]
      },
      "contained": [ {
        "resourceType": "Parameters",
        "id": "b54ca1d4-3293-43c7-9d9d-b2d3cee21882-parameters",
        "parameter": [ {
          "name": "subject",
          "valueString": "fd115ded-69a6-4766-bdd9-d6364347401e"
        } ]
      } ],
      "extension": [ {
        "url": "http://hl7.org/fhir/StructureDefinition/cqf-inputParameters",
        "valueReference": {
          "reference": "#b54ca1d4-3293-43c7-9d9d-b2d3cee21882-parameters"
        }
      }, {
        "url": "http://hl7.org/fhir/us/cqfmeasures/StructureDefinition/cqfm-testCaseDescription",
        "valueMarkdown": "Assessment is performed in last minute before end of Visit"
      } ],
      "modifierExtension": [ {
        "url": "http://hl7.org/fhir/us/cqfmeasures/StructureDefinition/cqfm-isTestCase",
        "valueBoolean": true
      } ],
      "status": "complete",
      "type": "individual",
      "measure": "https://madie.cms.gov/Measure/CMS149FHIRDementiaCognitiveAssess",
      "period": {
        "start": "2026-01-01",
        "end": "2026-12-31"
      },
      "group": [ {
        "id": "Group_1",
        "population": [ {
          "id": "InitialPopulation_1",
          "code": {
            "coding": [ {
              "system": "http://terminology.hl7.org/CodeSystem/measure-population",
              "code": "initial-population",
              "display": "Initial Population"
            } ]
          },
          "count": 1
        }, {
          "id": "Denominator_1",
          "code": {
            "coding": [ {
              "system": "http://terminology.hl7.org/CodeSystem/measure-population",
              "code": "denominator",
              "display": "Denominator"
            } ]
          },
          "count": 1
        }, {
          "id": "Numerator_1",
          "code": {
            "coding": [ {
              "system": "http://terminology.hl7.org/CodeSystem/measure-population",
              "code": "numerator",
              "display": "Numerator"
            } ]
          },
          "count": 1
        }, {
          "id": "DenominatorException_1",
          "code": {
            "coding": [ {
              "system": "http://terminology.hl7.org/CodeSystem/measure-population",
              "code": "denominator-exception",
              "display": "Denominator Exception"
            } ]
          },
          "count": 0
        } ],
        "measureScore": {
          "value": 1.0
        }
      } ],
      "evaluatedResource": [ {
        "reference": "Patient/fd115ded-69a6-4766-bdd9-d6364347401e"
      }, {
        "reference": "Condition/41ac310f-8e97-4c2e-ae16-080288223229"
      }, {
        "reference": "Encounter/aafbdf25-99b1-4768-9387-f28f8079627c"
      }, {
        "reference": "Encounter/cba3f120-e468-4d39-b4a2-bac36a339fd3"
      }, {
        "reference": "Observation/b57ead56-a9fc-4ca7-8431-a3fce6ac6480"
      }, {
        "reference": "Coverage/d5c94b0a-ff8a-420d-a59f-70d11c1c53da"
      }, {
        "reference": "Organization/f01ef9c5-d21f-4785-969b-a78db101e41b"
      }, {
        "reference": "Practitioner/610a2d89-eba6-4bf1-959b-893dcf9021b2"
      } ]
    }
  } ]
}