{
  "resourceType": "Bundle",
  "id": "926d2075-8536-4e61-9154-934460890b9d",
  "type": "transaction",
  "entry": [ {
    "fullUrl": "https://madie.cms.gov/Patient/4cb01b91-c616-42bf-bee5-20bb0f94794b",
    "resource": {
      "resourceType": "Patient",
      "id": "4cb01b91-c616-42bf-bee5-20bb0f94794b",
      "meta": {
        "profile": [ "http://hl7.org/fhir/us/qicore/StructureDefinition/qicore-patient" ]
      },
      "text": {
        "status": "generated",
        "div": "<div xmlns=\"http://www.w3.org/1999/xhtml\"><div class=\"hapiHeaderText\">FactorXaDuringICUDxVTEResolved<b>NUMERPASS </b></div><table class=\"hapiPropertyTable\"><tbody><tr><td>Identifier</td><td>ba9e367399672c89721f9d3c22d115ac</td></tr><tr><td>Date of birth</td><td><span>03 March 1974</span></td></tr></tbody></table></div>"
      },
      "extension": [ {
        "url": "http://hl7.org/fhir/us/core/StructureDefinition/us-core-race",
        "extension": [ {
          "url": "ombCategory",
          "valueCoding": {
            "system": "urn:oid:2.16.840.1.113883.6.238",
            "code": "1002-5",
            "display": "American Indian or Alaska Native",
            "userSelected": true
          }
        }, {
          "url": "text",
          "valueString": "American Indian or Alaska Native"
        } ]
      }, {
        "url": "http://hl7.org/fhir/us/core/StructureDefinition/us-core-ethnicity",
        "extension": [ {
          "url": "ombCategory",
          "valueCoding": {
            "system": "urn:oid:2.16.840.1.113883.6.238",
            "code": "2135-2",
            "display": "Hispanic or Latino",
            "userSelected": true
          }
        }, {
          "url": "text",
          "valueString": "Hispanic or Latino"
        } ]
      } ],
      "identifier": [ {
        "type": {
          "coding": [ {
            "system": "http://terminology.hl7.org/CodeSystem/v2-0203",
            "code": "MR"
          } ]
        },
        "system": "https://bonnie-fhir.healthit.gov/",
        "value": "926d2075-8536-4e61-9154-934460890b9d"
      } ],
      "active": true,
      "name": [ {
        "use": "usual",
        "family": "NUMERPass",
        "given": [ "FactorXaDuringICUDxVTEResolved" ]
      } ],
      "gender": "female",
      "birthDate": "1975-03-03"
    },
    "request": {
      "method": "PUT",
      "url": "Patient/4cb01b91-c616-42bf-bee5-20bb0f94794b"
    }
  }, {
    "fullUrl": "https://madie.cms.gov/Encounter/07bdf52e-0f07-4c67-a448-6931f0e64527",
    "resource": {
      "resourceType": "Encounter",
      "id": "07bdf52e-0f07-4c67-a448-6931f0e64527",
      "meta": {
        "profile": [ "http://hl7.org/fhir/us/qicore/StructureDefinition/qicore-encounter" ]
      },
      "status": "finished",
      "class": {
        "system": "http://terminology.hl7.org/CodeSystem/v3-ActCode",
        "code": "IMP",
        "display": "inpatient encounter"
      },
      "type": [ {
        "coding": [ {
          "system": "http://snomed.info/sct",
          "code": "8715000"
        } ]
      } ],
      "subject": {
        "reference": "Patient/4cb01b91-c616-42bf-bee5-20bb0f94794b"
      },
      "period": {
        "start": "2026-12-04T08:00:00.000+00:00",
        "end": "2026-12-30T08:15:00.000+00:00"
      },
      "length": {
        "value": 26,
        "unit": "days"
      },
      "location": [ {
        "location": {
          "reference": "Location/a3f67916-719f-4f6e-9c1f-61e332b265d9"
        },
        "period": {
          "start": "2026-12-06T08:00:00.000+00:00",
          "end": "2026-12-08T08:15:00.000+00:00"
        }
      } ]
    },
    "request": {
      "method": "PUT",
      "url": "Encounter/07bdf52e-0f07-4c67-a448-6931f0e64527"
    }
  }, {
    "fullUrl": "https://madie.cms.gov/Coverage/2bf1ec40-f973-448f-973d-9d45bc909e88",
    "resource": {
      "resourceType": "Coverage",
      "id": "2bf1ec40-f973-448f-973d-9d45bc909e88",
      "status": "active",
      "beneficiary": {
        "reference": "Patient/4cb01b91-c616-42bf-bee5-20bb0f94794b"
      },
      "period": {
        "start": "1975-03-03T08:00:00.000+00:00"
      },
      "payor": [ {
        "reference": "Organization/e71df116-b322-4487-b892-c304386ba082"
      } ]
    },
    "request": {
      "method": "PUT",
      "url": "Coverage/2bf1ec40-f973-448f-973d-9d45bc909e88"
    }
  }, {
    "fullUrl": "https://madie.cms.gov/Condition/e8f90e3e-737d-449f-81e2-42604b1f47fe",
    "resource": {
      "resourceType": "Condition",
      "id": "e8f90e3e-737d-449f-81e2-42604b1f47fe",
      "meta": {
        "profile": [ "http://hl7.org/fhir/us/qicore/StructureDefinition/qicore-condition-problems-health-concerns" ]
      },
      "clinicalStatus": {
        "coding": [ {
          "system": "http://terminology.hl7.org/CodeSystem/condition-clinical",
          "code": "resolved"
        } ]
      },
      "verificationStatus": {
        "coding": [ {
          "system": "http://terminology.hl7.org/CodeSystem/condition-ver-status",
          "code": "confirmed"
        } ]
      },
      "category": [ {
        "coding": [ {
          "system": "http://terminology.hl7.org/CodeSystem/condition-category",
          "code": "problem-list-item",
          "display": "Problem List Item"
        } ]
      } ],
      "code": {
        "coding": [ {
          "system": "http://hl7.org/fhir/sid/icd-10-cm",
          "code": "I26.09",
          "display": "Other pulmonary embolism with acute cor pulmonale"
        } ]
      },
      "subject": {
        "reference": "Patient/4cb01b91-c616-42bf-bee5-20bb0f94794b"
      },
      "onsetPeriod": {
        "start": "2026-11-03T08:00:00.000+00:00",
        "end": "2026-12-03T08:00:00.000+00:00"
      }
    },
    "request": {
      "method": "PUT",
      "url": "Condition/e8f90e3e-737d-449f-81e2-42604b1f47fe"
    }
  }, {
    "fullUrl": "https://madie.cms.gov/MedicationAdministration/0becf818-4dae-44ae-bcee-3926a66001e7",
    "resource": {
      "resourceType": "MedicationAdministration",
      "id": "0becf818-4dae-44ae-bcee-3926a66001e7",
      "meta": {
        "profile": [ "http://hl7.org/fhir/us/qicore/StructureDefinition/qicore-medicationadministration" ]
      },
      "status": "completed",
      "medicationCodeableConcept": {
        "coding": [ {
          "system": "http://www.nlm.nih.gov/research/umls/rxnorm",
          "code": "1599543",
          "display": "edoxaban 15 MG Oral Tablet"
        } ]
      },
      "subject": {
        "reference": "Patient/4cb01b91-c616-42bf-bee5-20bb0f94794b"
      },
      "effectivePeriod": {
        "start": "2026-12-06T11:30:00.000+00:00",
        "end": "2026-12-06T11:35:00.000+00:00"
      }
    },
    "request": {
      "method": "PUT",
      "url": "MedicationAdministration/0becf818-4dae-44ae-bcee-3926a66001e7"
    }
  }, {
    "fullUrl": "https://madie.cms.gov/Location/a3f67916-719f-4f6e-9c1f-61e332b265d9",
    "resource": {
      "resourceType": "Location",
      "id": "a3f67916-719f-4f6e-9c1f-61e332b265d9",
      "meta": {
        "profile": [ "http://hl7.org/fhir/us/qicore/StructureDefinition/qicore-location" ]
      },
      "identifier": [ {
        "use": "usual",
        "system": "http://exampleoflocation.com",
        "value": "B1-S.F2"
      } ],
      "name": "Medical Surgical East, first floor",
      "type": [ {
        "coding": [ {
          "system": "https://www.cdc.gov/nhsn/cdaportal/terminology/codesystem/hsloc.html",
          "version": "2020",
          "code": "1025-6",
          "display": "Trauma Critical Care",
          "userSelected": true
        } ]
      } ]
    },
    "request": {
      "method": "PUT",
      "url": "Location/a3f67916-719f-4f6e-9c1f-61e332b265d9"
    }
  }, {
    "fullUrl": "https://madie.cms.gov/Organization/e71df116-b322-4487-b892-c304386ba082",
    "resource": {
      "resourceType": "Organization",
      "id": "e71df116-b322-4487-b892-c304386ba082",
      "meta": {
        "profile": [ "http://hl7.org/fhir/us/qicore/StructureDefinition/qicore-organization" ]
      },
      "identifier": [ {
        "use": "temp",
        "system": "urn:oid:2.16.840.1.113883.4.4",
        "value": "21-3259825"
      } ],
      "active": true,
      "type": [ {
        "coding": [ {
          "system": "http://terminology.hl7.org/CodeSystem/organization-type",
          "code": "pay",
          "display": "Payer"
        } ]
      } ],
      "name": "Blue Cross Blue Shield of Texas",
      "telecom": [ {
        "system": "phone",
        "value": "(+1) 972-766-6900"
      } ],
      "address": [ {
        "use": "billing",
        "type": "postal",
        "line": [ "P.O. Box 660044" ],
        "city": "Dallas",
        "state": "TX",
        "postalCode": "75266-0044",
        "country": "USA"
      } ]
    },
    "request": {
      "method": "PUT",
      "url": "Organization/e71df116-b322-4487-b892-c304386ba082"
    }
  }, {
    "fullUrl": "https://madie.cms.gov/MeasureReport/ce63544c-432f-448e-aec9-1ac5c2e5e51b",
    "resource": {
      "resourceType": "MeasureReport",
      "id": "ce63544c-432f-448e-aec9-1ac5c2e5e51b",
      "meta": {
        "profile": [ "http://hl7.org/fhir/us/cqfmeasures/StructureDefinition/test-case-cqfm" ]
      },
      "contained": [ {
        "resourceType": "Parameters",
        "id": "b80dc325-0aae-4402-bca7-33a682249e24-parameters",
        "parameter": [ {
          "name": "subject",
          "valueString": "4cb01b91-c616-42bf-bee5-20bb0f94794b"
        } ]
      } ],
      "extension": [ {
        "url": "http://hl7.org/fhir/StructureDefinition/cqf-inputParameters",
        "valueReference": {
          "reference": "#b80dc325-0aae-4402-bca7-33a682249e24-parameters"
        }
      }, {
        "url": "http://hl7.org/fhir/us/cqfmeasures/StructureDefinition/cqfm-testCaseDescription",
        "valueMarkdown": "test and cover condition clinicalstatus is resolved"
      } ],
      "modifierExtension": [ {
        "url": "http://hl7.org/fhir/us/cqfmeasures/StructureDefinition/cqfm-isTestCase",
        "valueBoolean": true
      } ],
      "status": "complete",
      "type": "individual",
      "measure": "https://madie.cms.gov/Measure/CMS190FHIRVTEProphylaxisICU",
      "period": {
        "start": "2026-01-01",
        "end": "2026-12-31"
      },
      "group": [ {
        "id": "Group_1",
        "population": [ {
          "id": "InitialPopulation_1",
          "code": {
            "coding": [ {
              "system": "http://terminology.hl7.org/CodeSystem/measure-population",
              "code": "initial-population",
              "display": "Initial Population"
            } ]
          },
          "count": 1
        }, {
          "id": "Denominator_1",
          "code": {
            "coding": [ {
              "system": "http://terminology.hl7.org/CodeSystem/measure-population",
              "code": "denominator",
              "display": "Denominator"
            } ]
          },
          "count": 1
        }, {
          "id": "DenominatorExclusion_1",
          "code": {
            "coding": [ {
              "system": "http://terminology.hl7.org/CodeSystem/measure-population",
              "code": "denominator-exclusion",
              "display": "Denominator Exclusion"
            } ]
          },
          "count": 0
        }, {
          "id": "Numerator_1",
          "code": {
            "coding": [ {
              "system": "http://terminology.hl7.org/CodeSystem/measure-population",
              "code": "numerator",
              "display": "Numerator"
            } ]
          },
          "count": 1
        }, {
          "id": "DenominatorException_1",
          "code": {
            "coding": [ {
              "system": "http://terminology.hl7.org/CodeSystem/measure-population",
              "code": "denominator-exception",
              "display": "Denominator Exception"
            } ]
          },
          "count": 0
        } ],
        "measureScore": {
          "value": 0.0
        }
      } ],
      "evaluatedResource": [ {
        "reference": "Patient/4cb01b91-c616-42bf-bee5-20bb0f94794b"
      }, {
        "reference": "Encounter/07bdf52e-0f07-4c67-a448-6931f0e64527"
      }, {
        "reference": "Coverage/2bf1ec40-f973-448f-973d-9d45bc909e88"
      }, {
        "reference": "Condition/e8f90e3e-737d-449f-81e2-42604b1f47fe"
      }, {
        "reference": "MedicationAdministration/0becf818-4dae-44ae-bcee-3926a66001e7"
      }, {
        "reference": "Location/a3f67916-719f-4f6e-9c1f-61e332b265d9"
      }, {
        "reference": "Organization/e71df116-b322-4487-b892-c304386ba082"
      } ]
    },
    "request": {
      "method": "PUT",
      "url": "MeasureReport/ce63544c-432f-448e-aec9-1ac5c2e5e51b"
    }
  } ]
}