{
  "resourceType": "Bundle",
  "id": "661579e3db207d74c03b8a50",
  "type": "transaction",
  "entry": [ {
    "fullUrl": "https://madie.cms.gov/Patient/b277c659-6048-4465-a508-1cf5466833dc",
    "resource": {
      "resourceType": "Patient",
      "id": "b277c659-6048-4465-a508-1cf5466833dc",
      "meta": {
        "profile": [ "http://hl7.org/fhir/us/qicore/StructureDefinition/qicore-patient" ]
      },
      "extension": [ {
        "url": "http://hl7.org/fhir/us/core/StructureDefinition/us-core-race",
        "extension": [ {
          "url": "ombCategory",
          "valueCoding": {
            "system": "urn:oid:2.16.840.1.113883.6.238",
            "code": "2076-8",
            "display": "Native Hawaiian or Other Pacific Islander",
            "userSelected": true
          }
        }, {
          "url": "text",
          "valueString": "Native Hawaiian or Other Pacific Islander"
        } ]
      }, {
        "url": "http://hl7.org/fhir/us/core/StructureDefinition/us-core-ethnicity",
        "extension": [ {
          "url": "ombCategory",
          "valueCoding": {
            "system": "urn:oid:2.16.840.1.113883.6.238",
            "code": "2186-5",
            "display": "Not Hispanic or Latino",
            "userSelected": true
          }
        }, {
          "url": "text",
          "valueString": "Not Hispanic or Latino"
        } ]
      }, {
        "url": "http://hl7.org/fhir/us/core/StructureDefinition/us-core-sex",
        "valueCode": "248152002"
      } ],
      "identifier": [ {
        "type": {
          "coding": [ {
            "system": "http://terminology.hl7.org/CodeSystem/v2-0203",
            "code": "MR"
          } ]
        },
        "system": "https://bonnie-fhir.healthit.gov/",
        "value": "661579e3db207d74c03b8a50"
      } ],
      "name": [ {
        "family": "NUMERStrat4Fail",
        "given": [ "EMDuringTriageClaimseqNotPrim" ]
      } ],
      "gender": "female",
      "birthDate": "2008-12-31"
    },
    "request": {
      "method": "PUT",
      "url": "Patient/b277c659-6048-4465-a508-1cf5466833dc"
    }
  }, {
    "fullUrl": "https://madie.cms.gov/Encounter/1d7f9b11-1582-4607-9351-c722a5a38e1e",
    "resource": {
      "resourceType": "Encounter",
      "id": "1d7f9b11-1582-4607-9351-c722a5a38e1e",
      "meta": {
        "profile": [ "http://hl7.org/fhir/us/qicore/StructureDefinition/qicore-encounter" ]
      },
      "status": "finished",
      "class": {
        "system": "http://terminology.hl7.org/CodeSystem/v3-ActCode",
        "code": "EMER",
        "display": "emergency"
      },
      "type": [ {
        "coding": [ {
          "system": "http://snomed.info/sct",
          "version": "2023-09",
          "code": "225390008",
          "display": "Triage (procedure)",
          "userSelected": true
        } ]
      } ],
      "subject": {
        "reference": "Patient/b277c659-6048-4465-a508-1cf5466833dc"
      },
      "period": {
        "start": "2027-05-01T08:00:00.000+00:00",
        "end": "2027-05-01T13:15:00.000+00:00"
      }
    },
    "request": {
      "method": "PUT",
      "url": "Encounter/1d7f9b11-1582-4607-9351-c722a5a38e1e"
    }
  }, {
    "fullUrl": "https://madie.cms.gov/Encounter/7ea49087-0935-4ad1-a11c-9b4d462d5c84",
    "resource": {
      "resourceType": "Encounter",
      "id": "7ea49087-0935-4ad1-a11c-9b4d462d5c84",
      "meta": {
        "profile": [ "http://hl7.org/fhir/us/qicore/StructureDefinition/qicore-encounter" ]
      },
      "status": "finished",
      "class": {
        "system": "http://terminology.hl7.org/CodeSystem/v3-ActCode",
        "code": "EMER",
        "display": "emergency"
      },
      "type": [ {
        "coding": [ {
          "system": "http://snomed.info/sct",
          "version": "2023-09",
          "code": "4525004",
          "display": "Emergency department patient visit (procedure)",
          "userSelected": true
        } ]
      } ],
      "subject": {
        "reference": "Patient/b277c659-6048-4465-a508-1cf5466833dc"
      },
      "period": {
        "start": "2027-05-01T08:00:00.000+00:00",
        "end": "2027-05-01T12:15:00.000+00:00"
      },
      "diagnosis": [ {
        "condition": {
          "reference": "Condition/d3d53442-9dc1-4b57-8c7e-7397ea558c09"
        },
        "use": {
          "coding": [ {
            "system": "http://terminology.hl7.org/CodeSystem/diagnosis-role",
            "code": "billing"
          } ]
        },
        "rank": 1
      } ],
      "location": [ {
        "location": {
          "reference": "Location/00bee58f-d12e-4c32-806f-6e6ec2621c57"
        },
        "period": {
          "start": "2027-05-01T07:45:00.000+00:00",
          "end": "2027-05-01T16:31:00.000+00:00"
        }
      }, {
        "location": {
          "reference": "Location/cb61a7c3-59b4-48f6-b1f6-bb36e6a38241"
        },
        "period": {
          "start": "2027-05-01T09:31:00.000+00:00",
          "end": "2027-05-01T12:15:00.000+00:00"
        }
      }, {
        "location": {
          "reference": "Location/dc4bb618-c599-4864-8b59-582d3fec98f4"
        },
        "period": {
          "start": "2027-05-01T08:40:00.000+00:00",
          "end": "2027-05-01T12:15:00.000+00:00"
        }
      }, {
        "location": {
          "reference": "Location/12a0dda2-c8a7-4468-a450-c28638bd4b20"
        },
        "period": {
          "start": "2027-05-01T08:30:00.000+00:00",
          "end": "2027-05-01T15:46:00.000+00:00"
        }
      } ]
    },
    "request": {
      "method": "PUT",
      "url": "Encounter/7ea49087-0935-4ad1-a11c-9b4d462d5c84"
    }
  }, {
    "fullUrl": "https://madie.cms.gov/Location/00bee58f-d12e-4c32-806f-6e6ec2621c57",
    "resource": {
      "resourceType": "Location",
      "id": "00bee58f-d12e-4c32-806f-6e6ec2621c57",
      "meta": {
        "profile": [ "http://hl7.org/fhir/us/qicore/StructureDefinition/qicore-location" ]
      },
      "identifier": [ {
        "use": "usual",
        "system": "http://exampleoflocation.com",
        "value": "B1-S.F1"
      } ],
      "name": "Medical Surgical East, first floor",
      "type": [ {
        "coding": [ {
          "system": "https://www.cdc.gov/nhsn/cdaportal/terminology/codesystem/hsloc.html",
          "version": "2022",
          "code": "1108-0",
          "display": "Emergency Department",
          "userSelected": true
        } ]
      } ]
    },
    "request": {
      "method": "PUT",
      "url": "Location/00bee58f-d12e-4c32-806f-6e6ec2621c57"
    }
  }, {
    "fullUrl": "https://madie.cms.gov/Location/cb61a7c3-59b4-48f6-b1f6-bb36e6a38241",
    "resource": {
      "resourceType": "Location",
      "id": "cb61a7c3-59b4-48f6-b1f6-bb36e6a38241",
      "meta": {
        "profile": [ "http://hl7.org/fhir/us/qicore/StructureDefinition/qicore-location" ]
      },
      "identifier": [ {
        "use": "usual",
        "system": "http://exampleoflocation.com",
        "value": "B1-S.F2"
      } ],
      "name": "Medical Surgical East, first floor",
      "type": [ {
        "coding": [ {
          "system": "https://www.cdc.gov/nhsn/cdaportal/terminology/codesystem/hsloc.html",
          "version": "2022",
          "code": "1209-6",
          "display": "Treatment Room",
          "userSelected": true
        } ]
      } ]
    },
    "request": {
      "method": "PUT",
      "url": "Location/cb61a7c3-59b4-48f6-b1f6-bb36e6a38241"
    }
  }, {
    "fullUrl": "https://madie.cms.gov/Condition/d3d53442-9dc1-4b57-8c7e-7397ea558c09",
    "resource": {
      "resourceType": "Condition",
      "id": "d3d53442-9dc1-4b57-8c7e-7397ea558c09",
      "meta": {
        "profile": [ "http://hl7.org/fhir/us/qicore/StructureDefinition/qicore-condition-encounter-diagnosis" ]
      },
      "category": [ {
        "coding": [ {
          "system": "http://terminology.hl7.org/CodeSystem/condition-category",
          "code": "encounter-diagnosis",
          "display": "Encounter Diagnosis"
        } ]
      } ],
      "code": {
        "coding": [ {
          "system": "http://snomed.info/sct",
          "version": "2023-09",
          "code": "10349009",
          "display": "Multi-infarct dementia with delirium (disorder)",
          "userSelected": true
        } ]
      },
      "subject": {
        "reference": "Patient/b277c659-6048-4465-a508-1cf5466833dc"
      },
      "recordedDate": "2027-04-09T08:00:00.000+00:00"
    },
    "request": {
      "method": "PUT",
      "url": "Condition/d3d53442-9dc1-4b57-8c7e-7397ea558c09"
    }
  }, {
    "fullUrl": "https://madie.cms.gov/Location/12a0dda2-c8a7-4468-a450-c28638bd4b20",
    "resource": {
      "resourceType": "Location",
      "id": "12a0dda2-c8a7-4468-a450-c28638bd4b20",
      "meta": {
        "profile": [ "http://hl7.org/fhir/us/qicore/StructureDefinition/qicore-location" ]
      },
      "identifier": [ {
        "use": "usual",
        "system": "http://exampleoflocation.com",
        "value": "B1-S.F2"
      } ],
      "name": "Medical Surgical East, first floor",
      "type": [ {
        "coding": [ {
          "system": "https://www.cdc.gov/nhsn/cdaportal/terminology/codesystem/hsloc.html",
          "version": "2022",
          "code": "1108-0",
          "display": "Emergency Department",
          "userSelected": true
        } ]
      } ]
    },
    "request": {
      "method": "PUT",
      "url": "Location/12a0dda2-c8a7-4468-a450-c28638bd4b20"
    }
  }, {
    "fullUrl": "https://madie.cms.gov/Location/dc4bb618-c599-4864-8b59-582d3fec98f4",
    "resource": {
      "resourceType": "Location",
      "id": "dc4bb618-c599-4864-8b59-582d3fec98f4",
      "meta": {
        "profile": [ "http://hl7.org/fhir/us/qicore/StructureDefinition/qicore-location" ]
      },
      "identifier": [ {
        "use": "usual",
        "system": "http://exampleoflocation.com",
        "value": "B1-S.F2"
      } ],
      "name": "Medical Surgical East, first floor",
      "type": [ {
        "coding": [ {
          "system": "https://www.cdc.gov/nhsn/cdaportal/terminology/codesystem/hsloc.html",
          "version": "2022",
          "code": "1209-6",
          "display": "Treatment Room"
        } ]
      } ]
    },
    "request": {
      "method": "PUT",
      "url": "Location/dc4bb618-c599-4864-8b59-582d3fec98f4"
    }
  }, {
    "fullUrl": "https://madie.cms.gov/Claim/a95f822d-539d-4cae-a1cb-b024de2b8b1a",
    "resource": {
      "resourceType": "Claim",
      "id": "a95f822d-539d-4cae-a1cb-b024de2b8b1a",
      "meta": {
        "profile": [ "http://hl7.org/fhir/us/qicore/StructureDefinition/qicore-claim" ]
      },
      "status": "active",
      "type": {
        "coding": [ {
          "system": "http://terminology.hl7.org/CodeSystem/claim-type",
          "code": "institutional"
        } ]
      },
      "use": "claim",
      "patient": {
        "reference": "Patient/b277c659-6048-4465-a508-1cf5466833dc"
      },
      "created": "2027-05-01",
      "provider": {
        "reference": "Practitioner/b7ebace1-6e6b-44d8-a4f6-eb999ab41bc2"
      },
      "priority": {
        "coding": [ {
          "system": "http://terminology.hl7.org/CodeSystem/processpriority",
          "code": "normal"
        } ]
      },
      "diagnosis": [ {
        "sequence": 2,
        "diagnosisReference": {
          "reference": "Condition/d3d53442-9dc1-4b57-8c7e-7397ea558c09"
        },
        "type": [ {
          "coding": [ {
            "system": "http://terminology.hl7.org/CodeSystem/ex-diagnosistype",
            "code": "principal"
          } ]
        } ]
      } ],
      "insurance": [ {
        "sequence": 1,
        "focal": true,
        "coverage": {
          "reference": "Coverage/a21dbafc-74d0-4d57-ae21-f894d31f32e8"
        }
      } ],
      "item": [ {
        "sequence": 1,
        "diagnosisSequence": [ 1 ],
        "productOrService": {
          "coding": [ {
            "system": "http://terminology.hl7.org/CodeSystem/ex-USCLS",
            "code": "99555"
          } ]
        },
        "encounter": [ {
          "reference": "Encounter/7ea49087-0935-4ad1-a11c-9b4d462d5c84"
        } ]
      } ]
    },
    "request": {
      "method": "PUT",
      "url": "Claim/a95f822d-539d-4cae-a1cb-b024de2b8b1a"
    }
  }, {
    "fullUrl": "https://madie.cms.gov/Coverage/a21dbafc-74d0-4d57-ae21-f894d31f32e8",
    "resource": {
      "resourceType": "Coverage",
      "id": "a21dbafc-74d0-4d57-ae21-f894d31f32e8",
      "meta": {
        "profile": [ "http://hl7.org/fhir/us/qicore/StructureDefinition/qicore-coverage" ]
      },
      "identifier": [ {
        "type": {
          "coding": [ {
            "system": "http://terminology.hl7.org/CodeSystem/v2-0203",
            "code": "MB"
          } ]
        }
      } ],
      "status": "active",
      "beneficiary": {
        "reference": "Patient/b277c659-6048-4465-a508-1cf5466833dc"
      },
      "relationship": {
        "coding": [ {
          "system": "http://terminology.hl7.org/CodeSystem/subscriber-relationship",
          "code": "self"
        } ]
      },
      "payor": [ {
        "reference": "Organization/20c527c4-3817-453f-a9fe-18727ad53d2f"
      } ]
    },
    "request": {
      "method": "PUT",
      "url": "Coverage/a21dbafc-74d0-4d57-ae21-f894d31f32e8"
    }
  }, {
    "fullUrl": "https://madie.cms.gov/Organization/20c527c4-3817-453f-a9fe-18727ad53d2f",
    "resource": {
      "resourceType": "Organization",
      "id": "20c527c4-3817-453f-a9fe-18727ad53d2f",
      "meta": {
        "profile": [ "http://hl7.org/fhir/us/qicore/StructureDefinition/qicore-organization" ]
      },
      "identifier": [ {
        "use": "temp",
        "system": "urn:oid:2.16.840.1.113883.4.4",
        "value": "21-3259825"
      } ],
      "active": true,
      "type": [ {
        "coding": [ {
          "system": "http://terminology.hl7.org/CodeSystem/organization-type",
          "code": "pay",
          "display": "Payer"
        } ]
      } ],
      "name": "Blue Cross Blue Shield of Texas",
      "telecom": [ {
        "system": "phone",
        "value": "(+1) 972-766-6900"
      } ],
      "address": [ {
        "use": "billing",
        "type": "postal",
        "line": [ "P.O. Box 660044" ],
        "city": "Dallas",
        "state": "TX",
        "postalCode": "75266-0044",
        "country": "USA"
      } ]
    },
    "request": {
      "method": "PUT",
      "url": "Organization/20c527c4-3817-453f-a9fe-18727ad53d2f"
    }
  }, {
    "fullUrl": "https://madie.cms.gov/Practitioner/b7ebace1-6e6b-44d8-a4f6-eb999ab41bc2",
    "resource": {
      "resourceType": "Practitioner",
      "id": "b7ebace1-6e6b-44d8-a4f6-eb999ab41bc2",
      "meta": {
        "profile": [ "http://hl7.org/fhir/us/qicore/StructureDefinition/qicore-practitioner" ]
      },
      "identifier": [ {
        "system": "http://hl7.org/fhir/sid/us-npi",
        "value": "9999999896"
      } ],
      "name": [ {
        "family": "Evil",
        "prefix": [ "Dr" ]
      } ]
    },
    "request": {
      "method": "PUT",
      "url": "Practitioner/b7ebace1-6e6b-44d8-a4f6-eb999ab41bc2"
    }
  }, {
    "fullUrl": "https://madie.cms.gov/MeasureReport/05e52304-8f86-43be-8f8b-81abeec1ab33",
    "resource": {
      "resourceType": "MeasureReport",
      "id": "05e52304-8f86-43be-8f8b-81abeec1ab33",
      "meta": {
        "profile": [ "http://hl7.org/fhir/us/cqfmeasures/StructureDefinition/test-case-cqfm" ]
      },
      "contained": [ {
        "resourceType": "Parameters",
        "id": "e1bb4210-4435-4edd-8d07-52bd54e59b9a-parameters",
        "parameter": [ {
          "name": "subject",
          "valueString": "b277c659-6048-4465-a508-1cf5466833dc"
        } ]
      } ],
      "extension": [ {
        "url": "http://hl7.org/fhir/StructureDefinition/cqf-inputParameters",
        "valueReference": {
          "reference": "#e1bb4210-4435-4edd-8d07-52bd54e59b9a-parameters"
        }
      }, {
        "url": "http://hl7.org/fhir/us/cqfmeasures/StructureDefinition/cqfm-testCaseDescription",
        "valueMarkdown": "Adult, mental diagnosis, LOS 8+ hours, EM overlaps with Triage. Claim sequence is 2 - which fails according to principal diagnosis function. Strata is not assigned"
      } ],
      "modifierExtension": [ {
        "url": "http://hl7.org/fhir/us/cqfmeasures/StructureDefinition/cqfm-isTestCase",
        "valueBoolean": true
      } ],
      "status": "complete",
      "type": "individual",
      "measure": "https://madie.cms.gov/Measure/CMS1244FHIRECATHOQR",
      "period": {
        "start": "2027-01-01",
        "end": "2027-12-31"
      },
      "group": [ {
        "id": "Group_1",
        "population": [ {
          "id": "InitialPopulation_1",
          "code": {
            "coding": [ {
              "system": "http://terminology.hl7.org/CodeSystem/measure-population",
              "code": "initial-population",
              "display": "Initial Population"
            } ]
          },
          "count": 1
        }, {
          "id": "Denominator_1",
          "code": {
            "coding": [ {
              "system": "http://terminology.hl7.org/CodeSystem/measure-population",
              "code": "denominator",
              "display": "Denominator"
            } ]
          },
          "count": 1
        }, {
          "id": "Numerator_1",
          "code": {
            "coding": [ {
              "system": "http://terminology.hl7.org/CodeSystem/measure-population",
              "code": "numerator",
              "display": "Numerator"
            } ]
          },
          "count": 1
        } ],
        "measureScore": {
          "value": 0.0
        },
        "stratifier": [ {
          "id": "Stratification_1_1",
          "code": [ {
            "text": "Strata-1"
          } ],
          "stratum": [ {
            "value": {
              "text": "Strata-1"
            },
            "population": [ {
              "id": "InitialPopulation_1",
              "code": {
                "coding": [ {
                  "system": "http://terminology.hl7.org/CodeSystem/measure-population",
                  "code": "initial-population",
                  "display": "Initial Population"
                } ]
              },
              "count": 0
            }, {
              "id": "Denominator_1",
              "code": {
                "coding": [ {
                  "system": "http://terminology.hl7.org/CodeSystem/measure-population",
                  "code": "denominator",
                  "display": "Denominator"
                } ]
              },
              "count": 0
            }, {
              "id": "Numerator_1",
              "code": {
                "coding": [ {
                  "system": "http://terminology.hl7.org/CodeSystem/measure-population",
                  "code": "numerator",
                  "display": "Numerator"
                } ]
              },
              "count": 0
            } ]
          } ]
        }, {
          "id": "Stratification_1_2",
          "code": [ {
            "text": "Strata-2"
          } ],
          "stratum": [ {
            "value": {
              "text": "Strata-2"
            },
            "population": [ {
              "id": "InitialPopulation_1",
              "code": {
                "coding": [ {
                  "system": "http://terminology.hl7.org/CodeSystem/measure-population",
                  "code": "initial-population",
                  "display": "Initial Population"
                } ]
              },
              "count": 0
            }, {
              "id": "Denominator_1",
              "code": {
                "coding": [ {
                  "system": "http://terminology.hl7.org/CodeSystem/measure-population",
                  "code": "denominator",
                  "display": "Denominator"
                } ]
              },
              "count": 0
            }, {
              "id": "Numerator_1",
              "code": {
                "coding": [ {
                  "system": "http://terminology.hl7.org/CodeSystem/measure-population",
                  "code": "numerator",
                  "display": "Numerator"
                } ]
              },
              "count": 0
            } ]
          } ]
        }, {
          "id": "Stratification_1_3",
          "code": [ {
            "text": "Strata-3"
          } ],
          "stratum": [ {
            "value": {
              "text": "Strata-3"
            },
            "population": [ {
              "id": "InitialPopulation_1",
              "code": {
                "coding": [ {
                  "system": "http://terminology.hl7.org/CodeSystem/measure-population",
                  "code": "initial-population",
                  "display": "Initial Population"
                } ]
              },
              "count": 0
            }, {
              "id": "Denominator_1",
              "code": {
                "coding": [ {
                  "system": "http://terminology.hl7.org/CodeSystem/measure-population",
                  "code": "denominator",
                  "display": "Denominator"
                } ]
              },
              "count": 0
            }, {
              "id": "Numerator_1",
              "code": {
                "coding": [ {
                  "system": "http://terminology.hl7.org/CodeSystem/measure-population",
                  "code": "numerator",
                  "display": "Numerator"
                } ]
              },
              "count": 0
            } ]
          } ]
        }, {
          "id": "Stratification_1_4",
          "code": [ {
            "text": "Strata-4"
          } ],
          "stratum": [ {
            "value": {
              "text": "Strata-4"
            },
            "population": [ {
              "id": "InitialPopulation_1",
              "code": {
                "coding": [ {
                  "system": "http://terminology.hl7.org/CodeSystem/measure-population",
                  "code": "initial-population",
                  "display": "Initial Population"
                } ]
              },
              "count": 0
            }, {
              "id": "Denominator_1",
              "code": {
                "coding": [ {
                  "system": "http://terminology.hl7.org/CodeSystem/measure-population",
                  "code": "denominator",
                  "display": "Denominator"
                } ]
              },
              "count": 0
            }, {
              "id": "Numerator_1",
              "code": {
                "coding": [ {
                  "system": "http://terminology.hl7.org/CodeSystem/measure-population",
                  "code": "numerator",
                  "display": "Numerator"
                } ]
              },
              "count": 0
            } ]
          } ]
        } ]
      } ],
      "evaluatedResource": [ {
        "reference": "Patient/b277c659-6048-4465-a508-1cf5466833dc"
      }, {
        "reference": "Encounter/1d7f9b11-1582-4607-9351-c722a5a38e1e"
      }, {
        "reference": "Encounter/7ea49087-0935-4ad1-a11c-9b4d462d5c84"
      }, {
        "reference": "Location/00bee58f-d12e-4c32-806f-6e6ec2621c57"
      }, {
        "reference": "Location/cb61a7c3-59b4-48f6-b1f6-bb36e6a38241"
      }, {
        "reference": "Condition/d3d53442-9dc1-4b57-8c7e-7397ea558c09"
      }, {
        "reference": "Location/12a0dda2-c8a7-4468-a450-c28638bd4b20"
      }, {
        "reference": "Location/dc4bb618-c599-4864-8b59-582d3fec98f4"
      }, {
        "reference": "Claim/a95f822d-539d-4cae-a1cb-b024de2b8b1a"
      }, {
        "reference": "Coverage/a21dbafc-74d0-4d57-ae21-f894d31f32e8"
      }, {
        "reference": "Organization/20c527c4-3817-453f-a9fe-18727ad53d2f"
      }, {
        "reference": "Practitioner/b7ebace1-6e6b-44d8-a4f6-eb999ab41bc2"
      } ]
    },
    "request": {
      "method": "PUT",
      "url": "MeasureReport/05e52304-8f86-43be-8f8b-81abeec1ab33"
    }
  } ]
}