{
  "resourceType": "Bundle",
  "id": "tests-NumerPass-RVAbnWeightLossAndMalnutrition-bundle",
  "type": "transaction",
  "entry": [ {
    "fullUrl": "https://madie.cms.gov/Encounter/d3b33b1d-720c-4ed9-8d06-39db93570357",
    "resource": {
      "resourceType": "Encounter",
      "id": "d3b33b1d-720c-4ed9-8d06-39db93570357",
      "meta": {
        "profile": [ "http://hl7.org/fhir/us/qicore/StructureDefinition/qicore-encounter" ]
      },
      "status": "finished",
      "class": {
        "system": "http://terminology.hl7.org/CodeSystem/v3-ActCode",
        "code": "IMP",
        "display": "inpatient encounter"
      },
      "type": [ {
        "coding": [ {
          "system": "http://snomed.info/sct",
          "code": "183452005"
        } ]
      } ],
      "subject": {
        "reference": "Patient/5d7d44f5-aa75-4889-89d6-e7586ac5de4a"
      },
      "period": {
        "start": "2026-10-19T08:30:00.000+00:00",
        "end": "2026-10-21T08:15:00.000+00:00"
      },
      "reasonCode": [ {
        "coding": [ {
          "system": "http://snomed.info/sct",
          "code": "14047009"
        } ]
      }, {
        "coding": [ {
          "system": "http://snomed.info/sct",
          "code": "64859006"
        } ]
      }, {
        "coding": [ {
          "system": "http://hl7.org/fhir/sid/icd-10-cm",
          "code": "R63.4",
          "display": "Abnormal weight loss"
        } ]
      }, {
        "coding": [ {
          "system": "http://hl7.org/fhir/sid/icd-10-cm",
          "code": "E44.0"
        } ]
      } ]
    },
    "request": {
      "method": "PUT",
      "url": "Encounter/d3b33b1d-720c-4ed9-8d06-39db93570357"
    }
  }, {
    "fullUrl": "https://madie.cms.gov/Encounter/b37785ad-12bd-4a76-800d-cef715fc51d3",
    "resource": {
      "resourceType": "Encounter",
      "id": "b37785ad-12bd-4a76-800d-cef715fc51d3",
      "meta": {
        "profile": [ "http://hl7.org/fhir/us/qicore/StructureDefinition/qicore-encounter" ]
      },
      "status": "finished",
      "class": {
        "system": "http://terminology.hl7.org/CodeSystem/v3-ActCode",
        "code": "EMER",
        "display": "emergency encounter"
      },
      "type": [ {
        "coding": [ {
          "system": "http://snomed.info/sct",
          "code": "4525004"
        } ]
      } ],
      "subject": {
        "reference": "Patient/5d7d44f5-aa75-4889-89d6-e7586ac5de4a"
      },
      "period": {
        "start": "2026-10-18T09:15:00.000+00:00",
        "end": "2026-10-19T08:15:00.000+00:00"
      }
    },
    "request": {
      "method": "PUT",
      "url": "Encounter/b37785ad-12bd-4a76-800d-cef715fc51d3"
    }
  }, {
    "fullUrl": "https://madie.cms.gov/Patient/5d7d44f5-aa75-4889-89d6-e7586ac5de4a",
    "resource": {
      "resourceType": "Patient",
      "id": "5d7d44f5-aa75-4889-89d6-e7586ac5de4a",
      "meta": {
        "profile": [ "http://hl7.org/fhir/us/qicore/StructureDefinition/qicore-patient" ]
      },
      "extension": [ {
        "url": "http://hl7.org/fhir/us/core/StructureDefinition/us-core-race",
        "extension": [ {
          "url": "ombCategory",
          "valueCoding": {
            "system": "urn:oid:2.16.840.1.113883.6.238",
            "code": "2106-3",
            "display": "White"
          }
        }, {
          "url": "text",
          "valueString": "White"
        } ]
      }, {
        "url": "http://hl7.org/fhir/us/core/StructureDefinition/us-core-ethnicity",
        "extension": [ {
          "url": "ombCategory",
          "valueCoding": {
            "system": "urn:oid:2.16.840.1.113883.6.238",
            "code": "2135-2",
            "display": "Hispanic or Latino"
          }
        }, {
          "url": "text",
          "valueString": "Hispanic or Latino"
        } ]
      }, {
        "url": "http://hl7.org/fhir/us/core/StructureDefinition/us-core-sex",
        "valueCode": "248153007"
      } ],
      "identifier": [ {
        "system": "http://hospital.smarthealthit.org",
        "value": "999999999"
      } ],
      "name": [ {
        "family": "Example",
        "given": [ "Patient" ]
      } ],
      "gender": "female",
      "birthDate": "1956-01-01"
    },
    "request": {
      "method": "PUT",
      "url": "Patient/5d7d44f5-aa75-4889-89d6-e7586ac5de4a"
    }
  }, {
    "fullUrl": "https://madie.cms.gov/Claim/3db22fcd-c536-4f95-9fe6-752043a2b875",
    "resource": {
      "resourceType": "Claim",
      "id": "3db22fcd-c536-4f95-9fe6-752043a2b875",
      "meta": {
        "profile": [ "http://hl7.org/fhir/us/qicore/StructureDefinition/qicore-claim" ]
      },
      "status": "active",
      "type": {
        "coding": [ {
          "system": "http://terminology.hl7.org/CodeSystem/claim-type",
          "code": "institutional",
          "display": "Institutional"
        } ]
      },
      "use": "claim",
      "patient": {
        "reference": "Patient/5d7d44f5-aa75-4889-89d6-e7586ac5de4a"
      },
      "created": "2026-10-22",
      "provider": {
        "reference": "Practitioner/practitioner-1"
      },
      "priority": {
        "coding": [ {
          "system": "http://terminology.hl7.org/CodeSystem/processpriority",
          "code": "normal"
        } ]
      },
      "diagnosis": [ {
        "sequence": 1,
        "diagnosisCodeableConcept": {
          "coding": [ {
            "system": "http://snomed.info/sct",
            "code": "14047009"
          } ]
        }
      } ],
      "insurance": [ {
        "sequence": 1,
        "focal": true,
        "coverage": {
          "reference": "Coverage/coverage-1"
        }
      } ],
      "item": [ {
        "sequence": 1,
        "diagnosisSequence": [ 1, 2, 3 ],
        "productOrService": {
          "coding": [ {
            "system": "http://terminology.hl7.org/CodeSystem/ex-USCLS",
            "code": "1101"
          } ]
        },
        "encounter": [ {
          "reference": "Encounter/d3b33b1d-720c-4ed9-8d06-39db93570357"
        } ]
      } ]
    },
    "request": {
      "method": "PUT",
      "url": "Claim/3db22fcd-c536-4f95-9fe6-752043a2b875"
    }
  }, {
    "fullUrl": "https://madie.cms.gov/Claim/2e426a74-1236-4032-97eb-61b971607c24",
    "resource": {
      "resourceType": "Claim",
      "id": "2e426a74-1236-4032-97eb-61b971607c24",
      "meta": {
        "profile": [ "http://hl7.org/fhir/us/qicore/StructureDefinition/qicore-claim" ]
      },
      "status": "active",
      "type": {
        "coding": [ {
          "system": "http://terminology.hl7.org/CodeSystem/claim-type",
          "code": "institutional",
          "display": "Institutional"
        } ]
      },
      "use": "claim",
      "patient": {
        "reference": "Patient/5d7d44f5-aa75-4889-89d6-e7586ac5de4a"
      },
      "created": "2026-11-01",
      "provider": {
        "reference": "Practitioner/practitioner-1"
      },
      "priority": {
        "coding": [ {
          "system": "http://terminology.hl7.org/CodeSystem/processpriority",
          "code": "normal"
        } ]
      },
      "diagnosis": [ {
        "sequence": 1,
        "diagnosisCodeableConcept": {
          "coding": [ {
            "system": "http://hl7.org/fhir/sid/icd-10-cm",
            "code": "M80.00XA",
            "display": "Age-related osteoporosis with current pathological fracture, unspecified site, initial encounter for fracture"
          } ]
        }
      } ],
      "insurance": [ {
        "sequence": 1,
        "focal": true,
        "coverage": {
          "reference": "Coverage/coverage-1"
        }
      } ],
      "item": [ {
        "sequence": 1,
        "diagnosisSequence": [ 1, 2, 3 ],
        "productOrService": {
          "coding": [ {
            "system": "http://terminology.hl7.org/CodeSystem/ex-USCLS",
            "code": "1101"
          } ]
        },
        "encounter": [ {
          "reference": "Encounter/d3b33b1d-720c-4ed9-8d06-39db93570357"
        } ]
      } ]
    },
    "request": {
      "method": "PUT",
      "url": "Claim/2e426a74-1236-4032-97eb-61b971607c24"
    }
  }, {
    "fullUrl": "https://madie.cms.gov/Claim/f0538bc4-a01e-4c54-b22b-2bf3a58cb94b",
    "resource": {
      "resourceType": "Claim",
      "id": "f0538bc4-a01e-4c54-b22b-2bf3a58cb94b",
      "meta": {
        "profile": [ "http://hl7.org/fhir/us/qicore/StructureDefinition/qicore-claim" ]
      },
      "status": "active",
      "type": {
        "coding": [ {
          "system": "http://terminology.hl7.org/CodeSystem/claim-type",
          "code": "institutional",
          "display": "Institutional"
        } ]
      },
      "use": "claim",
      "patient": {
        "reference": "Patient/5d7d44f5-aa75-4889-89d6-e7586ac5de4a"
      },
      "created": "2026-11-02",
      "provider": {
        "reference": "Practitioner/practitioner-1"
      },
      "priority": {
        "coding": [ {
          "system": "http://terminology.hl7.org/CodeSystem/processpriority",
          "code": "normal"
        } ]
      },
      "diagnosis": [ {
        "sequence": 1,
        "diagnosisCodeableConcept": {
          "coding": [ {
            "system": "http://hl7.org/fhir/sid/icd-10-cm",
            "code": "R63.4",
            "display": "Abnormal weight loss"
          } ]
        },
        "onAdmission": {
          "coding": [ {
            "system": "https://www.cms.gov/Medicare/Medicare-Fee-for-Service-Payment/HospitalAcqCond/Coding",
            "code": "Y"
          } ]
        }
      } ],
      "insurance": [ {
        "sequence": 1,
        "focal": true,
        "coverage": {
          "reference": "Coverage/coverage-1"
        }
      } ],
      "item": [ {
        "sequence": 1,
        "diagnosisSequence": [ 1 ],
        "productOrService": {
          "coding": [ {
            "system": "http://terminology.hl7.org/CodeSystem/ex-USCLS",
            "code": "1101"
          } ]
        },
        "encounter": [ {
          "reference": "Encounter/d3b33b1d-720c-4ed9-8d06-39db93570357"
        } ]
      } ]
    },
    "request": {
      "method": "PUT",
      "url": "Claim/f0538bc4-a01e-4c54-b22b-2bf3a58cb94b"
    }
  }, {
    "fullUrl": "https://madie.cms.gov/Claim/d3d73a6e-9b00-48cf-9e5a-ffba551dcaf6",
    "resource": {
      "resourceType": "Claim",
      "id": "d3d73a6e-9b00-48cf-9e5a-ffba551dcaf6",
      "meta": {
        "profile": [ "http://hl7.org/fhir/us/qicore/StructureDefinition/qicore-claim" ]
      },
      "status": "active",
      "type": {
        "coding": [ {
          "system": "http://terminology.hl7.org/CodeSystem/claim-type",
          "code": "institutional",
          "display": "Institutional"
        } ]
      },
      "use": "claim",
      "patient": {
        "reference": "Patient/5d7d44f5-aa75-4889-89d6-e7586ac5de4a"
      },
      "created": "2026-11-03",
      "provider": {
        "reference": "Practitioner/practitioner-1"
      },
      "priority": {
        "coding": [ {
          "system": "http://terminology.hl7.org/CodeSystem/processpriority",
          "code": "normal"
        } ]
      },
      "diagnosis": [ {
        "sequence": 1,
        "diagnosisCodeableConcept": {
          "coding": [ {
            "system": "http://hl7.org/fhir/sid/icd-10-cm",
            "code": "E44.0",
            "display": "Moderate protein-calorie malnutrition"
          } ]
        },
        "onAdmission": {
          "coding": [ {
            "system": "https://www.cms.gov/Medicare/Medicare-Fee-for-Service-Payment/HospitalAcqCond/Coding",
            "code": "Y"
          } ]
        }
      } ],
      "insurance": [ {
        "sequence": 1,
        "focal": true,
        "coverage": {
          "reference": "Coverage/coverage-1"
        }
      } ],
      "item": [ {
        "sequence": 1,
        "diagnosisSequence": [ 1 ],
        "productOrService": {
          "coding": [ {
            "system": "http://terminology.hl7.org/CodeSystem/ex-USCLS",
            "code": "1101"
          } ]
        },
        "encounter": [ {
          "reference": "Encounter/d3b33b1d-720c-4ed9-8d06-39db93570357"
        } ]
      } ]
    },
    "request": {
      "method": "PUT",
      "url": "Claim/d3d73a6e-9b00-48cf-9e5a-ffba551dcaf6"
    }
  }, {
    "fullUrl": "https://madie.cms.gov/Observation/068c2675-88ef-40fa-a83a-625cbefe5688",
    "resource": {
      "resourceType": "Observation",
      "id": "068c2675-88ef-40fa-a83a-625cbefe5688",
      "meta": {
        "profile": [ "http://hl7.org/fhir/us/core/StructureDefinition/us-core-bmi" ]
      },
      "status": "final",
      "category": [ {
        "coding": [ {
          "system": "http://terminology.hl7.org/CodeSystem/observation-category",
          "code": "vital-signs",
          "display": "Vital Signs"
        } ]
      } ],
      "code": {
        "coding": [ {
          "system": "http://loinc.org",
          "code": "39156-5",
          "display": "Body mass index (BMI) [Ratio]"
        } ],
        "text": "BMI"
      },
      "subject": {
        "reference": "Patient/5d7d44f5-aa75-4889-89d6-e7586ac5de4a"
      },
      "effectiveDateTime": "2026-10-20T08:00:00.000+00:00",
      "valueQuantity": {
        "value": 13.5,
        "unit": "kg/m2",
        "system": "http://unitsofmeasure.org",
        "code": "kg/m2"
      }
    },
    "request": {
      "method": "PUT",
      "url": "Observation/068c2675-88ef-40fa-a83a-625cbefe5688"
    }
  }, {
    "fullUrl": "https://madie.cms.gov/Practitioner/a7169ae0-917f-463b-881a-3a3d0a6a886e",
    "resource": {
      "resourceType": "Practitioner",
      "id": "a7169ae0-917f-463b-881a-3a3d0a6a886e",
      "identifier": [ {
        "system": "http://www.cms.gov/identifiers/pracitioners",
        "value": "P12345"
      } ],
      "name": [ {
        "use": "official",
        "family": "Smith",
        "given": [ "John" ]
      } ],
      "qualification": [ {
        "identifier": [ {
          "system": "http://hl7.org/fhir/sid/us-npi",
          "value": "1234567890"
        } ],
        "code": {
          "coding": [ {
            "system": "http://terminology.hl7.org/CodeSystem/v2-0203",
            "code": "MD",
            "display": "Medical License number"
          } ]
        }
      } ]
    },
    "request": {
      "method": "PUT",
      "url": "Practitioner/a7169ae0-917f-463b-881a-3a3d0a6a886e"
    }
  }, {
    "fullUrl": "https://madie.cms.gov/Coverage/c923d0ca-57b2-407d-8b8a-6f4ecf672b81",
    "resource": {
      "resourceType": "Coverage",
      "id": "c923d0ca-57b2-407d-8b8a-6f4ecf672b81",
      "status": "active",
      "beneficiary": {
        "reference": "Patient/5d7d44f5-aa75-4889-89d6-e7586ac5de4a"
      },
      "payor": [ {
        "reference": "Organization/15287df8-b045-4374-9044-eb04e77ab5f4"
      } ]
    },
    "request": {
      "method": "PUT",
      "url": "Coverage/c923d0ca-57b2-407d-8b8a-6f4ecf672b81"
    }
  }, {
    "fullUrl": "https://madie.cms.gov/Organization/15287df8-b045-4374-9044-eb04e77ab5f4",
    "resource": {
      "resourceType": "Organization",
      "id": "15287df8-b045-4374-9044-eb04e77ab5f4",
      "identifier": [ {
        "system": "http://cms.gov/insurance-ids",
        "value": "AET12345"
      } ],
      "type": [ {
        "coding": [ {
          "system": "http://terminology.hl7.org/CodeSystem/organization-type",
          "code": "prov",
          "display": "Healthcare Provider"
        } ]
      } ],
      "name": "Aetna Insurance",
      "telecom": [ {
        "system": "phone",
        "value": "+1-800-123-4567"
      } ],
      "address": [ {
        "line": [ "123 Main Street" ],
        "city": "Cityville",
        "state": "CA",
        "postalCode": "12345",
        "country": "USA"
      } ]
    },
    "request": {
      "method": "PUT",
      "url": "Organization/15287df8-b045-4374-9044-eb04e77ab5f4"
    }
  }, {
    "fullUrl": "https://madie.cms.gov/MeasureReport/f8efe70f-adf2-424e-adbc-4c2d0f393767",
    "resource": {
      "resourceType": "MeasureReport",
      "id": "f8efe70f-adf2-424e-adbc-4c2d0f393767",
      "meta": {
        "profile": [ "http://hl7.org/fhir/us/cqfmeasures/StructureDefinition/test-case-cqfm" ]
      },
      "contained": [ {
        "resourceType": "Parameters",
        "id": "1718d704-6cac-42cb-b997-dfe98f1297ad-parameters",
        "parameter": [ {
          "name": "subject",
          "valueString": "5d7d44f5-aa75-4889-89d6-e7586ac5de4a"
        } ]
      } ],
      "extension": [ {
        "url": "http://hl7.org/fhir/StructureDefinition/cqf-inputParameters",
        "valueReference": {
          "reference": "#1718d704-6cac-42cb-b997-dfe98f1297ad-parameters"
        }
      }, {
        "url": "http://hl7.org/fhir/us/cqfmeasures/StructureDefinition/cqfm-testCaseDescription",
        "valueMarkdown": "Encounter with a Abnormal Weight Loss and Malnutrition"
      } ],
      "modifierExtension": [ {
        "url": "http://hl7.org/fhir/us/cqfmeasures/StructureDefinition/cqfm-isTestCase",
        "valueBoolean": true
      } ],
      "status": "complete",
      "type": "individual",
      "measure": "https://madie.cms.gov/Measure/CMS1017FHIRHHFI",
      "period": {
        "start": "2026-01-01",
        "end": "2026-12-31"
      },
      "group": [ {
        "id": "Group_1",
        "population": [ {
          "id": "InitialPopulation_1",
          "code": {
            "coding": [ {
              "system": "http://terminology.hl7.org/CodeSystem/measure-population",
              "code": "initial-population",
              "display": "Initial Population"
            } ]
          },
          "count": 1
        }, {
          "id": "Denominator_1",
          "code": {
            "coding": [ {
              "system": "http://terminology.hl7.org/CodeSystem/measure-population",
              "code": "denominator",
              "display": "Denominator"
            } ]
          },
          "count": 1
        }, {
          "id": "DenominatorExclusion_1",
          "code": {
            "coding": [ {
              "system": "http://terminology.hl7.org/CodeSystem/measure-population",
              "code": "denominator-exclusion",
              "display": "Denominator Exclusion"
            } ]
          },
          "count": 0
        }, {
          "id": "Numerator_1",
          "code": {
            "coding": [ {
              "system": "http://terminology.hl7.org/CodeSystem/measure-population",
              "code": "numerator",
              "display": "Numerator"
            } ]
          },
          "count": 1
        }, {
          "id": "NumeratorExclusion_1",
          "code": {
            "coding": [ {
              "system": "http://terminology.hl7.org/CodeSystem/measure-population",
              "code": "numerator-exclusion",
              "display": "Numerator Exclusion"
            } ]
          },
          "count": 0
        }, {
          "id": "MeasureObservation_1_1_1",
          "code": {
            "coding": [ {
              "system": "http://terminology.hl7.org/CodeSystem/measure-population",
              "code": "measure-observation",
              "display": "Measure Observation"
            } ]
          },
          "count": 2
        }, {
          "id": "MeasureObservation_1_2_1",
          "code": {
            "coding": [ {
              "system": "http://terminology.hl7.org/CodeSystem/measure-population",
              "code": "measure-observation",
              "display": "Measure Observation"
            } ]
          },
          "count": 1
        } ],
        "measureScore": {
          "value": 0.0
        }
      } ],
      "evaluatedResource": [ {
        "reference": "Encounter/d3b33b1d-720c-4ed9-8d06-39db93570357"
      }, {
        "reference": "Encounter/b37785ad-12bd-4a76-800d-cef715fc51d3"
      }, {
        "reference": "Patient/5d7d44f5-aa75-4889-89d6-e7586ac5de4a"
      }, {
        "reference": "Claim/3db22fcd-c536-4f95-9fe6-752043a2b875"
      }, {
        "reference": "Claim/2e426a74-1236-4032-97eb-61b971607c24"
      }, {
        "reference": "Claim/f0538bc4-a01e-4c54-b22b-2bf3a58cb94b"
      }, {
        "reference": "Claim/d3d73a6e-9b00-48cf-9e5a-ffba551dcaf6"
      }, {
        "reference": "Observation/068c2675-88ef-40fa-a83a-625cbefe5688"
      }, {
        "reference": "Practitioner/a7169ae0-917f-463b-881a-3a3d0a6a886e"
      }, {
        "reference": "Coverage/c923d0ca-57b2-407d-8b8a-6f4ecf672b81"
      }, {
        "reference": "Organization/15287df8-b045-4374-9044-eb04e77ab5f4"
      } ]
    },
    "request": {
      "method": "PUT",
      "url": "MeasureReport/f8efe70f-adf2-424e-adbc-4c2d0f393767"
    }
  } ]
}