{
  "resourceType": "Bundle",
  "id": "63487c2d0968f80122540159",
  "type": "transaction",
  "entry": [ {
    "fullUrl": "https://madie.cms.gov/Patient/ab3b4dcb-6e65-4376-baca-4108d2b0f09d",
    "resource": {
      "resourceType": "Patient",
      "id": "ab3b4dcb-6e65-4376-baca-4108d2b0f09d",
      "meta": {
        "profile": [ "http://hl7.org/fhir/us/qicore/StructureDefinition/qicore-patient" ]
      },
      "text": {
        "status": "generated",
        "div": "<div xmlns=\"http://www.w3.org/1999/xhtml\"><div class=\"hapiHeaderText\">AssessPreTermMissing <b>DENOMFail</b></div><table class=\"hapiPropertyTable\"><tbody><tr><td>Identifier</td><td>47284949010d749f32cd83413e0f01c0f1855bb8c15a9fdfe12aacdaa615e85b</td></tr><tr><td>Date of birth</td><td><span>14 February 1985</span></td></tr></tbody></table></div>"
      },
      "extension": [ {
        "url": "http://hl7.org/fhir/us/core/StructureDefinition/us-core-race",
        "extension": [ {
          "url": "ombCategory",
          "valueCoding": {
            "system": "urn:oid:2.16.840.1.113883.6.238",
            "code": "1002-5",
            "display": "American Indian or Alaska Native",
            "userSelected": true
          }
        }, {
          "url": "text",
          "valueString": "American Indian or Alaska Native"
        } ]
      }, {
        "url": "http://hl7.org/fhir/us/core/StructureDefinition/us-core-ethnicity",
        "extension": [ {
          "url": "ombCategory",
          "valueCoding": {
            "system": "urn:oid:2.16.840.1.113883.6.238",
            "code": "2135-2",
            "display": "Hispanic or Latino",
            "userSelected": true
          }
        }, {
          "url": "text",
          "valueString": "Hispanic or Latino"
        } ]
      } ],
      "identifier": [ {
        "type": {
          "coding": [ {
            "system": "http://terminology.hl7.org/CodeSystem/v2-0203",
            "code": "MR"
          } ]
        },
        "system": "https://bonnie-fhir.healthit.gov/",
        "value": "63487c2d0968f80122540159"
      } ],
      "active": true,
      "name": [ {
        "use": "usual",
        "family": "DENOMFail",
        "given": [ "AssessPreTermMissing " ]
      } ],
      "gender": "female",
      "birthDate": "1998-02-14"
    },
    "request": {
      "method": "PUT",
      "url": "Patient/ab3b4dcb-6e65-4376-baca-4108d2b0f09d"
    }
  }, {
    "fullUrl": "https://madie.cms.gov/Observation/561274b4-cfb8-483f-b07e-bda2df8122d1",
    "resource": {
      "resourceType": "Observation",
      "id": "561274b4-cfb8-483f-b07e-bda2df8122d1",
      "meta": {
        "profile": [ "http://hl7.org/fhir/us/qicore/StructureDefinition/qicore-simple-observation" ]
      },
      "status": "final",
      "category": [ {
        "coding": [ {
          "system": "http://terminology.hl7.org/CodeSystem/observation-category",
          "code": "exam",
          "display": "exam",
          "userSelected": true
        } ]
      } ],
      "code": {
        "coding": [ {
          "system": "http://loinc.org",
          "code": "11639-2"
        } ]
      },
      "subject": {
        "reference": "Patient/ab3b4dcb-6e65-4376-baca-4108d2b0f09d"
      },
      "effectiveDateTime": "2025-09-19T09:00:00.000+00:00",
      "valueInteger": 0
    },
    "request": {
      "method": "PUT",
      "url": "Observation/561274b4-cfb8-483f-b07e-bda2df8122d1"
    }
  }, {
    "fullUrl": "https://madie.cms.gov/Observation/4ba0479a-9139-4c11-a2b5-18286ad65976",
    "resource": {
      "resourceType": "Observation",
      "id": "4ba0479a-9139-4c11-a2b5-18286ad65976",
      "meta": {
        "profile": [ "http://hl7.org/fhir/us/qicore/StructureDefinition/qicore-simple-observation" ]
      },
      "status": "final",
      "category": [ {
        "coding": [ {
          "system": "http://terminology.hl7.org/CodeSystem/observation-category",
          "code": "exam",
          "display": "exam",
          "userSelected": true
        } ]
      } ],
      "code": {
        "coding": [ {
          "system": "http://loinc.org",
          "code": "11884-4"
        } ]
      },
      "subject": {
        "reference": "Patient/ab3b4dcb-6e65-4376-baca-4108d2b0f09d"
      },
      "effectiveDateTime": "2026-06-08T20:00:00.000+00:00",
      "valueQuantity": {
        "value": 37,
        "system": "http://unitsofmeasure.org",
        "code": "wk"
      }
    },
    "request": {
      "method": "PUT",
      "url": "Observation/4ba0479a-9139-4c11-a2b5-18286ad65976"
    }
  }, {
    "fullUrl": "https://madie.cms.gov/Observation/22dd0521-dc86-4d86-bca6-6aaabc3bab1b",
    "resource": {
      "resourceType": "Observation",
      "id": "22dd0521-dc86-4d86-bca6-6aaabc3bab1b",
      "meta": {
        "profile": [ "http://hl7.org/fhir/us/qicore/StructureDefinition/qicore-simple-observation" ]
      },
      "status": "final",
      "category": [ {
        "coding": [ {
          "system": "http://terminology.hl7.org/CodeSystem/observation-category",
          "code": "exam",
          "display": "exam",
          "userSelected": true
        } ]
      } ],
      "code": {
        "coding": [ {
          "system": "http://loinc.org",
          "code": "93857-1"
        } ]
      },
      "subject": {
        "reference": "Patient/ab3b4dcb-6e65-4376-baca-4108d2b0f09d"
      },
      "effectiveDateTime": "2026-06-08T20:00:00.000+00:00",
      "valueDateTime": "2026-06-08T20:00:00.000+00:00"
    },
    "request": {
      "method": "PUT",
      "url": "Observation/22dd0521-dc86-4d86-bca6-6aaabc3bab1b"
    }
  }, {
    "fullUrl": "https://madie.cms.gov/Encounter/14ec02ef-2586-4c0b-8246-667bd1e271f7",
    "resource": {
      "resourceType": "Encounter",
      "id": "14ec02ef-2586-4c0b-8246-667bd1e271f7",
      "meta": {
        "profile": [ "http://hl7.org/fhir/us/qicore/StructureDefinition/qicore-encounter" ]
      },
      "status": "finished",
      "class": {
        "system": "http://terminology.hl7.org/CodeSystem/v3-ActCode",
        "code": "IMP",
        "display": "inpatient encounter"
      },
      "type": [ {
        "coding": [ {
          "system": "http://snomed.info/sct",
          "code": "8715000"
        } ]
      } ],
      "subject": {
        "reference": "Patient/ab3b4dcb-6e65-4376-baca-4108d2b0f09d"
      },
      "period": {
        "start": "2026-06-08T08:00:00.000+00:00",
        "end": "2026-06-10T08:15:00.000+00:00"
      },
      "length": {
        "value": 2,
        "unit": "days"
      },
      "reasonReference": [ {
        "reference": "Condition/981728c8-d11d-4285-ba1a-44caf6d47f6d"
      } ]
    },
    "request": {
      "method": "PUT",
      "url": "Encounter/14ec02ef-2586-4c0b-8246-667bd1e271f7"
    }
  }, {
    "fullUrl": "https://madie.cms.gov/Procedure/12d28f5a-42d6-4986-895f-53db2799969e",
    "resource": {
      "resourceType": "Procedure",
      "id": "12d28f5a-42d6-4986-895f-53db2799969e",
      "meta": {
        "profile": [ "http://hl7.org/fhir/us/qicore/StructureDefinition/qicore-procedure" ]
      },
      "extension": [ {
        "url": "http://hl7.org/fhir/us/qicore/StructureDefinition/qicore-recorded",
        "valueDateTime": "2014-04-05T13:35:00.000+00:00"
      } ],
      "status": "completed",
      "code": {
        "coding": [ {
          "system": "http://www.cms.gov/Medicare/Coding/ICD10",
          "code": "10D00Z0"
        }, {
          "system": "http://snomed.info/sct",
          "code": "4504004"
        }, {
          "system": "http://www.icd10data.com/icd10pcs",
          "code": "10D00Z0",
          "userSelected": true
        } ]
      },
      "subject": {
        "reference": "Patient/ab3b4dcb-6e65-4376-baca-4108d2b0f09d"
      },
      "performedPeriod": {
        "start": "2026-06-08T20:00:00.000+00:00",
        "end": "2026-06-08T20:15:00.000+00:00"
      }
    },
    "request": {
      "method": "PUT",
      "url": "Procedure/12d28f5a-42d6-4986-895f-53db2799969e"
    }
  }, {
    "fullUrl": "https://madie.cms.gov/Condition/981728c8-d11d-4285-ba1a-44caf6d47f6d",
    "resource": {
      "resourceType": "Condition",
      "id": "981728c8-d11d-4285-ba1a-44caf6d47f6d",
      "meta": {
        "profile": [ "http://hl7.org/fhir/us/qicore/StructureDefinition/qicore-condition-encounter-diagnosis" ]
      },
      "category": [ {
        "coding": [ {
          "system": "http://terminology.hl7.org/CodeSystem/condition-category",
          "code": "encounter-diagnosis",
          "display": "Encounter Diagnosis"
        } ]
      } ],
      "code": {
        "coding": [ {
          "system": "http://snomed.info/sct",
          "version": "2022-09",
          "code": "169826009",
          "display": "Single live birth from singleton pregnancy (finding)",
          "userSelected": true
        } ]
      },
      "subject": {
        "reference": "Patient/ab3b4dcb-6e65-4376-baca-4108d2b0f09d"
      },
      "encounter": {
        "reference": "Encounter/14ec02ef-2586-4c0b-8246-667bd1e271f7"
      },
      "recordedDate": "2026-10-21T08:00:00.000+00:00"
    },
    "request": {
      "method": "PUT",
      "url": "Condition/981728c8-d11d-4285-ba1a-44caf6d47f6d"
    }
  }, {
    "fullUrl": "https://madie.cms.gov/Coverage/463a1d24-dac3-4db7-a563-df839eef6ee3",
    "resource": {
      "resourceType": "Coverage",
      "id": "463a1d24-dac3-4db7-a563-df839eef6ee3",
      "meta": {
        "profile": [ "http://hl7.org/fhir/us/qicore/StructureDefinition/qicore-coverage" ]
      },
      "status": "active",
      "subscriberId": "523435",
      "beneficiary": {
        "reference": "Patient/ab3b4dcb-6e65-4376-baca-4108d2b0f09d"
      },
      "relationship": {
        "coding": [ {
          "system": "http://terminology.hl7.org/CodeSystem/subscriber-relationship",
          "code": "self"
        } ]
      },
      "payor": [ {
        "reference": "Organization/144069de-c6a2-4386-9d06-d72ef2beec07"
      } ]
    },
    "request": {
      "method": "PUT",
      "url": "Coverage/463a1d24-dac3-4db7-a563-df839eef6ee3"
    }
  }, {
    "fullUrl": "https://madie.cms.gov/Organization/144069de-c6a2-4386-9d06-d72ef2beec07",
    "resource": {
      "resourceType": "Organization",
      "id": "144069de-c6a2-4386-9d06-d72ef2beec07",
      "meta": {
        "profile": [ "http://hl7.org/fhir/us/qicore/StructureDefinition/qicore-organization" ]
      },
      "identifier": [ {
        "use": "temp",
        "system": "urn:oid:2.16.840.1.113883.4.4",
        "value": "21-3259825"
      } ],
      "active": true,
      "type": [ {
        "coding": [ {
          "system": "http://terminology.hl7.org/CodeSystem/organization-type",
          "code": "pay",
          "display": "Payer"
        } ]
      } ],
      "name": "Blue Cross Blue Shield of Texas",
      "telecom": [ {
        "system": "phone",
        "value": "(+1) 972-766-6900"
      } ],
      "address": [ {
        "use": "billing",
        "type": "postal",
        "line": [ "P.O. Box 660044" ],
        "city": "Dallas",
        "state": "TX",
        "postalCode": "75266-0044",
        "country": "USA"
      } ]
    },
    "request": {
      "method": "PUT",
      "url": "Organization/144069de-c6a2-4386-9d06-d72ef2beec07"
    }
  }, {
    "fullUrl": "https://madie.cms.gov/Practitioner/c7d6463b-9624-4c7c-b7df-7ee2626a2117",
    "resource": {
      "resourceType": "Practitioner",
      "id": "c7d6463b-9624-4c7c-b7df-7ee2626a2117",
      "meta": {
        "profile": [ "http://hl7.org/fhir/us/qicore/StructureDefinition/qicore-practitioner" ]
      },
      "identifier": [ {
        "system": "http://hl7.org/fhir/sid/us-npi",
        "value": "1234567890"
      } ],
      "name": [ {
        "family": "Evil",
        "prefix": [ "Dr" ]
      } ]
    },
    "request": {
      "method": "PUT",
      "url": "Practitioner/c7d6463b-9624-4c7c-b7df-7ee2626a2117"
    }
  }, {
    "fullUrl": "https://madie.cms.gov/MeasureReport/44f6d625-828f-49c3-9358-f5344070e485",
    "resource": {
      "resourceType": "MeasureReport",
      "id": "44f6d625-828f-49c3-9358-f5344070e485",
      "meta": {
        "profile": [ "http://hl7.org/fhir/us/cqfmeasures/StructureDefinition/test-case-cqfm" ]
      },
      "contained": [ {
        "resourceType": "Parameters",
        "id": "20fecd86-cc2d-40ae-a4ae-23cb2aeb80d0-parameters",
        "parameter": [ {
          "name": "subject",
          "valueString": "ab3b4dcb-6e65-4376-baca-4108d2b0f09d"
        } ]
      } ],
      "extension": [ {
        "url": "http://hl7.org/fhir/StructureDefinition/cqf-inputParameters",
        "valueReference": {
          "reference": "#20fecd86-cc2d-40ae-a4ae-23cb2aeb80d0-parameters"
        }
      }, {
        "url": "http://hl7.org/fhir/us/cqfmeasures/StructureDefinition/cqfm-testCaseDescription",
        "valueMarkdown": "\"Preterm Births missing\nTerm Newborn=0, relevant date time < 42weeks prior to Asse delivery\"\n"
      } ],
      "modifierExtension": [ {
        "url": "http://hl7.org/fhir/us/cqfmeasures/StructureDefinition/cqfm-isTestCase",
        "valueBoolean": true
      } ],
      "status": "complete",
      "type": "individual",
      "measure": "https://madie.cms.gov/Measure/CMS0334FHIRPCCesareanBirth",
      "period": {
        "start": "2026-01-01",
        "end": "2026-12-31"
      },
      "group": [ {
        "id": "Group_1",
        "population": [ {
          "id": "InitialPopulation_1",
          "code": {
            "coding": [ {
              "system": "http://terminology.hl7.org/CodeSystem/measure-population",
              "code": "initial-population",
              "display": "Initial Population"
            } ]
          },
          "count": 1
        }, {
          "id": "Denominator_1",
          "code": {
            "coding": [ {
              "system": "http://terminology.hl7.org/CodeSystem/measure-population",
              "code": "denominator",
              "display": "Denominator"
            } ]
          },
          "count": 0
        }, {
          "id": "DenominatorExclusion_1",
          "code": {
            "coding": [ {
              "system": "http://terminology.hl7.org/CodeSystem/measure-population",
              "code": "denominator-exclusion",
              "display": "Denominator Exclusion"
            } ]
          },
          "count": 0
        }, {
          "id": "Numerator_1",
          "code": {
            "coding": [ {
              "system": "http://terminology.hl7.org/CodeSystem/measure-population",
              "code": "numerator",
              "display": "Numerator"
            } ]
          },
          "count": 0
        } ],
        "measureScore": {
          "value": 0.0
        }
      } ],
      "evaluatedResource": [ {
        "reference": "Patient/ab3b4dcb-6e65-4376-baca-4108d2b0f09d"
      }, {
        "reference": "Observation/561274b4-cfb8-483f-b07e-bda2df8122d1"
      }, {
        "reference": "Observation/4ba0479a-9139-4c11-a2b5-18286ad65976"
      }, {
        "reference": "Observation/22dd0521-dc86-4d86-bca6-6aaabc3bab1b"
      }, {
        "reference": "Encounter/14ec02ef-2586-4c0b-8246-667bd1e271f7"
      }, {
        "reference": "Procedure/12d28f5a-42d6-4986-895f-53db2799969e"
      }, {
        "reference": "Condition/981728c8-d11d-4285-ba1a-44caf6d47f6d"
      }, {
        "reference": "Coverage/463a1d24-dac3-4db7-a563-df839eef6ee3"
      }, {
        "reference": "Organization/144069de-c6a2-4386-9d06-d72ef2beec07"
      }, {
        "reference": "Practitioner/c7d6463b-9624-4c7c-b7df-7ee2626a2117"
      } ]
    },
    "request": {
      "method": "PUT",
      "url": "MeasureReport/44f6d625-828f-49c3-9358-f5344070e485"
    }
  } ]
}