{
  "resourceType": "Bundle",
  "id": "tests-DENEXFail-MaleEncountereGFR60",
  "type": "transaction",
  "entry": [ {
    "fullUrl": "https://madie.cms.gov/Patient/a62eecb7-4b38-42dd-b451-7810f6bb5abe",
    "resource": {
      "resourceType": "Patient",
      "id": "a62eecb7-4b38-42dd-b451-7810f6bb5abe",
      "meta": {
        "profile": [ "http://hl7.org/fhir/us/qicore/StructureDefinition/qicore-patient" ]
      },
      "extension": [ {
        "url": "http://hl7.org/fhir/us/core/StructureDefinition/us-core-race",
        "extension": [ {
          "url": "ombCategory",
          "valueCoding": {
            "system": "urn:oid:2.16.840.1.113883.6.238",
            "code": "2106-3",
            "display": "White"
          }
        }, {
          "url": "text",
          "valueString": "White"
        } ]
      }, {
        "url": "http://hl7.org/fhir/us/core/StructureDefinition/us-core-ethnicity",
        "extension": [ {
          "url": "ombCategory",
          "valueCoding": {
            "system": "urn:oid:2.16.840.1.113883.6.238",
            "code": "2135-2",
            "display": "Hispanic or Latino"
          }
        }, {
          "url": "text",
          "valueString": "Hispanic or Latino"
        } ]
      }, {
        "url": "http://hl7.org/fhir/us/core/StructureDefinition/us-core-sex",
        "valueCode": "248153007"
      } ],
      "identifier": [ {
        "system": "http://hospital.smarthealthit.org",
        "value": "999999999"
      } ],
      "name": [ {
        "family": "Example",
        "given": [ "Patient" ]
      } ],
      "gender": "male",
      "birthDate": "1975-01-01"
    },
    "request": {
      "method": "PUT",
      "url": "Patient/a62eecb7-4b38-42dd-b451-7810f6bb5abe"
    }
  }, {
    "fullUrl": "https://madie.cms.gov/Encounter/15b4d548-1c27-458a-b2e1-82543f5b585b",
    "resource": {
      "resourceType": "Encounter",
      "id": "15b4d548-1c27-458a-b2e1-82543f5b585b",
      "meta": {
        "profile": [ "http://hl7.org/fhir/us/qicore/StructureDefinition/qicore-encounter" ]
      },
      "status": "finished",
      "class": {
        "system": "http://terminology.hl7.org/CodeSystem/v3-ActCode",
        "code": "EMER",
        "display": "emergency"
      },
      "type": [ {
        "coding": [ {
          "system": "http://snomed.info/sct",
          "code": "4525004",
          "display": "Emergency department patient visit (procedure)"
        } ]
      } ],
      "subject": {
        "reference": "Patient/a62eecb7-4b38-42dd-b451-7810f6bb5abe"
      },
      "period": {
        "start": "2026-09-29T08:00:00.000+00:00",
        "end": "2026-09-29T20:00:00.000+00:00"
      }
    },
    "request": {
      "method": "PUT",
      "url": "Encounter/15b4d548-1c27-458a-b2e1-82543f5b585b"
    }
  }, {
    "fullUrl": "https://madie.cms.gov/Encounter/436e62f5-8112-4793-a696-fb3850753e58",
    "resource": {
      "resourceType": "Encounter",
      "id": "436e62f5-8112-4793-a696-fb3850753e58",
      "meta": {
        "profile": [ "http://hl7.org/fhir/us/qicore/StructureDefinition/qicore-encounter" ]
      },
      "status": "finished",
      "class": {
        "system": "http://terminology.hl7.org/CodeSystem/v3-ActCode",
        "code": "IMP",
        "display": "inpatient encounter"
      },
      "type": [ {
        "coding": [ {
          "system": "http://snomed.info/sct",
          "code": "183452005",
          "display": "Emergency hospital admission (procedure)"
        } ]
      } ],
      "subject": {
        "reference": "Patient/a62eecb7-4b38-42dd-b451-7810f6bb5abe"
      },
      "period": {
        "start": "2026-09-29T20:01:00.000+00:00",
        "end": "2026-10-03T20:00:00.000+00:00"
      }
    },
    "request": {
      "method": "PUT",
      "url": "Encounter/436e62f5-8112-4793-a696-fb3850753e58"
    }
  }, {
    "fullUrl": "https://madie.cms.gov/Observation/f55ef4fd-7c9f-497b-9821-391631dadc82",
    "resource": {
      "resourceType": "Observation",
      "id": "f55ef4fd-7c9f-497b-9821-391631dadc82",
      "meta": {
        "profile": [ "http://hl7.org/fhir/us/qicore/StructureDefinition/qicore-observation-lab" ]
      },
      "status": "final",
      "category": [ {
        "coding": [ {
          "system": "http://terminology.hl7.org/CodeSystem/observation-category",
          "code": "laboratory",
          "display": "Laboratory"
        } ]
      } ],
      "code": {
        "coding": [ {
          "system": "http://loinc.org",
          "code": "21232-4",
          "display": "Creatinine [Mass/volume] in Serum or Plasma"
        } ]
      },
      "subject": {
        "reference": "Patient/a62eecb7-4b38-42dd-b451-7810f6bb5abe"
      },
      "effectiveDateTime": "2026-10-01T08:01:00.000+00:00",
      "valueQuantity": {
        "value": 1.5,
        "unit": "mg/dL",
        "system": "http://unitsofmeasure.org",
        "code": "mg/dL"
      }
    },
    "request": {
      "method": "PUT",
      "url": "Observation/f55ef4fd-7c9f-497b-9821-391631dadc82"
    }
  }, {
    "fullUrl": "https://madie.cms.gov/Observation/77c060e2-320a-4b77-b141-1ec22f0ad710",
    "resource": {
      "resourceType": "Observation",
      "id": "77c060e2-320a-4b77-b141-1ec22f0ad710",
      "meta": {
        "profile": [ "http://hl7.org/fhir/us/qicore/StructureDefinition/qicore-observation-lab" ]
      },
      "status": "final",
      "category": [ {
        "coding": [ {
          "system": "http://terminology.hl7.org/CodeSystem/observation-category",
          "code": "laboratory",
          "display": "Laboratory"
        } ]
      } ],
      "code": {
        "coding": [ {
          "system": "http://loinc.org",
          "code": "21232-4",
          "display": "Creatinine [Mass/volume] in Serum or Plasma"
        } ]
      },
      "subject": {
        "reference": "Patient/a62eecb7-4b38-42dd-b451-7810f6bb5abe"
      },
      "effectiveDateTime": "2026-10-01T07:00:00.000+00:00",
      "valueQuantity": {
        "value": 1.5,
        "unit": "mg/dL",
        "system": "http://unitsofmeasure.org",
        "code": "mg/dL"
      }
    },
    "request": {
      "method": "PUT",
      "url": "Observation/77c060e2-320a-4b77-b141-1ec22f0ad710"
    }
  }, {
    "fullUrl": "https://madie.cms.gov/Observation/e7eb2758-be97-482b-9b01-dfb0cd3f4519",
    "resource": {
      "resourceType": "Observation",
      "id": "e7eb2758-be97-482b-9b01-dfb0cd3f4519",
      "meta": {
        "profile": [ "http://hl7.org/fhir/us/qicore/StructureDefinition/qicore-observation-lab" ]
      },
      "status": "final",
      "category": [ {
        "coding": [ {
          "system": "http://terminology.hl7.org/CodeSystem/observation-category",
          "code": "laboratory",
          "display": "Laboratory"
        } ]
      } ],
      "code": {
        "coding": [ {
          "system": "http://loinc.org",
          "code": "21232-4",
          "display": "Creatinine [Mass/volume] in Serum or Plasma"
        } ]
      },
      "subject": {
        "reference": "Patient/a62eecb7-4b38-42dd-b451-7810f6bb5abe"
      },
      "effectiveDateTime": "2026-10-01T07:35:00.000+00:00",
      "valueQuantity": {
        "value": 1.5,
        "unit": "mg/dL",
        "system": "http://unitsofmeasure.org",
        "code": "mg/dL"
      }
    },
    "request": {
      "method": "PUT",
      "url": "Observation/e7eb2758-be97-482b-9b01-dfb0cd3f4519"
    }
  }, {
    "fullUrl": "https://madie.cms.gov/MeasureReport/43b45936-eaf8-4531-bfe9-d140c909bb65",
    "resource": {
      "resourceType": "MeasureReport",
      "id": "43b45936-eaf8-4531-bfe9-d140c909bb65",
      "meta": {
        "profile": [ "http://hl7.org/fhir/us/cqfmeasures/StructureDefinition/test-case-cqfm" ]
      },
      "contained": [ {
        "resourceType": "Parameters",
        "id": "4da51741-707a-46b4-8ee9-81f18639fd3b-parameters",
        "parameter": [ {
          "name": "subject",
          "valueString": "a62eecb7-4b38-42dd-b451-7810f6bb5abe"
        } ]
      } ],
      "extension": [ {
        "url": "http://hl7.org/fhir/StructureDefinition/cqf-inputParameters",
        "valueReference": {
          "reference": "#4da51741-707a-46b4-8ee9-81f18639fd3b-parameters"
        }
      }, {
        "url": "http://hl7.org/fhir/us/cqfmeasures/StructureDefinition/cqfm-testCaseDescription",
        "valueMarkdown": "Male IP Encounter with an eGFR calculation of <60, based on SCr = 1.5. SCr is within first 24 hours. eGFR must be <60 so does meet denominator exclusion. "
      } ],
      "modifierExtension": [ {
        "url": "http://hl7.org/fhir/us/cqfmeasures/StructureDefinition/cqfm-isTestCase",
        "valueBoolean": true
      } ],
      "status": "complete",
      "type": "individual",
      "measure": "https://madie.cms.gov/Measure/CMS832FHIRHHAKI",
      "period": {
        "start": "2026-01-01",
        "end": "2026-12-31"
      },
      "group": [ {
        "id": "Group_1",
        "population": [ {
          "id": "InitialPopulation_1",
          "code": {
            "coding": [ {
              "system": "http://terminology.hl7.org/CodeSystem/measure-population",
              "code": "initial-population",
              "display": "Initial Population"
            } ]
          },
          "count": 1
        }, {
          "id": "Denominator_1",
          "code": {
            "coding": [ {
              "system": "http://terminology.hl7.org/CodeSystem/measure-population",
              "code": "denominator",
              "display": "Denominator"
            } ]
          },
          "count": 1
        }, {
          "id": "DenominatorExclusion_1",
          "code": {
            "coding": [ {
              "system": "http://terminology.hl7.org/CodeSystem/measure-population",
              "code": "denominator-exclusion",
              "display": "Denominator Exclusion"
            } ]
          },
          "count": 1
        }, {
          "id": "Numerator_1",
          "code": {
            "coding": [ {
              "system": "http://terminology.hl7.org/CodeSystem/measure-population",
              "code": "numerator",
              "display": "Numerator"
            } ]
          },
          "count": 0
        } ],
        "measureScore": {
          "value": 0.0
        }
      } ],
      "evaluatedResource": [ {
        "reference": "Patient/a62eecb7-4b38-42dd-b451-7810f6bb5abe"
      }, {
        "reference": "Encounter/15b4d548-1c27-458a-b2e1-82543f5b585b"
      }, {
        "reference": "Encounter/436e62f5-8112-4793-a696-fb3850753e58"
      }, {
        "reference": "Observation/f55ef4fd-7c9f-497b-9821-391631dadc82"
      }, {
        "reference": "Observation/77c060e2-320a-4b77-b141-1ec22f0ad710"
      }, {
        "reference": "Observation/e7eb2758-be97-482b-9b01-dfb0cd3f4519"
      } ]
    },
    "request": {
      "method": "PUT",
      "url": "MeasureReport/43b45936-eaf8-4531-bfe9-d140c909bb65"
    }
  } ]
}