{
  "resourceType": "Bundle",
  "id": "60ec6943bc72857e238afa20",
  "type": "collection",
  "entry": [ {
    "fullUrl": "https://madie.cms.gov/Patient/b571d5a3-8e6f-4d4e-a5c7-cb5276882da3",
    "resource": {
      "resourceType": "Patient",
      "id": "b571d5a3-8e6f-4d4e-a5c7-cb5276882da3",
      "meta": {
        "profile": [ "http://hl7.org/fhir/us/qicore/StructureDefinition/qicore-patient" ]
      },
      "extension": [ {
        "url": "http://hl7.org/fhir/us/core/StructureDefinition/us-core-race",
        "extension": [ {
          "url": "ombCategory",
          "valueCoding": {
            "system": "urn:oid:2.16.840.1.113883.6.238",
            "code": "1002-5",
            "display": "American Indian or Alaska Native",
            "userSelected": true
          }
        }, {
          "url": "text",
          "valueString": "American Indian or Alaska Native"
        } ]
      }, {
        "url": "http://hl7.org/fhir/us/core/StructureDefinition/us-core-ethnicity",
        "extension": [ {
          "url": "ombCategory",
          "valueCoding": {
            "system": "urn:oid:2.16.840.1.113883.6.238",
            "code": "2186-5",
            "display": "Not Hispanic or Latino",
            "userSelected": true
          }
        }, {
          "url": "text",
          "valueString": "Not Hispanic or Latino"
        } ]
      } ],
      "identifier": [ {
        "type": {
          "coding": [ {
            "system": "http://terminology.hl7.org/CodeSystem/v2-0203",
            "code": "MR"
          } ]
        },
        "system": "https://bonnie-fhir.healthit.gov/",
        "value": "60ec6943bc72857e238afa20"
      } ],
      "name": [ {
        "family": "DENEXFail",
        "given": [ "ScleritisEndB4CatSurg" ]
      } ],
      "gender": "male",
      "birthDate": "1969-06-15"
    }
  }, {
    "fullUrl": "https://madie.cms.gov/Condition/f39d622f-2921-424f-bcba-52a7bfee77d4",
    "resource": {
      "resourceType": "Condition",
      "id": "f39d622f-2921-424f-bcba-52a7bfee77d4",
      "meta": {
        "profile": [ "http://hl7.org/fhir/us/qicore/StructureDefinition/qicore-condition-encounter-diagnosis" ]
      },
      "category": [ {
        "coding": [ {
          "system": "http://terminology.hl7.org/CodeSystem/condition-category",
          "code": "problem-list-item",
          "display": "Problem List Item"
        } ]
      }, {
        "coding": [ {
          "system": "http://terminology.hl7.org/CodeSystem/condition-category",
          "code": "encounter-diagnosis",
          "display": "Encounter Diagnosis"
        } ]
      } ],
      "code": {
        "coding": [ {
          "system": "http://snomed.info/sct",
          "version": "http://snomed.info/sct/731000124108/version/20250301",
          "code": "78370002"
        } ]
      },
      "subject": {
        "reference": "Patient/b571d5a3-8e6f-4d4e-a5c7-cb5276882da3"
      },
      "recordedDate": "2026-08-12T02:00:00.000Z"
    }
  }, {
    "fullUrl": "https://madie.cms.gov/Procedure/589418f8-3a8c-4099-a41a-fdefcfe12209",
    "resource": {
      "resourceType": "Procedure",
      "id": "589418f8-3a8c-4099-a41a-fdefcfe12209",
      "meta": {
        "profile": [ "http://hl7.org/fhir/us/qicore/StructureDefinition/qicore-procedure" ]
      },
      "extension": [ {
        "url": "http://hl7.org/fhir/us/qicore/StructureDefinition/qicore-recorded",
        "valueDateTime": "2026-08-30T17:35:00.000Z"
      } ],
      "status": "completed",
      "code": {
        "coding": [ {
          "system": "http://snomed.info/sct",
          "version": "http://snomed.info/sct/731000124108/version/20230301",
          "code": "5130002"
        } ]
      },
      "subject": {
        "reference": "Patient/b571d5a3-8e6f-4d4e-a5c7-cb5276882da3"
      },
      "performedDateTime": "2026-08-15T08:00:00.000Z"
    }
  }, {
    "fullUrl": "https://madie.cms.gov/Coverage/c72e7280-9fa2-4222-af35-1fb3eca3f931",
    "resource": {
      "resourceType": "Coverage",
      "id": "c72e7280-9fa2-4222-af35-1fb3eca3f931",
      "meta": {
        "profile": [ "http://hl7.org/fhir/us/qicore/StructureDefinition/qicore-coverage" ]
      },
      "status": "active",
      "subscriberId": "123456",
      "beneficiary": {
        "reference": "Patient/b571d5a3-8e6f-4d4e-a5c7-cb5276882da3"
      },
      "relationship": {
        "coding": [ {
          "system": "http://terminology.hl7.org/CodeSystem/subscriber-relationship",
          "code": "self",
          "display": "Self"
        } ]
      },
      "payor": [ {
        "reference": "Organization/22c45788-64d8-4d10-9917-9ca1754c957c"
      } ]
    }
  }, {
    "fullUrl": "https://madie.cms.gov/Organization/22c45788-64d8-4d10-9917-9ca1754c957c",
    "resource": {
      "resourceType": "Organization",
      "id": "22c45788-64d8-4d10-9917-9ca1754c957c",
      "meta": {
        "profile": [ "http://hl7.org/fhir/us/qicore/StructureDefinition/qicore-organization" ]
      },
      "identifier": [ {
        "use": "temp",
        "system": "urn:oid:2.16.840.1.113883.4.4",
        "value": "21-3259825"
      } ],
      "active": true,
      "type": [ {
        "coding": [ {
          "system": "http://terminology.hl7.org/CodeSystem/organization-type",
          "code": "pay",
          "display": "Payer"
        } ]
      } ],
      "name": "Blue Cross Blue Shield of Texas",
      "telecom": [ {
        "system": "phone",
        "value": "(+1) 972-766-6900"
      } ],
      "address": [ {
        "use": "billing",
        "type": "postal",
        "line": [ "P.O. Box 660044" ],
        "city": "Dallas",
        "state": "TX",
        "postalCode": "75266-0044",
        "country": "USA"
      } ]
    }
  }, {
    "fullUrl": "https://madie.cms.gov/Practitioner/45d96344-55e4-4555-8173-593c070e88e0",
    "resource": {
      "resourceType": "Practitioner",
      "id": "45d96344-55e4-4555-8173-593c070e88e0",
      "meta": {
        "profile": [ "http://hl7.org/fhir/us/qicore/StructureDefinition/qicore-practitioner" ]
      },
      "identifier": [ {
        "system": "http://hl7.org/fhir/sid/us-npi",
        "value": "1689411712"
      } ],
      "name": [ {
        "family": "Smith",
        "prefix": [ "Dr" ]
      } ]
    }
  }, {
    "fullUrl": "https://madie.cms.gov/MeasureReport/6b214639-5d68-49af-9e1b-1d37226fd3e3",
    "resource": {
      "resourceType": "MeasureReport",
      "id": "6b214639-5d68-49af-9e1b-1d37226fd3e3",
      "meta": {
        "profile": [ "http://hl7.org/fhir/us/cqfmeasures/StructureDefinition/test-case-cqfm" ]
      },
      "contained": [ {
        "resourceType": "Parameters",
        "id": "1e00c718-115c-40bb-adf9-0d0d4cc9e40a-parameters",
        "parameter": [ {
          "name": "subject",
          "valueString": "b571d5a3-8e6f-4d4e-a5c7-cb5276882da3"
        } ]
      } ],
      "extension": [ {
        "url": "http://hl7.org/fhir/StructureDefinition/cqf-inputParameters",
        "valueReference": {
          "reference": "#1e00c718-115c-40bb-adf9-0d0d4cc9e40a-parameters"
        }
      }, {
        "url": "http://hl7.org/fhir/us/cqfmeasures/StructureDefinition/cqfm-testCaseDescription",
        "valueMarkdown": "Patient with scleritis started but ended before cataract surgery. "
      } ],
      "modifierExtension": [ {
        "url": "http://hl7.org/fhir/us/cqfmeasures/StructureDefinition/cqfm-isTestCase",
        "valueBoolean": true
      } ],
      "status": "complete",
      "type": "individual",
      "measure": "https://madie.cms.gov/Measure/CMS133FHIRCataracts2040BCVA90Days",
      "period": {
        "start": "2026-01-01",
        "end": "2026-12-31"
      },
      "group": [ {
        "id": "Group_1",
        "population": [ {
          "id": "InitialPopulation_1",
          "code": {
            "coding": [ {
              "system": "http://terminology.hl7.org/CodeSystem/measure-population",
              "code": "initial-population",
              "display": "Initial Population"
            } ]
          },
          "count": 1
        }, {
          "id": "Denominator_1",
          "code": {
            "coding": [ {
              "system": "http://terminology.hl7.org/CodeSystem/measure-population",
              "code": "denominator",
              "display": "Denominator"
            } ]
          },
          "count": 1
        }, {
          "id": "DenominatorExclusion_1",
          "code": {
            "coding": [ {
              "system": "http://terminology.hl7.org/CodeSystem/measure-population",
              "code": "denominator-exclusion",
              "display": "Denominator Exclusion"
            } ]
          },
          "count": 0
        }, {
          "id": "Numerator_1",
          "code": {
            "coding": [ {
              "system": "http://terminology.hl7.org/CodeSystem/measure-population",
              "code": "numerator",
              "display": "Numerator"
            } ]
          },
          "count": 0
        } ],
        "measureScore": {
          "value": 0.0
        }
      } ],
      "evaluatedResource": [ {
        "reference": "Patient/b571d5a3-8e6f-4d4e-a5c7-cb5276882da3"
      }, {
        "reference": "Condition/f39d622f-2921-424f-bcba-52a7bfee77d4"
      }, {
        "reference": "Procedure/589418f8-3a8c-4099-a41a-fdefcfe12209"
      }, {
        "reference": "Coverage/c72e7280-9fa2-4222-af35-1fb3eca3f931"
      }, {
        "reference": "Organization/22c45788-64d8-4d10-9917-9ca1754c957c"
      }, {
        "reference": "Practitioner/45d96344-55e4-4555-8173-593c070e88e0"
      } ]
    }
  } ]
}