{
  "resourceType": "Bundle",
  "id": "641362744b11b147841ab893",
  "type": "transaction",
  "entry": [ {
    "fullUrl": "https://madie.cms.gov/Patient/c13a82b6-fb44-4fc7-befd-d762b9fafa97",
    "resource": {
      "resourceType": "Patient",
      "id": "c13a82b6-fb44-4fc7-befd-d762b9fafa97",
      "meta": {
        "profile": [ "http://hl7.org/fhir/us/qicore/StructureDefinition/qicore-patient" ]
      },
      "extension": [ {
        "url": "http://hl7.org/fhir/us/core/StructureDefinition/us-core-race",
        "extension": [ {
          "url": "ombCategory",
          "valueCoding": {
            "system": "urn:oid:2.16.840.1.113883.6.238",
            "code": "2106-3",
            "display": "White",
            "userSelected": true
          }
        }, {
          "url": "text",
          "valueString": "White"
        } ]
      }, {
        "url": "http://hl7.org/fhir/us/core/StructureDefinition/us-core-ethnicity",
        "extension": [ {
          "url": "ombCategory",
          "valueCoding": {
            "system": "urn:oid:2.16.840.1.113883.6.238",
            "code": "2186-5",
            "display": "Not Hispanic or Latino",
            "userSelected": true
          }
        }, {
          "url": "text",
          "valueString": "Not Hispanic or Latino"
        } ]
      } ],
      "identifier": [ {
        "type": {
          "coding": [ {
            "system": "http://terminology.hl7.org/CodeSystem/v2-0203",
            "code": "MR"
          } ]
        },
        "system": "https://bonnie-fhir.healthit.gov/",
        "value": "62fa55e0f4a8c3cd9f455399"
      } ],
      "name": [ {
        "family": "DENEXPass",
        "given": [ "WithCKDStage5WithConfirmedVerificationStatus" ]
      } ],
      "gender": "male",
      "birthDate": "2006-12-01"
    },
    "request": {
      "method": "PUT",
      "url": "Patient/c13a82b6-fb44-4fc7-befd-d762b9fafa97"
    }
  }, {
    "fullUrl": "https://madie.cms.gov/Condition/b4b8dea7-26c8-4a8f-a264-bd664492567c",
    "resource": {
      "resourceType": "Condition",
      "id": "b4b8dea7-26c8-4a8f-a264-bd664492567c",
      "meta": {
        "profile": [ "http://hl7.org/fhir/us/qicore/StructureDefinition/qicore-condition-encounter-diagnosis" ]
      },
      "clinicalStatus": {
        "coding": [ {
          "system": "http://terminology.hl7.org/CodeSystem/condition-clinical",
          "code": "active",
          "display": "active",
          "userSelected": true
        } ]
      },
      "category": [ {
        "coding": [ {
          "system": "http://terminology.hl7.org/CodeSystem/condition-category",
          "code": "encounter-diagnosis",
          "display": "Encounter Diagnosis",
          "userSelected": true
        } ]
      } ],
      "code": {
        "coding": [ {
          "system": "http://snomed.info/sct",
          "version": "2021-09",
          "code": "102781000119107",
          "display": "Sensory neuropathy due to type 1 diabetes mellitus (disorder)",
          "userSelected": true
        } ]
      },
      "subject": {
        "reference": "Patient/c13a82b6-fb44-4fc7-befd-d762b9fafa97"
      },
      "onsetDateTime": "2022-05-22T12:00:00.000+00:00"
    },
    "request": {
      "method": "PUT",
      "url": "Condition/b4b8dea7-26c8-4a8f-a264-bd664492567c"
    }
  }, {
    "fullUrl": "https://madie.cms.gov/Encounter/2a7a92ea-0657-42dd-9ea5-473e616190e1",
    "resource": {
      "resourceType": "Encounter",
      "id": "2a7a92ea-0657-42dd-9ea5-473e616190e1",
      "meta": {
        "profile": [ "http://hl7.org/fhir/us/qicore/StructureDefinition/qicore-encounter" ]
      },
      "status": "finished",
      "class": {
        "system": "http://terminology.hl7.org/CodeSystem/v3-ActCode",
        "code": "AMB",
        "display": "ambulatory",
        "userSelected": true
      },
      "type": [ {
        "coding": [ {
          "system": "http://snomed.info/sct",
          "version": "2021-09",
          "code": "185463005",
          "display": "Visit out of hours (procedure)",
          "userSelected": true
        } ]
      } ],
      "subject": {
        "reference": "Patient/c13a82b6-fb44-4fc7-befd-d762b9fafa97"
      },
      "period": {
        "start": "2026-01-04T08:00:00.000+00:00",
        "end": "2026-01-04T08:15:00.000+00:00"
      }
    },
    "request": {
      "method": "PUT",
      "url": "Encounter/2a7a92ea-0657-42dd-9ea5-473e616190e1"
    }
  }, {
    "fullUrl": "https://madie.cms.gov/Condition/69e6a64e-d62c-4e9a-acd9-05eb5930e87f",
    "resource": {
      "resourceType": "Condition",
      "id": "69e6a64e-d62c-4e9a-acd9-05eb5930e87f",
      "meta": {
        "profile": [ "http://hl7.org/fhir/us/qicore/StructureDefinition/qicore-condition-problems-health-concerns" ]
      },
      "clinicalStatus": {
        "coding": [ {
          "system": "http://terminology.hl7.org/CodeSystem/condition-clinical",
          "code": "active",
          "display": "active",
          "userSelected": true
        } ]
      },
      "verificationStatus": {
        "coding": [ {
          "system": "http://terminology.hl7.org/CodeSystem/condition-ver-status",
          "code": "confirmed"
        } ]
      },
      "category": [ {
        "coding": [ {
          "system": "http://terminology.hl7.org/CodeSystem/condition-category",
          "code": "problem-list-item",
          "display": "Problem List Item",
          "userSelected": true
        } ]
      } ],
      "code": {
        "coding": [ {
          "system": "http://snomed.info/sct",
          "version": "2021-09",
          "code": "433146000",
          "display": "Chronic kidney disease stage 5 (disorder)",
          "userSelected": true
        } ]
      },
      "subject": {
        "reference": "Patient/c13a82b6-fb44-4fc7-befd-d762b9fafa97"
      },
      "onsetDateTime": "2027-08-15T08:00:00.000+00:00"
    },
    "request": {
      "method": "PUT",
      "url": "Condition/69e6a64e-d62c-4e9a-acd9-05eb5930e87f"
    }
  }, {
    "fullUrl": "https://madie.cms.gov/MeasureReport/5f4e99f0-106c-4878-b3ce-e0862c5d5b11",
    "resource": {
      "resourceType": "MeasureReport",
      "id": "5f4e99f0-106c-4878-b3ce-e0862c5d5b11",
      "meta": {
        "profile": [ "http://hl7.org/fhir/us/cqfmeasures/StructureDefinition/test-case-cqfm" ]
      },
      "contained": [ {
        "resourceType": "Parameters",
        "id": "b9907901-d654-409c-a72a-64906dbd5fc9-parameters",
        "parameter": [ {
          "name": "subject",
          "valueString": "c13a82b6-fb44-4fc7-befd-d762b9fafa97"
        } ]
      } ],
      "extension": [ {
        "url": "http://hl7.org/fhir/StructureDefinition/cqf-inputParameters",
        "valueReference": {
          "reference": "#b9907901-d654-409c-a72a-64906dbd5fc9-parameters"
        }
      }, {
        "url": "http://hl7.org/fhir/us/cqfmeasures/StructureDefinition/cqfm-testCaseDescription",
        "valueMarkdown": "This patient is 75 years old with a qualifying encounter and active diabetes diagnosis, with a diagnosis of chronic kidney disease, stage 5 as well but diagnosed after MP. This case test the denominator exclusion criteria."
      } ],
      "modifierExtension": [ {
        "url": "http://hl7.org/fhir/us/cqfmeasures/StructureDefinition/cqfm-isTestCase",
        "valueBoolean": true
      } ],
      "status": "complete",
      "type": "individual",
      "measure": "https://madie.cms.gov/Measure/CMS951FHIRKidneyHealthEval",
      "period": {
        "start": "2026-01-01",
        "end": "2026-12-31"
      },
      "group": [ {
        "id": "Group_1",
        "population": [ {
          "id": "InitialPopulation_1",
          "code": {
            "coding": [ {
              "system": "http://terminology.hl7.org/CodeSystem/measure-population",
              "code": "initial-population",
              "display": "Initial Population"
            } ]
          },
          "count": 1
        }, {
          "id": "Denominator_1",
          "code": {
            "coding": [ {
              "system": "http://terminology.hl7.org/CodeSystem/measure-population",
              "code": "denominator",
              "display": "Denominator"
            } ]
          },
          "count": 1
        }, {
          "id": "DenominatorExclusion_1",
          "code": {
            "coding": [ {
              "system": "http://terminology.hl7.org/CodeSystem/measure-population",
              "code": "denominator-exclusion",
              "display": "Denominator Exclusion"
            } ]
          },
          "count": 0
        }, {
          "id": "Numerator_1",
          "code": {
            "coding": [ {
              "system": "http://terminology.hl7.org/CodeSystem/measure-population",
              "code": "numerator",
              "display": "Numerator"
            } ]
          },
          "count": 0
        } ],
        "measureScore": {
          "value": 1.0
        }
      } ],
      "evaluatedResource": [ {
        "reference": "Patient/c13a82b6-fb44-4fc7-befd-d762b9fafa97"
      }, {
        "reference": "Condition/b4b8dea7-26c8-4a8f-a264-bd664492567c"
      }, {
        "reference": "Encounter/2a7a92ea-0657-42dd-9ea5-473e616190e1"
      }, {
        "reference": "Condition/69e6a64e-d62c-4e9a-acd9-05eb5930e87f"
      } ]
    },
    "request": {
      "method": "PUT",
      "url": "MeasureReport/5f4e99f0-106c-4878-b3ce-e0862c5d5b11"
    }
  } ]
}