{
  "resourceType": "Bundle",
  "id": "64136bf04b11b147841ab8b8",
  "type": "transaction",
  "entry": [ {
    "fullUrl": "https://madie.cms.gov/Patient/77620fcb-7a0a-4015-89cc-c32bd8681c13",
    "resource": {
      "resourceType": "Patient",
      "id": "77620fcb-7a0a-4015-89cc-c32bd8681c13",
      "meta": {
        "profile": [ "http://hl7.org/fhir/us/qicore/StructureDefinition/qicore-patient" ]
      },
      "extension": [ {
        "url": "http://hl7.org/fhir/us/core/StructureDefinition/us-core-race",
        "extension": [ {
          "url": "ombCategory",
          "valueCoding": {
            "system": "urn:oid:2.16.840.1.113883.6.238",
            "code": "2106-3",
            "display": "White",
            "userSelected": true
          }
        }, {
          "url": "text",
          "valueString": "White"
        } ]
      }, {
        "url": "http://hl7.org/fhir/us/core/StructureDefinition/us-core-ethnicity",
        "extension": [ {
          "url": "ombCategory",
          "valueCoding": {
            "system": "urn:oid:2.16.840.1.113883.6.238",
            "code": "2135-2",
            "display": "Hispanic or Latino",
            "userSelected": true
          }
        }, {
          "url": "text",
          "valueString": "Hispanic or Latino"
        } ]
      } ],
      "identifier": [ {
        "type": {
          "coding": [ {
            "system": "http://terminology.hl7.org/CodeSystem/v2-0203",
            "code": "MR"
          } ]
        },
        "system": "https://bonnie-fhir.healthit.gov/",
        "value": "64136bf04b11b147841ab8b8"
      } ],
      "name": [ {
        "family": "DENEXPass",
        "given": [ "OrderHospCareAmb" ]
      } ],
      "gender": "male",
      "birthDate": "1955-10-21"
    },
    "request": {
      "method": "PUT",
      "url": "Patient/77620fcb-7a0a-4015-89cc-c32bd8681c13"
    }
  }, {
    "fullUrl": "https://madie.cms.gov/Condition/1e2ee886-be96-4577-a5d8-5aba141555a6",
    "resource": {
      "resourceType": "Condition",
      "id": "1e2ee886-be96-4577-a5d8-5aba141555a6",
      "meta": {
        "profile": [ "http://hl7.org/fhir/us/qicore/StructureDefinition/qicore-condition-encounter-diagnosis" ]
      },
      "clinicalStatus": {
        "coding": [ {
          "system": "http://terminology.hl7.org/CodeSystem/condition-clinical",
          "code": "active",
          "display": "active",
          "userSelected": true
        } ]
      },
      "category": [ {
        "coding": [ {
          "system": "http://terminology.hl7.org/CodeSystem/condition-category",
          "code": "encounter-diagnosis",
          "display": "Encounter Diagnosis",
          "userSelected": true
        } ]
      } ],
      "code": {
        "coding": [ {
          "system": "http://snomed.info/sct",
          "version": "2021-09",
          "code": "102781000119107",
          "display": "Sensory neuropathy due to type 1 diabetes mellitus (disorder)",
          "userSelected": true
        } ]
      },
      "subject": {
        "reference": "Patient/77620fcb-7a0a-4015-89cc-c32bd8681c13"
      },
      "onsetDateTime": "2023-02-26T01:00:00.000+00:00"
    },
    "request": {
      "method": "PUT",
      "url": "Condition/1e2ee886-be96-4577-a5d8-5aba141555a6"
    }
  }, {
    "fullUrl": "https://madie.cms.gov/Encounter/91c227d0-47f1-4960-a4c4-3f4b3704fd3e",
    "resource": {
      "resourceType": "Encounter",
      "id": "91c227d0-47f1-4960-a4c4-3f4b3704fd3e",
      "meta": {
        "profile": [ "http://hl7.org/fhir/us/qicore/StructureDefinition/qicore-encounter" ]
      },
      "status": "finished",
      "class": {
        "system": "http://terminology.hl7.org/CodeSystem/v3-ActCode",
        "code": "AMB",
        "display": "ambulatory",
        "userSelected": true
      },
      "type": [ {
        "coding": [ {
          "system": "http://snomed.info/sct",
          "version": "2021-09",
          "code": "185463005",
          "display": "Visit out of hours (procedure)",
          "userSelected": true
        } ]
      } ],
      "subject": {
        "reference": "Patient/77620fcb-7a0a-4015-89cc-c32bd8681c13"
      },
      "period": {
        "start": "2026-03-01T08:00:00.000+00:00",
        "end": "2026-03-01T08:15:00.000+00:00"
      }
    },
    "request": {
      "method": "PUT",
      "url": "Encounter/91c227d0-47f1-4960-a4c4-3f4b3704fd3e"
    }
  }, {
    "fullUrl": "https://madie.cms.gov/Observation/9f9afb6a-a725-45ea-9a4f-32685b21d959",
    "resource": {
      "resourceType": "Observation",
      "id": "9f9afb6a-a725-45ea-9a4f-32685b21d959",
      "meta": {
        "profile": [ "http://hl7.org/fhir/us/qicore/StructureDefinition/qicore-observation-lab" ]
      },
      "status": "final",
      "category": [ {
        "coding": [ {
          "system": "http://terminology.hl7.org/CodeSystem/observation-category",
          "code": "laboratory",
          "display": "Laboratory",
          "userSelected": true
        } ]
      } ],
      "code": {
        "coding": [ {
          "system": "http://loinc.org",
          "version": "2.71",
          "code": "13705-9",
          "display": "Albumin/Creatinine [Mass Ratio] in 24 hour Urine",
          "userSelected": true
        } ]
      },
      "subject": {
        "reference": "Patient/77620fcb-7a0a-4015-89cc-c32bd8681c13"
      },
      "issued": "2026-03-01T08:00:00.000+00:00",
      "valueBoolean": true
    },
    "request": {
      "method": "PUT",
      "url": "Observation/9f9afb6a-a725-45ea-9a4f-32685b21d959"
    }
  }, {
    "fullUrl": "https://madie.cms.gov/Observation/59dc8470-f884-445d-9181-34188b876516",
    "resource": {
      "resourceType": "Observation",
      "id": "59dc8470-f884-445d-9181-34188b876516",
      "meta": {
        "profile": [ "http://hl7.org/fhir/us/qicore/StructureDefinition/qicore-observation-lab" ]
      },
      "status": "final",
      "category": [ {
        "coding": [ {
          "system": "http://terminology.hl7.org/CodeSystem/observation-category",
          "code": "laboratory",
          "display": "Laboratory",
          "userSelected": true
        } ]
      } ],
      "code": {
        "coding": [ {
          "system": "http://loinc.org",
          "version": "2.71",
          "code": "48642-3",
          "display": "Glomerular filtration rate [Volume Rate/Area] in Serum, Plasma or Blood by Creatinine-based formula (MDRD)/1.73 sq M among non black population",
          "userSelected": true
        } ]
      },
      "subject": {
        "reference": "Patient/77620fcb-7a0a-4015-89cc-c32bd8681c13"
      },
      "issued": "2026-03-01T08:00:00.000+00:00",
      "valueBoolean": true
    },
    "request": {
      "method": "PUT",
      "url": "Observation/59dc8470-f884-445d-9181-34188b876516"
    }
  }, {
    "fullUrl": "https://madie.cms.gov/ServiceRequest/f3d6169f-2786-4152-ab78-b345f1df7e72",
    "resource": {
      "resourceType": "ServiceRequest",
      "id": "f3d6169f-2786-4152-ab78-b345f1df7e72",
      "meta": {
        "profile": [ "http://hl7.org/fhir/us/qicore/StructureDefinition/qicore-servicerequest" ]
      },
      "status": "active",
      "intent": "order",
      "code": {
        "coding": [ {
          "system": "http://snomed.info/sct",
          "version": "2021-09",
          "code": "170935008",
          "display": "Full care by hospice (finding)",
          "userSelected": true
        }, {
          "system": "http://snomed.info/sct",
          "code": "385763009",
          "userSelected": true
        } ]
      },
      "subject": {
        "reference": "Patient/77620fcb-7a0a-4015-89cc-c32bd8681c13"
      },
      "authoredOn": "2026-03-14T08:00:00.000+00:00"
    },
    "request": {
      "method": "PUT",
      "url": "ServiceRequest/f3d6169f-2786-4152-ab78-b345f1df7e72"
    }
  }, {
    "fullUrl": "https://madie.cms.gov/MeasureReport/1d431ce6-81be-4b71-95da-44358d8b85ca",
    "resource": {
      "resourceType": "MeasureReport",
      "id": "1d431ce6-81be-4b71-95da-44358d8b85ca",
      "meta": {
        "profile": [ "http://hl7.org/fhir/us/cqfmeasures/StructureDefinition/test-case-cqfm" ]
      },
      "contained": [ {
        "resourceType": "Parameters",
        "id": "d61fa20f-e881-4c0c-a509-29f42e97e728-parameters",
        "parameter": [ {
          "name": "subject",
          "valueString": "77620fcb-7a0a-4015-89cc-c32bd8681c13"
        } ]
      } ],
      "extension": [ {
        "url": "http://hl7.org/fhir/StructureDefinition/cqf-inputParameters",
        "valueReference": {
          "reference": "#d61fa20f-e881-4c0c-a509-29f42e97e728-parameters"
        }
      }, {
        "url": "http://hl7.org/fhir/us/cqfmeasures/StructureDefinition/cqfm-testCaseDescription",
        "valueMarkdown": "This patient is 70 years old with a qualifying encounter and active diabetes diagnosis, two qualifying lab tests, as well as an order for hospice care. This case tests the denominator exclusion criteria."
      } ],
      "modifierExtension": [ {
        "url": "http://hl7.org/fhir/us/cqfmeasures/StructureDefinition/cqfm-isTestCase",
        "valueBoolean": true
      } ],
      "status": "complete",
      "type": "individual",
      "measure": "https://madie.cms.gov/Measure/CMS951FHIRKidneyHealthEval",
      "period": {
        "start": "2026-01-01",
        "end": "2026-12-31"
      },
      "group": [ {
        "id": "Group_1",
        "population": [ {
          "id": "InitialPopulation_1",
          "code": {
            "coding": [ {
              "system": "http://terminology.hl7.org/CodeSystem/measure-population",
              "code": "initial-population",
              "display": "Initial Population"
            } ]
          },
          "count": 1
        }, {
          "id": "Denominator_1",
          "code": {
            "coding": [ {
              "system": "http://terminology.hl7.org/CodeSystem/measure-population",
              "code": "denominator",
              "display": "Denominator"
            } ]
          },
          "count": 1
        }, {
          "id": "DenominatorExclusion_1",
          "code": {
            "coding": [ {
              "system": "http://terminology.hl7.org/CodeSystem/measure-population",
              "code": "denominator-exclusion",
              "display": "Denominator Exclusion"
            } ]
          },
          "count": 1
        }, {
          "id": "Numerator_1",
          "code": {
            "coding": [ {
              "system": "http://terminology.hl7.org/CodeSystem/measure-population",
              "code": "numerator",
              "display": "Numerator"
            } ]
          },
          "count": 0
        } ],
        "measureScore": {
          "value": 1.0
        }
      } ],
      "evaluatedResource": [ {
        "reference": "Patient/77620fcb-7a0a-4015-89cc-c32bd8681c13"
      }, {
        "reference": "Condition/1e2ee886-be96-4577-a5d8-5aba141555a6"
      }, {
        "reference": "Encounter/91c227d0-47f1-4960-a4c4-3f4b3704fd3e"
      }, {
        "reference": "Observation/9f9afb6a-a725-45ea-9a4f-32685b21d959"
      }, {
        "reference": "Observation/59dc8470-f884-445d-9181-34188b876516"
      }, {
        "reference": "ServiceRequest/f3d6169f-2786-4152-ab78-b345f1df7e72"
      } ]
    },
    "request": {
      "method": "PUT",
      "url": "MeasureReport/1d431ce6-81be-4b71-95da-44358d8b85ca"
    }
  } ]
}