{
  "resourceType": "Bundle",
  "id": "88933350414ba67d4e1d144f",
  "type": "transaction",
  "entry": [ {
    "fullUrl": "https://madie.cms.gov/Patient/8bb4046c-a78e-4c71-8a2a-4b9dfac3e825",
    "resource": {
      "resourceType": "Patient",
      "id": "8bb4046c-a78e-4c71-8a2a-4b9dfac3e825",
      "meta": {
        "profile": [ "http://hl7.org/fhir/us/qicore/StructureDefinition/qicore-patient" ]
      },
      "extension": [ {
        "url": "http://hl7.org/fhir/us/core/StructureDefinition/us-core-race",
        "extension": [ {
          "url": "ombCategory",
          "valueCoding": {
            "system": "urn:oid:2.16.840.1.113883.6.238",
            "code": "2028-9",
            "display": "Asian",
            "userSelected": true
          }
        }, {
          "url": "text",
          "valueString": "Asian"
        } ]
      }, {
        "url": "http://hl7.org/fhir/us/core/StructureDefinition/us-core-ethnicity",
        "extension": [ {
          "url": "ombCategory",
          "valueCoding": {
            "system": "urn:oid:2.16.840.1.113883.6.238",
            "code": "2186-5",
            "display": "Not Hispanic or Latino",
            "userSelected": true
          }
        }, {
          "url": "text",
          "valueString": "Not Hispanic or Latino"
        } ]
      } ],
      "identifier": [ {
        "system": "http://hospital.smarthealthit.org",
        "value": "999999999"
      } ],
      "name": [ {
        "family": "DENEXFail",
        "given": [ "MOUDCategoryOutpatient" ]
      } ],
      "gender": "female",
      "birthDate": "1988-02-01"
    },
    "request": {
      "method": "PUT",
      "url": "Patient/8bb4046c-a78e-4c71-8a2a-4b9dfac3e825"
    }
  }, {
    "fullUrl": "https://madie.cms.gov/Encounter/40a11b29-75a8-41e4-b2ba-17bac939e5e0",
    "resource": {
      "resourceType": "Encounter",
      "id": "40a11b29-75a8-41e4-b2ba-17bac939e5e0",
      "meta": {
        "profile": [ "http://hl7.org/fhir/us/qicore/StructureDefinition/qicore-encounter" ]
      },
      "status": "finished",
      "class": {
        "system": "http://terminology.hl7.org/CodeSystem/v3-ActCode",
        "code": "IMP",
        "display": "inpatient encounter"
      },
      "type": [ {
        "coding": [ {
          "system": "http://snomed.info/sct",
          "code": "183452005",
          "display": "Emergency hospital admission (procedure)",
          "userSelected": true
        } ]
      } ],
      "subject": {
        "reference": "Patient/8bb4046c-a78e-4c71-8a2a-4b9dfac3e825"
      },
      "period": {
        "start": "2026-07-01T11:45:00.000+00:00",
        "end": "2026-07-05T11:59:00.000+00:00"
      }
    },
    "request": {
      "method": "PUT",
      "url": "Encounter/40a11b29-75a8-41e4-b2ba-17bac939e5e0"
    }
  }, {
    "fullUrl": "https://madie.cms.gov/MedicationRequest/385dbc02-bfb2-4bdf-bd22-65fc07369603",
    "resource": {
      "resourceType": "MedicationRequest",
      "id": "385dbc02-bfb2-4bdf-bd22-65fc07369603",
      "meta": {
        "profile": [ "http://hl7.org/fhir/us/qicore/StructureDefinition/qicore-medicationrequest" ]
      },
      "status": "completed",
      "intent": "order",
      "category": [ {
        "coding": [ {
          "system": "http://terminology.hl7.org/CodeSystem/medicationrequest-category",
          "code": "discharge",
          "display": "Discharge",
          "userSelected": true
        } ]
      } ],
      "doNotPerform": false,
      "medicationCodeableConcept": {
        "coding": [ {
          "system": "http://www.nlm.nih.gov/research/umls/rxnorm",
          "code": "2103192",
          "display": "sufentanil 0.03 MG Sublingual Tablet",
          "userSelected": true
        } ]
      },
      "subject": {
        "reference": "Patient/8bb4046c-a78e-4c71-8a2a-4b9dfac3e825"
      },
      "authoredOn": "2026-07-05T11:59:00.000+00:00",
      "requester": {
        "reference": "Practitioner/3f11cf14-5a8e-462a-a488-c630b1a09a21"
      }
    },
    "request": {
      "method": "PUT",
      "url": "MedicationRequest/385dbc02-bfb2-4bdf-bd22-65fc07369603"
    }
  }, {
    "fullUrl": "https://madie.cms.gov/Practitioner/3f11cf14-5a8e-462a-a488-c630b1a09a21",
    "resource": {
      "resourceType": "Practitioner",
      "id": "3f11cf14-5a8e-462a-a488-c630b1a09a21",
      "meta": {
        "profile": [ "http://hl7.org/fhir/us/qicore/StructureDefinition/qicore-practitioner" ]
      },
      "identifier": [ {
        "system": "http://hl7.org/fhir/sid/us-npi",
        "value": "9999999896"
      } ],
      "active": true,
      "name": [ {
        "family": "Ramires",
        "given": [ "Alma" ],
        "prefix": [ "Dr" ]
      } ],
      "address": [ {
        "use": "home",
        "line": [ "534 Erewhon St" ],
        "city": "Netherville",
        "state": "IN",
        "postalCode": "46131"
      } ],
      "qualification": [ {
        "identifier": [ {
          "system": "http://goodhealth.org/prIdentifier",
          "value": "12345"
        } ],
        "code": {
          "coding": [ {
            "system": "http://terminology.hl7.org/CodeSystem/v2-0360|2.7",
            "code": "BS",
            "display": "Bachelor of Science"
          } ],
          "text": "Bachelor of Science"
        },
        "period": {
          "start": "1995"
        },
        "issuer": {
          "display": "Example University"
        }
      } ]
    },
    "request": {
      "method": "PUT",
      "url": "Practitioner/3f11cf14-5a8e-462a-a488-c630b1a09a21"
    }
  }, {
    "fullUrl": "https://madie.cms.gov/Condition/65fd177a-01cd-4d2d-9fb1-706a76383a62",
    "resource": {
      "resourceType": "Condition",
      "id": "65fd177a-01cd-4d2d-9fb1-706a76383a62",
      "meta": {
        "profile": [ "http://hl7.org/fhir/us/qicore/StructureDefinition/qicore-condition-problems-health-concerns" ]
      },
      "clinicalStatus": {
        "coding": [ {
          "system": "http://terminology.hl7.org/CodeSystem/condition-clinical",
          "code": "active",
          "display": "active",
          "userSelected": true
        } ]
      },
      "verificationStatus": {
        "coding": [ {
          "system": "http://terminology.hl7.org/CodeSystem/condition-ver-status",
          "code": "confirmed",
          "display": "confirmed",
          "userSelected": true
        } ]
      },
      "category": [ {
        "coding": [ {
          "system": "http://terminology.hl7.org/CodeSystem/condition-category",
          "code": "problem-list-item",
          "display": "Problem List Item"
        }, {
          "system": "http://snomed.info/sct",
          "code": "439401001",
          "display": "Diagnosis"
        } ]
      } ],
      "code": {
        "coding": [ {
          "system": "http://snomed.info/sct",
          "code": "75544000",
          "display": "Opioid dependence (disorder)",
          "userSelected": true
        } ]
      },
      "subject": {
        "reference": "Patient/8bb4046c-a78e-4c71-8a2a-4b9dfac3e825"
      },
      "onsetPeriod": {
        "start": "2026-05-02T08:00:00.000+00:00"
      }
    },
    "request": {
      "method": "PUT",
      "url": "Condition/65fd177a-01cd-4d2d-9fb1-706a76383a62"
    }
  }, {
    "fullUrl": "https://madie.cms.gov/MedicationRequest/9fac8432-c37e-4d61-9e9c-1ec62ead2b78",
    "resource": {
      "resourceType": "MedicationRequest",
      "id": "9fac8432-c37e-4d61-9e9c-1ec62ead2b78",
      "meta": {
        "profile": [ "http://hl7.org/fhir/us/qicore/StructureDefinition/qicore-medicationrequest" ]
      },
      "status": "active",
      "intent": "order",
      "category": [ {
        "coding": [ {
          "system": "http://terminology.hl7.org/CodeSystem/medicationrequest-category",
          "code": "outpatient",
          "display": "Outpatient",
          "userSelected": true
        } ]
      } ],
      "doNotPerform": false,
      "medicationCodeableConcept": {
        "coding": [ {
          "system": "http://www.nlm.nih.gov/research/umls/rxnorm",
          "code": "1010600",
          "display": "buprenorphine 2 MG / naloxone 0.5 MG Sublingual Film",
          "userSelected": true
        } ]
      },
      "subject": {
        "reference": "Patient/8bb4046c-a78e-4c71-8a2a-4b9dfac3e825"
      },
      "authoredOn": "2026-07-02T00:05:00.000+00:00",
      "requester": {
        "reference": "Practitioner/3f11cf14-5a8e-462a-a488-c630b1a09a21"
      }
    },
    "request": {
      "method": "PUT",
      "url": "MedicationRequest/9fac8432-c37e-4d61-9e9c-1ec62ead2b78"
    }
  }, {
    "fullUrl": "https://madie.cms.gov/Coverage/3dcc6168-103e-4e5c-9014-3f0bd3db59a9",
    "resource": {
      "resourceType": "Coverage",
      "id": "3dcc6168-103e-4e5c-9014-3f0bd3db59a9",
      "meta": {
        "profile": [ "http://hl7.org/fhir/us/qicore/StructureDefinition/qicore-coverage" ]
      },
      "status": "active",
      "subscriberId": "523435",
      "beneficiary": {
        "reference": "Patient/8bb4046c-a78e-4c71-8a2a-4b9dfac3e825"
      },
      "relationship": {
        "coding": [ {
          "system": "http://terminology.hl7.org/CodeSystem/subscriber-relationship",
          "code": "self"
        } ]
      },
      "payor": [ {
        "reference": "Organization/b11c8456-a177-4043-b6d6-7ad60e3484cf"
      } ]
    },
    "request": {
      "method": "PUT",
      "url": "Coverage/3dcc6168-103e-4e5c-9014-3f0bd3db59a9"
    }
  }, {
    "fullUrl": "https://madie.cms.gov/Organization/b11c8456-a177-4043-b6d6-7ad60e3484cf",
    "resource": {
      "resourceType": "Organization",
      "id": "b11c8456-a177-4043-b6d6-7ad60e3484cf",
      "meta": {
        "profile": [ "http://hl7.org/fhir/us/qicore/StructureDefinition/qicore-organization" ]
      },
      "identifier": [ {
        "use": "temp",
        "system": "urn:oid:2.16.840.1.113883.4.4",
        "value": "21-3259825"
      } ],
      "active": true,
      "type": [ {
        "coding": [ {
          "system": "http://terminology.hl7.org/CodeSystem/organization-type",
          "code": "pay",
          "display": "Payer"
        } ]
      } ],
      "name": "Blue Cross Blue Shield of Texas",
      "telecom": [ {
        "system": "phone",
        "value": "(+1) 972-766-6900"
      } ],
      "address": [ {
        "use": "billing",
        "type": "postal",
        "line": [ "P.O. Box 660044" ],
        "city": "Dallas",
        "state": "TX",
        "postalCode": "75266-0044",
        "country": "USA"
      } ]
    },
    "request": {
      "method": "PUT",
      "url": "Organization/b11c8456-a177-4043-b6d6-7ad60e3484cf"
    }
  }, {
    "fullUrl": "https://madie.cms.gov/MeasureReport/ac796877-6039-4e60-8784-d1f3945bf209",
    "resource": {
      "resourceType": "MeasureReport",
      "id": "ac796877-6039-4e60-8784-d1f3945bf209",
      "meta": {
        "profile": [ "http://hl7.org/fhir/us/cqfmeasures/StructureDefinition/test-case-cqfm" ]
      },
      "contained": [ {
        "resourceType": "Parameters",
        "id": "e28badd2-db58-4a05-8f23-9541e554f487-parameters",
        "parameter": [ {
          "name": "subject",
          "valueString": "8bb4046c-a78e-4c71-8a2a-4b9dfac3e825"
        } ]
      } ],
      "extension": [ {
        "url": "http://hl7.org/fhir/StructureDefinition/cqf-inputParameters",
        "valueReference": {
          "reference": "#e28badd2-db58-4a05-8f23-9541e554f487-parameters"
        }
      }, {
        "url": "http://hl7.org/fhir/us/cqfmeasures/StructureDefinition/cqfm-testCaseDescription",
        "valueMarkdown": "Encounter 7/1 - 7/5 of MP, MOUD category is Outpatient instead of Community or Discharge\n"
      } ],
      "modifierExtension": [ {
        "url": "http://hl7.org/fhir/us/cqfmeasures/StructureDefinition/cqfm-isTestCase",
        "valueBoolean": true
      } ],
      "status": "complete",
      "type": "individual",
      "measure": "https://madie.cms.gov/Measure/CMS506FHIRSafeUseofOpioids",
      "period": {
        "start": "2026-01-01",
        "end": "2026-12-31"
      },
      "group": [ {
        "id": "Group_1",
        "population": [ {
          "id": "InitialPopulation_1",
          "code": {
            "coding": [ {
              "system": "http://terminology.hl7.org/CodeSystem/measure-population",
              "code": "initial-population",
              "display": "Initial Population"
            } ]
          },
          "count": 1
        }, {
          "id": "Denominator_1",
          "code": {
            "coding": [ {
              "system": "http://terminology.hl7.org/CodeSystem/measure-population",
              "code": "denominator",
              "display": "Denominator"
            } ]
          },
          "count": 1
        }, {
          "id": "DenominatorExclusion_1",
          "code": {
            "coding": [ {
              "system": "http://terminology.hl7.org/CodeSystem/measure-population",
              "code": "denominator-exclusion",
              "display": "Denominator Exclusion"
            } ]
          },
          "count": 0
        }, {
          "id": "Numerator_1",
          "code": {
            "coding": [ {
              "system": "http://terminology.hl7.org/CodeSystem/measure-population",
              "code": "numerator",
              "display": "Numerator"
            } ]
          },
          "count": 0
        } ],
        "measureScore": {
          "value": 0.0
        }
      } ],
      "evaluatedResource": [ {
        "reference": "Patient/8bb4046c-a78e-4c71-8a2a-4b9dfac3e825"
      }, {
        "reference": "Encounter/40a11b29-75a8-41e4-b2ba-17bac939e5e0"
      }, {
        "reference": "MedicationRequest/385dbc02-bfb2-4bdf-bd22-65fc07369603"
      }, {
        "reference": "Practitioner/3f11cf14-5a8e-462a-a488-c630b1a09a21"
      }, {
        "reference": "Condition/65fd177a-01cd-4d2d-9fb1-706a76383a62"
      }, {
        "reference": "MedicationRequest/9fac8432-c37e-4d61-9e9c-1ec62ead2b78"
      }, {
        "reference": "Coverage/3dcc6168-103e-4e5c-9014-3f0bd3db59a9"
      }, {
        "reference": "Organization/b11c8456-a177-4043-b6d6-7ad60e3484cf"
      } ]
    },
    "request": {
      "method": "PUT",
      "url": "MeasureReport/ac796877-6039-4e60-8784-d1f3945bf209"
    }
  } ]
}