{
  "resourceType": "Bundle",
  "id": "6491c51f8187991eac996930",
  "type": "collection",
  "entry": [ {
    "fullUrl": "https://madie.cms.gov/Patient/5b2aee56-e057-4632-8f39-4b91c1cb6a32",
    "resource": {
      "resourceType": "Patient",
      "id": "5b2aee56-e057-4632-8f39-4b91c1cb6a32",
      "meta": {
        "profile": [ "http://hl7.org/fhir/us/qicore/StructureDefinition/qicore-patient" ]
      },
      "extension": [ {
        "url": "http://hl7.org/fhir/us/core/StructureDefinition/us-core-race",
        "extension": [ {
          "url": "ombCategory",
          "valueCoding": {
            "system": "urn:oid:2.16.840.1.113883.6.238",
            "code": "2028-9",
            "display": "Asian",
            "userSelected": true
          }
        }, {
          "url": "text",
          "valueString": "Asian"
        } ]
      }, {
        "url": "http://hl7.org/fhir/us/core/StructureDefinition/us-core-ethnicity",
        "extension": [ {
          "url": "ombCategory",
          "valueCoding": {
            "system": "urn:oid:2.16.840.1.113883.6.238",
            "code": "2186-5",
            "display": "Not Hispanic or Latino",
            "userSelected": true
          }
        }, {
          "url": "text",
          "valueString": "Not Hispanic or Latino"
        } ]
      } ],
      "identifier": [ {
        "type": {
          "coding": [ {
            "system": "http://terminology.hl7.org/CodeSystem/v2-0203",
            "code": "MR"
          } ]
        },
        "system": "https://bonnie-fhir.healthit.gov/",
        "value": "6491c51f8187991eac996930"
      } ],
      "name": [ {
        "family": "2IPPass",
        "given": [ "EncWithHIVBeforeEnc" ]
      } ],
      "gender": "female",
      "birthDate": "1962-09-25"
    }
  }, {
    "fullUrl": "https://madie.cms.gov/Condition/5d0aca45-e9ed-4bba-b804-be31640744db",
    "resource": {
      "resourceType": "Condition",
      "id": "5d0aca45-e9ed-4bba-b804-be31640744db",
      "meta": {
        "profile": [ "http://hl7.org/fhir/us/qicore/StructureDefinition/qicore-condition-problems-health-concerns" ]
      },
      "clinicalStatus": {
        "coding": [ {
          "system": "http://terminology.hl7.org/CodeSystem/condition-clinical",
          "code": "active",
          "display": "active",
          "userSelected": true
        } ]
      },
      "category": [ {
        "coding": [ {
          "system": "http://terminology.hl7.org/CodeSystem/condition-category",
          "code": "problem-list-item",
          "display": "Problem List Item"
        } ]
      } ],
      "code": {
        "coding": [ {
          "system": "http://hl7.org/fhir/sid/icd-9-cm",
          "version": "2013",
          "code": "042",
          "display": "Human immunodeficiency virus [HIV] disease",
          "userSelected": true
        }, {
          "system": "http://snomed.info/sct",
          "version": "http://snomed.info/sct/731000124108/version/20250301",
          "code": "165816005",
          "userSelected": true
        } ]
      },
      "subject": {
        "reference": "Patient/5b2aee56-e057-4632-8f39-4b91c1cb6a32"
      },
      "onsetDateTime": "2024-06-20T08:00:00.000+00:00",
      "recordedDate": "2024-06-20T08:00:00.000+00:00"
    }
  }, {
    "fullUrl": "https://madie.cms.gov/Encounter/a4146a64-ff1b-4354-8949-484726518411",
    "resource": {
      "resourceType": "Encounter",
      "id": "a4146a64-ff1b-4354-8949-484726518411",
      "meta": {
        "profile": [ "http://hl7.org/fhir/us/qicore/StructureDefinition/qicore-encounter" ]
      },
      "status": "finished",
      "class": {
        "system": "http://terminology.hl7.org/CodeSystem/v3-ActCode",
        "code": "AMB",
        "display": "ambulatory"
      },
      "type": [ {
        "coding": [ {
          "system": "http://snomed.info/sct",
          "version": "2022-09",
          "code": "281036007",
          "display": "Follow-up consultation (procedure)",
          "userSelected": true
        } ]
      } ],
      "subject": {
        "reference": "Patient/5b2aee56-e057-4632-8f39-4b91c1cb6a32"
      },
      "period": {
        "start": "2026-02-01T08:00:00.000+00:00",
        "end": "2026-02-01T08:35:00.000+00:00"
      }
    }
  }, {
    "fullUrl": "https://madie.cms.gov/Coverage/0bebaf48-c5e3-45e3-b932-34a01f8e812f",
    "resource": {
      "resourceType": "Coverage",
      "id": "0bebaf48-c5e3-45e3-b932-34a01f8e812f",
      "meta": {
        "profile": [ "http://hl7.org/fhir/us/qicore/StructureDefinition/qicore-coverage" ]
      },
      "status": "active",
      "subscriberId": "123456",
      "beneficiary": {
        "reference": "Patient/5b2aee56-e057-4632-8f39-4b91c1cb6a32"
      },
      "relationship": {
        "coding": [ {
          "system": "http://terminology.hl7.org/CodeSystem/subscriber-relationship",
          "code": "self",
          "display": "Self"
        } ]
      },
      "payor": [ {
        "reference": "Organization/ddf0a8c9-4fca-4a1b-b46f-db9780ccc68e"
      } ]
    }
  }, {
    "fullUrl": "https://madie.cms.gov/Organization/ddf0a8c9-4fca-4a1b-b46f-db9780ccc68e",
    "resource": {
      "resourceType": "Organization",
      "id": "ddf0a8c9-4fca-4a1b-b46f-db9780ccc68e",
      "meta": {
        "profile": [ "http://hl7.org/fhir/us/qicore/StructureDefinition/qicore-organization" ]
      },
      "identifier": [ {
        "use": "temp",
        "system": "urn:oid:2.16.840.1.113883.4.4",
        "value": "21-3259825"
      } ],
      "active": true,
      "type": [ {
        "coding": [ {
          "system": "http://terminology.hl7.org/CodeSystem/organization-type",
          "code": "pay",
          "display": "Payer"
        } ]
      } ],
      "name": "Blue Cross Blue Shield of Texas",
      "telecom": [ {
        "system": "phone",
        "value": "(+1) 972-766-6900"
      } ],
      "address": [ {
        "use": "billing",
        "type": "postal",
        "line": [ "P.O. Box 660044" ],
        "city": "Dallas",
        "state": "TX",
        "postalCode": "75266-0044",
        "country": "USA"
      } ]
    }
  }, {
    "fullUrl": "https://madie.cms.gov/Practitioner/92129ef4-698b-4c81-8d73-65cad1ead736",
    "resource": {
      "resourceType": "Practitioner",
      "id": "92129ef4-698b-4c81-8d73-65cad1ead736",
      "meta": {
        "profile": [ "http://hl7.org/fhir/us/qicore/StructureDefinition/qicore-practitioner" ]
      },
      "identifier": [ {
        "system": "http://hl7.org/fhir/sid/us-npi",
        "value": "1689411712"
      } ],
      "name": [ {
        "family": "Evil",
        "prefix": [ "Dr" ]
      } ]
    }
  }, {
    "fullUrl": "https://madie.cms.gov/MeasureReport/66929cb5-74be-4cb0-bc4f-ef877c246562",
    "resource": {
      "resourceType": "MeasureReport",
      "id": "66929cb5-74be-4cb0-bc4f-ef877c246562",
      "meta": {
        "profile": [ "http://hl7.org/fhir/us/cqfmeasures/StructureDefinition/test-case-cqfm" ]
      },
      "contained": [ {
        "resourceType": "Parameters",
        "id": "e2fb024f-3d08-4c1c-b27e-88d3e79f5961-parameters",
        "parameter": [ {
          "name": "subject",
          "valueString": "5b2aee56-e057-4632-8f39-4b91c1cb6a32"
        } ]
      } ],
      "extension": [ {
        "url": "http://hl7.org/fhir/StructureDefinition/cqf-inputParameters",
        "valueReference": {
          "reference": "#e2fb024f-3d08-4c1c-b27e-88d3e79f5961-parameters"
        }
      }, {
        "url": "http://hl7.org/fhir/us/cqfmeasures/StructureDefinition/cqfm-testCaseDescription",
        "valueMarkdown": "Patient with HIV diagnosed before date of visit"
      } ],
      "modifierExtension": [ {
        "url": "http://hl7.org/fhir/us/cqfmeasures/StructureDefinition/cqfm-isTestCase",
        "valueBoolean": true
      } ],
      "status": "complete",
      "type": "individual",
      "measure": "https://madie.cms.gov/Measure/CMS1157FHIRHIVRetention",
      "period": {
        "start": "2026-01-01",
        "end": "2026-12-31"
      },
      "group": [ {
        "id": "Group_1",
        "population": [ {
          "id": "InitialPopulation_1",
          "code": {
            "coding": [ {
              "system": "http://terminology.hl7.org/CodeSystem/measure-population",
              "code": "initial-population",
              "display": "Initial Population"
            } ]
          },
          "count": 1
        }, {
          "id": "Denominator_1",
          "code": {
            "coding": [ {
              "system": "http://terminology.hl7.org/CodeSystem/measure-population",
              "code": "denominator",
              "display": "Denominator"
            } ]
          },
          "count": 1
        }, {
          "id": "Numerator_1",
          "code": {
            "coding": [ {
              "system": "http://terminology.hl7.org/CodeSystem/measure-population",
              "code": "numerator",
              "display": "Numerator"
            } ]
          },
          "count": 0
        } ],
        "measureScore": {
          "value": 1.0
        }
      } ],
      "evaluatedResource": [ {
        "reference": "Patient/5b2aee56-e057-4632-8f39-4b91c1cb6a32"
      }, {
        "reference": "Condition/5d0aca45-e9ed-4bba-b804-be31640744db"
      }, {
        "reference": "Encounter/a4146a64-ff1b-4354-8949-484726518411"
      }, {
        "reference": "Coverage/0bebaf48-c5e3-45e3-b932-34a01f8e812f"
      }, {
        "reference": "Organization/ddf0a8c9-4fca-4a1b-b46f-db9780ccc68e"
      }, {
        "reference": "Practitioner/92129ef4-698b-4c81-8d73-65cad1ead736"
      } ]
    }
  } ]
}