{
  "resourceType": "Bundle",
  "id": "63487c2f0968f80122540196",
  "type": "transaction",
  "entry": [ {
    "fullUrl": "https://madie.cms.gov/Patient/c2f10a34-81ed-4bf0-93ac-fed868ada54b",
    "resource": {
      "resourceType": "Patient",
      "id": "c2f10a34-81ed-4bf0-93ac-fed868ada54b",
      "meta": {
        "profile": [ "http://hl7.org/fhir/us/qicore/StructureDefinition/qicore-patient" ]
      },
      "text": {
        "status": "generated",
        "div": "<div xmlns=\"http://www.w3.org/1999/xhtml\"><div class=\"hapiHeaderText\">DelivEncDxNotSing<b>DENOMFail</b></div><table class=\"hapiPropertyTable\"><tbody><tr><td>Identifier</td><td>1ab9ef48e0c90ff3dc9111dd796761e98e296a234123a2d0da91bfa01b2d25ee</td></tr><tr><td>Date of birth</td><td><span>14 February 1985</span></td></tr></tbody></table></div>"
      },
      "extension": [ {
        "url": "http://hl7.org/fhir/us/core/StructureDefinition/us-core-race",
        "extension": [ {
          "url": "ombCategory",
          "valueCoding": {
            "system": "urn:oid:2.16.840.1.113883.6.238",
            "code": "1002-5",
            "display": "American Indian or Alaska Native",
            "userSelected": true
          }
        }, {
          "url": "text",
          "valueString": "American Indian or Alaska Native"
        } ]
      }, {
        "url": "http://hl7.org/fhir/us/core/StructureDefinition/us-core-ethnicity",
        "extension": [ {
          "url": "ombCategory",
          "valueCoding": {
            "system": "urn:oid:2.16.840.1.113883.6.238",
            "code": "2135-2",
            "display": "Hispanic or Latino",
            "userSelected": true
          }
        }, {
          "url": "text",
          "valueString": "Hispanic or Latino"
        } ]
      } ],
      "identifier": [ {
        "type": {
          "coding": [ {
            "system": "http://terminology.hl7.org/CodeSystem/v2-0203",
            "code": "MR"
          } ]
        },
        "system": "https://bonnie-fhir.healthit.gov/",
        "value": "63487c2f0968f80122540196"
      } ],
      "active": true,
      "name": [ {
        "use": "usual",
        "family": "DENOMFail",
        "given": [ "DelivEncDxNotSing" ]
      } ],
      "gender": "female",
      "birthDate": "1998-02-14"
    },
    "request": {
      "method": "PUT",
      "url": "Patient/c2f10a34-81ed-4bf0-93ac-fed868ada54b"
    }
  }, {
    "fullUrl": "https://madie.cms.gov/Observation/920c9cd0-2619-4116-8a72-411ed2322a83",
    "resource": {
      "resourceType": "Observation",
      "id": "920c9cd0-2619-4116-8a72-411ed2322a83",
      "meta": {
        "profile": [ "http://hl7.org/fhir/us/qicore/StructureDefinition/qicore-simple-observation" ]
      },
      "status": "final",
      "category": [ {
        "coding": [ {
          "system": "http://terminology.hl7.org/CodeSystem/observation-category",
          "code": "exam",
          "display": "exam",
          "userSelected": true
        } ]
      } ],
      "code": {
        "coding": [ {
          "system": "http://loinc.org",
          "code": "11996-6"
        } ]
      },
      "subject": {
        "reference": "Patient/c2f10a34-81ed-4bf0-93ac-fed868ada54b"
      },
      "effectiveDateTime": "2026-02-09T08:00:00.000+00:00",
      "performer": [ {
        "reference": "Organization/example1",
        "display": "Hendricks Country Hospital"
      } ],
      "valueInteger": 1
    },
    "request": {
      "method": "PUT",
      "url": "Observation/920c9cd0-2619-4116-8a72-411ed2322a83"
    }
  }, {
    "fullUrl": "https://madie.cms.gov/Observation/47e9c5f4-0e33-4705-841b-c9f2de7cfbfa",
    "resource": {
      "resourceType": "Observation",
      "id": "47e9c5f4-0e33-4705-841b-c9f2de7cfbfa",
      "meta": {
        "profile": [ "http://hl7.org/fhir/us/qicore/StructureDefinition/qicore-simple-observation" ]
      },
      "status": "final",
      "category": [ {
        "coding": [ {
          "system": "http://terminology.hl7.org/CodeSystem/observation-category",
          "code": "exam",
          "display": "exam",
          "userSelected": true
        } ]
      } ],
      "code": {
        "coding": [ {
          "system": "http://loinc.org",
          "code": "11884-4"
        } ]
      },
      "subject": {
        "reference": "Patient/c2f10a34-81ed-4bf0-93ac-fed868ada54b"
      },
      "effectiveDateTime": "2026-11-28T21:15:00.000+00:00",
      "performer": [ {
        "reference": "Organization/example1",
        "display": "Hendricks Country Hospital"
      } ],
      "valueQuantity": {
        "value": 40,
        "system": "http://unitsofmeasure.org",
        "code": "wk"
      }
    },
    "request": {
      "method": "PUT",
      "url": "Observation/47e9c5f4-0e33-4705-841b-c9f2de7cfbfa"
    }
  }, {
    "fullUrl": "https://madie.cms.gov/Observation/8f1e1abd-829d-421c-b0f7-f049e025519e",
    "resource": {
      "resourceType": "Observation",
      "id": "8f1e1abd-829d-421c-b0f7-f049e025519e",
      "meta": {
        "profile": [ "http://hl7.org/fhir/us/qicore/StructureDefinition/qicore-simple-observation" ]
      },
      "status": "final",
      "category": [ {
        "coding": [ {
          "system": "http://terminology.hl7.org/CodeSystem/observation-category",
          "code": "exam",
          "display": "exam",
          "userSelected": true
        } ]
      } ],
      "code": {
        "coding": [ {
          "system": "http://loinc.org",
          "code": "93857-1"
        } ]
      },
      "subject": {
        "reference": "Patient/c2f10a34-81ed-4bf0-93ac-fed868ada54b"
      },
      "effectiveDateTime": "2026-11-28T21:15:00.000+00:00",
      "performer": [ {
        "reference": "Organization/example1",
        "display": "Hendricks Country Hospital"
      } ],
      "valueDateTime": "2026-11-28T21:15:00.000+00:00"
    },
    "request": {
      "method": "PUT",
      "url": "Observation/8f1e1abd-829d-421c-b0f7-f049e025519e"
    }
  }, {
    "fullUrl": "https://madie.cms.gov/Encounter/1c622811-d276-492a-8d71-263ddd8a1381",
    "resource": {
      "resourceType": "Encounter",
      "id": "1c622811-d276-492a-8d71-263ddd8a1381",
      "meta": {
        "profile": [ "http://hl7.org/fhir/us/qicore/StructureDefinition/qicore-encounter" ]
      },
      "status": "finished",
      "class": {
        "system": "http://terminology.hl7.org/CodeSystem/v3-ActCode",
        "code": "IMP",
        "display": "inpatient encounter"
      },
      "type": [ {
        "coding": [ {
          "system": "http://snomed.info/sct",
          "code": "8715000"
        } ]
      } ],
      "subject": {
        "reference": "Patient/c2f10a34-81ed-4bf0-93ac-fed868ada54b"
      },
      "period": {
        "start": "2026-11-28T08:00:00.000+00:00",
        "end": "2026-11-30T08:15:00.000+00:00"
      },
      "length": {
        "value": 2,
        "unit": "days"
      },
      "diagnosis": [ {
        "condition": {
          "reference": "Condition/976ab982-f94b-4bb7-b184-6819307fc5d1"
        },
        "use": {
          "coding": [ {
            "system": "http://snomed.info/sct",
            "code": "87605005",
            "display": "Cornual Ectopic Pregnancy"
          } ]
        }
      } ]
    },
    "request": {
      "method": "PUT",
      "url": "Encounter/1c622811-d276-492a-8d71-263ddd8a1381"
    }
  }, {
    "fullUrl": "https://madie.cms.gov/Condition/976ab982-f94b-4bb7-b184-6819307fc5d1",
    "resource": {
      "resourceType": "Condition",
      "id": "976ab982-f94b-4bb7-b184-6819307fc5d1",
      "meta": {
        "profile": [ "http://hl7.org/fhir/us/qicore/StructureDefinition/qicore-condition" ]
      },
      "category": [ {
        "coding": [ {
          "system": "http://terminology.hl7.org/CodeSystem/condition-category",
          "code": "encounter-diagnosis",
          "display": "Encounter Diagnosis"
        } ]
      } ],
      "code": {
        "coding": [ {
          "system": "http://snomed.info/sct",
          "code": "87605005",
          "display": "Cornual Ectopic Pregnancy",
          "userSelected": true
        } ]
      },
      "subject": {
        "reference": "Patient/c2f10a34-81ed-4bf0-93ac-fed868ada54b"
      },
      "encounter": {
        "reference": "Encounter/1c622811-d276-492a-8d71-263ddd8a1381"
      },
      "recordedDate": "2026-12-01T08:00:00.000+00:00"
    },
    "request": {
      "method": "PUT",
      "url": "Condition/976ab982-f94b-4bb7-b184-6819307fc5d1"
    }
  }, {
    "fullUrl": "https://madie.cms.gov/Procedure/5358b9c9-51ea-4709-afcb-d0efcb3c1fdf",
    "resource": {
      "resourceType": "Procedure",
      "id": "5358b9c9-51ea-4709-afcb-d0efcb3c1fdf",
      "meta": {
        "profile": [ "http://hl7.org/fhir/us/qicore/StructureDefinition/qicore-procedure" ]
      },
      "extension": [ {
        "url": "http://hl7.org/fhir/us/qicore/StructureDefinition/qicore-recorded",
        "valueDateTime": "2014-04-05T13:35:00.000+00:00"
      } ],
      "status": "completed",
      "code": {
        "coding": [ {
          "system": "http://www.cms.gov/Medicare/Coding/ICD10",
          "code": "10D00Z0"
        } ]
      },
      "subject": {
        "reference": "Patient/c2f10a34-81ed-4bf0-93ac-fed868ada54b"
      },
      "performedPeriod": {
        "start": "2026-11-28T20:00:00.000+00:00",
        "end": "2026-11-28T20:15:00.000+00:00"
      }
    },
    "request": {
      "method": "PUT",
      "url": "Procedure/5358b9c9-51ea-4709-afcb-d0efcb3c1fdf"
    }
  }, {
    "fullUrl": "https://madie.cms.gov/Coverage/5442cc84-5c80-4f17-9346-ac8396239097",
    "resource": {
      "resourceType": "Coverage",
      "id": "5442cc84-5c80-4f17-9346-ac8396239097",
      "meta": {
        "profile": [ "http://hl7.org/fhir/us/qicore/StructureDefinition/qicore-coverage" ]
      },
      "status": "active",
      "subscriberId": "523435",
      "beneficiary": {
        "reference": "Patient/c2f10a34-81ed-4bf0-93ac-fed868ada54b"
      },
      "relationship": {
        "coding": [ {
          "system": "http://terminology.hl7.org/CodeSystem/subscriber-relationship",
          "code": "self"
        } ]
      },
      "payor": [ {
        "reference": "Organization/daf8c04b-77d3-46ad-811b-573887188d4a"
      } ]
    },
    "request": {
      "method": "PUT",
      "url": "Coverage/5442cc84-5c80-4f17-9346-ac8396239097"
    }
  }, {
    "fullUrl": "https://madie.cms.gov/Organization/daf8c04b-77d3-46ad-811b-573887188d4a",
    "resource": {
      "resourceType": "Organization",
      "id": "daf8c04b-77d3-46ad-811b-573887188d4a",
      "meta": {
        "profile": [ "http://hl7.org/fhir/us/qicore/StructureDefinition/qicore-organization" ]
      },
      "identifier": [ {
        "use": "temp",
        "system": "urn:oid:2.16.840.1.113883.4.4",
        "value": "21-3259825"
      } ],
      "active": true,
      "type": [ {
        "coding": [ {
          "system": "http://terminology.hl7.org/CodeSystem/organization-type",
          "code": "pay",
          "display": "Payer"
        } ]
      } ],
      "name": "Blue Cross Blue Shield of Texas",
      "telecom": [ {
        "system": "phone",
        "value": "(+1) 972-766-6900"
      } ],
      "address": [ {
        "use": "billing",
        "type": "postal",
        "line": [ "P.O. Box 660044" ],
        "city": "Dallas",
        "state": "TX",
        "postalCode": "75266-0044",
        "country": "USA"
      } ]
    },
    "request": {
      "method": "PUT",
      "url": "Organization/daf8c04b-77d3-46ad-811b-573887188d4a"
    }
  }, {
    "fullUrl": "https://madie.cms.gov/Practitioner/1f0c0a95-4f8f-4270-81d4-e2d6dc8b47ac",
    "resource": {
      "resourceType": "Practitioner",
      "id": "1f0c0a95-4f8f-4270-81d4-e2d6dc8b47ac",
      "meta": {
        "profile": [ "http://hl7.org/fhir/us/qicore/StructureDefinition/qicore-practitioner" ]
      },
      "identifier": [ {
        "system": "http://hl7.org/fhir/sid/us-npi",
        "value": "1234567890"
      } ],
      "name": [ {
        "family": "Evil",
        "prefix": [ "Dr" ]
      } ]
    },
    "request": {
      "method": "PUT",
      "url": "Practitioner/1f0c0a95-4f8f-4270-81d4-e2d6dc8b47ac"
    }
  }, {
    "fullUrl": "https://madie.cms.gov/MeasureReport/df972fee-5a2c-49b1-b841-72eb5f7ace1f",
    "resource": {
      "resourceType": "MeasureReport",
      "id": "df972fee-5a2c-49b1-b841-72eb5f7ace1f",
      "meta": {
        "profile": [ "http://hl7.org/fhir/us/cqfmeasures/StructureDefinition/test-case-cqfm" ]
      },
      "contained": [ {
        "resourceType": "Parameters",
        "id": "e1974829-c211-448d-a67a-9851ea480407-parameters",
        "parameter": [ {
          "name": "subject",
          "valueString": "c2f10a34-81ed-4bf0-93ac-fed868ada54b"
        } ]
      } ],
      "extension": [ {
        "url": "http://hl7.org/fhir/StructureDefinition/cqf-inputParameters",
        "valueReference": {
          "reference": "#e1974829-c211-448d-a67a-9851ea480407-parameters"
        }
      }, {
        "url": "http://hl7.org/fhir/us/cqfmeasures/StructureDefinition/cqfm-testCaseDescription",
        "valueMarkdown": "Passes IP,; Gravida 1(auth 42 weeks)  and EGA 40 weeks; Not Singleton\n"
      } ],
      "modifierExtension": [ {
        "url": "http://hl7.org/fhir/us/cqfmeasures/StructureDefinition/cqfm-isTestCase",
        "valueBoolean": true
      } ],
      "status": "complete",
      "type": "individual",
      "measure": "https://madie.cms.gov/Measure/CMS0334FHIRPCCesareanBirth",
      "period": {
        "start": "2026-01-01",
        "end": "2026-12-31"
      },
      "group": [ {
        "id": "Group_1",
        "population": [ {
          "id": "InitialPopulation_1",
          "code": {
            "coding": [ {
              "system": "http://terminology.hl7.org/CodeSystem/measure-population",
              "code": "initial-population",
              "display": "Initial Population"
            } ]
          },
          "count": 1
        }, {
          "id": "Denominator_1",
          "code": {
            "coding": [ {
              "system": "http://terminology.hl7.org/CodeSystem/measure-population",
              "code": "denominator",
              "display": "Denominator"
            } ]
          },
          "count": 0
        }, {
          "id": "DenominatorExclusion_1",
          "code": {
            "coding": [ {
              "system": "http://terminology.hl7.org/CodeSystem/measure-population",
              "code": "denominator-exclusion",
              "display": "Denominator Exclusion"
            } ]
          },
          "count": 0
        }, {
          "id": "Numerator_1",
          "code": {
            "coding": [ {
              "system": "http://terminology.hl7.org/CodeSystem/measure-population",
              "code": "numerator",
              "display": "Numerator"
            } ]
          },
          "count": 0
        } ],
        "measureScore": {
          "value": 0.0
        }
      } ],
      "evaluatedResource": [ {
        "reference": "Patient/c2f10a34-81ed-4bf0-93ac-fed868ada54b"
      }, {
        "reference": "Observation/920c9cd0-2619-4116-8a72-411ed2322a83"
      }, {
        "reference": "Observation/47e9c5f4-0e33-4705-841b-c9f2de7cfbfa"
      }, {
        "reference": "Observation/8f1e1abd-829d-421c-b0f7-f049e025519e"
      }, {
        "reference": "Encounter/1c622811-d276-492a-8d71-263ddd8a1381"
      }, {
        "reference": "Condition/976ab982-f94b-4bb7-b184-6819307fc5d1"
      }, {
        "reference": "Procedure/5358b9c9-51ea-4709-afcb-d0efcb3c1fdf"
      }, {
        "reference": "Coverage/5442cc84-5c80-4f17-9346-ac8396239097"
      }, {
        "reference": "Organization/daf8c04b-77d3-46ad-811b-573887188d4a"
      }, {
        "reference": "Practitioner/1f0c0a95-4f8f-4270-81d4-e2d6dc8b47ac"
      } ]
    },
    "request": {
      "method": "PUT",
      "url": "MeasureReport/df972fee-5a2c-49b1-b841-72eb5f7ace1f"
    }
  } ]
}