{
  "resourceType": "Bundle",
  "id": "tests-212b0826-d939-4c4a-8c8f-c711bf5d9e44-bundle",
  "type": "transaction",
  "entry": [ {
    "fullUrl": "https://madie.cms.gov/Patient/0485e795-98c7-433b-8c70-20a888f5d9d0",
    "resource": {
      "resourceType": "Patient",
      "id": "0485e795-98c7-433b-8c70-20a888f5d9d0",
      "meta": {
        "profile": [ "http://hl7.org/fhir/us/qicore/StructureDefinition/qicore-patient" ]
      },
      "text": {
        "status": "generated",
        "div": "<div xmlns=\"http://www.w3.org/1999/xhtml\"><div class=\"hapiHeaderText\">Turns 18 day of Encounter <b>DENOMPass </b></div><table class=\"hapiPropertyTable\"><tbody><tr><td>Identifier</td><td>f0eda1c9668fdacdcad3378589bf6e0a71e7dec1618f14fca4d442ec96e402b1</td></tr><tr><td>Date of birth</td><td><span>29 September 2006</span></td></tr></tbody></table></div>"
      },
      "extension": [ {
        "url": "http://hl7.org/fhir/us/core/StructureDefinition/us-core-race",
        "extension": [ {
          "url": "ombCategory",
          "valueCoding": {
            "system": "urn:oid:2.16.840.1.113883.6.238",
            "code": "1002-5",
            "display": "American Indian or Alaska Native",
            "userSelected": true
          }
        }, {
          "url": "text",
          "valueString": "American Indian or Alaska Native"
        } ]
      }, {
        "url": "http://hl7.org/fhir/us/core/StructureDefinition/us-core-ethnicity",
        "extension": [ {
          "url": "ombCategory",
          "valueCoding": {
            "system": "urn:oid:2.16.840.1.113883.6.238",
            "code": "2135-2",
            "display": "Hispanic or Latino",
            "userSelected": true
          }
        }, {
          "url": "text",
          "valueString": "Hispanic or Latino"
        } ]
      }, {
        "url": "http://hl7.org/fhir/us/core/StructureDefinition/us-core-sex",
        "valueCode": "248153007"
      } ],
      "identifier": [ {
        "type": {
          "coding": [ {
            "system": "http://terminology.hl7.org/CodeSystem/v2-0203",
            "code": "MR"
          } ]
        },
        "system": "http://bonnie-fhir.healthit.gov/",
        "value": "DENOMPass-RVAllDiagnosesPOA"
      } ],
      "active": true,
      "name": [ {
        "use": "usual",
        "family": "DENOMPass",
        "given": [ "RVAllDiagnosesPOA" ]
      } ],
      "gender": "male",
      "birthDate": "1983-10-10"
    },
    "request": {
      "method": "PUT",
      "url": "Patient/0485e795-98c7-433b-8c70-20a888f5d9d0"
    }
  }, {
    "fullUrl": "https://madie.cms.gov/Observation/3b254fa0-15e1-4274-9df4-b0a084af9c47",
    "resource": {
      "resourceType": "Observation",
      "id": "3b254fa0-15e1-4274-9df4-b0a084af9c47",
      "meta": {
        "profile": [ "http://hl7.org/fhir/us/qicore/StructureDefinition/qicore-observation-lab" ]
      },
      "status": "final",
      "category": [ {
        "coding": [ {
          "system": "http://terminology.hl7.org/CodeSystem/observation-category",
          "code": "laboratory",
          "display": "Laboratory"
        } ]
      } ],
      "code": {
        "coding": [ {
          "system": "http://loinc.org",
          "code": "2160-0",
          "display": "Creatinine [Mass/volume] in Serum or Plasma"
        } ]
      },
      "subject": {
        "reference": "Patient/0485e795-98c7-433b-8c70-20a888f5d9d0"
      },
      "effectiveDateTime": "2026-09-29T09:00:00.000+00:00",
      "issued": "2026-09-29T09:30:00.000+00:00",
      "valueQuantity": {
        "value": 0.9,
        "unit": "mg/dL",
        "system": "http://unitsofmeasure.org",
        "code": "mg/dL"
      }
    },
    "request": {
      "method": "PUT",
      "url": "Observation/3b254fa0-15e1-4274-9df4-b0a084af9c47"
    }
  }, {
    "fullUrl": "https://madie.cms.gov/Observation/a2a856a8-60ca-4faf-af1f-4b9528de289f",
    "resource": {
      "resourceType": "Observation",
      "id": "a2a856a8-60ca-4faf-af1f-4b9528de289f",
      "meta": {
        "profile": [ "http://hl7.org/fhir/us/qicore/StructureDefinition/qicore-observation-lab" ]
      },
      "status": "final",
      "category": [ {
        "coding": [ {
          "system": "http://terminology.hl7.org/CodeSystem/observation-category",
          "code": "laboratory",
          "display": "Laboratory"
        } ]
      } ],
      "code": {
        "coding": [ {
          "system": "http://loinc.org",
          "version": "2.72",
          "code": "2160-0",
          "display": "Creatinine [Mass/volume] in Serum or Plasma",
          "userSelected": true
        } ]
      },
      "subject": {
        "reference": "Patient/0485e795-98c7-433b-8c70-20a888f5d9d0"
      },
      "effectiveDateTime": "2026-09-30T07:35:00.000+00:00",
      "issued": "2026-09-30T08:00:00.000+00:00",
      "valueQuantity": {
        "value": 0.9,
        "unit": "mg/dL",
        "system": "http://unitsofmeasure.org",
        "code": "mg/dL"
      }
    },
    "request": {
      "method": "PUT",
      "url": "Observation/a2a856a8-60ca-4faf-af1f-4b9528de289f"
    }
  }, {
    "fullUrl": "https://madie.cms.gov/Observation/52a5e7ff-153e-4d3e-9932-fe1978450dd2",
    "resource": {
      "resourceType": "Observation",
      "id": "52a5e7ff-153e-4d3e-9932-fe1978450dd2",
      "meta": {
        "profile": [ "http://hl7.org/fhir/us/qicore/StructureDefinition/qicore-observation-lab" ]
      },
      "status": "final",
      "category": [ {
        "coding": [ {
          "system": "http://terminology.hl7.org/CodeSystem/observation-category",
          "code": "laboratory",
          "display": "Laboratory"
        } ]
      } ],
      "code": {
        "coding": [ {
          "system": "http://loinc.org",
          "version": "2.72",
          "code": "2160-0",
          "display": "Creatinine [Mass/volume] in Serum or Plasma",
          "userSelected": true
        } ]
      },
      "subject": {
        "reference": "Patient/0485e795-98c7-433b-8c70-20a888f5d9d0"
      },
      "effectiveDateTime": "2026-10-01T08:01:00.000+00:00",
      "issued": "2026-10-01T08:31:00.000+00:00",
      "valueQuantity": {
        "value": 0.9,
        "unit": "mg/dL",
        "system": "http://unitsofmeasure.org",
        "code": "mg/dL"
      }
    },
    "request": {
      "method": "PUT",
      "url": "Observation/52a5e7ff-153e-4d3e-9932-fe1978450dd2"
    }
  }, {
    "fullUrl": "https://madie.cms.gov/Encounter/bd3f857a-e46c-40bc-81bb-99d029cfa305",
    "resource": {
      "resourceType": "Encounter",
      "id": "bd3f857a-e46c-40bc-81bb-99d029cfa305",
      "meta": {
        "profile": [ "http://hl7.org/fhir/us/qicore/StructureDefinition/qicore-encounter" ]
      },
      "status": "finished",
      "class": {
        "system": "http://terminology.hl7.org/CodeSystem/v3-ActCode",
        "code": "IMP",
        "display": "inpatient encounter"
      },
      "type": [ {
        "coding": [ {
          "system": "http://snomed.info/sct",
          "code": "183452005",
          "display": "Emergency hospital admission (procedure)"
        } ]
      } ],
      "subject": {
        "reference": "Patient/0485e795-98c7-433b-8c70-20a888f5d9d0"
      },
      "period": {
        "start": "2026-09-29T08:00:00.000+00:00",
        "end": "2026-10-03T20:00:00.000+00:00"
      },
      "diagnosis": [ {
        "extension": [ {
          "url": "http://hl7.org/fhir/us/qicore/StructureDefinition/qicore-encounter-diagnosisPresentOnAdmission",
          "valueCodeableConcept": {
            "coding": [ {
              "system": "https://www.cms.gov/Medicare/Medicare-Fee-for-Service-Payment/HospitalAcqCond/Coding",
              "code": "Y"
            } ]
          }
        } ],
        "condition": {
          "reference": "Condition/2dec09ac-23d3-4333-a8e7-2328276d91e3"
        },
        "use": {
          "coding": [ {
            "system": "http://hl7.org/fhir/diagnosis-role",
            "code": "billing",
            "display": "Billing"
          } ]
        },
        "rank": 1
      } ]
    },
    "request": {
      "method": "PUT",
      "url": "Encounter/bd3f857a-e46c-40bc-81bb-99d029cfa305"
    }
  }, {
    "fullUrl": "https://madie.cms.gov/Organization/223fe5a0-4068-40af-9dce-5d35e00f033c",
    "resource": {
      "resourceType": "Organization",
      "id": "223fe5a0-4068-40af-9dce-5d35e00f033c",
      "meta": {
        "profile": [ "http://hl7.org/fhir/us/qicore/StructureDefinition/qicore-organization" ]
      },
      "identifier": [ {
        "use": "temp",
        "system": "urn:oid:2.16.840.1.113883.4.4",
        "value": "21-3259825"
      } ],
      "active": true,
      "type": [ {
        "coding": [ {
          "system": "http://terminology.hl7.org/CodeSystem/organization-type",
          "code": "pay",
          "display": "Payer"
        } ]
      } ],
      "name": "Blue Cross Blue Shield of Texas",
      "telecom": [ {
        "system": "phone",
        "value": "(+1) 972-766-6900"
      } ],
      "address": [ {
        "use": "billing",
        "type": "postal",
        "line": [ "P.O. Box 660044" ],
        "city": "Dallas",
        "state": "TX",
        "postalCode": "75266-0044",
        "country": "USA"
      } ]
    },
    "request": {
      "method": "PUT",
      "url": "Organization/223fe5a0-4068-40af-9dce-5d35e00f033c"
    }
  }, {
    "fullUrl": "https://madie.cms.gov/Coverage/b313871e-53ab-4c16-a7af-9aacf941eca0",
    "resource": {
      "resourceType": "Coverage",
      "id": "b313871e-53ab-4c16-a7af-9aacf941eca0",
      "meta": {
        "profile": [ "http://hl7.org/fhir/us/qicore/StructureDefinition/qicore-coverage" ]
      },
      "status": "active",
      "type": {
        "coding": [ {
          "system": "https://nahdo.org/sopt",
          "version": "9.2",
          "code": "211",
          "display": "Medicaid HMO"
        } ]
      },
      "beneficiary": {
        "reference": "Patient/0485e795-98c7-433b-8c70-20a888f5d9d0"
      },
      "period": {
        "start": "2024-12-01T00:00:00.000+00:00"
      },
      "payor": [ {
        "reference": "Organization/223fe5a0-4068-40af-9dce-5d35e00f033c"
      } ]
    },
    "request": {
      "method": "PUT",
      "url": "Coverage/b313871e-53ab-4c16-a7af-9aacf941eca0"
    }
  }, {
    "fullUrl": "https://madie.cms.gov/MeasureReport/b5fb5eba-8116-48f0-a338-b8c4b25b0414",
    "resource": {
      "resourceType": "MeasureReport",
      "id": "b5fb5eba-8116-48f0-a338-b8c4b25b0414",
      "meta": {
        "profile": [ "http://hl7.org/fhir/us/cqfmeasures/StructureDefinition/test-case-cqfm" ]
      },
      "contained": [ {
        "resourceType": "Parameters",
        "id": "d0165583-0333-49e9-a1a1-b9a4a9dca1f9-parameters",
        "parameter": [ {
          "name": "subject",
          "valueString": "212b0826-d939-4c4a-8c8f-c711bf5d9e44"
        } ]
      } ],
      "extension": [ {
        "url": "http://hl7.org/fhir/us/cqfmeasures/StructureDefinition/cqfm-inputParameters",
        "valueReference": {
          "reference": "#d0165583-0333-49e9-a1a1-b9a4a9dca1f9-parameters"
        }
      }, {
        "url": "http://hl7.org/fhir/us/cqfmeasures/StructureDefinition/cqfm-testCaseDescription",
        "valueMarkdown": "DENOMPass-RVAllDiagnosesPOA E08.01 Diabetes mellitus due to underlying condition with hyperosmolarity with coma but POA logic/json not generating RV tuple"
      } ],
      "modifierExtension": [ {
        "url": "http://hl7.org/fhir/us/cqfmeasures/StructureDefinition/cqfm-isTestCase",
        "valueBoolean": true
      } ],
      "status": "complete",
      "type": "individual",
      "measure": "https://madie.cms.gov/Measure/CMS832HHAKIFHIR",
      "period": {
        "start": "2026-01-01",
        "end": "2026-12-31"
      },
      "group": [ {
        "id": "67b50f879214df46de2f1fdb",
        "population": [ {
          "id": "DA0D3694-7F57-4FB9-8410-1F64E44CA01E",
          "code": {
            "coding": [ {
              "system": "http://terminology.hl7.org/CodeSystem/measure-population",
              "code": "initial-population",
              "display": "Initial Population"
            } ]
          },
          "count": 1
        }, {
          "id": "624D8554-9CB0-4BF0-882D-05C4F88BCC2C",
          "code": {
            "coding": [ {
              "system": "http://terminology.hl7.org/CodeSystem/measure-population",
              "code": "denominator",
              "display": "Denominator"
            } ]
          },
          "count": 1
        }, {
          "id": "000FF050-D4A2-4C8B-8123-4538D35D5441",
          "code": {
            "coding": [ {
              "system": "http://terminology.hl7.org/CodeSystem/measure-population",
              "code": "denominator-exclusion",
              "display": "Denominator Exclusion"
            } ]
          },
          "count": 0
        }, {
          "id": "01644D07-D9F8-403E-A66D-109ABA29BB6E",
          "code": {
            "coding": [ {
              "system": "http://terminology.hl7.org/CodeSystem/measure-population",
              "code": "numerator",
              "display": "Numerator"
            } ]
          },
          "count": 0
        } ],
        "measureScore": {
          "value": 0
        }
      } ],
      "evaluatedResource": [ {
        "reference": "Patient/0485e795-98c7-433b-8c70-20a888f5d9d0"
      }, {
        "reference": "Encounter/bd3f857a-e46c-40bc-81bb-99d029cfa305"
      }, {
        "reference": "Condition/2dec09ac-23d3-4333-a8e7-2328276d91e3"
      }, {
        "reference": "Observation/52a5e7ff-153e-4d3e-9932-fe1978450dd2"
      }, {
        "reference": "Observation/3b254fa0-15e1-4274-9df4-b0a084af9c47"
      }, {
        "reference": "Observation/a2a856a8-60ca-4faf-af1f-4b9528de289f"
      }, {
        "reference": "Coverage/b313871e-53ab-4c16-a7af-9aacf941eca0"
      }, {
        "reference": "Organization/223fe5a0-4068-40af-9dce-5d35e00f033c"
      } ]
    },
    "request": {
      "method": "PUT",
      "url": "MeasureReport/b5fb5eba-8116-48f0-a338-b8c4b25b0414"
    }
  }, {
    "fullUrl": "https://madie.cms.gov/Condition/2dec09ac-23d3-4333-a8e7-2328276d91e3",
    "resource": {
      "resourceType": "Condition",
      "id": "2dec09ac-23d3-4333-a8e7-2328276d91e3",
      "meta": {
        "profile": [ "http://hl7.org/fhir/us/qicore/StructureDefinition/qicore-condition" ]
      },
      "clinicalStatus": {
        "coding": [ {
          "system": "http://terminology.hl7.org/CodeSystem/condition-clinical",
          "code": "active",
          "display": "Active",
          "userSelected": true
        } ]
      },
      "verificationStatus": {
        "coding": [ {
          "system": "http://terminology.hl7.org/CodeSystem/condition-ver-status",
          "code": "confirmed",
          "display": "Confirmed",
          "userSelected": true
        } ]
      },
      "category": [ {
        "coding": [ {
          "system": "http://terminology.hl7.org/CodeSystem/condition-category",
          "code": "encounter-diagnosis",
          "display": "Encounter Diagnosis",
          "userSelected": true
        } ]
      } ],
      "code": {
        "coding": [ {
          "system": "http://hl7.org/fhir/sid/icd-10-cm",
          "code": "E08.01",
          "display": "Diabetes mellitus due to underlying condition with hyperosmolarity with coma",
          "userSelected": true
        } ]
      },
      "subject": {
        "reference": "Patient/0485e795-98c7-433b-8c70-20a888f5d9d0"
      },
      "onsetPeriod": {
        "start": "2026-09-29T06:00:00.000+00:00"
      },
      "recordedDate": "2026-09-29T08:25:00.000+00:00"
    },
    "request": {
      "method": "PUT",
      "url": "Condition/2dec09ac-23d3-4333-a8e7-2328276d91e3"
    }
  }, {
    "fullUrl": "https://madie.cms.gov/MeasureReport/420c8164-fc37-476c-8ad7-9abca13e9cf7",
    "resource": {
      "resourceType": "MeasureReport",
      "id": "420c8164-fc37-476c-8ad7-9abca13e9cf7",
      "meta": {
        "profile": [ "http://hl7.org/fhir/us/cqfmeasures/StructureDefinition/test-case-cqfm" ]
      },
      "contained": [ {
        "resourceType": "Parameters",
        "id": "9d2e7834-ae90-45af-a26e-dacda91b232e-parameters",
        "parameter": [ {
          "name": "subject",
          "valueString": "0485e795-98c7-433b-8c70-20a888f5d9d0"
        } ]
      } ],
      "extension": [ {
        "url": "http://hl7.org/fhir/StructureDefinition/cqf-inputParameters",
        "valueReference": {
          "reference": "#9d2e7834-ae90-45af-a26e-dacda91b232e-parameters"
        }
      }, {
        "url": "http://hl7.org/fhir/us/cqfmeasures/StructureDefinition/cqfm-testCaseDescription",
        "valueMarkdown": "IP Encounter with at least one creatinine after 48 hours. Meets denominator criteria - must have at least 1 creatinine after first 48 hours.\nVScode: Denominator=[Encounter(id=DENOMPass-CreatinineAfter48Hours-01)],  Denominator Exclusion=[]"
      } ],
      "modifierExtension": [ {
        "url": "http://hl7.org/fhir/us/cqfmeasures/StructureDefinition/cqfm-isTestCase",
        "valueBoolean": true
      } ],
      "status": "complete",
      "type": "individual",
      "measure": "https://madie.cms.gov/Measure/CMS832FHIRHHAKI",
      "period": {
        "start": "2026-01-01",
        "end": "2026-12-31"
      },
      "group": [ {
        "id": "Group_1",
        "population": [ {
          "id": "InitialPopulation_1",
          "code": {
            "coding": [ {
              "system": "http://terminology.hl7.org/CodeSystem/measure-population",
              "code": "initial-population",
              "display": "Initial Population"
            } ]
          },
          "count": 1
        }, {
          "id": "Denominator_1",
          "code": {
            "coding": [ {
              "system": "http://terminology.hl7.org/CodeSystem/measure-population",
              "code": "denominator",
              "display": "Denominator"
            } ]
          },
          "count": 1
        }, {
          "id": "DenominatorExclusion_1",
          "code": {
            "coding": [ {
              "system": "http://terminology.hl7.org/CodeSystem/measure-population",
              "code": "denominator-exclusion",
              "display": "Denominator Exclusion"
            } ]
          },
          "count": 0
        }, {
          "id": "Numerator_1",
          "code": {
            "coding": [ {
              "system": "http://terminology.hl7.org/CodeSystem/measure-population",
              "code": "numerator",
              "display": "Numerator"
            } ]
          },
          "count": 0
        } ],
        "measureScore": {
          "value": 0.0
        }
      } ],
      "evaluatedResource": [ {
        "reference": "Patient/0485e795-98c7-433b-8c70-20a888f5d9d0"
      }, {
        "reference": "Observation/3b254fa0-15e1-4274-9df4-b0a084af9c47"
      }, {
        "reference": "Observation/a2a856a8-60ca-4faf-af1f-4b9528de289f"
      }, {
        "reference": "Observation/52a5e7ff-153e-4d3e-9932-fe1978450dd2"
      }, {
        "reference": "Encounter/bd3f857a-e46c-40bc-81bb-99d029cfa305"
      }, {
        "reference": "Organization/223fe5a0-4068-40af-9dce-5d35e00f033c"
      }, {
        "reference": "Coverage/b313871e-53ab-4c16-a7af-9aacf941eca0"
      }, {
        "reference": "MeasureReport/b5fb5eba-8116-48f0-a338-b8c4b25b0414"
      }, {
        "reference": "Condition/2dec09ac-23d3-4333-a8e7-2328276d91e3"
      } ]
    },
    "request": {
      "method": "PUT",
      "url": "MeasureReport/420c8164-fc37-476c-8ad7-9abca13e9cf7"
    }
  } ]
}