{
  "resourceType": "Bundle",
  "id": "612e6e8702c62a011f2eebda",
  "type": "transaction",
  "entry": [ {
    "fullUrl": "https://madie.cms.gov/Patient/f028ed8f-f83b-4c77-bb08-2c4df7694a12",
    "resource": {
      "resourceType": "Patient",
      "id": "f028ed8f-f83b-4c77-bb08-2c4df7694a12",
      "meta": {
        "profile": [ "http://hl7.org/fhir/us/qicore/StructureDefinition/qicore-patient" ]
      },
      "text": {
        "status": "generated",
        "div": "<div xmlns=\"http://www.w3.org/1999/xhtml\"><div class=\"hapiHeaderText\">CMOPerf_DayAfterAnes_ProcRvltDT <b>DENEXPASS </b></div><table class=\"hapiPropertyTable\"><tbody><tr><td>Identifier</td><td>0fe0fbaacaf0868ff4d29642725703ce</td></tr><tr><td>Date of birth</td><td><span>03 March 1974</span></td></tr></tbody></table></div>"
      },
      "extension": [ {
        "url": "http://hl7.org/fhir/us/core/StructureDefinition/us-core-race",
        "extension": [ {
          "url": "ombCategory",
          "valueCoding": {
            "system": "urn:oid:2.16.840.1.113883.6.238",
            "code": "1002-5",
            "display": "American Indian or Alaska Native",
            "userSelected": true
          }
        }, {
          "url": "text",
          "valueString": "American Indian or Alaska Native"
        } ]
      }, {
        "url": "http://hl7.org/fhir/us/core/StructureDefinition/us-core-ethnicity",
        "extension": [ {
          "url": "ombCategory",
          "valueCoding": {
            "system": "urn:oid:2.16.840.1.113883.6.238",
            "code": "2135-2",
            "display": "Hispanic or Latino",
            "userSelected": true
          }
        }, {
          "url": "text",
          "valueString": "Hispanic or Latino"
        } ]
      } ],
      "identifier": [ {
        "type": {
          "coding": [ {
            "system": "http://terminology.hl7.org/CodeSystem/v2-0203",
            "code": "MR"
          } ]
        },
        "system": "https://bonnie-fhir.healthit.gov/",
        "value": "612e6e8702c62a011f2eebda"
      } ],
      "active": true,
      "name": [ {
        "use": "usual",
        "family": "DENEXPass",
        "given": [ "CMOPerf_DayAfterAnes_ProcRvltDT" ]
      } ],
      "gender": "female",
      "birthDate": "1975-03-03"
    },
    "request": {
      "method": "PUT",
      "url": "Patient/f028ed8f-f83b-4c77-bb08-2c4df7694a12"
    }
  }, {
    "fullUrl": "https://madie.cms.gov/Encounter/9f845a75-6945-4ef5-8a73-d0eb47f6f2a7",
    "resource": {
      "resourceType": "Encounter",
      "id": "9f845a75-6945-4ef5-8a73-d0eb47f6f2a7",
      "meta": {
        "profile": [ "http://hl7.org/fhir/us/qicore/StructureDefinition/qicore-encounter" ]
      },
      "status": "finished",
      "class": {
        "system": "http://terminology.hl7.org/CodeSystem/v3-ActCode",
        "code": "IMP",
        "display": "inpatient encounter"
      },
      "type": [ {
        "coding": [ {
          "system": "http://snomed.info/sct",
          "code": "8715000"
        } ]
      } ],
      "subject": {
        "reference": "Patient/f028ed8f-f83b-4c77-bb08-2c4df7694a12"
      },
      "period": {
        "start": "2026-12-04T08:00:00.000+00:00",
        "end": "2026-12-30T08:15:00.000+00:00"
      },
      "length": {
        "value": 26.0,
        "unit": "days"
      },
      "location": [ {
        "location": {
          "reference": "Location/aa77d6e9-a4ba-434e-99c9-e56be209d1b9"
        },
        "period": {
          "start": "2026-12-06T08:00:00.000+00:00",
          "end": "2026-12-12T08:15:00.000+00:00"
        }
      } ]
    },
    "request": {
      "method": "PUT",
      "url": "Encounter/9f845a75-6945-4ef5-8a73-d0eb47f6f2a7"
    }
  }, {
    "fullUrl": "https://madie.cms.gov/Procedure/6951b4a7-6f5b-4089-9c9b-61abe95c48e1",
    "resource": {
      "resourceType": "Procedure",
      "id": "6951b4a7-6f5b-4089-9c9b-61abe95c48e1",
      "meta": {
        "profile": [ "http://hl7.org/fhir/us/qicore/StructureDefinition/qicore-procedure" ]
      },
      "extension": [ {
        "url": "http://hl7.org/fhir/us/qicore/StructureDefinition/qicore-recorded",
        "valueDateTime": "2013-12-04T13:35:00.000+00:00"
      } ],
      "status": "completed",
      "code": {
        "coding": [ {
          "system": "http://snomed.info/sct",
          "code": "133918004"
        } ]
      },
      "subject": {
        "reference": "Patient/f028ed8f-f83b-4c77-bb08-2c4df7694a12"
      },
      "performedDateTime": "2026-12-08T08:00:00.000+00:00"
    },
    "request": {
      "method": "PUT",
      "url": "Procedure/6951b4a7-6f5b-4089-9c9b-61abe95c48e1"
    }
  }, {
    "fullUrl": "https://madie.cms.gov/Coverage/4c93b625-8518-4319-912d-021e7cd1fa13",
    "resource": {
      "resourceType": "Coverage",
      "id": "4c93b625-8518-4319-912d-021e7cd1fa13",
      "status": "active",
      "beneficiary": {
        "reference": "Patient/f028ed8f-f83b-4c77-bb08-2c4df7694a12"
      },
      "period": {
        "start": "1975-03-03T08:00:00.000+00:00"
      },
      "payor": [ {
        "reference": "Organization/d0b5942d-82d7-40c9-b3a1-2974787df941"
      } ]
    },
    "request": {
      "method": "PUT",
      "url": "Coverage/4c93b625-8518-4319-912d-021e7cd1fa13"
    }
  }, {
    "fullUrl": "https://madie.cms.gov/Procedure/3a5ebc86-6ec8-45d2-97df-52316c158f38",
    "resource": {
      "resourceType": "Procedure",
      "id": "3a5ebc86-6ec8-45d2-97df-52316c158f38",
      "meta": {
        "profile": [ "http://hl7.org/fhir/us/qicore/StructureDefinition/qicore-procedure" ]
      },
      "extension": [ {
        "url": "http://hl7.org/fhir/us/qicore/StructureDefinition/qicore-recorded",
        "valueDateTime": "2013-12-09T13:35:00.000+00:00"
      } ],
      "status": "completed",
      "code": {
        "coding": [ {
          "system": "http://snomed.info/sct",
          "code": "18946005"
        } ]
      },
      "subject": {
        "reference": "Patient/f028ed8f-f83b-4c77-bb08-2c4df7694a12"
      },
      "performedPeriod": {
        "end": "2026-12-07T11:15:00.000+00:00"
      }
    },
    "request": {
      "method": "PUT",
      "url": "Procedure/3a5ebc86-6ec8-45d2-97df-52316c158f38"
    }
  }, {
    "fullUrl": "https://madie.cms.gov/Location/aa77d6e9-a4ba-434e-99c9-e56be209d1b9",
    "resource": {
      "resourceType": "Location",
      "id": "aa77d6e9-a4ba-434e-99c9-e56be209d1b9",
      "meta": {
        "profile": [ "http://hl7.org/fhir/us/qicore/StructureDefinition/qicore-location" ]
      },
      "identifier": [ {
        "use": "usual",
        "system": "http://exampleoflocation.com",
        "value": "B1-S.F2"
      } ],
      "name": "Medical Surgical East, first floor",
      "type": [ {
        "coding": [ {
          "system": "https://www.cdc.gov/nhsn/cdaportal/terminology/codesystem/hsloc.html",
          "code": "1025-6",
          "display": "Trauma Critical Care",
          "userSelected": true
        } ]
      } ]
    },
    "request": {
      "method": "PUT",
      "url": "Location/aa77d6e9-a4ba-434e-99c9-e56be209d1b9"
    }
  }, {
    "fullUrl": "https://madie.cms.gov/Organization/d0b5942d-82d7-40c9-b3a1-2974787df941",
    "resource": {
      "resourceType": "Organization",
      "id": "d0b5942d-82d7-40c9-b3a1-2974787df941",
      "meta": {
        "profile": [ "http://hl7.org/fhir/us/qicore/StructureDefinition/qicore-organization" ]
      },
      "identifier": [ {
        "use": "temp",
        "system": "urn:oid:2.16.840.1.113883.4.4",
        "value": "21-3259825"
      } ],
      "active": true,
      "type": [ {
        "coding": [ {
          "system": "http://terminology.hl7.org/CodeSystem/organization-type",
          "code": "pay",
          "display": "Payer"
        } ]
      } ],
      "name": "Blue Cross Blue Shield of Texas",
      "telecom": [ {
        "system": "phone",
        "value": "(+1) 972-766-6900"
      } ],
      "address": [ {
        "use": "billing",
        "type": "postal",
        "line": [ "P.O. Box 660044" ],
        "city": "Dallas",
        "state": "TX",
        "postalCode": "75266-0044",
        "country": "USA"
      } ]
    },
    "request": {
      "method": "PUT",
      "url": "Organization/d0b5942d-82d7-40c9-b3a1-2974787df941"
    }
  }, {
    "fullUrl": "https://madie.cms.gov/Practitioner/84056e70-0b53-4548-9799-fbbe920a690a",
    "resource": {
      "resourceType": "Practitioner",
      "id": "84056e70-0b53-4548-9799-fbbe920a690a",
      "identifier": [ {
        "system": "http://hl7.org/fhir/sid/us-npi",
        "value": "123456"
      } ],
      "name": [ {
        "family": "Evil",
        "prefix": [ "Dr" ]
      } ]
    },
    "request": {
      "method": "PUT",
      "url": "Practitioner/84056e70-0b53-4548-9799-fbbe920a690a"
    }
  }, {
    "fullUrl": "https://madie.cms.gov/MeasureReport/09c62810-5edd-4606-89e1-eafcae1b8d5b",
    "resource": {
      "resourceType": "MeasureReport",
      "id": "09c62810-5edd-4606-89e1-eafcae1b8d5b",
      "meta": {
        "profile": [ "http://hl7.org/fhir/us/cqfmeasures/StructureDefinition/test-case-cqfm" ]
      },
      "contained": [ {
        "resourceType": "Parameters",
        "id": "3b15db85-e895-43a7-beb2-3c9de6ba3521-parameters",
        "parameter": [ {
          "name": "subject",
          "valueString": "f028ed8f-f83b-4c77-bb08-2c4df7694a12"
        } ]
      } ],
      "extension": [ {
        "url": "http://hl7.org/fhir/StructureDefinition/cqf-inputParameters",
        "valueReference": {
          "reference": "#3b15db85-e895-43a7-beb2-3c9de6ba3521-parameters"
        }
      }, {
        "url": "http://hl7.org/fhir/us/cqfmeasures/StructureDefinition/cqfm-testCaseDescription",
        "valueMarkdown": "comfort measures starts after neuraxial anesthesia by using Procedure relevant datetime. Using RevelantDT for both CMP and anethesia\n"
      } ],
      "modifierExtension": [ {
        "url": "http://hl7.org/fhir/us/cqfmeasures/StructureDefinition/cqfm-isTestCase",
        "valueBoolean": true
      } ],
      "status": "complete",
      "type": "individual",
      "measure": "https://madie.cms.gov/Measure/CMS190FHIRVTEProphylaxisICU",
      "period": {
        "start": "2026-01-01",
        "end": "2026-12-31"
      },
      "group": [ {
        "id": "Group_1",
        "population": [ {
          "id": "InitialPopulation_1",
          "code": {
            "coding": [ {
              "system": "http://terminology.hl7.org/CodeSystem/measure-population",
              "code": "initial-population",
              "display": "Initial Population"
            } ]
          },
          "count": 1
        }, {
          "id": "Denominator_1",
          "code": {
            "coding": [ {
              "system": "http://terminology.hl7.org/CodeSystem/measure-population",
              "code": "denominator",
              "display": "Denominator"
            } ]
          },
          "count": 1
        }, {
          "id": "DenominatorExclusion_1",
          "code": {
            "coding": [ {
              "system": "http://terminology.hl7.org/CodeSystem/measure-population",
              "code": "denominator-exclusion",
              "display": "Denominator Exclusion"
            } ]
          },
          "count": 1
        }, {
          "id": "Numerator_1",
          "code": {
            "coding": [ {
              "system": "http://terminology.hl7.org/CodeSystem/measure-population",
              "code": "numerator",
              "display": "Numerator"
            } ]
          },
          "count": 0
        }, {
          "id": "DenominatorException_1",
          "code": {
            "coding": [ {
              "system": "http://terminology.hl7.org/CodeSystem/measure-population",
              "code": "denominator-exception",
              "display": "Denominator Exception"
            } ]
          },
          "count": 0
        } ],
        "measureScore": {
          "value": 0.0
        }
      } ],
      "evaluatedResource": [ {
        "reference": "Patient/f028ed8f-f83b-4c77-bb08-2c4df7694a12"
      }, {
        "reference": "Encounter/9f845a75-6945-4ef5-8a73-d0eb47f6f2a7"
      }, {
        "reference": "Procedure/6951b4a7-6f5b-4089-9c9b-61abe95c48e1"
      }, {
        "reference": "Coverage/4c93b625-8518-4319-912d-021e7cd1fa13"
      }, {
        "reference": "Procedure/3a5ebc86-6ec8-45d2-97df-52316c158f38"
      }, {
        "reference": "Location/aa77d6e9-a4ba-434e-99c9-e56be209d1b9"
      }, {
        "reference": "Organization/d0b5942d-82d7-40c9-b3a1-2974787df941"
      }, {
        "reference": "Practitioner/84056e70-0b53-4548-9799-fbbe920a690a"
      } ]
    },
    "request": {
      "method": "PUT",
      "url": "MeasureReport/09c62810-5edd-4606-89e1-eafcae1b8d5b"
    }
  } ]
}