{
  "resourceType": "Bundle",
  "id": "612e6b5d02c62a011f2ed7ba",
  "type": "transaction",
  "entry": [ {
    "fullUrl": "https://madie.cms.gov/Patient/439d95f5-58cd-485f-bbb4-a3915592af72",
    "resource": {
      "resourceType": "Patient",
      "id": "439d95f5-58cd-485f-bbb4-a3915592af72",
      "meta": {
        "profile": [ "http://hl7.org/fhir/us/qicore/StructureDefinition/qicore-patient" ]
      },
      "text": {
        "status": "generated",
        "div": "<div xmlns=\"http://www.w3.org/1999/xhtml\"><div class=\"hapiHeaderText\">MAUHepEDendTimeOnIPEncStrtTm <b>NUMERPASS </b></div><table class=\"hapiPropertyTable\"><tbody><tr><td>Identifier</td><td>613a0a42598b5d681406521f174c78ac</td></tr><tr><td>Date of birth</td><td><span>02 January 1974</span></td></tr></tbody></table></div>"
      },
      "extension": [ {
        "url": "http://hl7.org/fhir/us/core/StructureDefinition/us-core-race",
        "extension": [ {
          "url": "ombCategory",
          "valueCoding": {
            "system": "urn:oid:2.16.840.1.113883.6.238",
            "code": "1002-5",
            "display": "American Indian or Alaska Native",
            "userSelected": true
          }
        }, {
          "url": "text",
          "valueString": "American Indian or Alaska Native"
        } ]
      }, {
        "url": "http://hl7.org/fhir/us/core/StructureDefinition/us-core-ethnicity",
        "extension": [ {
          "url": "ombCategory",
          "valueCoding": {
            "system": "urn:oid:2.16.840.1.113883.6.238",
            "code": "2135-2",
            "display": "Hispanic or Latino",
            "userSelected": true
          }
        }, {
          "url": "text",
          "valueString": "Hispanic or Latino"
        } ]
      } ],
      "identifier": [ {
        "type": {
          "coding": [ {
            "system": "http://terminology.hl7.org/CodeSystem/v2-0203",
            "code": "MR"
          } ]
        },
        "system": "https://bonnie-fhir.healthit.gov/",
        "value": "612e6b5d02c62a011f2ed7ba"
      } ],
      "active": true,
      "name": [ {
        "use": "usual",
        "family": "NUMERPass",
        "given": [ "MAUHepEDendTimeOnIPEncStrtTm" ]
      } ],
      "gender": "male",
      "birthDate": "1975-01-02"
    },
    "request": {
      "method": "PUT",
      "url": "Patient/439d95f5-58cd-485f-bbb4-a3915592af72"
    }
  }, {
    "fullUrl": "https://madie.cms.gov/Encounter/b3348a5e-d22f-4425-bb65-aa18b4011eca",
    "resource": {
      "resourceType": "Encounter",
      "id": "b3348a5e-d22f-4425-bb65-aa18b4011eca",
      "meta": {
        "profile": [ "http://hl7.org/fhir/us/qicore/StructureDefinition/qicore-encounter" ]
      },
      "status": "finished",
      "class": {
        "system": "http://terminology.hl7.org/CodeSystem/v3-ActCode",
        "code": "EMER",
        "display": "emergency"
      },
      "type": [ {
        "coding": [ {
          "system": "http://snomed.info/sct",
          "code": "4525004"
        } ]
      } ],
      "subject": {
        "reference": "Patient/439d95f5-58cd-485f-bbb4-a3915592af72"
      },
      "period": {
        "start": "2026-10-30T06:00:00.000+00:00",
        "end": "2026-11-01T08:00:00.000+00:00"
      },
      "length": {
        "value": 2.0,
        "unit": "days"
      }
    },
    "request": {
      "method": "PUT",
      "url": "Encounter/b3348a5e-d22f-4425-bb65-aa18b4011eca"
    }
  }, {
    "fullUrl": "https://madie.cms.gov/Encounter/6b6118a9-8389-45d2-8b46-a4b5f60a7890",
    "resource": {
      "resourceType": "Encounter",
      "id": "6b6118a9-8389-45d2-8b46-a4b5f60a7890",
      "meta": {
        "profile": [ "http://hl7.org/fhir/us/qicore/StructureDefinition/qicore-encounter" ]
      },
      "status": "finished",
      "class": {
        "system": "http://terminology.hl7.org/CodeSystem/v3-ActCode",
        "code": "IMP",
        "display": "inpatient encounter"
      },
      "type": [ {
        "coding": [ {
          "system": "http://snomed.info/sct",
          "code": "8715000"
        } ]
      } ],
      "subject": {
        "reference": "Patient/439d95f5-58cd-485f-bbb4-a3915592af72"
      },
      "period": {
        "start": "2026-11-01T08:00:00.000+00:00",
        "end": "2026-11-26T08:15:00.000+00:00"
      },
      "length": {
        "value": 25.0,
        "unit": "days"
      },
      "location": [ {
        "location": {
          "reference": "Location/425f2c2b-780a-45a5-ba3a-45ebdb3bb2e0"
        },
        "period": {
          "start": "2026-11-02T09:00:00.000+00:00",
          "end": "2026-11-10T08:15:00.000+00:00"
        }
      } ]
    },
    "request": {
      "method": "PUT",
      "url": "Encounter/6b6118a9-8389-45d2-8b46-a4b5f60a7890"
    }
  }, {
    "fullUrl": "https://madie.cms.gov/Coverage/0f9b0bd2-cad6-4347-93b6-bff807248979",
    "resource": {
      "resourceType": "Coverage",
      "id": "0f9b0bd2-cad6-4347-93b6-bff807248979",
      "status": "active",
      "beneficiary": {
        "reference": "Patient/439d95f5-58cd-485f-bbb4-a3915592af72"
      },
      "period": {
        "start": "1975-01-02T08:00:00.000+00:00"
      },
      "payor": [ {
        "reference": "Organization/0b421cef-7453-4920-b6ba-ff8c9ddb979b"
      } ]
    },
    "request": {
      "method": "PUT",
      "url": "Coverage/0f9b0bd2-cad6-4347-93b6-bff807248979"
    }
  }, {
    "fullUrl": "https://madie.cms.gov/MedicationAdministration/cede6d2f-faa5-4f10-be6d-d34da4377c7a",
    "resource": {
      "resourceType": "MedicationAdministration",
      "id": "cede6d2f-faa5-4f10-be6d-d34da4377c7a",
      "meta": {
        "profile": [ "http://hl7.org/fhir/us/qicore/StructureDefinition/qicore-medicationadministration" ]
      },
      "status": "completed",
      "medicationCodeableConcept": {
        "coding": [ {
          "system": "http://www.nlm.nih.gov/research/umls/rxnorm",
          "code": "1361607"
        } ]
      },
      "subject": {
        "reference": "Patient/439d95f5-58cd-485f-bbb4-a3915592af72"
      },
      "effectivePeriod": {
        "start": "2026-11-01T06:00:00.000+00:00",
        "end": "2026-11-01T07:00:00.000+00:00"
      },
      "dosage": {
        "route": {
          "coding": [ {
            "system": "http://snomed.info/sct",
            "code": "418114005",
            "display": "Intravenous route"
          } ]
        },
        "dose": {
          "value": 500,
          "unit": "ml",
          "system": "http://unitsofmeasure.org",
          "code": "ml"
        }
      }
    },
    "request": {
      "method": "PUT",
      "url": "MedicationAdministration/cede6d2f-faa5-4f10-be6d-d34da4377c7a"
    }
  }, {
    "fullUrl": "https://madie.cms.gov/Location/425f2c2b-780a-45a5-ba3a-45ebdb3bb2e0",
    "resource": {
      "resourceType": "Location",
      "id": "425f2c2b-780a-45a5-ba3a-45ebdb3bb2e0",
      "meta": {
        "profile": [ "http://hl7.org/fhir/us/qicore/StructureDefinition/qicore-location" ]
      },
      "identifier": [ {
        "use": "usual",
        "system": "http://exampleoflocation.com",
        "value": "B1-S.F2"
      } ],
      "name": "Medical Surgical East, first floor",
      "type": [ {
        "coding": [ {
          "system": "https://www.cdc.gov/nhsn/cdaportal/terminology/codesystem/hsloc.html",
          "code": "1025-6",
          "display": "Trauma Critical Care",
          "userSelected": true
        } ]
      } ]
    },
    "request": {
      "method": "PUT",
      "url": "Location/425f2c2b-780a-45a5-ba3a-45ebdb3bb2e0"
    }
  }, {
    "fullUrl": "https://madie.cms.gov/Organization/0b421cef-7453-4920-b6ba-ff8c9ddb979b",
    "resource": {
      "resourceType": "Organization",
      "id": "0b421cef-7453-4920-b6ba-ff8c9ddb979b",
      "meta": {
        "profile": [ "http://hl7.org/fhir/us/qicore/StructureDefinition/qicore-organization" ]
      },
      "identifier": [ {
        "use": "temp",
        "system": "urn:oid:2.16.840.1.113883.4.4",
        "value": "21-3259825"
      } ],
      "active": true,
      "type": [ {
        "coding": [ {
          "system": "http://terminology.hl7.org/CodeSystem/organization-type",
          "code": "pay",
          "display": "Payer"
        } ]
      } ],
      "name": "Blue Cross Blue Shield of Texas",
      "telecom": [ {
        "system": "phone",
        "value": "(+1) 972-766-6900"
      } ],
      "address": [ {
        "use": "billing",
        "type": "postal",
        "line": [ "P.O. Box 660044" ],
        "city": "Dallas",
        "state": "TX",
        "postalCode": "75266-0044",
        "country": "USA"
      } ]
    },
    "request": {
      "method": "PUT",
      "url": "Organization/0b421cef-7453-4920-b6ba-ff8c9ddb979b"
    }
  }, {
    "fullUrl": "https://madie.cms.gov/Practitioner/f886b053-1657-45b4-8e87-c62380481af8",
    "resource": {
      "resourceType": "Practitioner",
      "id": "f886b053-1657-45b4-8e87-c62380481af8",
      "identifier": [ {
        "system": "http://hl7.org/fhir/sid/us-npi",
        "value": "123456"
      } ],
      "name": [ {
        "family": "Evil",
        "prefix": [ "Dr" ]
      } ]
    },
    "request": {
      "method": "PUT",
      "url": "Practitioner/f886b053-1657-45b4-8e87-c62380481af8"
    }
  }, {
    "fullUrl": "https://madie.cms.gov/MeasureReport/f304515c-c821-40e8-be20-2b31088e3732",
    "resource": {
      "resourceType": "MeasureReport",
      "id": "f304515c-c821-40e8-be20-2b31088e3732",
      "meta": {
        "profile": [ "http://hl7.org/fhir/us/cqfmeasures/StructureDefinition/test-case-cqfm" ]
      },
      "contained": [ {
        "resourceType": "Parameters",
        "id": "8f4c5743-58a6-4b6c-b043-430a93a3530b-parameters",
        "parameter": [ {
          "name": "subject",
          "valueString": "439d95f5-58cd-485f-bbb4-a3915592af72"
        } ]
      } ],
      "extension": [ {
        "url": "http://hl7.org/fhir/StructureDefinition/cqf-inputParameters",
        "valueReference": {
          "reference": "#8f4c5743-58a6-4b6c-b043-430a93a3530b-parameters"
        }
      }, {
        "url": "http://hl7.org/fhir/us/cqfmeasures/StructureDefinition/cqfm-testCaseDescription",
        "valueMarkdown": "meets IPP, meets Denominator, medication administered:Unfractionated Heparin Route:IV during ED, ED endTime on Start of encounter\n"
      } ],
      "modifierExtension": [ {
        "url": "http://hl7.org/fhir/us/cqfmeasures/StructureDefinition/cqfm-isTestCase",
        "valueBoolean": true
      } ],
      "status": "complete",
      "type": "individual",
      "measure": "https://madie.cms.gov/Measure/CMS190FHIRVTEProphylaxisICU",
      "period": {
        "start": "2026-01-01",
        "end": "2026-12-31"
      },
      "group": [ {
        "id": "Group_1",
        "population": [ {
          "id": "InitialPopulation_1",
          "code": {
            "coding": [ {
              "system": "http://terminology.hl7.org/CodeSystem/measure-population",
              "code": "initial-population",
              "display": "Initial Population"
            } ]
          },
          "count": 1
        }, {
          "id": "Denominator_1",
          "code": {
            "coding": [ {
              "system": "http://terminology.hl7.org/CodeSystem/measure-population",
              "code": "denominator",
              "display": "Denominator"
            } ]
          },
          "count": 1
        }, {
          "id": "DenominatorExclusion_1",
          "code": {
            "coding": [ {
              "system": "http://terminology.hl7.org/CodeSystem/measure-population",
              "code": "denominator-exclusion",
              "display": "Denominator Exclusion"
            } ]
          },
          "count": 0
        }, {
          "id": "Numerator_1",
          "code": {
            "coding": [ {
              "system": "http://terminology.hl7.org/CodeSystem/measure-population",
              "code": "numerator",
              "display": "Numerator"
            } ]
          },
          "count": 1
        }, {
          "id": "DenominatorException_1",
          "code": {
            "coding": [ {
              "system": "http://terminology.hl7.org/CodeSystem/measure-population",
              "code": "denominator-exception",
              "display": "Denominator Exception"
            } ]
          },
          "count": 0
        } ],
        "measureScore": {
          "value": 0.0
        }
      } ],
      "evaluatedResource": [ {
        "reference": "Patient/439d95f5-58cd-485f-bbb4-a3915592af72"
      }, {
        "reference": "Encounter/b3348a5e-d22f-4425-bb65-aa18b4011eca"
      }, {
        "reference": "Encounter/6b6118a9-8389-45d2-8b46-a4b5f60a7890"
      }, {
        "reference": "Coverage/0f9b0bd2-cad6-4347-93b6-bff807248979"
      }, {
        "reference": "MedicationAdministration/cede6d2f-faa5-4f10-be6d-d34da4377c7a"
      }, {
        "reference": "Location/425f2c2b-780a-45a5-ba3a-45ebdb3bb2e0"
      }, {
        "reference": "Organization/0b421cef-7453-4920-b6ba-ff8c9ddb979b"
      }, {
        "reference": "Practitioner/f886b053-1657-45b4-8e87-c62380481af8"
      } ]
    },
    "request": {
      "method": "PUT",
      "url": "MeasureReport/f304515c-c821-40e8-be20-2b31088e3732"
    }
  } ]
}