{
  "resourceType": "Bundle",
  "id": "tests-NUMERFail-AntagonistAfterEncounterEnds-bundle",
  "type": "transaction",
  "entry": [ {
    "fullUrl": "https://madie.cms.gov/MedicationAdministration/7cc3858d-1de4-4afd-953e-b2942bc2b307",
    "resource": {
      "resourceType": "MedicationAdministration",
      "id": "7cc3858d-1de4-4afd-953e-b2942bc2b307",
      "meta": {
        "profile": [ "http://hl7.org/fhir/us/qicore/StructureDefinition/qicore-medicationadministration" ]
      },
      "status": "completed",
      "medicationCodeableConcept": {
        "coding": [ {
          "system": "http://www.nlm.nih.gov/research/umls/rxnorm",
          "code": "1191222",
          "display": "Opioid Antagonist"
        } ]
      },
      "subject": {
        "reference": "Patient/b88740a3-5143-4b36-ae0d-75a6b95db7e2"
      },
      "context": {
        "reference": "Encounter/77ed7d9e-56d2-49f6-86f0-749539f45aa0"
      },
      "effectiveDateTime": "2026-10-31T08:16:00.000+00:00",
      "note": [ {
        "text": "Administered opioid antagonist intravenously as prescribed."
      } ],
      "dosage": {
        "route": {
          "coding": [ {
            "system": "http://terminology.hl7.org/CodeSystem/v3-RouteOfAdministration",
            "code": "26643006",
            "display": "Intravenous"
          } ]
        },
        "rateQuantity": {
          "value": 2,
          "unit": "mg"
        }
      }
    },
    "request": {
      "method": "PUT",
      "url": "MedicationAdministration/7cc3858d-1de4-4afd-953e-b2942bc2b307"
    }
  }, {
    "fullUrl": "https://madie.cms.gov/MedicationAdministration/74a6d953-647c-407a-bb4d-f6ebfac4bd4a",
    "resource": {
      "resourceType": "MedicationAdministration",
      "id": "74a6d953-647c-407a-bb4d-f6ebfac4bd4a",
      "meta": {
        "profile": [ "http://hl7.org/fhir/us/qicore/StructureDefinition/qicore-medicationadministration" ]
      },
      "status": "completed",
      "medicationCodeableConcept": {
        "coding": [ {
          "system": "http://www.nlm.nih.gov/research/umls/rxnorm",
          "code": "1010600",
          "display": "Opioids, All"
        } ]
      },
      "subject": {
        "reference": "Patient/b88740a3-5143-4b36-ae0d-75a6b95db7e2"
      },
      "context": {
        "reference": "Encounter/77ed7d9e-56d2-49f6-86f0-749539f45aa0"
      },
      "effectiveDateTime": "2026-10-31T08:00:00.000+00:00",
      "note": [ {
        "text": "Administered opioid medication as prescribed."
      } ],
      "dosage": {
        "rateQuantity": {
          "value": 1,
          "unit": "mg"
        }
      }
    },
    "request": {
      "method": "PUT",
      "url": "MedicationAdministration/74a6d953-647c-407a-bb4d-f6ebfac4bd4a"
    }
  }, {
    "fullUrl": "https://madie.cms.gov/Encounter/77ed7d9e-56d2-49f6-86f0-749539f45aa0",
    "resource": {
      "resourceType": "Encounter",
      "id": "77ed7d9e-56d2-49f6-86f0-749539f45aa0",
      "meta": {
        "profile": [ "http://hl7.org/fhir/us/qicore/StructureDefinition/qicore-encounter" ]
      },
      "status": "finished",
      "class": {
        "system": "http://terminology.hl7.org/CodeSystem/v3-ActCode",
        "code": "IMP",
        "display": "inpatient encounter"
      },
      "type": [ {
        "coding": [ {
          "system": "http://snomed.info/sct",
          "code": "183452005",
          "display": "Inpatient encounter"
        } ]
      } ],
      "subject": {
        "reference": "Patient/b88740a3-5143-4b36-ae0d-75a6b95db7e2"
      },
      "period": {
        "start": "2026-10-30T08:00:00.000+00:00",
        "end": "2026-10-31T08:15:00.000+00:00"
      }
    },
    "request": {
      "method": "PUT",
      "url": "Encounter/77ed7d9e-56d2-49f6-86f0-749539f45aa0"
    }
  }, {
    "fullUrl": "https://madie.cms.gov/Patient/b88740a3-5143-4b36-ae0d-75a6b95db7e2",
    "resource": {
      "resourceType": "Patient",
      "id": "b88740a3-5143-4b36-ae0d-75a6b95db7e2",
      "meta": {
        "profile": [ "http://hl7.org/fhir/us/qicore/StructureDefinition/qicore-patient" ]
      },
      "extension": [ {
        "url": "http://hl7.org/fhir/us/core/StructureDefinition/us-core-race",
        "extension": [ {
          "url": "ombCategory",
          "valueCoding": {
            "system": "urn:oid:2.16.840.1.113883.6.238",
            "code": "2106-3",
            "display": "White"
          }
        }, {
          "url": "text",
          "valueString": "White"
        } ]
      }, {
        "url": "http://hl7.org/fhir/us/core/StructureDefinition/us-core-ethnicity",
        "extension": [ {
          "url": "ombCategory",
          "valueCoding": {
            "system": "urn:oid:2.16.840.1.113883.6.238",
            "code": "2135-2",
            "display": "Hispanic or Latino"
          }
        }, {
          "url": "text",
          "valueString": "Hispanic or Latino"
        } ]
      }, {
        "url": "http://hl7.org/fhir/us/core/StructureDefinition/us-core-sex",
        "valueCode": "248153007"
      } ],
      "identifier": [ {
        "system": "http://hospital.smarthealthit.org",
        "value": "999999999"
      } ],
      "name": [ {
        "family": "Example",
        "given": [ "Patient" ]
      } ],
      "gender": "female",
      "birthDate": "1956-01-01"
    },
    "request": {
      "method": "PUT",
      "url": "Patient/b88740a3-5143-4b36-ae0d-75a6b95db7e2"
    }
  }, {
    "fullUrl": "https://madie.cms.gov/MeasureReport/6f55389c-7bfe-4eec-baa0-87fdc7c0bf2f",
    "resource": {
      "resourceType": "MeasureReport",
      "id": "6f55389c-7bfe-4eec-baa0-87fdc7c0bf2f",
      "meta": {
        "profile": [ "http://hl7.org/fhir/us/cqfmeasures/StructureDefinition/test-case-cqfm" ]
      },
      "contained": [ {
        "resourceType": "Parameters",
        "id": "04e6dc18-192f-4b82-afd4-52084acc97b9-parameters",
        "parameter": [ {
          "name": "subject",
          "valueString": "b88740a3-5143-4b36-ae0d-75a6b95db7e2"
        } ]
      } ],
      "extension": [ {
        "url": "http://hl7.org/fhir/StructureDefinition/cqf-inputParameters",
        "valueReference": {
          "reference": "#04e6dc18-192f-4b82-afd4-52084acc97b9-parameters"
        }
      }, {
        "url": "http://hl7.org/fhir/us/cqfmeasures/StructureDefinition/cqfm-testCaseDescription",
        "valueMarkdown": "Opioid antagonist outside of OR given 1 minute after encounter end date time. Must be during encounter to meet. Numerator fails."
      } ],
      "modifierExtension": [ {
        "url": "http://hl7.org/fhir/us/cqfmeasures/StructureDefinition/cqfm-isTestCase",
        "valueBoolean": true
      } ],
      "status": "complete",
      "type": "individual",
      "measure": "https://madie.cms.gov/Measure/CMS819FHIRHHORAE",
      "period": {
        "start": "2026-01-01",
        "end": "2026-12-31"
      },
      "group": [ {
        "id": "Group_1",
        "population": [ {
          "id": "InitialPopulation_1",
          "code": {
            "coding": [ {
              "system": "http://terminology.hl7.org/CodeSystem/measure-population",
              "code": "initial-population",
              "display": "Initial Population"
            } ]
          },
          "count": 1
        }, {
          "id": "Denominator_1",
          "code": {
            "coding": [ {
              "system": "http://terminology.hl7.org/CodeSystem/measure-population",
              "code": "denominator",
              "display": "Denominator"
            } ]
          },
          "count": 1
        }, {
          "id": "Numerator_1",
          "code": {
            "coding": [ {
              "system": "http://terminology.hl7.org/CodeSystem/measure-population",
              "code": "numerator",
              "display": "Numerator"
            } ]
          },
          "count": 0
        } ],
        "measureScore": {
          "value": 0.0
        }
      } ],
      "evaluatedResource": [ {
        "reference": "MedicationAdministration/7cc3858d-1de4-4afd-953e-b2942bc2b307"
      }, {
        "reference": "MedicationAdministration/74a6d953-647c-407a-bb4d-f6ebfac4bd4a"
      }, {
        "reference": "Encounter/77ed7d9e-56d2-49f6-86f0-749539f45aa0"
      }, {
        "reference": "Patient/b88740a3-5143-4b36-ae0d-75a6b95db7e2"
      } ]
    },
    "request": {
      "method": "PUT",
      "url": "MeasureReport/6f55389c-7bfe-4eec-baa0-87fdc7c0bf2f"
    }
  } ]
}