{
  "resourceType": "Bundle",
  "id": "612e6b9302c62a011f2ee63c",
  "type": "transaction",
  "entry": [ {
    "fullUrl": "https://madie.cms.gov/Patient/f981eba4-4aac-45ce-8c52-f0bc02c9a0dc",
    "resource": {
      "resourceType": "Patient",
      "id": "f981eba4-4aac-45ce-8c52-f0bc02c9a0dc",
      "meta": {
        "profile": [ "http://hl7.org/fhir/us/qicore/StructureDefinition/qicore-patient" ]
      },
      "text": {
        "status": "generated",
        "div": "<div xmlns=\"http://www.w3.org/1999/xhtml\"><div class=\"hapiHeaderText\">PtRefDOIPC2DayAFEncBFICU <b>NUMERPASS </b></div><table class=\"hapiPropertyTable\"><tbody><tr><td>Identifier</td><td>24fc1ce85ce14557dd4d9eba17df9f17</td></tr><tr><td>Date of birth</td><td><span>02 January 1974</span></td></tr></tbody></table></div>"
      },
      "extension": [ {
        "url": "http://hl7.org/fhir/us/core/StructureDefinition/us-core-race",
        "extension": [ {
          "url": "ombCategory",
          "valueCoding": {
            "system": "urn:oid:2.16.840.1.113883.6.238",
            "code": "1002-5",
            "display": "American Indian or Alaska Native",
            "userSelected": true
          }
        }, {
          "url": "text",
          "valueString": "American Indian or Alaska Native"
        } ]
      }, {
        "url": "http://hl7.org/fhir/us/core/StructureDefinition/us-core-ethnicity",
        "extension": [ {
          "url": "ombCategory",
          "valueCoding": {
            "system": "urn:oid:2.16.840.1.113883.6.238",
            "code": "2135-2",
            "display": "Hispanic or Latino",
            "userSelected": true
          }
        }, {
          "url": "text",
          "valueString": "Hispanic or Latino"
        } ]
      } ],
      "identifier": [ {
        "type": {
          "coding": [ {
            "system": "http://terminology.hl7.org/CodeSystem/v2-0203",
            "code": "MR"
          } ]
        },
        "system": "https://bonnie-fhir.healthit.gov/",
        "value": "612e6b9302c62a011f2ee63c"
      } ],
      "active": true,
      "name": [ {
        "use": "usual",
        "family": "NUMERPass",
        "given": [ "PtRefDOVFPTaskReject" ]
      } ],
      "gender": "male",
      "birthDate": "1975-01-02"
    },
    "request": {
      "method": "PUT",
      "url": "Patient/f981eba4-4aac-45ce-8c52-f0bc02c9a0dc"
    }
  }, {
    "fullUrl": "https://madie.cms.gov/Encounter/93090832-88fe-4bc8-b163-8f7120df4368",
    "resource": {
      "resourceType": "Encounter",
      "id": "93090832-88fe-4bc8-b163-8f7120df4368",
      "meta": {
        "profile": [ "http://hl7.org/fhir/us/qicore/StructureDefinition/qicore-encounter" ]
      },
      "status": "finished",
      "class": {
        "system": "http://terminology.hl7.org/CodeSystem/v3-ActCode",
        "code": "IMP",
        "display": "inpatient encounter"
      },
      "type": [ {
        "coding": [ {
          "system": "http://snomed.info/sct",
          "code": "8715000"
        } ]
      } ],
      "subject": {
        "reference": "Patient/f981eba4-4aac-45ce-8c52-f0bc02c9a0dc"
      },
      "period": {
        "start": "2026-11-01T08:00:00.000+00:00",
        "end": "2026-11-26T08:15:00.000+00:00"
      },
      "length": {
        "value": 25,
        "unit": "days"
      },
      "location": [ {
        "location": {
          "reference": "Location/9d543119-744b-45e3-b9fa-0f73d2cd614f"
        },
        "period": {
          "start": "2026-11-04T09:00:00.000+00:00",
          "end": "2026-11-06T08:15:00.000+00:00"
        }
      } ]
    },
    "request": {
      "method": "PUT",
      "url": "Encounter/93090832-88fe-4bc8-b163-8f7120df4368"
    }
  }, {
    "fullUrl": "https://madie.cms.gov/Coverage/de5f6fe8-0c61-4464-a5de-6c0b6ab67324",
    "resource": {
      "resourceType": "Coverage",
      "id": "de5f6fe8-0c61-4464-a5de-6c0b6ab67324",
      "status": "active",
      "beneficiary": {
        "reference": "Patient/f981eba4-4aac-45ce-8c52-f0bc02c9a0dc"
      },
      "period": {
        "start": "1975-01-02T08:00:00.000+00:00"
      },
      "payor": [ {
        "reference": "Organization/d49612a8-47fe-4075-a0ca-26f9302d6ad2"
      } ]
    },
    "request": {
      "method": "PUT",
      "url": "Coverage/de5f6fe8-0c61-4464-a5de-6c0b6ab67324"
    }
  }, {
    "fullUrl": "https://madie.cms.gov/ServiceRequest/8201b70e-d3af-400c-bd83-c131fff19c6a",
    "resource": {
      "resourceType": "ServiceRequest",
      "id": "8201b70e-d3af-400c-bd83-c131fff19c6a",
      "meta": {
        "profile": [ "http://hl7.org/fhir/us/qicore/StructureDefinition/qicore-servicerequest" ]
      },
      "status": "active",
      "intent": "order",
      "code": {
        "coding": [ {
          "system": "http://snomed.info/sct",
          "code": "442023007",
          "display": "Venous foot pump, device (physical object)",
          "userSelected": true
        } ]
      },
      "subject": {
        "reference": "Patient/f981eba4-4aac-45ce-8c52-f0bc02c9a0dc"
      },
      "authoredOn": "2026-11-03T11:00:00.000+00:00"
    },
    "request": {
      "method": "PUT",
      "url": "ServiceRequest/8201b70e-d3af-400c-bd83-c131fff19c6a"
    }
  }, {
    "fullUrl": "https://madie.cms.gov/Task/670be0e1-8e96-4ad1-94b9-6d2b048465de",
    "resource": {
      "resourceType": "Task",
      "id": "670be0e1-8e96-4ad1-94b9-6d2b048465de",
      "meta": {
        "profile": [ "http://hl7.org/fhir/us/qicore/StructureDefinition/qicore-taskrejected" ]
      },
      "status": "rejected",
      "statusReason": {
        "coding": [ {
          "system": "http://snomed.info/sct",
          "code": "443390004",
          "display": "Refusal of treatment by patient (situation)",
          "userSelected": true
        } ]
      },
      "code": {
        "coding": [ {
          "system": "http://hl7.org/fhir/CodeSystem/task-code",
          "code": "fulfill"
        } ]
      },
      "focus": {
        "reference": "ServiceRequest/8201b70e-d3af-400c-bd83-c131fff19c6a"
      },
      "executionPeriod": {
        "start": "2026-11-03T19:00:00.000+00:00",
        "end": "2026-11-03T19:00:00.000+00:00"
      }
    },
    "request": {
      "method": "PUT",
      "url": "Task/670be0e1-8e96-4ad1-94b9-6d2b048465de"
    }
  }, {
    "fullUrl": "https://madie.cms.gov/Location/9d543119-744b-45e3-b9fa-0f73d2cd614f",
    "resource": {
      "resourceType": "Location",
      "id": "9d543119-744b-45e3-b9fa-0f73d2cd614f",
      "meta": {
        "profile": [ "http://hl7.org/fhir/us/qicore/StructureDefinition/qicore-location" ]
      },
      "identifier": [ {
        "use": "usual",
        "system": "http://exampleoflocation.com",
        "value": "B1-S.F2"
      } ],
      "name": "Medical Surgical East, first floor",
      "type": [ {
        "coding": [ {
          "system": "https://www.cdc.gov/nhsn/cdaportal/terminology/codesystem/hsloc.html",
          "code": "1025-6",
          "display": "Trauma Critical Care",
          "userSelected": true
        } ]
      } ]
    },
    "request": {
      "method": "PUT",
      "url": "Location/9d543119-744b-45e3-b9fa-0f73d2cd614f"
    }
  }, {
    "fullUrl": "https://madie.cms.gov/Organization/d49612a8-47fe-4075-a0ca-26f9302d6ad2",
    "resource": {
      "resourceType": "Organization",
      "id": "d49612a8-47fe-4075-a0ca-26f9302d6ad2",
      "meta": {
        "profile": [ "http://hl7.org/fhir/us/qicore/StructureDefinition/qicore-organization" ]
      },
      "identifier": [ {
        "use": "temp",
        "system": "urn:oid:2.16.840.1.113883.4.4",
        "value": "21-3259825"
      } ],
      "active": true,
      "type": [ {
        "coding": [ {
          "system": "http://terminology.hl7.org/CodeSystem/organization-type",
          "code": "pay",
          "display": "Payer"
        } ]
      } ],
      "name": "Blue Cross Blue Shield of Texas",
      "telecom": [ {
        "system": "phone",
        "value": "(+1) 972-766-6900"
      } ],
      "address": [ {
        "use": "billing",
        "type": "postal",
        "line": [ "P.O. Box 660044" ],
        "city": "Dallas",
        "state": "TX",
        "postalCode": "75266-0044",
        "country": "USA"
      } ]
    },
    "request": {
      "method": "PUT",
      "url": "Organization/d49612a8-47fe-4075-a0ca-26f9302d6ad2"
    }
  }, {
    "fullUrl": "https://madie.cms.gov/Practitioner/29da229e-6899-4cff-89a8-b5906037ce8c",
    "resource": {
      "resourceType": "Practitioner",
      "id": "29da229e-6899-4cff-89a8-b5906037ce8c",
      "identifier": [ {
        "system": "http://hl7.org/fhir/sid/us-npi",
        "value": "123456"
      } ],
      "name": [ {
        "family": "Evil",
        "prefix": [ "Dr" ]
      } ]
    },
    "request": {
      "method": "PUT",
      "url": "Practitioner/29da229e-6899-4cff-89a8-b5906037ce8c"
    }
  }, {
    "fullUrl": "https://madie.cms.gov/MeasureReport/01143c30-f69f-464f-99fd-405617644ce8",
    "resource": {
      "resourceType": "MeasureReport",
      "id": "01143c30-f69f-464f-99fd-405617644ce8",
      "meta": {
        "profile": [ "http://hl7.org/fhir/us/cqfmeasures/StructureDefinition/test-case-cqfm" ]
      },
      "contained": [ {
        "resourceType": "Parameters",
        "id": "4c5412ab-41fd-43d2-aeaa-32f7a3cdc39f-parameters",
        "parameter": [ {
          "name": "subject",
          "valueString": "f981eba4-4aac-45ce-8c52-f0bc02c9a0dc"
        } ]
      } ],
      "extension": [ {
        "url": "http://hl7.org/fhir/StructureDefinition/cqf-inputParameters",
        "valueReference": {
          "reference": "#4c5412ab-41fd-43d2-aeaa-32f7a3cdc39f-parameters"
        }
      }, {
        "url": "http://hl7.org/fhir/us/cqfmeasures/StructureDefinition/cqfm-testCaseDescription",
        "valueMarkdown": "meets IPP, meets Denominator, IPC ordered not done under TaskReject\n"
      } ],
      "modifierExtension": [ {
        "url": "http://hl7.org/fhir/us/cqfmeasures/StructureDefinition/cqfm-isTestCase",
        "valueBoolean": true
      } ],
      "status": "complete",
      "type": "individual",
      "measure": "https://madie.cms.gov/Measure/CMS190FHIRVTEProphylaxisICU",
      "period": {
        "start": "2026-01-01",
        "end": "2026-12-31"
      },
      "group": [ {
        "id": "Group_1",
        "population": [ {
          "id": "InitialPopulation_1",
          "code": {
            "coding": [ {
              "system": "http://terminology.hl7.org/CodeSystem/measure-population",
              "code": "initial-population",
              "display": "Initial Population"
            } ]
          },
          "count": 1
        }, {
          "id": "Denominator_1",
          "code": {
            "coding": [ {
              "system": "http://terminology.hl7.org/CodeSystem/measure-population",
              "code": "denominator",
              "display": "Denominator"
            } ]
          },
          "count": 1
        }, {
          "id": "DenominatorExclusion_1",
          "code": {
            "coding": [ {
              "system": "http://terminology.hl7.org/CodeSystem/measure-population",
              "code": "denominator-exclusion",
              "display": "Denominator Exclusion"
            } ]
          },
          "count": 0
        }, {
          "id": "Numerator_1",
          "code": {
            "coding": [ {
              "system": "http://terminology.hl7.org/CodeSystem/measure-population",
              "code": "numerator",
              "display": "Numerator"
            } ]
          },
          "count": 1
        }, {
          "id": "DenominatorException_1",
          "code": {
            "coding": [ {
              "system": "http://terminology.hl7.org/CodeSystem/measure-population",
              "code": "denominator-exception",
              "display": "Denominator Exception"
            } ]
          },
          "count": 0
        } ],
        "measureScore": {
          "value": 0.0
        }
      } ],
      "evaluatedResource": [ {
        "reference": "Patient/f981eba4-4aac-45ce-8c52-f0bc02c9a0dc"
      }, {
        "reference": "Encounter/93090832-88fe-4bc8-b163-8f7120df4368"
      }, {
        "reference": "Coverage/de5f6fe8-0c61-4464-a5de-6c0b6ab67324"
      }, {
        "reference": "ServiceRequest/8201b70e-d3af-400c-bd83-c131fff19c6a"
      }, {
        "reference": "Task/670be0e1-8e96-4ad1-94b9-6d2b048465de"
      }, {
        "reference": "Location/9d543119-744b-45e3-b9fa-0f73d2cd614f"
      }, {
        "reference": "Organization/d49612a8-47fe-4075-a0ca-26f9302d6ad2"
      }, {
        "reference": "Practitioner/29da229e-6899-4cff-89a8-b5906037ce8c"
      } ]
    },
    "request": {
      "method": "PUT",
      "url": "MeasureReport/01143c30-f69f-464f-99fd-405617644ce8"
    }
  } ]
}