{
  "resourceType": "Bundle",
  "id": "63487c2f0968f801225401a8",
  "type": "transaction",
  "entry": [ {
    "fullUrl": "https://madie.cms.gov/Patient/298c7561-670d-426e-8df0-28667037b43c",
    "resource": {
      "resourceType": "Patient",
      "id": "298c7561-670d-426e-8df0-28667037b43c",
      "meta": {
        "profile": [ "http://hl7.org/fhir/us/qicore/StructureDefinition/qicore-patient" ]
      },
      "text": {
        "status": "generated",
        "div": "<div xmlns=\"http://www.w3.org/1999/xhtml\"><div class=\"hapiHeaderText\">CalcEGALastBothNull_EDDRvltPeriodDuringEDOB <b>DENPASS </b></div><table class=\"hapiPropertyTable\"><tbody><tr><td>Identifier</td><td>b00b06f67015bda652373741cca10f65466d828e3a674df9528f73ec417ce0bb</td></tr><tr><td>Date of birth</td><td><span>14 February 1985</span></td></tr></tbody></table></div>"
      },
      "extension": [ {
        "url": "http://hl7.org/fhir/us/core/StructureDefinition/us-core-race",
        "extension": [ {
          "url": "ombCategory",
          "valueCoding": {
            "system": "urn:oid:2.16.840.1.113883.6.238",
            "code": "1002-5",
            "display": "American Indian or Alaska Native",
            "userSelected": true
          }
        }, {
          "url": "text",
          "valueString": "American Indian or Alaska Native"
        } ]
      }, {
        "url": "http://hl7.org/fhir/us/core/StructureDefinition/us-core-ethnicity",
        "extension": [ {
          "url": "ombCategory",
          "valueCoding": {
            "system": "urn:oid:2.16.840.1.113883.6.238",
            "code": "2135-2",
            "display": "Hispanic or Latino",
            "userSelected": true
          }
        }, {
          "url": "text",
          "valueString": "Hispanic or Latino"
        } ]
      } ],
      "identifier": [ {
        "type": {
          "coding": [ {
            "system": "http://terminology.hl7.org/CodeSystem/v2-0203",
            "code": "MR"
          } ]
        },
        "system": "https://bonnie-fhir.healthit.gov/",
        "value": "63487c2f0968f801225401a8"
      } ],
      "active": true,
      "name": [ {
        "use": "usual",
        "family": "DENPass",
        "given": [ "CalcEGALastBothNull_EDDRvltPeriodDuringEDOB" ]
      } ],
      "gender": "female",
      "birthDate": "1998-02-14"
    },
    "request": {
      "method": "PUT",
      "url": "Patient/298c7561-670d-426e-8df0-28667037b43c"
    }
  }, {
    "fullUrl": "https://madie.cms.gov/Observation/548dbf04-e07e-4a60-9629-a62d44022229",
    "resource": {
      "resourceType": "Observation",
      "id": "548dbf04-e07e-4a60-9629-a62d44022229",
      "meta": {
        "profile": [ "http://hl7.org/fhir/us/qicore/StructureDefinition/qicore-simple-observation" ]
      },
      "status": "final",
      "category": [ {
        "coding": [ {
          "system": "http://terminology.hl7.org/CodeSystem/observation-category",
          "code": "exam",
          "display": "exam",
          "userSelected": true
        } ]
      } ],
      "code": {
        "coding": [ {
          "system": "http://loinc.org",
          "code": "93857-1"
        } ]
      },
      "subject": {
        "reference": "Patient/298c7561-670d-426e-8df0-28667037b43c"
      },
      "effectiveDateTime": "2026-01-15T08:00:00.000+00:00",
      "valueDateTime": "2026-01-15T08:00:00.000+00:00"
    },
    "request": {
      "method": "PUT",
      "url": "Observation/548dbf04-e07e-4a60-9629-a62d44022229"
    }
  }, {
    "fullUrl": "https://madie.cms.gov/Observation/551c6969-54ed-4f8f-81fd-e0563a5497b7",
    "resource": {
      "resourceType": "Observation",
      "id": "551c6969-54ed-4f8f-81fd-e0563a5497b7",
      "meta": {
        "profile": [ "http://hl7.org/fhir/us/qicore/StructureDefinition/qicore-simple-observation" ]
      },
      "status": "final",
      "category": [ {
        "coding": [ {
          "system": "http://terminology.hl7.org/CodeSystem/observation-category",
          "code": "exam",
          "display": "exam",
          "userSelected": true
        } ]
      } ],
      "code": {
        "coding": [ {
          "system": "http://loinc.org",
          "code": "11778-8"
        } ]
      },
      "subject": {
        "reference": "Patient/298c7561-670d-426e-8df0-28667037b43c"
      },
      "effectiveDateTime": "2026-01-15T07:00:00.000+00:00",
      "valueDateTime": "2026-02-04T08:00:00.000+00:00"
    },
    "request": {
      "method": "PUT",
      "url": "Observation/551c6969-54ed-4f8f-81fd-e0563a5497b7"
    }
  }, {
    "fullUrl": "https://madie.cms.gov/Observation/63669bb3-68d6-4e93-ac9d-01529bb6ec31",
    "resource": {
      "resourceType": "Observation",
      "id": "63669bb3-68d6-4e93-ac9d-01529bb6ec31",
      "meta": {
        "profile": [ "http://hl7.org/fhir/us/qicore/StructureDefinition/qicore-simple-observation" ]
      },
      "status": "final",
      "category": [ {
        "coding": [ {
          "system": "http://terminology.hl7.org/CodeSystem/observation-category",
          "code": "exam",
          "display": "exam",
          "userSelected": true
        } ]
      } ],
      "code": {
        "coding": [ {
          "system": "http://loinc.org",
          "code": "11996-6"
        } ]
      },
      "subject": {
        "reference": "Patient/298c7561-670d-426e-8df0-28667037b43c"
      },
      "effectiveDateTime": "2026-01-15T07:59:00.000+00:00",
      "valueInteger": 1
    },
    "request": {
      "method": "PUT",
      "url": "Observation/63669bb3-68d6-4e93-ac9d-01529bb6ec31"
    }
  }, {
    "fullUrl": "https://madie.cms.gov/Observation/a8f5685d-4cb3-41a0-b112-5d0bf26267f0",
    "resource": {
      "resourceType": "Observation",
      "id": "a8f5685d-4cb3-41a0-b112-5d0bf26267f0",
      "meta": {
        "profile": [ "http://hl7.org/fhir/us/qicore/StructureDefinition/qicore-simple-observation" ]
      },
      "status": "final",
      "category": [ {
        "coding": [ {
          "system": "http://terminology.hl7.org/CodeSystem/observation-category",
          "code": "exam",
          "display": "exam",
          "userSelected": true
        } ]
      } ],
      "code": {
        "coding": [ {
          "system": "http://loinc.org",
          "code": "11778-8"
        } ]
      },
      "subject": {
        "reference": "Patient/298c7561-670d-426e-8df0-28667037b43c"
      }
    },
    "request": {
      "method": "PUT",
      "url": "Observation/a8f5685d-4cb3-41a0-b112-5d0bf26267f0"
    }
  }, {
    "fullUrl": "https://madie.cms.gov/Observation/882045ef-4c25-49ce-9017-698427a305ba",
    "resource": {
      "resourceType": "Observation",
      "id": "882045ef-4c25-49ce-9017-698427a305ba",
      "meta": {
        "profile": [ "http://hl7.org/fhir/us/qicore/StructureDefinition/qicore-simple-observation" ]
      },
      "status": "final",
      "category": [ {
        "coding": [ {
          "system": "http://terminology.hl7.org/CodeSystem/observation-category",
          "code": "exam",
          "display": "exam",
          "userSelected": true
        } ]
      } ],
      "code": {
        "coding": [ {
          "system": "http://loinc.org",
          "code": "93857-1"
        } ]
      },
      "subject": {
        "reference": "Patient/298c7561-670d-426e-8df0-28667037b43c"
      }
    },
    "request": {
      "method": "PUT",
      "url": "Observation/882045ef-4c25-49ce-9017-698427a305ba"
    }
  }, {
    "fullUrl": "https://madie.cms.gov/Encounter/f68f585b-a998-4332-9c83-bed8d9a29393",
    "resource": {
      "resourceType": "Encounter",
      "id": "f68f585b-a998-4332-9c83-bed8d9a29393",
      "meta": {
        "profile": [ "http://hl7.org/fhir/us/qicore/StructureDefinition/qicore-encounter" ]
      },
      "status": "finished",
      "class": {
        "system": "http://terminology.hl7.org/CodeSystem/v3-ActCode",
        "code": "IMP",
        "display": "inpatient encounter"
      },
      "type": [ {
        "coding": [ {
          "system": "http://snomed.info/sct",
          "code": "183452005"
        } ]
      } ],
      "subject": {
        "reference": "Patient/298c7561-670d-426e-8df0-28667037b43c"
      },
      "period": {
        "start": "2026-01-15T08:00:00.000+00:00",
        "end": "2026-01-20T08:15:00.000+00:00"
      },
      "reasonReference": [ {
        "reference": "Condition/3c3cbed8-a5ae-448c-86f9-600041f35d6b"
      } ]
    },
    "request": {
      "method": "PUT",
      "url": "Encounter/f68f585b-a998-4332-9c83-bed8d9a29393"
    }
  }, {
    "fullUrl": "https://madie.cms.gov/Procedure/68e9461e-8ad2-448c-a3c8-60fd159d10db",
    "resource": {
      "resourceType": "Procedure",
      "id": "68e9461e-8ad2-448c-a3c8-60fd159d10db",
      "meta": {
        "profile": [ "http://hl7.org/fhir/us/qicore/StructureDefinition/qicore-procedure" ]
      },
      "extension": [ {
        "url": "http://hl7.org/fhir/us/qicore/StructureDefinition/qicore-recorded",
        "valueDateTime": "2014-04-05T13:35:00.000+00:00"
      } ],
      "status": "completed",
      "code": {
        "coding": [ {
          "system": "http://www.cms.gov/Medicare/Coding/ICD10",
          "code": "10D07Z3"
        } ]
      },
      "subject": {
        "reference": "Patient/298c7561-670d-426e-8df0-28667037b43c"
      },
      "performedPeriod": {
        "start": "2026-01-15T08:10:00.000+00:00",
        "end": "2026-01-15T09:14:00.000+00:00"
      }
    },
    "request": {
      "method": "PUT",
      "url": "Procedure/68e9461e-8ad2-448c-a3c8-60fd159d10db"
    }
  }, {
    "fullUrl": "https://madie.cms.gov/Condition/3c3cbed8-a5ae-448c-86f9-600041f35d6b",
    "resource": {
      "resourceType": "Condition",
      "id": "3c3cbed8-a5ae-448c-86f9-600041f35d6b",
      "meta": {
        "profile": [ "http://hl7.org/fhir/us/qicore/StructureDefinition/qicore-condition-encounter-diagnosis" ]
      },
      "category": [ {
        "coding": [ {
          "system": "http://terminology.hl7.org/CodeSystem/condition-category",
          "code": "encounter-diagnosis",
          "display": "Encounter Diagnosis"
        } ]
      } ],
      "code": {
        "coding": [ {
          "system": "http://snomed.info/sct",
          "version": "2022-09",
          "code": "169826009",
          "display": "Single live birth from singleton pregnancy (finding)",
          "userSelected": true
        } ]
      },
      "subject": {
        "reference": "Patient/298c7561-670d-426e-8df0-28667037b43c"
      },
      "encounter": {
        "reference": "Encounter/f68f585b-a998-4332-9c83-bed8d9a29393"
      },
      "recordedDate": "2026-10-20T08:00:00.000+00:00"
    },
    "request": {
      "method": "PUT",
      "url": "Condition/3c3cbed8-a5ae-448c-86f9-600041f35d6b"
    }
  }, {
    "fullUrl": "https://madie.cms.gov/Coverage/93304052-8491-445f-ab39-8908bd3bf1ab",
    "resource": {
      "resourceType": "Coverage",
      "id": "93304052-8491-445f-ab39-8908bd3bf1ab",
      "meta": {
        "profile": [ "http://hl7.org/fhir/us/qicore/StructureDefinition/qicore-coverage" ]
      },
      "status": "active",
      "subscriberId": "523435",
      "beneficiary": {
        "reference": "Patient/298c7561-670d-426e-8df0-28667037b43c"
      },
      "relationship": {
        "coding": [ {
          "system": "http://terminology.hl7.org/CodeSystem/subscriber-relationship",
          "code": "self"
        } ]
      },
      "payor": [ {
        "reference": "Organization/8c772fcc-f1d5-44a5-818d-6ad84986bdd3"
      } ]
    },
    "request": {
      "method": "PUT",
      "url": "Coverage/93304052-8491-445f-ab39-8908bd3bf1ab"
    }
  }, {
    "fullUrl": "https://madie.cms.gov/Organization/8c772fcc-f1d5-44a5-818d-6ad84986bdd3",
    "resource": {
      "resourceType": "Organization",
      "id": "8c772fcc-f1d5-44a5-818d-6ad84986bdd3",
      "meta": {
        "profile": [ "http://hl7.org/fhir/us/qicore/StructureDefinition/qicore-organization" ]
      },
      "identifier": [ {
        "use": "temp",
        "system": "urn:oid:2.16.840.1.113883.4.4",
        "value": "21-3259825"
      } ],
      "active": true,
      "type": [ {
        "coding": [ {
          "system": "http://terminology.hl7.org/CodeSystem/organization-type",
          "code": "pay",
          "display": "Payer"
        } ]
      } ],
      "name": "Blue Cross Blue Shield of Texas",
      "telecom": [ {
        "system": "phone",
        "value": "(+1) 972-766-6900"
      } ],
      "address": [ {
        "use": "billing",
        "type": "postal",
        "line": [ "P.O. Box 660044" ],
        "city": "Dallas",
        "state": "TX",
        "postalCode": "75266-0044",
        "country": "USA"
      } ]
    },
    "request": {
      "method": "PUT",
      "url": "Organization/8c772fcc-f1d5-44a5-818d-6ad84986bdd3"
    }
  }, {
    "fullUrl": "https://madie.cms.gov/Practitioner/79c79e8a-4002-448d-95c6-5c6642709308",
    "resource": {
      "resourceType": "Practitioner",
      "id": "79c79e8a-4002-448d-95c6-5c6642709308",
      "meta": {
        "profile": [ "http://hl7.org/fhir/us/qicore/StructureDefinition/qicore-practitioner" ]
      },
      "identifier": [ {
        "system": "http://hl7.org/fhir/sid/us-npi",
        "value": "1234567890"
      } ],
      "name": [ {
        "family": "Evil",
        "prefix": [ "Dr" ]
      } ]
    },
    "request": {
      "method": "PUT",
      "url": "Practitioner/79c79e8a-4002-448d-95c6-5c6642709308"
    }
  }, {
    "fullUrl": "https://madie.cms.gov/MeasureReport/fb3dc8f8-f2b2-4760-a3bf-b6876c1807c6",
    "resource": {
      "resourceType": "MeasureReport",
      "id": "fb3dc8f8-f2b2-4760-a3bf-b6876c1807c6",
      "meta": {
        "profile": [ "http://hl7.org/fhir/us/cqfmeasures/StructureDefinition/test-case-cqfm" ]
      },
      "contained": [ {
        "resourceType": "Parameters",
        "id": "5dae916e-1cb7-4578-90dc-2d562a282903-parameters",
        "parameter": [ {
          "name": "subject",
          "valueString": "298c7561-670d-426e-8df0-28667037b43c"
        } ]
      } ],
      "extension": [ {
        "url": "http://hl7.org/fhir/StructureDefinition/cqf-inputParameters",
        "valueReference": {
          "reference": "#5dae916e-1cb7-4578-90dc-2d562a282903-parameters"
        }
      }, {
        "url": "http://hl7.org/fhir/us/cqfmeasures/StructureDefinition/cqfm-testCaseDescription",
        "valueMarkdown": "Pt is 27 years of age,  encounter dx delivery of singleton, gravida=1red dt/time less than 42 weeks prior to delivery.  Both the LAST Est Deliv and the LAST Time of Deliv are NULL. However, previous EDD and Time of Del meet."
      } ],
      "modifierExtension": [ {
        "url": "http://hl7.org/fhir/us/cqfmeasures/StructureDefinition/cqfm-isTestCase",
        "valueBoolean": true
      } ],
      "status": "complete",
      "type": "individual",
      "measure": "https://madie.cms.gov/Measure/CMS0334FHIRPCCesareanBirth",
      "period": {
        "start": "2026-01-01",
        "end": "2026-12-31"
      },
      "group": [ {
        "id": "Group_1",
        "population": [ {
          "id": "InitialPopulation_1",
          "code": {
            "coding": [ {
              "system": "http://terminology.hl7.org/CodeSystem/measure-population",
              "code": "initial-population",
              "display": "Initial Population"
            } ]
          },
          "count": 1
        }, {
          "id": "Denominator_1",
          "code": {
            "coding": [ {
              "system": "http://terminology.hl7.org/CodeSystem/measure-population",
              "code": "denominator",
              "display": "Denominator"
            } ]
          },
          "count": 1
        }, {
          "id": "DenominatorExclusion_1",
          "code": {
            "coding": [ {
              "system": "http://terminology.hl7.org/CodeSystem/measure-population",
              "code": "denominator-exclusion",
              "display": "Denominator Exclusion"
            } ]
          },
          "count": 0
        }, {
          "id": "Numerator_1",
          "code": {
            "coding": [ {
              "system": "http://terminology.hl7.org/CodeSystem/measure-population",
              "code": "numerator",
              "display": "Numerator"
            } ]
          },
          "count": 0
        } ],
        "measureScore": {
          "value": 0.0
        }
      } ],
      "evaluatedResource": [ {
        "reference": "Patient/298c7561-670d-426e-8df0-28667037b43c"
      }, {
        "reference": "Observation/548dbf04-e07e-4a60-9629-a62d44022229"
      }, {
        "reference": "Observation/551c6969-54ed-4f8f-81fd-e0563a5497b7"
      }, {
        "reference": "Observation/63669bb3-68d6-4e93-ac9d-01529bb6ec31"
      }, {
        "reference": "Observation/a8f5685d-4cb3-41a0-b112-5d0bf26267f0"
      }, {
        "reference": "Observation/882045ef-4c25-49ce-9017-698427a305ba"
      }, {
        "reference": "Encounter/f68f585b-a998-4332-9c83-bed8d9a29393"
      }, {
        "reference": "Procedure/68e9461e-8ad2-448c-a3c8-60fd159d10db"
      }, {
        "reference": "Condition/3c3cbed8-a5ae-448c-86f9-600041f35d6b"
      }, {
        "reference": "Coverage/93304052-8491-445f-ab39-8908bd3bf1ab"
      }, {
        "reference": "Organization/8c772fcc-f1d5-44a5-818d-6ad84986bdd3"
      }, {
        "reference": "Practitioner/79c79e8a-4002-448d-95c6-5c6642709308"
      } ]
    },
    "request": {
      "method": "PUT",
      "url": "MeasureReport/fb3dc8f8-f2b2-4760-a3bf-b6876c1807c6"
    }
  } ]
}