{
  "resourceType": "Bundle",
  "id": "tests-NumerPass-OneHospitalizationTwoClaimsWithInjuryPOA-bundle",
  "type": "transaction",
  "entry": [ {
    "fullUrl": "https://madie.cms.gov/Encounter/a02b274a-0c81-4a73-8546-1423484d3901",
    "resource": {
      "resourceType": "Encounter",
      "id": "a02b274a-0c81-4a73-8546-1423484d3901",
      "meta": {
        "profile": [ "http://hl7.org/fhir/us/qicore/StructureDefinition/qicore-encounter" ]
      },
      "status": "finished",
      "class": {
        "system": "http://terminology.hl7.org/CodeSystem/v3-ActCode",
        "code": "IMP",
        "display": "inpatient encounter"
      },
      "type": [ {
        "coding": [ {
          "system": "http://snomed.info/sct",
          "code": "183452005"
        } ]
      } ],
      "subject": {
        "reference": "Patient/f90151aa-9bd6-4c0c-bed8-5d43fe7fb8bb"
      },
      "period": {
        "start": "2026-10-19T08:30:00.000+00:00",
        "end": "2026-10-21T08:15:00.000+00:00"
      },
      "reasonCode": [ {
        "coding": [ {
          "system": "http://snomed.info/sct",
          "code": "14047009"
        } ]
      }, {
        "coding": [ {
          "system": "http://snomed.info/sct",
          "code": "64859006"
        } ]
      } ]
    },
    "request": {
      "method": "PUT",
      "url": "Encounter/a02b274a-0c81-4a73-8546-1423484d3901"
    }
  }, {
    "fullUrl": "https://madie.cms.gov/Encounter/a9de9461-93ac-4290-8fd0-fa6d09e58fcc",
    "resource": {
      "resourceType": "Encounter",
      "id": "a9de9461-93ac-4290-8fd0-fa6d09e58fcc",
      "meta": {
        "profile": [ "http://hl7.org/fhir/us/qicore/StructureDefinition/qicore-encounter" ]
      },
      "status": "finished",
      "class": {
        "system": "http://terminology.hl7.org/CodeSystem/v3-ActCode",
        "code": "EMER",
        "display": "emergency encounter"
      },
      "type": [ {
        "coding": [ {
          "system": "http://snomed.info/sct",
          "code": "4525004"
        } ]
      } ],
      "subject": {
        "reference": "Patient/f90151aa-9bd6-4c0c-bed8-5d43fe7fb8bb"
      },
      "period": {
        "start": "2026-10-18T09:15:00.000+00:00",
        "end": "2026-10-19T08:15:00.000+00:00"
      }
    },
    "request": {
      "method": "PUT",
      "url": "Encounter/a9de9461-93ac-4290-8fd0-fa6d09e58fcc"
    }
  }, {
    "fullUrl": "https://madie.cms.gov/Patient/f90151aa-9bd6-4c0c-bed8-5d43fe7fb8bb",
    "resource": {
      "resourceType": "Patient",
      "id": "f90151aa-9bd6-4c0c-bed8-5d43fe7fb8bb",
      "meta": {
        "profile": [ "http://hl7.org/fhir/us/qicore/StructureDefinition/qicore-patient" ]
      },
      "extension": [ {
        "url": "http://hl7.org/fhir/us/core/StructureDefinition/us-core-race",
        "extension": [ {
          "url": "ombCategory",
          "valueCoding": {
            "system": "urn:oid:2.16.840.1.113883.6.238",
            "code": "2106-3",
            "display": "White"
          }
        }, {
          "url": "text",
          "valueString": "White"
        } ]
      }, {
        "url": "http://hl7.org/fhir/us/core/StructureDefinition/us-core-ethnicity",
        "extension": [ {
          "url": "ombCategory",
          "valueCoding": {
            "system": "urn:oid:2.16.840.1.113883.6.238",
            "code": "2135-2",
            "display": "Hispanic or Latino"
          }
        }, {
          "url": "text",
          "valueString": "Hispanic or Latino"
        } ]
      }, {
        "url": "http://hl7.org/fhir/us/core/StructureDefinition/us-core-sex",
        "valueCode": "248153007"
      } ],
      "identifier": [ {
        "system": "http://hospital.smarthealthit.org",
        "value": "999999999"
      } ],
      "name": [ {
        "family": "Example",
        "given": [ "Patient" ]
      } ],
      "gender": "female",
      "birthDate": "1956-01-01"
    },
    "request": {
      "method": "PUT",
      "url": "Patient/f90151aa-9bd6-4c0c-bed8-5d43fe7fb8bb"
    }
  }, {
    "fullUrl": "https://madie.cms.gov/Claim/cc533489-9774-4ded-8994-95a28d597c05",
    "resource": {
      "resourceType": "Claim",
      "id": "cc533489-9774-4ded-8994-95a28d597c05",
      "meta": {
        "profile": [ "http://hl7.org/fhir/us/qicore/StructureDefinition/qicore-claim" ]
      },
      "status": "active",
      "type": {
        "coding": [ {
          "system": "http://terminology.hl7.org/CodeSystem/claim-type",
          "code": "institutional",
          "display": "Institutional"
        } ]
      },
      "use": "claim",
      "patient": {
        "reference": "Patient/f90151aa-9bd6-4c0c-bed8-5d43fe7fb8bb"
      },
      "created": "2026-10-22",
      "provider": {
        "reference": "Practitioner/f3369985-bf45-41bd-aac0-273e2936d1e0"
      },
      "priority": {
        "coding": [ {
          "system": "http://terminology.hl7.org/CodeSystem/processpriority",
          "code": "normal"
        } ]
      },
      "diagnosis": [ {
        "sequence": 1,
        "diagnosisCodeableConcept": {
          "coding": [ {
            "system": "http://snomed.info/sct",
            "code": "14047009"
          } ]
        },
        "onAdmission": {
          "coding": [ {
            "system": "https://www.cms.gov/Medicare/Medicare-Fee-for-Service-Payment/HospitalAcqCond/Coding",
            "code": "N"
          } ]
        }
      } ],
      "insurance": [ {
        "sequence": 1,
        "focal": true,
        "coverage": {
          "reference": "Coverage/47d0b3b5-e882-46e1-b67b-fbdba0bbd309"
        }
      } ],
      "item": [ {
        "sequence": 1,
        "diagnosisSequence": [ 1, 2 ],
        "productOrService": {
          "coding": [ {
            "system": "http://terminology.hl7.org/CodeSystem/ex-USCLS",
            "code": "1101"
          } ]
        },
        "encounter": [ {
          "reference": "Encounter/a02b274a-0c81-4a73-8546-1423484d3901"
        } ]
      } ]
    },
    "request": {
      "method": "PUT",
      "url": "Claim/cc533489-9774-4ded-8994-95a28d597c05"
    }
  }, {
    "fullUrl": "https://madie.cms.gov/Claim/a1b98835-429a-4652-ba0c-92daa4148a2d",
    "resource": {
      "resourceType": "Claim",
      "id": "a1b98835-429a-4652-ba0c-92daa4148a2d",
      "meta": {
        "profile": [ "http://hl7.org/fhir/us/qicore/StructureDefinition/qicore-claim" ]
      },
      "status": "active",
      "type": {
        "coding": [ {
          "system": "http://terminology.hl7.org/CodeSystem/claim-type",
          "code": "institutional",
          "display": "Institutional"
        } ]
      },
      "use": "claim",
      "patient": {
        "reference": "Patient/f90151aa-9bd6-4c0c-bed8-5d43fe7fb8bb"
      },
      "created": "2026-11-01",
      "provider": {
        "reference": "Practitioner/f3369985-bf45-41bd-aac0-273e2936d1e0"
      },
      "priority": {
        "coding": [ {
          "system": "http://terminology.hl7.org/CodeSystem/processpriority",
          "code": "normal"
        } ]
      },
      "diagnosis": [ {
        "sequence": 2,
        "diagnosisCodeableConcept": {
          "coding": [ {
            "system": "http://hl7.org/fhir/sid/icd-10-cm",
            "code": "M80.00XA",
            "display": "Age-related osteoporosis with current pathological fracture, unspecified site, initial encounter for fracture"
          } ]
        },
        "onAdmission": {
          "coding": [ {
            "system": "https://www.cms.gov/Medicare/Medicare-Fee-for-Service-Payment/HospitalAcqCond/Coding",
            "code": "Y"
          } ]
        }
      } ],
      "insurance": [ {
        "sequence": 1,
        "focal": true,
        "coverage": {
          "reference": "Coverage/47d0b3b5-e882-46e1-b67b-fbdba0bbd309"
        }
      } ],
      "item": [ {
        "sequence": 2,
        "diagnosisSequence": [ 1, 2 ],
        "productOrService": {
          "coding": [ {
            "system": "http://terminology.hl7.org/CodeSystem/ex-USCLS",
            "code": "1101"
          } ]
        },
        "encounter": [ {
          "reference": "Encounter/a02b274a-0c81-4a73-8546-1423484d3901"
        } ]
      } ]
    },
    "request": {
      "method": "PUT",
      "url": "Claim/a1b98835-429a-4652-ba0c-92daa4148a2d"
    }
  }, {
    "fullUrl": "https://madie.cms.gov/Practitioner/f3369985-bf45-41bd-aac0-273e2936d1e0",
    "resource": {
      "resourceType": "Practitioner",
      "id": "f3369985-bf45-41bd-aac0-273e2936d1e0",
      "identifier": [ {
        "system": "http://www.cms.gov/identifiers/pracitioners",
        "value": "P12345"
      } ],
      "name": [ {
        "use": "official",
        "family": "Smith",
        "given": [ "John" ]
      } ],
      "qualification": [ {
        "identifier": [ {
          "system": "http://hl7.org/fhir/sid/us-npi",
          "value": "1234567890"
        } ],
        "code": {
          "coding": [ {
            "system": "http://terminology.hl7.org/CodeSystem/v2-0203",
            "code": "MD",
            "display": "Medical License number"
          } ]
        }
      } ]
    },
    "request": {
      "method": "PUT",
      "url": "Practitioner/f3369985-bf45-41bd-aac0-273e2936d1e0"
    }
  }, {
    "fullUrl": "https://madie.cms.gov/Coverage/47d0b3b5-e882-46e1-b67b-fbdba0bbd309",
    "resource": {
      "resourceType": "Coverage",
      "id": "47d0b3b5-e882-46e1-b67b-fbdba0bbd309",
      "status": "active",
      "beneficiary": {
        "reference": "Patient/f90151aa-9bd6-4c0c-bed8-5d43fe7fb8bb"
      },
      "payor": [ {
        "reference": "Organization/91de18c7-e204-4fda-becb-6f87a8046acf"
      } ]
    },
    "request": {
      "method": "PUT",
      "url": "Coverage/47d0b3b5-e882-46e1-b67b-fbdba0bbd309"
    }
  }, {
    "fullUrl": "https://madie.cms.gov/Organization/91de18c7-e204-4fda-becb-6f87a8046acf",
    "resource": {
      "resourceType": "Organization",
      "id": "91de18c7-e204-4fda-becb-6f87a8046acf",
      "identifier": [ {
        "system": "http://cms.gov/insurance-ids",
        "value": "AET12345"
      } ],
      "type": [ {
        "coding": [ {
          "system": "http://terminology.hl7.org/CodeSystem/organization-type",
          "code": "prov",
          "display": "Healthcare Provider"
        } ]
      } ],
      "name": "Aetna Insurance",
      "telecom": [ {
        "system": "phone",
        "value": "+1-800-123-4567"
      } ],
      "address": [ {
        "line": [ "123 Main Street" ],
        "city": "Cityville",
        "state": "CA",
        "postalCode": "12345",
        "country": "USA"
      } ]
    },
    "request": {
      "method": "PUT",
      "url": "Organization/91de18c7-e204-4fda-becb-6f87a8046acf"
    }
  }, {
    "fullUrl": "https://madie.cms.gov/MeasureReport/f4b4dd8f-02cb-4ed2-9318-79e72ed07d4a",
    "resource": {
      "resourceType": "MeasureReport",
      "id": "f4b4dd8f-02cb-4ed2-9318-79e72ed07d4a",
      "meta": {
        "profile": [ "http://hl7.org/fhir/us/cqfmeasures/StructureDefinition/test-case-cqfm" ]
      },
      "contained": [ {
        "resourceType": "Parameters",
        "id": "a25a1196-7d7d-48fa-bf7f-3f45a29c05ea-parameters",
        "parameter": [ {
          "name": "subject",
          "valueString": "f90151aa-9bd6-4c0c-bed8-5d43fe7fb8bb"
        } ]
      } ],
      "extension": [ {
        "url": "http://hl7.org/fhir/StructureDefinition/cqf-inputParameters",
        "valueReference": {
          "reference": "#a25a1196-7d7d-48fa-bf7f-3f45a29c05ea-parameters"
        }
      }, {
        "url": "http://hl7.org/fhir/us/cqfmeasures/StructureDefinition/cqfm-testCaseDescription",
        "valueMarkdown": "Test Case - Claim 1 - Fall with No POA\n Claim 2 - Injury with POA\nShould not be in Numerator since the Injury is POA"
      } ],
      "modifierExtension": [ {
        "url": "http://hl7.org/fhir/us/cqfmeasures/StructureDefinition/cqfm-isTestCase",
        "valueBoolean": true
      } ],
      "status": "complete",
      "type": "individual",
      "measure": "https://madie.cms.gov/Measure/CMS1017FHIRHHFI",
      "period": {
        "start": "2026-01-01",
        "end": "2026-12-31"
      },
      "group": [ {
        "id": "Group_1",
        "population": [ {
          "id": "InitialPopulation_1",
          "code": {
            "coding": [ {
              "system": "http://terminology.hl7.org/CodeSystem/measure-population",
              "code": "initial-population",
              "display": "Initial Population"
            } ]
          },
          "count": 1
        }, {
          "id": "Denominator_1",
          "code": {
            "coding": [ {
              "system": "http://terminology.hl7.org/CodeSystem/measure-population",
              "code": "denominator",
              "display": "Denominator"
            } ]
          },
          "count": 1
        }, {
          "id": "DenominatorExclusion_1",
          "code": {
            "coding": [ {
              "system": "http://terminology.hl7.org/CodeSystem/measure-population",
              "code": "denominator-exclusion",
              "display": "Denominator Exclusion"
            } ]
          },
          "count": 0
        }, {
          "id": "Numerator_1",
          "code": {
            "coding": [ {
              "system": "http://terminology.hl7.org/CodeSystem/measure-population",
              "code": "numerator",
              "display": "Numerator"
            } ]
          },
          "count": 0
        }, {
          "id": "NumeratorExclusion_1",
          "code": {
            "coding": [ {
              "system": "http://terminology.hl7.org/CodeSystem/measure-population",
              "code": "numerator-exclusion",
              "display": "Numerator Exclusion"
            } ]
          },
          "count": 0
        }, {
          "id": "MeasureObservation_1_1_1",
          "code": {
            "coding": [ {
              "system": "http://terminology.hl7.org/CodeSystem/measure-population",
              "code": "measure-observation",
              "display": "Measure Observation"
            } ]
          },
          "count": 2
        } ],
        "measureScore": {
          "value": 0.0
        }
      } ],
      "evaluatedResource": [ {
        "reference": "Encounter/a02b274a-0c81-4a73-8546-1423484d3901"
      }, {
        "reference": "Encounter/a9de9461-93ac-4290-8fd0-fa6d09e58fcc"
      }, {
        "reference": "Patient/f90151aa-9bd6-4c0c-bed8-5d43fe7fb8bb"
      }, {
        "reference": "Claim/cc533489-9774-4ded-8994-95a28d597c05"
      }, {
        "reference": "Claim/a1b98835-429a-4652-ba0c-92daa4148a2d"
      }, {
        "reference": "Practitioner/f3369985-bf45-41bd-aac0-273e2936d1e0"
      }, {
        "reference": "Coverage/47d0b3b5-e882-46e1-b67b-fbdba0bbd309"
      }, {
        "reference": "Organization/91de18c7-e204-4fda-becb-6f87a8046acf"
      } ]
    },
    "request": {
      "method": "PUT",
      "url": "MeasureReport/f4b4dd8f-02cb-4ed2-9318-79e72ed07d4a"
    }
  } ]
}