{
  "resourceType": "Bundle",
  "id": "64137c3e4b11b147841ab8fd",
  "type": "transaction",
  "entry": [ {
    "fullUrl": "https://madie.cms.gov/Patient/a9536c98-3157-4443-bfe1-ef4e585360be",
    "resource": {
      "resourceType": "Patient",
      "id": "a9536c98-3157-4443-bfe1-ef4e585360be",
      "meta": {
        "profile": [ "http://hl7.org/fhir/us/qicore/StructureDefinition/qicore-patient" ]
      },
      "extension": [ {
        "url": "http://hl7.org/fhir/us/core/StructureDefinition/us-core-race",
        "extension": [ {
          "url": "ombCategory",
          "valueCoding": {
            "system": "urn:oid:2.16.840.1.113883.6.238",
            "code": "1002-5",
            "display": "American Indian or Alaska Native",
            "userSelected": true
          }
        }, {
          "url": "text",
          "valueString": "American Indian or Alaska Native"
        } ]
      }, {
        "url": "http://hl7.org/fhir/us/core/StructureDefinition/us-core-ethnicity",
        "extension": [ {
          "url": "ombCategory",
          "valueCoding": {
            "system": "urn:oid:2.16.840.1.113883.6.238",
            "code": "2135-2",
            "display": "Hispanic or Latino",
            "userSelected": true
          }
        }, {
          "url": "text",
          "valueString": "Hispanic or Latino"
        } ]
      } ],
      "identifier": [ {
        "type": {
          "coding": [ {
            "system": "http://terminology.hl7.org/CodeSystem/v2-0203",
            "code": "MR"
          } ]
        },
        "system": "https://bonnie-fhir.healthit.gov/",
        "value": "64137c3e4b11b147841ab8fd"
      } ],
      "name": [ {
        "family": "DENOMPass",
        "given": [ "EdgeAge75Jan1" ]
      } ],
      "gender": "female",
      "birthDate": "1951-01-01"
    },
    "request": {
      "method": "PUT",
      "url": "Patient/a9536c98-3157-4443-bfe1-ef4e585360be"
    }
  }, {
    "fullUrl": "https://madie.cms.gov/Condition/b5ac731b-2281-40dc-9bdf-c527a54a7ea3",
    "resource": {
      "resourceType": "Condition",
      "id": "b5ac731b-2281-40dc-9bdf-c527a54a7ea3",
      "meta": {
        "profile": [ "http://hl7.org/fhir/us/qicore/StructureDefinition/qicore-condition-problems-health-concerns" ]
      },
      "clinicalStatus": {
        "coding": [ {
          "system": "http://terminology.hl7.org/CodeSystem/condition-clinical",
          "code": "active",
          "display": "active",
          "userSelected": true
        } ]
      },
      "category": [ {
        "coding": [ {
          "system": "http://terminology.hl7.org/CodeSystem/condition-category",
          "code": "problem-list-item",
          "display": "Problem List Item",
          "userSelected": true
        } ]
      } ],
      "code": {
        "coding": [ {
          "system": "http://snomed.info/sct",
          "version": "2021-09",
          "code": "102781000119107",
          "display": "Sensory neuropathy due to type 1 diabetes mellitus (disorder)",
          "userSelected": true
        } ]
      },
      "subject": {
        "reference": "Patient/a9536c98-3157-4443-bfe1-ef4e585360be"
      },
      "onsetDateTime": "2024-10-15T08:00:00.000+00:00"
    },
    "request": {
      "method": "PUT",
      "url": "Condition/b5ac731b-2281-40dc-9bdf-c527a54a7ea3"
    }
  }, {
    "fullUrl": "https://madie.cms.gov/Encounter/676d39c7-e1b1-44fb-bcac-2503649a3153",
    "resource": {
      "resourceType": "Encounter",
      "id": "676d39c7-e1b1-44fb-bcac-2503649a3153",
      "meta": {
        "profile": [ "http://hl7.org/fhir/us/qicore/StructureDefinition/qicore-encounter" ]
      },
      "status": "finished",
      "class": {
        "system": "http://terminology.hl7.org/CodeSystem/v3-ActCode",
        "code": "AMB",
        "display": "ambulatory",
        "userSelected": true
      },
      "type": [ {
        "coding": [ {
          "system": "http://snomed.info/sct",
          "version": "2021-09",
          "code": "281036007",
          "display": "Follow-up consultation (procedure)",
          "userSelected": true
        } ]
      } ],
      "subject": {
        "reference": "Patient/a9536c98-3157-4443-bfe1-ef4e585360be"
      },
      "period": {
        "start": "2026-03-16T08:00:00.000+00:00",
        "end": "2026-03-16T08:15:00.000+00:00"
      }
    },
    "request": {
      "method": "PUT",
      "url": "Encounter/676d39c7-e1b1-44fb-bcac-2503649a3153"
    }
  }, {
    "fullUrl": "https://madie.cms.gov/MeasureReport/981cc37e-91b0-4c2a-b935-96c844a1b213",
    "resource": {
      "resourceType": "MeasureReport",
      "id": "981cc37e-91b0-4c2a-b935-96c844a1b213",
      "meta": {
        "profile": [ "http://hl7.org/fhir/us/cqfmeasures/StructureDefinition/test-case-cqfm" ]
      },
      "contained": [ {
        "resourceType": "Parameters",
        "id": "5baa70f6-1659-4ea9-9316-0dbd235df866-parameters",
        "parameter": [ {
          "name": "subject",
          "valueString": "a9536c98-3157-4443-bfe1-ef4e585360be"
        } ]
      } ],
      "extension": [ {
        "url": "http://hl7.org/fhir/StructureDefinition/cqf-inputParameters",
        "valueReference": {
          "reference": "#5baa70f6-1659-4ea9-9316-0dbd235df866-parameters"
        }
      }, {
        "url": "http://hl7.org/fhir/us/cqfmeasures/StructureDefinition/cqfm-testCaseDescription",
        "valueMarkdown": "This patient is 75 years old, with a qualifying encounter and active diabetes diagnosis. This case tests the denominator criteria."
      } ],
      "modifierExtension": [ {
        "url": "http://hl7.org/fhir/us/cqfmeasures/StructureDefinition/cqfm-isTestCase",
        "valueBoolean": true
      } ],
      "status": "complete",
      "type": "individual",
      "measure": "https://madie.cms.gov/Measure/CMS951FHIRKidneyHealthEval",
      "period": {
        "start": "2026-01-01",
        "end": "2026-12-31"
      },
      "group": [ {
        "id": "Group_1",
        "population": [ {
          "id": "InitialPopulation_1",
          "code": {
            "coding": [ {
              "system": "http://terminology.hl7.org/CodeSystem/measure-population",
              "code": "initial-population",
              "display": "Initial Population"
            } ]
          },
          "count": 1
        }, {
          "id": "Denominator_1",
          "code": {
            "coding": [ {
              "system": "http://terminology.hl7.org/CodeSystem/measure-population",
              "code": "denominator",
              "display": "Denominator"
            } ]
          },
          "count": 1
        }, {
          "id": "DenominatorExclusion_1",
          "code": {
            "coding": [ {
              "system": "http://terminology.hl7.org/CodeSystem/measure-population",
              "code": "denominator-exclusion",
              "display": "Denominator Exclusion"
            } ]
          },
          "count": 0
        }, {
          "id": "Numerator_1",
          "code": {
            "coding": [ {
              "system": "http://terminology.hl7.org/CodeSystem/measure-population",
              "code": "numerator",
              "display": "Numerator"
            } ]
          },
          "count": 0
        } ],
        "measureScore": {
          "value": 1.0
        }
      } ],
      "evaluatedResource": [ {
        "reference": "Patient/a9536c98-3157-4443-bfe1-ef4e585360be"
      }, {
        "reference": "Condition/b5ac731b-2281-40dc-9bdf-c527a54a7ea3"
      }, {
        "reference": "Encounter/676d39c7-e1b1-44fb-bcac-2503649a3153"
      } ]
    },
    "request": {
      "method": "PUT",
      "url": "MeasureReport/981cc37e-91b0-4c2a-b935-96c844a1b213"
    }
  } ]
}