{
  "resourceType": "Bundle",
  "id": "612e6ab302c62a011f2eafaf",
  "type": "transaction",
  "entry": [ {
    "fullUrl": "https://madie.cms.gov/Patient/ccd7f9d7-35e8-4623-9f2e-f229cf7d829c",
    "resource": {
      "resourceType": "Patient",
      "id": "ccd7f9d7-35e8-4623-9f2e-f229cf7d829c",
      "meta": {
        "profile": [ "http://hl7.org/fhir/us/qicore/StructureDefinition/qicore-patient" ]
      },
      "text": {
        "status": "generated",
        "div": "<div xmlns=\"http://www.w3.org/1999/xhtml\"><div class=\"hapiHeaderText\">PtRef_DA_IPC_DuringOBS <b>NUMERPASS </b></div><table class=\"hapiPropertyTable\"><tbody><tr><td>Identifier</td><td>5f7ad5e9fc357bf072546722e2c19e60</td></tr><tr><td>Date of birth</td><td><span>02 January 1974</span></td></tr></tbody></table></div>"
      },
      "extension": [ {
        "url": "http://hl7.org/fhir/us/core/StructureDefinition/us-core-race",
        "extension": [ {
          "url": "ombCategory",
          "valueCoding": {
            "system": "urn:oid:2.16.840.1.113883.6.238",
            "code": "1002-5",
            "display": "American Indian or Alaska Native",
            "userSelected": true
          }
        }, {
          "url": "text",
          "valueString": "American Indian or Alaska Native"
        } ]
      }, {
        "url": "http://hl7.org/fhir/us/core/StructureDefinition/us-core-ethnicity",
        "extension": [ {
          "url": "ombCategory",
          "valueCoding": {
            "system": "urn:oid:2.16.840.1.113883.6.238",
            "code": "2135-2",
            "display": "Hispanic or Latino",
            "userSelected": true
          }
        }, {
          "url": "text",
          "valueString": "Hispanic or Latino"
        } ]
      } ],
      "identifier": [ {
        "type": {
          "coding": [ {
            "system": "http://terminology.hl7.org/CodeSystem/v2-0203",
            "code": "MR"
          } ]
        },
        "system": "https://bonnie-fhir.healthit.gov/",
        "value": "612e6ab302c62a011f2eafaf"
      } ],
      "active": true,
      "name": [ {
        "use": "usual",
        "family": "NUMERPass",
        "given": [ "PtRefDAIPCDuringOBS" ]
      } ],
      "gender": "male",
      "birthDate": "1975-01-02"
    },
    "request": {
      "method": "PUT",
      "url": "Patient/ccd7f9d7-35e8-4623-9f2e-f229cf7d829c"
    }
  }, {
    "fullUrl": "https://madie.cms.gov/Encounter/4f78b997-018a-4c7c-a084-831f4f051645",
    "resource": {
      "resourceType": "Encounter",
      "id": "4f78b997-018a-4c7c-a084-831f4f051645",
      "meta": {
        "profile": [ "http://hl7.org/fhir/us/qicore/StructureDefinition/qicore-encounter" ]
      },
      "status": "finished",
      "class": {
        "system": "http://terminology.hl7.org/CodeSystem/v3-ActCode",
        "code": "OBSENC",
        "display": "observation encounter"
      },
      "type": [ {
        "coding": [ {
          "system": "http://snomed.info/sct",
          "code": "448951000124107"
        } ]
      } ],
      "subject": {
        "reference": "Patient/ccd7f9d7-35e8-4623-9f2e-f229cf7d829c"
      },
      "period": {
        "start": "2026-10-31T05:00:00.000+00:00",
        "end": "2026-11-01T07:15:00.000+00:00"
      },
      "length": {
        "value": 1,
        "unit": "days"
      }
    },
    "request": {
      "method": "PUT",
      "url": "Encounter/4f78b997-018a-4c7c-a084-831f4f051645"
    }
  }, {
    "fullUrl": "https://madie.cms.gov/Encounter/fa9f9a47-e48a-4942-bf47-5419f628ce00",
    "resource": {
      "resourceType": "Encounter",
      "id": "fa9f9a47-e48a-4942-bf47-5419f628ce00",
      "meta": {
        "profile": [ "http://hl7.org/fhir/us/qicore/StructureDefinition/qicore-encounter" ]
      },
      "status": "finished",
      "class": {
        "system": "http://terminology.hl7.org/CodeSystem/v3-ActCode",
        "code": "IMP",
        "display": "inpatient encounter"
      },
      "type": [ {
        "coding": [ {
          "system": "http://snomed.info/sct",
          "code": "8715000"
        } ]
      } ],
      "subject": {
        "reference": "Patient/ccd7f9d7-35e8-4623-9f2e-f229cf7d829c"
      },
      "period": {
        "start": "2026-11-01T08:00:00.000+00:00",
        "end": "2026-11-26T08:15:00.000+00:00"
      },
      "length": {
        "value": 25,
        "unit": "days"
      }
    },
    "request": {
      "method": "PUT",
      "url": "Encounter/fa9f9a47-e48a-4942-bf47-5419f628ce00"
    }
  }, {
    "fullUrl": "https://madie.cms.gov/Coverage/92a17235-12e8-4d0d-a293-a60fc1ced4c1",
    "resource": {
      "resourceType": "Coverage",
      "id": "92a17235-12e8-4d0d-a293-a60fc1ced4c1",
      "status": "active",
      "beneficiary": {
        "reference": "Patient/ccd7f9d7-35e8-4623-9f2e-f229cf7d829c"
      },
      "period": {
        "start": "1975-01-02T08:00:00.000+00:00"
      },
      "payor": [ {
        "reference": "Organization/2a6d9794-fccd-4faf-b718-1a3292e11118"
      } ]
    },
    "request": {
      "method": "PUT",
      "url": "Coverage/92a17235-12e8-4d0d-a293-a60fc1ced4c1"
    }
  }, {
    "fullUrl": "https://madie.cms.gov/Procedure/d03fe5be-4758-41b3-8ff9-0e8b4515318a",
    "resource": {
      "resourceType": "Procedure",
      "id": "d03fe5be-4758-41b3-8ff9-0e8b4515318a",
      "meta": {
        "profile": [ "http://hl7.org/fhir/us/qicore/StructureDefinition/qicore-procedurenotdone" ]
      },
      "extension": [ {
        "url": "http://hl7.org/fhir/us/qicore/StructureDefinition/qicore-recorded",
        "valueDateTime": "2026-10-31T21:35:00.000+00:00"
      } ],
      "status": "not-done",
      "statusReason": {
        "coding": [ {
          "system": "http://snomed.info/sct",
          "code": "443390004",
          "display": "Refused (qualifier value)",
          "userSelected": true
        } ]
      },
      "code": {
        "coding": [ {
          "system": "http://snomed.info/sct",
          "version": "2025-03",
          "code": "443448006",
          "display": "Application of intermittent pneumatic compression device (procedure)",
          "userSelected": true
        } ]
      },
      "subject": {
        "reference": "Patient/ccd7f9d7-35e8-4623-9f2e-f229cf7d829c"
      },
      "_performedDateTime": {
        "extension": [ {
          "url": "http://hl7.org/fhir/StructureDefinition/data-absent-reason",
          "valueCode": "not-performed"
        } ]
      }
    },
    "request": {
      "method": "PUT",
      "url": "Procedure/d03fe5be-4758-41b3-8ff9-0e8b4515318a"
    }
  }, {
    "fullUrl": "https://madie.cms.gov/Organization/2a6d9794-fccd-4faf-b718-1a3292e11118",
    "resource": {
      "resourceType": "Organization",
      "id": "2a6d9794-fccd-4faf-b718-1a3292e11118",
      "meta": {
        "profile": [ "http://hl7.org/fhir/us/qicore/StructureDefinition/qicore-organization" ]
      },
      "identifier": [ {
        "use": "temp",
        "system": "urn:oid:2.16.840.1.113883.4.4",
        "value": "21-3259825"
      } ],
      "active": true,
      "type": [ {
        "coding": [ {
          "system": "http://terminology.hl7.org/CodeSystem/organization-type",
          "code": "pay",
          "display": "Payer"
        } ]
      } ],
      "name": "Blue Cross Blue Shield of Texas",
      "telecom": [ {
        "system": "phone",
        "value": "(+1) 972-766-6900"
      } ],
      "address": [ {
        "use": "billing",
        "type": "postal",
        "line": [ "P.O. Box 660044" ],
        "city": "Dallas",
        "state": "TX",
        "postalCode": "75266-0044",
        "country": "USA"
      } ]
    },
    "request": {
      "method": "PUT",
      "url": "Organization/2a6d9794-fccd-4faf-b718-1a3292e11118"
    }
  }, {
    "fullUrl": "https://madie.cms.gov/Practitioner/1ba30a71-d71d-4b70-98b0-3c70257263ed",
    "resource": {
      "resourceType": "Practitioner",
      "id": "1ba30a71-d71d-4b70-98b0-3c70257263ed",
      "identifier": [ {
        "system": "http://hl7.org/fhir/sid/us-npi",
        "value": "123456"
      } ],
      "name": [ {
        "family": "Evil",
        "prefix": [ "Dr" ]
      } ]
    },
    "request": {
      "method": "PUT",
      "url": "Practitioner/1ba30a71-d71d-4b70-98b0-3c70257263ed"
    }
  }, {
    "fullUrl": "https://madie.cms.gov/MeasureReport/c8c8144b-3bac-4663-aac9-9a786e5c1810",
    "resource": {
      "resourceType": "MeasureReport",
      "id": "c8c8144b-3bac-4663-aac9-9a786e5c1810",
      "meta": {
        "profile": [ "http://hl7.org/fhir/us/cqfmeasures/StructureDefinition/test-case-cqfm" ]
      },
      "contained": [ {
        "resourceType": "Parameters",
        "id": "07b8d34a-5538-4960-affb-063578dc5e73-parameters",
        "parameter": [ {
          "name": "subject",
          "valueString": "ccd7f9d7-35e8-4623-9f2e-f229cf7d829c"
        } ]
      } ],
      "extension": [ {
        "url": "http://hl7.org/fhir/StructureDefinition/cqf-inputParameters",
        "valueReference": {
          "reference": "#07b8d34a-5538-4960-affb-063578dc5e73-parameters"
        }
      }, {
        "url": "http://hl7.org/fhir/us/cqfmeasures/StructureDefinition/cqfm-testCaseDescription",
        "valueMarkdown": "patient refused IPC in Observation service \n"
      } ],
      "modifierExtension": [ {
        "url": "http://hl7.org/fhir/us/cqfmeasures/StructureDefinition/cqfm-isTestCase",
        "valueBoolean": true
      } ],
      "status": "complete",
      "type": "individual",
      "measure": "https://madie.cms.gov/Measure/CMS108FHIRVTEProphylaxis",
      "period": {
        "start": "2026-01-01",
        "end": "2026-12-31"
      },
      "group": [ {
        "id": "Group_1",
        "population": [ {
          "id": "InitialPopulation_1",
          "code": {
            "coding": [ {
              "system": "http://terminology.hl7.org/CodeSystem/measure-population",
              "code": "initial-population",
              "display": "Initial Population"
            } ]
          },
          "count": 1
        }, {
          "id": "Denominator_1",
          "code": {
            "coding": [ {
              "system": "http://terminology.hl7.org/CodeSystem/measure-population",
              "code": "denominator",
              "display": "Denominator"
            } ]
          },
          "count": 1
        }, {
          "id": "DenominatorExclusion_1",
          "code": {
            "coding": [ {
              "system": "http://terminology.hl7.org/CodeSystem/measure-population",
              "code": "denominator-exclusion",
              "display": "Denominator Exclusion"
            } ]
          },
          "count": 0
        }, {
          "id": "Numerator_1",
          "code": {
            "coding": [ {
              "system": "http://terminology.hl7.org/CodeSystem/measure-population",
              "code": "numerator",
              "display": "Numerator"
            } ]
          },
          "count": 1
        } ],
        "measureScore": {
          "value": 0.0
        }
      } ],
      "evaluatedResource": [ {
        "reference": "Patient/ccd7f9d7-35e8-4623-9f2e-f229cf7d829c"
      }, {
        "reference": "Encounter/4f78b997-018a-4c7c-a084-831f4f051645"
      }, {
        "reference": "Encounter/fa9f9a47-e48a-4942-bf47-5419f628ce00"
      }, {
        "reference": "Coverage/92a17235-12e8-4d0d-a293-a60fc1ced4c1"
      }, {
        "reference": "Procedure/d03fe5be-4758-41b3-8ff9-0e8b4515318a"
      }, {
        "reference": "Organization/2a6d9794-fccd-4faf-b718-1a3292e11118"
      }, {
        "reference": "Practitioner/1ba30a71-d71d-4b70-98b0-3c70257263ed"
      } ]
    },
    "request": {
      "method": "PUT",
      "url": "MeasureReport/c8c8144b-3bac-4663-aac9-9a786e5c1810"
    }
  } ]
}