{
  "resourceType": "Bundle",
  "id": "43233532424ba67d6e1d1c91",
  "type": "transaction",
  "entry": [ {
    "fullUrl": "https://madie.cms.gov/Patient/3ffdeac6-20b1-4af9-9da4-36ac2d234001",
    "resource": {
      "resourceType": "Patient",
      "id": "3ffdeac6-20b1-4af9-9da4-36ac2d234001",
      "meta": {
        "profile": [ "http://hl7.org/fhir/us/qicore/StructureDefinition/qicore-patient" ]
      },
      "extension": [ {
        "url": "http://hl7.org/fhir/us/core/StructureDefinition/us-core-sex",
        "valueCode": "asked-declined"
      }, {
        "url": "http://hl7.org/fhir/us/core/StructureDefinition/us-core-race",
        "extension": [ {
          "url": "ombCategory",
          "valueCoding": {
            "system": "urn:oid:2.16.840.1.113883.6.238",
            "code": "2106-3",
            "display": "White",
            "userSelected": true
          }
        }, {
          "url": "text",
          "valueString": "White"
        }, {
          "url": "detailed",
          "valueCoding": {
            "system": "urn:oid:2.16.840.1.113883.6.238",
            "code": "1653-5",
            "display": "Tohono O'Odham"
          }
        } ]
      }, {
        "url": "http://hl7.org/fhir/us/core/StructureDefinition/us-core-ethnicity",
        "extension": [ {
          "url": "detailed",
          "valueCoding": {
            "system": "urn:oid:2.16.840.1.113883.6.238",
            "code": "2186-5",
            "display": "Not Hispanic or Latino",
            "userSelected": true
          }
        }, {
          "url": "text",
          "valueString": "Not Hispanic or Latino"
        } ]
      } ],
      "identifier": [ {
        "system": "http://hospital.smarthealthit.org",
        "value": "999999999"
      } ],
      "name": [ {
        "family": "SDE",
        "given": [ "SDEAll" ]
      } ],
      "gender": "male",
      "birthDate": "2006-02-01"
    },
    "request": {
      "method": "PUT",
      "url": "Patient/3ffdeac6-20b1-4af9-9da4-36ac2d234001"
    }
  }, {
    "fullUrl": "https://madie.cms.gov/Coverage/bc86c7df-2fc8-40c6-b5cb-2a9ebc6fae65",
    "resource": {
      "resourceType": "Coverage",
      "id": "bc86c7df-2fc8-40c6-b5cb-2a9ebc6fae65",
      "meta": {
        "profile": [ "http://hl7.org/fhir/us/qicore/StructureDefinition/qicore-coverage" ]
      },
      "identifier": [ {
        "system": "http://benefitsinc.com/memberid",
        "value": "12345"
      } ],
      "status": "active",
      "type": {
        "coding": [ {
          "system": "https://nahdo.org/sopt",
          "code": "59",
          "display": "Other Private Insurance"
        } ]
      },
      "policyHolder": {
        "reference": "Patient/3ffdeac6-20b1-4af9-9da4-36ac2d234001"
      },
      "subscriberId": "523435",
      "beneficiary": {
        "reference": "Patient/3ffdeac6-20b1-4af9-9da4-36ac2d234001"
      },
      "dependent": "0",
      "relationship": {
        "coding": [ {
          "system": "http://terminology.hl7.org/CodeSystem/subscriber-relationship",
          "code": "self"
        } ]
      },
      "period": {
        "start": "2024-01-01T06:00:00.000+00:00"
      },
      "payor": [ {
        "reference": "Organization/123456"
      } ]
    },
    "request": {
      "method": "PUT",
      "url": "Coverage/bc86c7df-2fc8-40c6-b5cb-2a9ebc6fae65"
    }
  }, {
    "fullUrl": "https://madie.cms.gov/MeasureReport/4d31903a-27e9-461b-a810-c896c09d49fc",
    "resource": {
      "resourceType": "MeasureReport",
      "id": "4d31903a-27e9-461b-a810-c896c09d49fc",
      "meta": {
        "profile": [ "http://hl7.org/fhir/us/cqfmeasures/StructureDefinition/test-case-cqfm" ]
      },
      "contained": [ {
        "resourceType": "Parameters",
        "id": "6285a469-39b6-4cbd-824a-6319c7772022-parameters",
        "parameter": [ {
          "name": "subject",
          "valueString": "3ffdeac6-20b1-4af9-9da4-36ac2d234001"
        } ]
      } ],
      "extension": [ {
        "url": "http://hl7.org/fhir/StructureDefinition/cqf-inputParameters",
        "valueReference": {
          "reference": "#6285a469-39b6-4cbd-824a-6319c7772022-parameters"
        }
      }, {
        "url": "http://hl7.org/fhir/us/cqfmeasures/StructureDefinition/cqfm-testCaseDescription",
        "valueMarkdown": "Used to test SDEs. This patient is 13 years old, with a qualifying encounter and active diabetes diagnosis, but no lab tests or exclusions. "
      } ],
      "modifierExtension": [ {
        "url": "http://hl7.org/fhir/us/cqfmeasures/StructureDefinition/cqfm-isTestCase",
        "valueBoolean": true
      } ],
      "status": "complete",
      "type": "individual",
      "measure": "https://madie.cms.gov/Measure/CMS951FHIRKidneyHealthEval",
      "period": {
        "start": "2026-01-01",
        "end": "2026-12-31"
      },
      "group": [ {
        "id": "Group_1",
        "population": [ {
          "id": "InitialPopulation_1",
          "code": {
            "coding": [ {
              "system": "http://terminology.hl7.org/CodeSystem/measure-population",
              "code": "initial-population",
              "display": "Initial Population"
            } ]
          },
          "count": 0
        }, {
          "id": "Denominator_1",
          "code": {
            "coding": [ {
              "system": "http://terminology.hl7.org/CodeSystem/measure-population",
              "code": "denominator",
              "display": "Denominator"
            } ]
          },
          "count": 0
        }, {
          "id": "DenominatorExclusion_1",
          "code": {
            "coding": [ {
              "system": "http://terminology.hl7.org/CodeSystem/measure-population",
              "code": "denominator-exclusion",
              "display": "Denominator Exclusion"
            } ]
          },
          "count": 0
        }, {
          "id": "Numerator_1",
          "code": {
            "coding": [ {
              "system": "http://terminology.hl7.org/CodeSystem/measure-population",
              "code": "numerator",
              "display": "Numerator"
            } ]
          },
          "count": 0
        } ],
        "measureScore": {
          "value": 1.0
        }
      } ],
      "evaluatedResource": [ {
        "reference": "Patient/3ffdeac6-20b1-4af9-9da4-36ac2d234001"
      }, {
        "reference": "Coverage/bc86c7df-2fc8-40c6-b5cb-2a9ebc6fae65"
      } ]
    },
    "request": {
      "method": "PUT",
      "url": "MeasureReport/4d31903a-27e9-461b-a810-c896c09d49fc"
    }
  } ]
}