{
  "resourceType": "Bundle",
  "id": "641364c44b11b147841ab897",
  "type": "transaction",
  "entry": [ {
    "fullUrl": "https://madie.cms.gov/Patient/d4a593b2-d485-4bfa-a8b1-a401bdbf8d23",
    "resource": {
      "resourceType": "Patient",
      "id": "d4a593b2-d485-4bfa-a8b1-a401bdbf8d23",
      "meta": {
        "profile": [ "http://hl7.org/fhir/us/qicore/StructureDefinition/qicore-patient" ]
      },
      "extension": [ {
        "url": "http://hl7.org/fhir/us/core/StructureDefinition/us-core-race",
        "extension": [ {
          "url": "ombCategory",
          "valueCoding": {
            "system": "urn:oid:2.16.840.1.113883.6.238",
            "code": "2076-8",
            "display": "Native Hawaiian or Other Pacific Islander",
            "userSelected": true
          }
        }, {
          "url": "text",
          "valueString": "Native Hawaiian or Other Pacific Islander"
        } ]
      }, {
        "url": "http://hl7.org/fhir/us/core/StructureDefinition/us-core-ethnicity",
        "extension": [ {
          "url": "ombCategory",
          "valueCoding": {
            "system": "urn:oid:2.16.840.1.113883.6.238",
            "code": "2186-5",
            "display": "Not Hispanic or Latino",
            "userSelected": true
          }
        }, {
          "url": "text",
          "valueString": "Not Hispanic or Latino"
        } ]
      } ],
      "identifier": [ {
        "type": {
          "coding": [ {
            "system": "http://terminology.hl7.org/CodeSystem/v2-0203",
            "code": "MR"
          } ]
        },
        "system": "https://bonnie-fhir.healthit.gov/",
        "value": "641364c44b11b147841ab897"
      } ],
      "name": [ {
        "family": "DENEXFail",
        "given": [ "DischargeHomeHospDayBeforeMP" ]
      } ],
      "gender": "male",
      "birthDate": "1965-03-22"
    },
    "request": {
      "method": "PUT",
      "url": "Patient/d4a593b2-d485-4bfa-a8b1-a401bdbf8d23"
    }
  }, {
    "fullUrl": "https://madie.cms.gov/Condition/0fa60078-028e-4e30-b038-8467cb15798e",
    "resource": {
      "resourceType": "Condition",
      "id": "0fa60078-028e-4e30-b038-8467cb15798e",
      "meta": {
        "profile": [ "http://hl7.org/fhir/us/qicore/StructureDefinition/qicore-condition-encounter-diagnosis" ]
      },
      "clinicalStatus": {
        "coding": [ {
          "system": "http://terminology.hl7.org/CodeSystem/condition-clinical",
          "code": "active",
          "display": "active",
          "userSelected": true
        } ]
      },
      "category": [ {
        "coding": [ {
          "system": "http://terminology.hl7.org/CodeSystem/condition-category",
          "code": "encounter-diagnosis",
          "display": "Encounter Diagnosis",
          "userSelected": true
        } ]
      } ],
      "code": {
        "coding": [ {
          "system": "http://snomed.info/sct",
          "version": "2021-09",
          "code": "102781000119107",
          "display": "Sensory neuropathy due to type 1 diabetes mellitus (disorder)",
          "userSelected": true
        } ]
      },
      "subject": {
        "reference": "Patient/d4a593b2-d485-4bfa-a8b1-a401bdbf8d23"
      },
      "onsetDateTime": "2021-01-01T08:00:00.000+00:00"
    },
    "request": {
      "method": "PUT",
      "url": "Condition/0fa60078-028e-4e30-b038-8467cb15798e"
    }
  }, {
    "fullUrl": "https://madie.cms.gov/Encounter/9025ee41-1ebd-4d82-be70-339cff0f555f",
    "resource": {
      "resourceType": "Encounter",
      "id": "9025ee41-1ebd-4d82-be70-339cff0f555f",
      "meta": {
        "profile": [ "http://hl7.org/fhir/us/qicore/StructureDefinition/qicore-encounter" ]
      },
      "status": "finished",
      "class": {
        "system": "http://snomed.info/sct",
        "code": "183452005",
        "display": "Emergency hospital admission (procedure)",
        "userSelected": true
      },
      "type": [ {
        "coding": [ {
          "system": "http://snomed.info/sct",
          "version": "2021-09",
          "code": "183452005",
          "display": "Emergency hospital admission (procedure)",
          "userSelected": true
        } ]
      } ],
      "subject": {
        "reference": "Patient/d4a593b2-d485-4bfa-a8b1-a401bdbf8d23"
      },
      "period": {
        "start": "2025-12-31T08:00:00.000+00:00",
        "end": "2025-12-31T08:15:00.000+00:00"
      },
      "hospitalization": {
        "dischargeDisposition": {
          "coding": [ {
            "system": "http://snomed.info/sct",
            "version": "2021-09",
            "code": "428361000124107",
            "display": "Discharge to home for hospice care (procedure)",
            "userSelected": true
          } ]
        }
      }
    },
    "request": {
      "method": "PUT",
      "url": "Encounter/9025ee41-1ebd-4d82-be70-339cff0f555f"
    }
  }, {
    "fullUrl": "https://madie.cms.gov/Encounter/d98899b0-df09-4ff1-886f-6f46259a51cf",
    "resource": {
      "resourceType": "Encounter",
      "id": "d98899b0-df09-4ff1-886f-6f46259a51cf",
      "meta": {
        "profile": [ "http://hl7.org/fhir/us/qicore/StructureDefinition/qicore-encounter" ]
      },
      "status": "finished",
      "class": {
        "system": "http://terminology.hl7.org/CodeSystem/v3-ActCode",
        "code": "AMB",
        "display": "ambulatory",
        "userSelected": true
      },
      "type": [ {
        "coding": [ {
          "system": "http://snomed.info/sct",
          "version": "2021-09",
          "code": "444971000124105",
          "display": "Annual wellness visit (procedure)",
          "userSelected": true
        } ]
      } ],
      "subject": {
        "reference": "Patient/d4a593b2-d485-4bfa-a8b1-a401bdbf8d23"
      },
      "period": {
        "start": "2026-03-06T08:00:00.000+00:00",
        "end": "2026-03-06T08:15:00.000+00:00"
      }
    },
    "request": {
      "method": "PUT",
      "url": "Encounter/d98899b0-df09-4ff1-886f-6f46259a51cf"
    }
  }, {
    "fullUrl": "https://madie.cms.gov/MeasureReport/60086e16-1f50-4623-b189-15f81e0f8db5",
    "resource": {
      "resourceType": "MeasureReport",
      "id": "60086e16-1f50-4623-b189-15f81e0f8db5",
      "meta": {
        "profile": [ "http://hl7.org/fhir/us/cqfmeasures/StructureDefinition/test-case-cqfm" ]
      },
      "contained": [ {
        "resourceType": "Parameters",
        "id": "13eac1d4-565c-4760-b673-b1b4aa73a5d1-parameters",
        "parameter": [ {
          "name": "subject",
          "valueString": "d4a593b2-d485-4bfa-a8b1-a401bdbf8d23"
        } ]
      } ],
      "extension": [ {
        "url": "http://hl7.org/fhir/StructureDefinition/cqf-inputParameters",
        "valueReference": {
          "reference": "#13eac1d4-565c-4760-b673-b1b4aa73a5d1-parameters"
        }
      }, {
        "url": "http://hl7.org/fhir/us/cqfmeasures/StructureDefinition/cqfm-testCaseDescription",
        "valueMarkdown": "This patient is 60 years old with a qualifying encounter and active diabetes diagnosis, with a discharge to home for hospice care. This case tests the denominator exclusion criteria."
      } ],
      "modifierExtension": [ {
        "url": "http://hl7.org/fhir/us/cqfmeasures/StructureDefinition/cqfm-isTestCase",
        "valueBoolean": true
      } ],
      "status": "complete",
      "type": "individual",
      "measure": "https://madie.cms.gov/Measure/CMS951FHIRKidneyHealthEval",
      "period": {
        "start": "2026-01-01",
        "end": "2026-12-31"
      },
      "group": [ {
        "id": "Group_1",
        "population": [ {
          "id": "InitialPopulation_1",
          "code": {
            "coding": [ {
              "system": "http://terminology.hl7.org/CodeSystem/measure-population",
              "code": "initial-population",
              "display": "Initial Population"
            } ]
          },
          "count": 1
        }, {
          "id": "Denominator_1",
          "code": {
            "coding": [ {
              "system": "http://terminology.hl7.org/CodeSystem/measure-population",
              "code": "denominator",
              "display": "Denominator"
            } ]
          },
          "count": 1
        }, {
          "id": "DenominatorExclusion_1",
          "code": {
            "coding": [ {
              "system": "http://terminology.hl7.org/CodeSystem/measure-population",
              "code": "denominator-exclusion",
              "display": "Denominator Exclusion"
            } ]
          },
          "count": 0
        }, {
          "id": "Numerator_1",
          "code": {
            "coding": [ {
              "system": "http://terminology.hl7.org/CodeSystem/measure-population",
              "code": "numerator",
              "display": "Numerator"
            } ]
          },
          "count": 0
        } ],
        "measureScore": {
          "value": 1.0
        }
      } ],
      "evaluatedResource": [ {
        "reference": "Patient/d4a593b2-d485-4bfa-a8b1-a401bdbf8d23"
      }, {
        "reference": "Condition/0fa60078-028e-4e30-b038-8467cb15798e"
      }, {
        "reference": "Encounter/9025ee41-1ebd-4d82-be70-339cff0f555f"
      }, {
        "reference": "Encounter/d98899b0-df09-4ff1-886f-6f46259a51cf"
      } ]
    },
    "request": {
      "method": "PUT",
      "url": "MeasureReport/60086e16-1f50-4623-b189-15f81e0f8db5"
    }
  } ]
}