{
  "resourceType": "Bundle",
  "id": "633c9d030968f8012250fc84",
  "type": "transaction",
  "entry": [ {
    "fullUrl": "https://madie.cms.gov/Patient/e8df70c5-74a8-4a26-871c-0301bcf9fd45",
    "resource": {
      "resourceType": "Patient",
      "id": "e8df70c5-74a8-4a26-871c-0301bcf9fd45",
      "meta": {
        "profile": [ "http://hl7.org/fhir/us/qicore/StructureDefinition/qicore-patient" ]
      },
      "text": {
        "status": "generated",
        "div": "<div xmlns=\"http://www.w3.org/1999/xhtml\"><div class=\"hapiHeaderText\">DENEXPass CMOdurEnc_ED&lt;1hrNoObsBFEnc <b>DENEXPASS </b></div><table class=\"hapiPropertyTable\"><tbody><tr><td>Identifier</td><td>49d4dc38463db4c2b58eeaff86ecd8cb</td></tr><tr><td>Date of birth</td><td><span>18 September 1985</span></td></tr></tbody></table></div>"
      },
      "extension": [ {
        "url": "http://hl7.org/fhir/us/core/StructureDefinition/us-core-race",
        "extension": [ {
          "url": "ombCategory",
          "valueCoding": {
            "system": "urn:oid:2.16.840.1.113883.6.238",
            "code": "1002-5",
            "display": "American Indian or Alaska Native",
            "userSelected": true
          }
        }, {
          "url": "text",
          "valueString": "American Indian or Alaska Native"
        } ]
      }, {
        "url": "http://hl7.org/fhir/us/core/StructureDefinition/us-core-ethnicity",
        "extension": [ {
          "url": "ombCategory",
          "valueCoding": {
            "system": "urn:oid:2.16.840.1.113883.6.238",
            "code": "2135-2",
            "display": "Hispanic or Latino",
            "userSelected": true
          }
        }, {
          "url": "text",
          "valueString": "Hispanic or Latino"
        } ]
      } ],
      "identifier": [ {
        "type": {
          "coding": [ {
            "system": "http://terminology.hl7.org/CodeSystem/v2-0203",
            "code": "MR"
          } ]
        },
        "system": "https://bonnie-fhir.healthit.gov/",
        "value": "633c9d030968f8012250fc84"
      } ],
      "active": true,
      "name": [ {
        "use": "usual",
        "family": "DENEXPass",
        "given": [ "DENEXPass CMOdurEncEDlt1hrNoObsBFEnc" ]
      } ],
      "gender": "female",
      "birthDate": "1986-09-18"
    },
    "request": {
      "method": "PUT",
      "url": "Patient/e8df70c5-74a8-4a26-871c-0301bcf9fd45"
    }
  }, {
    "fullUrl": "https://madie.cms.gov/claim/5ca62962b8484628b8de1ec5",
    "resource": {
      "resourceType": "Claim",
      "id": "5ca62962b8484628b8de1ec5",
      "meta": {
        "profile": [ "http://hl7.org/fhir/us/qicore/StructureDefinition/qicore-claim" ]
      },
      "status": "active",
      "type": {
        "coding": [ {
          "system": "http://terminology.hl7.org/CodeSystem/claim-type",
          "code": "institutional"
        } ]
      },
      "use": "claim",
      "patient": {
        "reference": "Patient/d170a0a8-b5ad-4303-b6df-e304dd5f92ad"
      },
      "created": "2026-12-01",
      "provider": {
        "reference": "Practitioner/a8d13155-0a0c-4a6a-aac8-f9678222f2af"
      },
      "priority": {
        "coding": [ {
          "system": "http://terminology.hl7.org/CodeSystem/processpriority",
          "code": "normal"
        } ]
      },
      "diagnosis": [ {
        "sequence": 1,
        "diagnosisCodeableConcept": {
          "coding": [ {
            "system": "http://hl7.org/fhir/sid/icd-10-cm",
            "code": "I63.00"
          } ]
        },
        "type": [ {
          "coding": [ {
            "system": "http://terminology.hl7.org/CodeSystem/ex-diagnosistype",
            "code": "principal"
          } ]
        } ]
      } ],
      "insurance": [ {
        "sequence": 1,
        "focal": true,
        "coverage": {
          "reference": "Coverage/5fa041661c76ba66d9959367"
        }
      } ],
      "item": [ {
        "sequence": 1,
        "diagnosisSequence": [ 1 ],
        "productOrService": {
          "coding": [ {
            "system": "http://terminology.hl7.org/CodeSystem/ex-USCLS",
            "code": "99555"
          } ]
        },
        "encounter": [ {
          "reference": "Encounter/879dce3d-a7a1-412b-8f34-62192ef37922"
        } ]
      } ]
    },
    "request": {
      "method": "PUT",
      "url": "Claim/5ca62962b8484628b8de1ec5"
    }
  }, {
    "fullUrl": "https://madie.cms.gov/Condition/3c4c698c-1bdc-4d0a-8b8b-4310dc8fd733",
    "resource": {
      "resourceType": "Condition",
      "id": "3c4c698c-1bdc-4d0a-8b8b-4310dc8fd733",
      "meta": {
        "profile": [ "http://hl7.org/fhir/us/qicore/StructureDefinition/qicore-condition-problems-health-concerns" ]
      },
      "clinicalStatus": {
        "coding": [ {
          "system": "http://terminology.hl7.org/CodeSystem/condition-clinical",
          "code": "inactive"
        } ]
      },
      "verificationStatus": {
        "coding": [ {
          "system": "http://terminology.hl7.org/CodeSystem/condition-ver-status",
          "code": "confirmed"
        } ]
      },
      "category": [ {
        "coding": [ {
          "system": "http://terminology.hl7.org/CodeSystem/condition-category",
          "code": "encounter-diagnosis",
          "display": "Encounter Diagnosis"
        } ]
      } ],
      "code": {
        "coding": [ {
          "system": "http://hl7.org/fhir/sid/icd-10-cm",
          "code": "I48.20"
        }, {
          "system": "http://hl7.org/fhir/sid/icd-10-cm",
          "code": "I48.0"
        }, {
          "system": "http://snomed.info/sct",
          "code": "5370000"
        } ]
      },
      "subject": {
        "reference": "Patient/e8df70c5-74a8-4a26-871c-0301bcf9fd45"
      },
      "onsetDateTime": "2026-10-01T09:00:00.000+00:00",
      "abatementDateTime": "2026-10-12T00:15:00.000+00:00"
    },
    "request": {
      "method": "PUT",
      "url": "Condition/3c4c698c-1bdc-4d0a-8b8b-4310dc8fd733"
    }
  }, {
    "fullUrl": "https://madie.cms.gov/Encounter/ea2a1826-2db3-4337-b6f4-e28f8a929634",
    "resource": {
      "resourceType": "Encounter",
      "id": "ea2a1826-2db3-4337-b6f4-e28f8a929634",
      "meta": {
        "profile": [ "http://hl7.org/fhir/us/qicore/StructureDefinition/qicore-encounter" ]
      },
      "status": "finished",
      "class": {
        "system": "http://terminology.hl7.org/CodeSystem/v3-ActCode",
        "code": "EMER",
        "display": "emergency"
      },
      "type": [ {
        "coding": [ {
          "system": "http://snomed.info/sct",
          "code": "4525004"
        } ]
      } ],
      "subject": {
        "reference": "Patient/e8df70c5-74a8-4a26-871c-0301bcf9fd45"
      },
      "period": {
        "start": "2026-10-01T09:00:00.000+00:00",
        "end": "2026-10-01T11:00:00.000+00:00"
      },
      "length": {
        "value": 0,
        "unit": "days"
      }
    },
    "request": {
      "method": "PUT",
      "url": "Encounter/ea2a1826-2db3-4337-b6f4-e28f8a929634"
    }
  }, {
    "fullUrl": "https://madie.cms.gov/Encounter/879dce3d-a7a1-412b-8f34-62192ef37922",
    "resource": {
      "resourceType": "Encounter",
      "id": "879dce3d-a7a1-412b-8f34-62192ef37922",
      "meta": {
        "profile": [ "http://hl7.org/fhir/us/qicore/StructureDefinition/qicore-encounter" ]
      },
      "status": "finished",
      "class": {
        "system": "http://terminology.hl7.org/CodeSystem/v3-ActCode",
        "code": "IMP",
        "display": "inpatient encounter"
      },
      "type": [ {
        "coding": [ {
          "system": "http://snomed.info/sct",
          "code": "32485007"
        } ]
      } ],
      "subject": {
        "reference": "Patient/e8df70c5-74a8-4a26-871c-0301bcf9fd45"
      },
      "period": {
        "start": "2026-10-01T11:59:00.000+00:00",
        "end": "2026-10-12T00:15:00.000+00:00"
      },
      "length": {
        "value": 11,
        "unit": "days"
      },
      "reasonReference": [ {
        "reference": "Condition/3c4c698c-1bdc-4d0a-8b8b-4310dc8fd733"
      } ]
    },
    "request": {
      "method": "PUT",
      "url": "Encounter/879dce3d-a7a1-412b-8f34-62192ef37922"
    }
  }, {
    "fullUrl": "https://madie.cms.gov/ServiceRequest/51d04007-347d-47fc-a265-e1192a525709",
    "resource": {
      "resourceType": "ServiceRequest",
      "id": "51d04007-347d-47fc-a265-e1192a525709",
      "meta": {
        "profile": [ "http://hl7.org/fhir/us/qicore/StructureDefinition/qicore-servicerequest" ]
      },
      "status": "active",
      "intent": "order",
      "code": {
        "coding": [ {
          "system": "http://snomed.info/sct",
          "code": "133918004"
        } ]
      },
      "subject": {
        "reference": "Patient/e8df70c5-74a8-4a26-871c-0301bcf9fd45"
      },
      "authoredOn": "2026-10-01T11:30:00.000+00:00"
    },
    "request": {
      "method": "PUT",
      "url": "ServiceRequest/51d04007-347d-47fc-a265-e1192a525709"
    }
  }, {
    "fullUrl": "https://madie.cms.gov/Coverage/a05dea34-b3ad-4f23-b2d7-3d3e55949fd7",
    "resource": {
      "resourceType": "Coverage",
      "id": "a05dea34-b3ad-4f23-b2d7-3d3e55949fd7",
      "status": "active",
      "subscriberId": "523435",
      "beneficiary": {
        "reference": "Patient/e8df70c5-74a8-4a26-871c-0301bcf9fd45"
      },
      "relationship": {
        "coding": [ {
          "system": "http://terminology.hl7.org/CodeSystem/subscriber-relationship",
          "code": "self"
        } ]
      },
      "period": {
        "start": "1986-09-18T08:00:00.000+00:00"
      },
      "payor": [ {
        "reference": "Organization/8ffaeb2a-00f7-47f0-aef0-3334e8d9c142"
      } ]
    },
    "request": {
      "method": "PUT",
      "url": "Coverage/a05dea34-b3ad-4f23-b2d7-3d3e55949fd7"
    }
  }, {
    "fullUrl": "https://madie.cms.gov/Condition/47671f3d-0d92-4324-b9c9-2243a8fd34cf",
    "resource": {
      "resourceType": "Condition",
      "id": "47671f3d-0d92-4324-b9c9-2243a8fd34cf",
      "meta": {
        "profile": [ "http://hl7.org/fhir/us/qicore/StructureDefinition/qicore-condition-problems-health-concerns" ]
      },
      "clinicalStatus": {
        "coding": [ {
          "system": "http://terminology.hl7.org/CodeSystem/condition-clinical",
          "code": "active"
        } ]
      },
      "verificationStatus": {
        "coding": [ {
          "system": "http://terminology.hl7.org/CodeSystem/condition-ver-status",
          "code": "confirmed"
        } ]
      },
      "category": [ {
        "coding": [ {
          "system": "http://terminology.hl7.org/CodeSystem/condition-category",
          "code": "encounter-diagnosis",
          "display": "Encounter Diagnosis"
        } ]
      } ],
      "code": {
        "coding": [ {
          "system": "http://snomed.info/sct",
          "version": "2021-09",
          "code": "111297002",
          "display": "Nonparalytic stroke (disorder)",
          "userSelected": true
        } ]
      },
      "subject": {
        "reference": "Patient/e8df70c5-74a8-4a26-871c-0301bcf9fd45"
      },
      "recordedDate": "2026-10-13T08:00:00.000+00:00"
    },
    "request": {
      "method": "PUT",
      "url": "Condition/47671f3d-0d92-4324-b9c9-2243a8fd34cf"
    }
  }, {
    "fullUrl": "https://madie.cms.gov/Organization/8ffaeb2a-00f7-47f0-aef0-3334e8d9c142",
    "resource": {
      "resourceType": "Organization",
      "id": "8ffaeb2a-00f7-47f0-aef0-3334e8d9c142",
      "meta": {
        "profile": [ "http://hl7.org/fhir/us/qicore/StructureDefinition/qicore-organization" ]
      },
      "identifier": [ {
        "use": "temp",
        "system": "urn:oid:2.16.840.1.113883.4.4",
        "value": "21-3259825"
      } ],
      "active": true,
      "type": [ {
        "coding": [ {
          "system": "http://terminology.hl7.org/CodeSystem/organization-type",
          "code": "pay",
          "display": "Payer"
        } ]
      } ],
      "name": "Blue Cross Blue Shield of Texas",
      "telecom": [ {
        "system": "phone",
        "value": "(+1) 972-766-6900"
      } ],
      "address": [ {
        "use": "billing",
        "type": "postal",
        "line": [ "P.O. Box 660044" ],
        "city": "Dallas",
        "state": "TX",
        "postalCode": "75266-0044",
        "country": "USA"
      } ]
    },
    "request": {
      "method": "PUT",
      "url": "Organization/8ffaeb2a-00f7-47f0-aef0-3334e8d9c142"
    }
  }, {
    "fullUrl": "https://madie.cms.gov/Practitioner/a8d13155-0a0c-4a6a-aac8-f9678222f2af",
    "resource": {
      "resourceType": "Practitioner",
      "id": "a8d13155-0a0c-4a6a-aac8-f9678222f2af",
      "meta": {
        "profile": [ "http://hl7.org/fhir/us/qicore/StructureDefinition/qicore-practitioner" ]
      },
      "identifier": [ {
        "system": "http://hl7.org/fhir/sid/us-npi",
        "value": "9999999896"
      } ],
      "name": [ {
        "family": "Evil",
        "prefix": [ "Dr" ]
      } ]
    },
    "request": {
      "method": "PUT",
      "url": "Practitioner/a8d13155-0a0c-4a6a-aac8-f9678222f2af"
    }
  }, {
    "fullUrl": "https://madie.cms.gov/MeasureReport/c0ac85a4-d909-44c1-a4b4-92e185d877eb",
    "resource": {
      "resourceType": "MeasureReport",
      "id": "c0ac85a4-d909-44c1-a4b4-92e185d877eb",
      "meta": {
        "profile": [ "http://hl7.org/fhir/us/cqfmeasures/StructureDefinition/test-case-cqfm" ]
      },
      "contained": [ {
        "resourceType": "Parameters",
        "id": "9ba852b4-1dfa-4faa-8e7a-15569b0e0b1c-parameters",
        "parameter": [ {
          "name": "subject",
          "valueString": "e8df70c5-74a8-4a26-871c-0301bcf9fd45"
        } ]
      } ],
      "extension": [ {
        "url": "http://hl7.org/fhir/StructureDefinition/cqf-inputParameters",
        "valueReference": {
          "reference": "#9ba852b4-1dfa-4faa-8e7a-15569b0e0b1c-parameters"
        }
      }, {
        "url": "http://hl7.org/fhir/us/cqfmeasures/StructureDefinition/cqfm-testCaseDescription",
        "valueMarkdown": "Patient receives CMO during inpatient encounter. ED starts 59 minutes before inpatient encounter start on the same day. No Observation. Testing day of operator with HospitalizationWithObservation function.\n"
      } ],
      "modifierExtension": [ {
        "url": "http://hl7.org/fhir/us/cqfmeasures/StructureDefinition/cqfm-isTestCase",
        "valueBoolean": true
      } ],
      "status": "complete",
      "type": "individual",
      "measure": "https://madie.cms.gov/Measure/CMS71FHIRSTKAnticoagAFFlutter",
      "period": {
        "start": "2026-01-01",
        "end": "2026-12-31"
      },
      "group": [ {
        "id": "Group_1",
        "population": [ {
          "id": "InitialPopulation_1",
          "code": {
            "coding": [ {
              "system": "http://terminology.hl7.org/CodeSystem/measure-population",
              "code": "initial-population",
              "display": "Initial Population"
            } ]
          },
          "count": 1
        }, {
          "id": "Denominator_1",
          "code": {
            "coding": [ {
              "system": "http://terminology.hl7.org/CodeSystem/measure-population",
              "code": "denominator",
              "display": "Denominator"
            } ]
          },
          "count": 1
        }, {
          "id": "DenominatorExclusion_1",
          "code": {
            "coding": [ {
              "system": "http://terminology.hl7.org/CodeSystem/measure-population",
              "code": "denominator-exclusion",
              "display": "Denominator Exclusion"
            } ]
          },
          "count": 1
        }, {
          "id": "Numerator_1",
          "code": {
            "coding": [ {
              "system": "http://terminology.hl7.org/CodeSystem/measure-population",
              "code": "numerator",
              "display": "Numerator"
            } ]
          },
          "count": 0
        }, {
          "id": "DenominatorException_1",
          "code": {
            "coding": [ {
              "system": "http://terminology.hl7.org/CodeSystem/measure-population",
              "code": "denominator-exception",
              "display": "Denominator Exception"
            } ]
          },
          "count": 0
        } ],
        "measureScore": {
          "value": 0.0
        }
      } ],
      "evaluatedResource": [ {
        "reference": "Patient/e8df70c5-74a8-4a26-871c-0301bcf9fd45"
      }, {
        "reference": "Claim/5ca62962b8484628b8de1ec5"
      }, {
        "reference": "Condition/3c4c698c-1bdc-4d0a-8b8b-4310dc8fd733"
      }, {
        "reference": "Encounter/ea2a1826-2db3-4337-b6f4-e28f8a929634"
      }, {
        "reference": "Encounter/879dce3d-a7a1-412b-8f34-62192ef37922"
      }, {
        "reference": "ServiceRequest/51d04007-347d-47fc-a265-e1192a525709"
      }, {
        "reference": "Coverage/a05dea34-b3ad-4f23-b2d7-3d3e55949fd7"
      }, {
        "reference": "Condition/47671f3d-0d92-4324-b9c9-2243a8fd34cf"
      }, {
        "reference": "Organization/8ffaeb2a-00f7-47f0-aef0-3334e8d9c142"
      }, {
        "reference": "Practitioner/a8d13155-0a0c-4a6a-aac8-f9678222f2af"
      } ]
    },
    "request": {
      "method": "PUT",
      "url": "MeasureReport/c0ac85a4-d909-44c1-a4b4-92e185d877eb"
    }
  } ]
}