{
  "resourceType": "Bundle",
  "id": "tests-NUMERPass-LabLT80within5minutes-bundle",
  "type": "transaction",
  "entry": [ {
    "fullUrl": "https://madie.cms.gov/Encounter/46059e81-e98f-491b-86b9-54be1c3f6782",
    "resource": {
      "resourceType": "Encounter",
      "id": "46059e81-e98f-491b-86b9-54be1c3f6782",
      "meta": {
        "profile": [ "http://hl7.org/fhir/us/qicore/StructureDefinition/qicore-encounter" ]
      },
      "status": "finished",
      "class": {
        "system": "http://terminology.hl7.org/CodeSystem/v3-ActCode",
        "code": "IMP",
        "display": "Inpatient encounter"
      },
      "type": [ {
        "coding": [ {
          "system": "http://snomed.info/sct",
          "code": "183452005",
          "display": "Emergency hospital admission"
        } ]
      } ],
      "subject": {
        "reference": "Patient/7cb05de4-6b74-4ce5-a2ea-be59635a74f6"
      },
      "period": {
        "start": "2026-12-16T08:00:00.000+00:00",
        "end": "2026-12-19T09:00:00.000+00:00"
      }
    },
    "request": {
      "method": "PUT",
      "url": "Encounter/46059e81-e98f-491b-86b9-54be1c3f6782"
    }
  }, {
    "fullUrl": "https://madie.cms.gov/MedicationAdministration/bd4524fd-8df6-4386-97aa-3df488a1dec3",
    "resource": {
      "resourceType": "MedicationAdministration",
      "id": "bd4524fd-8df6-4386-97aa-3df488a1dec3",
      "meta": {
        "profile": [ "http://hl7.org/fhir/us/qicore/StructureDefinition/qicore-medicationadministration" ]
      },
      "status": "completed",
      "medicationCodeableConcept": {
        "coding": [ {
          "system": "http://www.nlm.nih.gov/research/umls/rxnorm",
          "code": "1543202",
          "display": "insulin, regular, human 4 UNT Inhalation Powder"
        } ]
      },
      "subject": {
        "reference": "Patient/7cb05de4-6b74-4ce5-a2ea-be59635a74f6"
      },
      "effectivePeriod": {
        "start": "2026-12-16T08:00:00.000+00:00",
        "end": "2026-12-16T09:00:00.000+00:00"
      }
    },
    "request": {
      "method": "PUT",
      "url": "MedicationAdministration/bd4524fd-8df6-4386-97aa-3df488a1dec3"
    }
  }, {
    "fullUrl": "https://madie.cms.gov/Observation/12492ad7-986c-44b2-afd9-84ce7677e7c3",
    "resource": {
      "resourceType": "Observation",
      "id": "12492ad7-986c-44b2-afd9-84ce7677e7c3",
      "meta": {
        "profile": [ "http://hl7.org/fhir/us/qicore/StructureDefinition/qicore-observation-lab" ]
      },
      "status": "final",
      "category": [ {
        "coding": [ {
          "system": "http://terminology.hl7.org/CodeSystem/observation-category",
          "code": "laboratory",
          "display": "Laboratory"
        } ]
      } ],
      "code": {
        "coding": [ {
          "system": "http://loinc.org",
          "code": "1556-0",
          "display": "Fasting glucose [Mass/volume] in Capillary blood"
        } ]
      },
      "subject": {
        "reference": "Patient/7cb05de4-6b74-4ce5-a2ea-be59635a74f6"
      },
      "effectivePeriod": {
        "start": "2026-12-16T08:00:00.000+00:00",
        "end": "2026-12-16T08:00:00.000+00:00"
      },
      "issued": "2026-12-16T08:00:00.000+00:00",
      "valueQuantity": {
        "value": 39.9,
        "unit": "mg/dL"
      }
    },
    "request": {
      "method": "PUT",
      "url": "Observation/12492ad7-986c-44b2-afd9-84ce7677e7c3"
    }
  }, {
    "fullUrl": "https://madie.cms.gov/Observation/27d23764-3689-40d1-9f56-29cbc30e8186",
    "resource": {
      "resourceType": "Observation",
      "id": "27d23764-3689-40d1-9f56-29cbc30e8186",
      "meta": {
        "profile": [ "http://hl7.org/fhir/us/qicore/StructureDefinition/qicore-observation-lab" ]
      },
      "status": "final",
      "category": [ {
        "coding": [ {
          "system": "http://terminology.hl7.org/CodeSystem/observation-category",
          "code": "laboratory",
          "display": "Laboratory"
        } ]
      } ],
      "code": {
        "coding": [ {
          "system": "http://loinc.org",
          "code": "1556-0",
          "display": "Fasting glucose [Mass/volume] in Capillary blood"
        } ]
      },
      "subject": {
        "reference": "Patient/7cb05de4-6b74-4ce5-a2ea-be59635a74f6"
      },
      "effectivePeriod": {
        "start": "2026-12-16T08:05:00.000+00:00",
        "end": "2026-12-16T08:05:00.000+00:00"
      },
      "issued": "2026-12-16T08:05:00.000+00:00",
      "valueQuantity": {
        "value": 70,
        "unit": "mg/dL"
      }
    },
    "request": {
      "method": "PUT",
      "url": "Observation/27d23764-3689-40d1-9f56-29cbc30e8186"
    }
  }, {
    "fullUrl": "https://madie.cms.gov/Patient/7cb05de4-6b74-4ce5-a2ea-be59635a74f6",
    "resource": {
      "resourceType": "Patient",
      "id": "7cb05de4-6b74-4ce5-a2ea-be59635a74f6",
      "meta": {
        "profile": [ "http://hl7.org/fhir/us/qicore/StructureDefinition/qicore-patient" ]
      },
      "extension": [ {
        "url": "http://hl7.org/fhir/us/core/StructureDefinition/us-core-race",
        "extension": [ {
          "url": "ombCategory",
          "valueCoding": {
            "system": "urn:oid:2.16.840.1.113883.6.238",
            "code": "2106-3",
            "display": "White"
          }
        }, {
          "url": "text",
          "valueString": "White"
        } ]
      }, {
        "url": "http://hl7.org/fhir/us/core/StructureDefinition/us-core-ethnicity",
        "extension": [ {
          "url": "ombCategory",
          "valueCoding": {
            "system": "urn:oid:2.16.840.1.113883.6.238",
            "code": "2135-2",
            "display": "Hispanic or Latino"
          }
        }, {
          "url": "text",
          "valueString": "Hispanic or Latino"
        } ]
      }, {
        "url": "http://hl7.org/fhir/us/core/StructureDefinition/us-core-sex",
        "valueCode": "248153007"
      } ],
      "identifier": [ {
        "system": "http://hospital.smarthealthit.org",
        "value": "999999999"
      } ],
      "name": [ {
        "family": "Example",
        "given": [ "Patient" ]
      } ],
      "gender": "female",
      "birthDate": "2000-07-11"
    },
    "request": {
      "method": "PUT",
      "url": "Patient/7cb05de4-6b74-4ce5-a2ea-be59635a74f6"
    }
  }, {
    "fullUrl": "https://madie.cms.gov/MeasureReport/3b2e8979-70aa-4e44-9d50-d8e8b7437c3f",
    "resource": {
      "resourceType": "MeasureReport",
      "id": "3b2e8979-70aa-4e44-9d50-d8e8b7437c3f",
      "meta": {
        "profile": [ "http://hl7.org/fhir/us/cqfmeasures/StructureDefinition/test-case-cqfm" ]
      },
      "contained": [ {
        "resourceType": "Parameters",
        "id": "3900a853-9897-4aa2-91cc-2343a125f78d-parameters",
        "parameter": [ {
          "name": "subject",
          "valueString": "7cb05de4-6b74-4ce5-a2ea-be59635a74f6"
        } ]
      } ],
      "extension": [ {
        "url": "http://hl7.org/fhir/StructureDefinition/cqf-inputParameters",
        "valueReference": {
          "reference": "#3900a853-9897-4aa2-91cc-2343a125f78d-parameters"
        }
      }, {
        "url": "http://hl7.org/fhir/us/cqfmeasures/StructureDefinition/cqfm-testCaseDescription",
        "valueMarkdown": "IP Encounter with med. Lab LT 40, followed by lab LT 80 within 5 minutes. Meets Numerator. "
      } ],
      "modifierExtension": [ {
        "url": "http://hl7.org/fhir/us/cqfmeasures/StructureDefinition/cqfm-isTestCase",
        "valueBoolean": true
      } ],
      "status": "complete",
      "type": "individual",
      "measure": "https://madie.cms.gov/Measure/CMS816FHIRHHHypo",
      "period": {
        "start": "2026-01-01",
        "end": "2026-12-31"
      },
      "group": [ {
        "id": "Group_1",
        "population": [ {
          "id": "InitialPopulation_1",
          "code": {
            "coding": [ {
              "system": "http://terminology.hl7.org/CodeSystem/measure-population",
              "code": "initial-population",
              "display": "Initial Population"
            } ]
          },
          "count": 1
        }, {
          "id": "Denominator_1",
          "code": {
            "coding": [ {
              "system": "http://terminology.hl7.org/CodeSystem/measure-population",
              "code": "denominator",
              "display": "Denominator"
            } ]
          },
          "count": 1
        }, {
          "id": "Numerator_1",
          "code": {
            "coding": [ {
              "system": "http://terminology.hl7.org/CodeSystem/measure-population",
              "code": "numerator",
              "display": "Numerator"
            } ]
          },
          "count": 1
        } ],
        "measureScore": {
          "value": 0.0
        }
      } ],
      "evaluatedResource": [ {
        "reference": "Encounter/46059e81-e98f-491b-86b9-54be1c3f6782"
      }, {
        "reference": "MedicationAdministration/bd4524fd-8df6-4386-97aa-3df488a1dec3"
      }, {
        "reference": "Observation/12492ad7-986c-44b2-afd9-84ce7677e7c3"
      }, {
        "reference": "Observation/27d23764-3689-40d1-9f56-29cbc30e8186"
      }, {
        "reference": "Patient/7cb05de4-6b74-4ce5-a2ea-be59635a74f6"
      } ]
    },
    "request": {
      "method": "PUT",
      "url": "MeasureReport/3b2e8979-70aa-4e44-9d50-d8e8b7437c3f"
    }
  } ]
}