{
  "resourceType": "Bundle",
  "id": "62fa55e0f4a8c3cd9f455399",
  "type": "transaction",
  "entry": [ {
    "fullUrl": "https://madie.cms.gov/Patient/0085aa08-74cc-47f3-bf08-2aadd6263ee3",
    "resource": {
      "resourceType": "Patient",
      "id": "0085aa08-74cc-47f3-bf08-2aadd6263ee3",
      "meta": {
        "profile": [ "http://hl7.org/fhir/us/qicore/StructureDefinition/qicore-patient" ]
      },
      "extension": [ {
        "url": "http://hl7.org/fhir/us/core/StructureDefinition/us-core-race",
        "extension": [ {
          "url": "ombCategory",
          "valueCoding": {
            "system": "urn:oid:2.16.840.1.113883.6.238",
            "code": "2106-3",
            "display": "White",
            "userSelected": true
          }
        }, {
          "url": "text",
          "valueString": "White"
        } ]
      }, {
        "url": "http://hl7.org/fhir/us/core/StructureDefinition/us-core-ethnicity",
        "extension": [ {
          "url": "ombCategory",
          "valueCoding": {
            "system": "urn:oid:2.16.840.1.113883.6.238",
            "code": "2186-5",
            "display": "Not Hispanic or Latino",
            "userSelected": true
          }
        }, {
          "url": "text",
          "valueString": "Not Hispanic or Latino"
        } ]
      } ],
      "identifier": [ {
        "type": {
          "coding": [ {
            "system": "http://terminology.hl7.org/CodeSystem/v2-0203",
            "code": "MR"
          } ]
        },
        "system": "https://bonnie-fhir.healthit.gov/",
        "value": "62fa55e0f4a8c3cd9f455399"
      } ],
      "name": [ {
        "family": "DENEXPass",
        "given": [ "WithCKDStage5WithConfirmedVerificationStatus" ]
      } ],
      "gender": "male",
      "birthDate": "2006-12-01"
    },
    "request": {
      "method": "PUT",
      "url": "Patient/0085aa08-74cc-47f3-bf08-2aadd6263ee3"
    }
  }, {
    "fullUrl": "https://madie.cms.gov/Condition/e4ad34bf-98f8-452b-a87f-5f8ec00035c6",
    "resource": {
      "resourceType": "Condition",
      "id": "e4ad34bf-98f8-452b-a87f-5f8ec00035c6",
      "meta": {
        "profile": [ "http://hl7.org/fhir/us/qicore/StructureDefinition/qicore-condition-encounter-diagnosis" ]
      },
      "clinicalStatus": {
        "coding": [ {
          "system": "http://terminology.hl7.org/CodeSystem/condition-clinical",
          "code": "active",
          "display": "active",
          "userSelected": true
        } ]
      },
      "category": [ {
        "coding": [ {
          "system": "http://terminology.hl7.org/CodeSystem/condition-category",
          "code": "encounter-diagnosis",
          "display": "Encounter Diagnosis",
          "userSelected": true
        } ]
      } ],
      "code": {
        "coding": [ {
          "system": "http://snomed.info/sct",
          "version": "2021-09",
          "code": "102781000119107",
          "display": "Sensory neuropathy due to type 1 diabetes mellitus (disorder)",
          "userSelected": true
        } ]
      },
      "subject": {
        "reference": "Patient/0085aa08-74cc-47f3-bf08-2aadd6263ee3"
      },
      "onsetDateTime": "2022-05-22T12:00:00.000+00:00"
    },
    "request": {
      "method": "PUT",
      "url": "Condition/e4ad34bf-98f8-452b-a87f-5f8ec00035c6"
    }
  }, {
    "fullUrl": "https://madie.cms.gov/Encounter/a4bd70dd-eac9-4bde-90e7-88f1788fb3fd",
    "resource": {
      "resourceType": "Encounter",
      "id": "a4bd70dd-eac9-4bde-90e7-88f1788fb3fd",
      "meta": {
        "profile": [ "http://hl7.org/fhir/us/qicore/StructureDefinition/qicore-encounter" ]
      },
      "status": "finished",
      "class": {
        "system": "http://terminology.hl7.org/CodeSystem/v3-ActCode",
        "code": "AMB",
        "display": "ambulatory",
        "userSelected": true
      },
      "type": [ {
        "coding": [ {
          "system": "http://snomed.info/sct",
          "version": "2021-09",
          "code": "185463005",
          "display": "Visit out of hours (procedure)",
          "userSelected": true
        } ]
      } ],
      "subject": {
        "reference": "Patient/0085aa08-74cc-47f3-bf08-2aadd6263ee3"
      },
      "period": {
        "start": "2026-08-15T08:00:00.000+00:00",
        "end": "2026-08-15T08:15:00.000+00:00"
      }
    },
    "request": {
      "method": "PUT",
      "url": "Encounter/a4bd70dd-eac9-4bde-90e7-88f1788fb3fd"
    }
  }, {
    "fullUrl": "https://madie.cms.gov/Condition/3c01630e-aaf2-4d21-a773-9ce60311118f",
    "resource": {
      "resourceType": "Condition",
      "id": "3c01630e-aaf2-4d21-a773-9ce60311118f",
      "meta": {
        "profile": [ "http://hl7.org/fhir/us/qicore/StructureDefinition/qicore-condition-encounter-diagnosis" ]
      },
      "clinicalStatus": {
        "coding": [ {
          "system": "http://terminology.hl7.org/CodeSystem/condition-clinical",
          "code": "active",
          "display": "active",
          "userSelected": true
        } ]
      },
      "verificationStatus": {
        "coding": [ {
          "system": "http://terminology.hl7.org/CodeSystem/condition-ver-status",
          "code": "confirmed"
        } ]
      },
      "category": [ {
        "coding": [ {
          "system": "http://terminology.hl7.org/CodeSystem/condition-category",
          "code": "encounter-diagnosis",
          "display": "Encounter Diagnosis",
          "userSelected": true
        } ]
      } ],
      "code": {
        "coding": [ {
          "system": "http://snomed.info/sct",
          "version": "2021-09",
          "code": "433146000",
          "display": "Chronic kidney disease stage 5 (disorder)",
          "userSelected": true
        } ]
      },
      "subject": {
        "reference": "Patient/0085aa08-74cc-47f3-bf08-2aadd6263ee3"
      },
      "onsetDateTime": "2025-08-15T08:00:00.000+00:00"
    },
    "request": {
      "method": "PUT",
      "url": "Condition/3c01630e-aaf2-4d21-a773-9ce60311118f"
    }
  }, {
    "fullUrl": "https://madie.cms.gov/MeasureReport/ecb55542-7593-406b-b03b-f2e5c7e206e0",
    "resource": {
      "resourceType": "MeasureReport",
      "id": "ecb55542-7593-406b-b03b-f2e5c7e206e0",
      "meta": {
        "profile": [ "http://hl7.org/fhir/us/cqfmeasures/StructureDefinition/test-case-cqfm" ]
      },
      "contained": [ {
        "resourceType": "Parameters",
        "id": "06bc50c6-8a25-4570-b40d-c7d9773d019d-parameters",
        "parameter": [ {
          "name": "subject",
          "valueString": "0085aa08-74cc-47f3-bf08-2aadd6263ee3"
        } ]
      } ],
      "extension": [ {
        "url": "http://hl7.org/fhir/StructureDefinition/cqf-inputParameters",
        "valueReference": {
          "reference": "#06bc50c6-8a25-4570-b40d-c7d9773d019d-parameters"
        }
      }, {
        "url": "http://hl7.org/fhir/us/cqfmeasures/StructureDefinition/cqfm-testCaseDescription",
        "valueMarkdown": "Patient has diabetes diagnosis and both labs plus CKD stage 5 with a confirmed verification status. This case tests the denominator exclusions."
      } ],
      "modifierExtension": [ {
        "url": "http://hl7.org/fhir/us/cqfmeasures/StructureDefinition/cqfm-isTestCase",
        "valueBoolean": true
      } ],
      "status": "complete",
      "type": "individual",
      "measure": "https://madie.cms.gov/Measure/CMS951FHIRKidneyHealthEval",
      "period": {
        "start": "2026-01-01",
        "end": "2026-12-31"
      },
      "group": [ {
        "id": "Group_1",
        "population": [ {
          "id": "InitialPopulation_1",
          "code": {
            "coding": [ {
              "system": "http://terminology.hl7.org/CodeSystem/measure-population",
              "code": "initial-population",
              "display": "Initial Population"
            } ]
          },
          "count": 1
        }, {
          "id": "Denominator_1",
          "code": {
            "coding": [ {
              "system": "http://terminology.hl7.org/CodeSystem/measure-population",
              "code": "denominator",
              "display": "Denominator"
            } ]
          },
          "count": 1
        }, {
          "id": "DenominatorExclusion_1",
          "code": {
            "coding": [ {
              "system": "http://terminology.hl7.org/CodeSystem/measure-population",
              "code": "denominator-exclusion",
              "display": "Denominator Exclusion"
            } ]
          },
          "count": 1
        }, {
          "id": "Numerator_1",
          "code": {
            "coding": [ {
              "system": "http://terminology.hl7.org/CodeSystem/measure-population",
              "code": "numerator",
              "display": "Numerator"
            } ]
          },
          "count": 0
        } ],
        "measureScore": {
          "value": 1.0
        }
      } ],
      "evaluatedResource": [ {
        "reference": "Patient/0085aa08-74cc-47f3-bf08-2aadd6263ee3"
      }, {
        "reference": "Condition/e4ad34bf-98f8-452b-a87f-5f8ec00035c6"
      }, {
        "reference": "Encounter/a4bd70dd-eac9-4bde-90e7-88f1788fb3fd"
      }, {
        "reference": "Condition/3c01630e-aaf2-4d21-a773-9ce60311118f"
      } ]
    },
    "request": {
      "method": "PUT",
      "url": "MeasureReport/ecb55542-7593-406b-b03b-f2e5c7e206e0"
    }
  } ]
}