{
  "resourceType": "Bundle",
  "id": "63487c2e0968f80122540175",
  "type": "transaction",
  "entry": [ {
    "fullUrl": "https://madie.cms.gov/Patient/8390a4d8-d09d-4889-8c3e-122900ba6a3e",
    "resource": {
      "resourceType": "Patient",
      "id": "8390a4d8-d09d-4889-8c3e-122900ba6a3e",
      "meta": {
        "profile": [ "http://hl7.org/fhir/us/qicore/StructureDefinition/qicore-patient" ]
      },
      "text": {
        "status": "generated",
        "div": "<div xmlns=\"http://www.w3.org/1999/xhtml\"><div class=\"hapiHeaderText\">EGAEQ37weeks<b>DENOMPASS</b></div><table class=\"hapiPropertyTable\"><tbody><tr><td>Identifier</td><td>73d161bbd72a0b8d656073de21758ea0022c984462702bb844daf97a7291f479</td></tr><tr><td>Date of birth</td><td><span>14 February 1985</span></td></tr></tbody></table></div>"
      },
      "extension": [ {
        "url": "http://hl7.org/fhir/us/core/StructureDefinition/us-core-race",
        "extension": [ {
          "url": "ombCategory",
          "valueCoding": {
            "system": "urn:oid:2.16.840.1.113883.6.238",
            "code": "1002-5",
            "display": "American Indian or Alaska Native",
            "userSelected": true
          }
        }, {
          "url": "text",
          "valueString": "American Indian or Alaska Native"
        } ]
      }, {
        "url": "http://hl7.org/fhir/us/core/StructureDefinition/us-core-ethnicity",
        "extension": [ {
          "url": "ombCategory",
          "valueCoding": {
            "system": "urn:oid:2.16.840.1.113883.6.238",
            "code": "2135-2",
            "display": "Hispanic or Latino",
            "userSelected": true
          }
        }, {
          "url": "text",
          "valueString": "Hispanic or Latino"
        } ]
      } ],
      "identifier": [ {
        "type": {
          "coding": [ {
            "system": "http://terminology.hl7.org/CodeSystem/v2-0203",
            "code": "MR"
          } ]
        },
        "system": "https://bonnie-fhir.healthit.gov/",
        "value": "63487c2e0968f80122540175"
      } ],
      "active": true,
      "name": [ {
        "use": "usual",
        "family": "DENOMPass",
        "given": [ "EGAEQ37weeks" ]
      } ],
      "gender": "female",
      "birthDate": "1998-02-14"
    },
    "request": {
      "method": "PUT",
      "url": "Patient/8390a4d8-d09d-4889-8c3e-122900ba6a3e"
    }
  }, {
    "fullUrl": "https://madie.cms.gov/Observation/51d0ea3f-1084-4e19-9c15-1e7d863c8ee6",
    "resource": {
      "resourceType": "Observation",
      "id": "51d0ea3f-1084-4e19-9c15-1e7d863c8ee6",
      "meta": {
        "profile": [ "http://hl7.org/fhir/us/qicore/StructureDefinition/qicore-simple-observation" ]
      },
      "status": "final",
      "category": [ {
        "coding": [ {
          "system": "http://terminology.hl7.org/CodeSystem/observation-category",
          "code": "exam",
          "display": "exam",
          "userSelected": true
        } ]
      } ],
      "code": {
        "coding": [ {
          "system": "http://loinc.org",
          "code": "11996-6"
        } ]
      },
      "subject": {
        "reference": "Patient/8390a4d8-d09d-4889-8c3e-122900ba6a3e"
      },
      "effectiveDateTime": "2026-06-08T08:00:00.000+00:00",
      "valueInteger": 1
    },
    "request": {
      "method": "PUT",
      "url": "Observation/51d0ea3f-1084-4e19-9c15-1e7d863c8ee6"
    }
  }, {
    "fullUrl": "https://madie.cms.gov/Observation/17506400-683e-42da-9f34-d7f3b4dd728a",
    "resource": {
      "resourceType": "Observation",
      "id": "17506400-683e-42da-9f34-d7f3b4dd728a",
      "meta": {
        "profile": [ "http://hl7.org/fhir/us/qicore/StructureDefinition/qicore-simple-observation" ]
      },
      "status": "final",
      "category": [ {
        "coding": [ {
          "system": "http://terminology.hl7.org/CodeSystem/observation-category",
          "code": "exam",
          "display": "exam",
          "userSelected": true
        } ]
      } ],
      "code": {
        "coding": [ {
          "system": "http://loinc.org",
          "code": "11884-4"
        } ]
      },
      "subject": {
        "reference": "Patient/8390a4d8-d09d-4889-8c3e-122900ba6a3e"
      },
      "effectiveDateTime": "2026-06-08T09:15:00.000+00:00",
      "valueQuantity": {
        "value": 37,
        "system": "http://unitsofmeasure.org",
        "code": "wk"
      }
    },
    "request": {
      "method": "PUT",
      "url": "Observation/17506400-683e-42da-9f34-d7f3b4dd728a"
    }
  }, {
    "fullUrl": "https://madie.cms.gov/Observation/d0777fdd-537e-43ab-8965-8ca6cb8cbddf",
    "resource": {
      "resourceType": "Observation",
      "id": "d0777fdd-537e-43ab-8965-8ca6cb8cbddf",
      "meta": {
        "profile": [ "http://hl7.org/fhir/us/qicore/StructureDefinition/qicore-simple-observation" ]
      },
      "status": "final",
      "category": [ {
        "coding": [ {
          "system": "http://terminology.hl7.org/CodeSystem/observation-category",
          "code": "exam",
          "display": "exam",
          "userSelected": true
        } ]
      } ],
      "code": {
        "coding": [ {
          "system": "http://loinc.org",
          "code": "93857-1"
        } ]
      },
      "subject": {
        "reference": "Patient/8390a4d8-d09d-4889-8c3e-122900ba6a3e"
      },
      "effectiveDateTime": "2026-06-08T09:15:00.000+00:00",
      "valueDateTime": "2026-06-08T09:15:00.000+00:00"
    },
    "request": {
      "method": "PUT",
      "url": "Observation/d0777fdd-537e-43ab-8965-8ca6cb8cbddf"
    }
  }, {
    "fullUrl": "https://madie.cms.gov/Encounter/7b75b21a-f624-40a5-8e73-04dfd03c078b",
    "resource": {
      "resourceType": "Encounter",
      "id": "7b75b21a-f624-40a5-8e73-04dfd03c078b",
      "meta": {
        "profile": [ "http://hl7.org/fhir/us/qicore/StructureDefinition/qicore-encounter" ]
      },
      "status": "finished",
      "class": {
        "system": "http://terminology.hl7.org/CodeSystem/v3-ActCode",
        "code": "IMP",
        "display": "inpatient encounter"
      },
      "type": [ {
        "coding": [ {
          "system": "http://snomed.info/sct",
          "code": "183452005"
        } ]
      } ],
      "subject": {
        "reference": "Patient/8390a4d8-d09d-4889-8c3e-122900ba6a3e"
      },
      "period": {
        "start": "2026-06-08T08:00:00.000+00:00",
        "end": "2026-06-10T08:15:00.000+00:00"
      },
      "length": {
        "value": 2,
        "unit": "days"
      },
      "reasonCode": [ {
        "coding": [ {
          "system": "http://snomed.info/sct",
          "code": "169826009",
          "display": "Single live birth from singleton pregnancy (finding)"
        } ]
      } ]
    },
    "request": {
      "method": "PUT",
      "url": "Encounter/7b75b21a-f624-40a5-8e73-04dfd03c078b"
    }
  }, {
    "fullUrl": "https://madie.cms.gov/Procedure/4a8e0d08-fc52-4c0f-95d0-5e59d0729db0",
    "resource": {
      "resourceType": "Procedure",
      "id": "4a8e0d08-fc52-4c0f-95d0-5e59d0729db0",
      "meta": {
        "profile": [ "http://hl7.org/fhir/us/qicore/StructureDefinition/qicore-procedure" ]
      },
      "extension": [ {
        "url": "http://hl7.org/fhir/us/qicore/StructureDefinition/qicore-recorded",
        "valueDateTime": "2014-04-05T13:35:00.000+00:00"
      } ],
      "status": "completed",
      "code": {
        "coding": [ {
          "system": "http://www.cms.gov/Medicare/Coding/ICD10",
          "code": "10D07Z4",
          "display": "Extraction of Products of Conception, Mid Forceps, Via Natural or Artificial Opening"
        } ]
      },
      "subject": {
        "reference": "Patient/8390a4d8-d09d-4889-8c3e-122900ba6a3e"
      },
      "performedPeriod": {
        "start": "2026-06-08T08:00:00.000+00:00",
        "end": "2026-06-08T09:15:00.000+00:00"
      }
    },
    "request": {
      "method": "PUT",
      "url": "Procedure/4a8e0d08-fc52-4c0f-95d0-5e59d0729db0"
    }
  }, {
    "fullUrl": "https://madie.cms.gov/Condition/343a6a17-0045-4b9a-824e-84e49a0504b8",
    "resource": {
      "resourceType": "Condition",
      "id": "343a6a17-0045-4b9a-824e-84e49a0504b8",
      "meta": {
        "profile": [ "http://hl7.org/fhir/us/qicore/StructureDefinition/qicore-condition-encounter-diagnosis" ]
      },
      "category": [ {
        "coding": [ {
          "system": "http://terminology.hl7.org/CodeSystem/condition-category",
          "code": "encounter-diagnosis",
          "display": "Encounter Diagnosis"
        } ]
      } ],
      "code": {
        "coding": [ {
          "system": "http://snomed.info/sct",
          "version": "2022-09",
          "code": "169826009",
          "display": "Single live birth from singleton pregnancy (finding)",
          "userSelected": true
        } ]
      },
      "subject": {
        "reference": "Patient/8390a4d8-d09d-4889-8c3e-122900ba6a3e"
      },
      "encounter": {
        "reference": "Encounter/7b75b21a-f624-40a5-8e73-04dfd03c078b"
      },
      "recordedDate": "2026-10-20T08:00:00.000+00:00"
    },
    "request": {
      "method": "PUT",
      "url": "Condition/343a6a17-0045-4b9a-824e-84e49a0504b8"
    }
  }, {
    "fullUrl": "https://madie.cms.gov/Coverage/c68c526c-fe50-43a8-aae9-f680a4644772",
    "resource": {
      "resourceType": "Coverage",
      "id": "c68c526c-fe50-43a8-aae9-f680a4644772",
      "meta": {
        "profile": [ "http://hl7.org/fhir/us/qicore/StructureDefinition/qicore-coverage" ]
      },
      "status": "active",
      "subscriberId": "523435",
      "beneficiary": {
        "reference": "Patient/8390a4d8-d09d-4889-8c3e-122900ba6a3e"
      },
      "relationship": {
        "coding": [ {
          "system": "http://terminology.hl7.org/CodeSystem/subscriber-relationship",
          "code": "self"
        } ]
      },
      "payor": [ {
        "reference": "Organization/bebcca82-e3ae-4cf6-bbde-b56f67b8b2a8"
      } ]
    },
    "request": {
      "method": "PUT",
      "url": "Coverage/c68c526c-fe50-43a8-aae9-f680a4644772"
    }
  }, {
    "fullUrl": "https://madie.cms.gov/Organization/bebcca82-e3ae-4cf6-bbde-b56f67b8b2a8",
    "resource": {
      "resourceType": "Organization",
      "id": "bebcca82-e3ae-4cf6-bbde-b56f67b8b2a8",
      "meta": {
        "profile": [ "http://hl7.org/fhir/us/qicore/StructureDefinition/qicore-organization" ]
      },
      "identifier": [ {
        "use": "temp",
        "system": "urn:oid:2.16.840.1.113883.4.4",
        "value": "21-3259825"
      } ],
      "active": true,
      "type": [ {
        "coding": [ {
          "system": "http://terminology.hl7.org/CodeSystem/organization-type",
          "code": "pay",
          "display": "Payer"
        } ]
      } ],
      "name": "Blue Cross Blue Shield of Texas",
      "telecom": [ {
        "system": "phone",
        "value": "(+1) 972-766-6900"
      } ],
      "address": [ {
        "use": "billing",
        "type": "postal",
        "line": [ "P.O. Box 660044" ],
        "city": "Dallas",
        "state": "TX",
        "postalCode": "75266-0044",
        "country": "USA"
      } ]
    },
    "request": {
      "method": "PUT",
      "url": "Organization/bebcca82-e3ae-4cf6-bbde-b56f67b8b2a8"
    }
  }, {
    "fullUrl": "https://madie.cms.gov/Practitioner/151a5c2a-83fc-47cc-a1ae-d4a37804c3a5",
    "resource": {
      "resourceType": "Practitioner",
      "id": "151a5c2a-83fc-47cc-a1ae-d4a37804c3a5",
      "meta": {
        "profile": [ "http://hl7.org/fhir/us/qicore/StructureDefinition/qicore-practitioner" ]
      },
      "identifier": [ {
        "system": "http://hl7.org/fhir/sid/us-npi",
        "value": "1234567890"
      } ],
      "name": [ {
        "family": "Evil",
        "prefix": [ "Dr" ]
      } ]
    },
    "request": {
      "method": "PUT",
      "url": "Practitioner/151a5c2a-83fc-47cc-a1ae-d4a37804c3a5"
    }
  }, {
    "fullUrl": "https://madie.cms.gov/MeasureReport/102e6992-cca7-451d-b718-e9a8a8a668bb",
    "resource": {
      "resourceType": "MeasureReport",
      "id": "102e6992-cca7-451d-b718-e9a8a8a668bb",
      "meta": {
        "profile": [ "http://hl7.org/fhir/us/cqfmeasures/StructureDefinition/test-case-cqfm" ]
      },
      "contained": [ {
        "resourceType": "Parameters",
        "id": "0a8a1e43-48be-401c-87ca-d85730bc0ef9-parameters",
        "parameter": [ {
          "name": "subject",
          "valueString": "8390a4d8-d09d-4889-8c3e-122900ba6a3e"
        } ]
      } ],
      "extension": [ {
        "url": "http://hl7.org/fhir/StructureDefinition/cqf-inputParameters",
        "valueReference": {
          "reference": "#0a8a1e43-48be-401c-87ca-d85730bc0ef9-parameters"
        }
      }, {
        "url": "http://hl7.org/fhir/us/cqfmeasures/StructureDefinition/cqfm-testCaseDescription",
        "valueMarkdown": "Passes: IP, encounter dx of delivery of singleton, gravida, assessed EGA @ 37 weeks\n"
      } ],
      "modifierExtension": [ {
        "url": "http://hl7.org/fhir/us/cqfmeasures/StructureDefinition/cqfm-isTestCase",
        "valueBoolean": true
      } ],
      "status": "complete",
      "type": "individual",
      "measure": "https://madie.cms.gov/Measure/CMS0334FHIRPCCesareanBirth",
      "period": {
        "start": "2026-01-01",
        "end": "2026-12-31"
      },
      "group": [ {
        "id": "Group_1",
        "population": [ {
          "id": "InitialPopulation_1",
          "code": {
            "coding": [ {
              "system": "http://terminology.hl7.org/CodeSystem/measure-population",
              "code": "initial-population",
              "display": "Initial Population"
            } ]
          },
          "count": 1
        }, {
          "id": "Denominator_1",
          "code": {
            "coding": [ {
              "system": "http://terminology.hl7.org/CodeSystem/measure-population",
              "code": "denominator",
              "display": "Denominator"
            } ]
          },
          "count": 1
        }, {
          "id": "DenominatorExclusion_1",
          "code": {
            "coding": [ {
              "system": "http://terminology.hl7.org/CodeSystem/measure-population",
              "code": "denominator-exclusion",
              "display": "Denominator Exclusion"
            } ]
          },
          "count": 0
        }, {
          "id": "Numerator_1",
          "code": {
            "coding": [ {
              "system": "http://terminology.hl7.org/CodeSystem/measure-population",
              "code": "numerator",
              "display": "Numerator"
            } ]
          },
          "count": 0
        } ],
        "measureScore": {
          "value": 0.0
        }
      } ],
      "evaluatedResource": [ {
        "reference": "Patient/8390a4d8-d09d-4889-8c3e-122900ba6a3e"
      }, {
        "reference": "Observation/51d0ea3f-1084-4e19-9c15-1e7d863c8ee6"
      }, {
        "reference": "Observation/17506400-683e-42da-9f34-d7f3b4dd728a"
      }, {
        "reference": "Observation/d0777fdd-537e-43ab-8965-8ca6cb8cbddf"
      }, {
        "reference": "Encounter/7b75b21a-f624-40a5-8e73-04dfd03c078b"
      }, {
        "reference": "Procedure/4a8e0d08-fc52-4c0f-95d0-5e59d0729db0"
      }, {
        "reference": "Condition/343a6a17-0045-4b9a-824e-84e49a0504b8"
      }, {
        "reference": "Coverage/c68c526c-fe50-43a8-aae9-f680a4644772"
      }, {
        "reference": "Organization/bebcca82-e3ae-4cf6-bbde-b56f67b8b2a8"
      }, {
        "reference": "Practitioner/151a5c2a-83fc-47cc-a1ae-d4a37804c3a5"
      } ]
    },
    "request": {
      "method": "PUT",
      "url": "MeasureReport/102e6992-cca7-451d-b718-e9a8a8a668bb"
    }
  } ]
}