{
  "resourceType": "Bundle",
  "id": "tests-RiskVarPassFirstBloodUreaNitrogen-bundle",
  "type": "transaction",
  "entry": [ {
    "fullUrl": "https://madie.cms.gov/Encounter/f1855ecc-dc8c-484a-8a57-398384986003",
    "resource": {
      "resourceType": "Encounter",
      "id": "f1855ecc-dc8c-484a-8a57-398384986003",
      "meta": {
        "profile": [ "http://hl7.org/fhir/us/qicore/StructureDefinition/qicore-encounter" ]
      },
      "status": "finished",
      "class": {
        "system": "http://terminology.hl7.org/CodeSystem/v3-ActCode",
        "code": "IMP",
        "display": "inpatient encounter"
      },
      "type": [ {
        "coding": [ {
          "system": "http://snomed.info/sct",
          "code": "112689000",
          "display": "Hospital admission, elective, with complete pre-admission work-up"
        } ],
        "text": "Hospital admission, elective, with complete pre-admission work-up"
      } ],
      "priority": {
        "coding": [ {
          "system": "http://snomed.info/sct",
          "code": "103390000"
        } ]
      },
      "subject": {
        "reference": "Patient/f9b65091-3a37-4f02-8e20-96f3d7b9f838"
      },
      "period": {
        "start": "2026-04-10T08:00:00.000+00:00",
        "end": "2026-04-14T08:15:00.000+00:00"
      }
    },
    "request": {
      "method": "PUT",
      "url": "Encounter/f1855ecc-dc8c-484a-8a57-398384986003"
    }
  }, {
    "fullUrl": "https://madie.cms.gov/Patient/f9b65091-3a37-4f02-8e20-96f3d7b9f838",
    "resource": {
      "resourceType": "Patient",
      "id": "f9b65091-3a37-4f02-8e20-96f3d7b9f838",
      "meta": {
        "profile": [ "http://hl7.org/fhir/us/qicore/StructureDefinition/qicore-patient" ]
      },
      "extension": [ {
        "url": "http://hl7.org/fhir/us/core/StructureDefinition/us-core-race",
        "extension": [ {
          "url": "ombCategory",
          "valueCoding": {
            "system": "urn:oid:2.16.840.1.113883.6.238",
            "code": "2054-5",
            "display": "Black or African American",
            "userSelected": true
          }
        }, {
          "url": "text",
          "valueString": "Black or African American"
        } ]
      }, {
        "url": "http://hl7.org/fhir/us/core/StructureDefinition/us-core-ethnicity",
        "extension": [ {
          "url": "ombCategory",
          "valueCoding": {
            "system": "urn:oid:2.16.840.1.113883.6.238",
            "code": "2186-5",
            "display": "Not Hispanic or Latino",
            "userSelected": true
          }
        }, {
          "url": "text",
          "valueString": "Not Hispanic or Latino"
        } ]
      } ],
      "identifier": [ {
        "type": {
          "coding": [ {
            "system": "http://terminology.hl7.org/CodeSystem/v2-0203",
            "code": "MR"
          } ]
        },
        "system": "https://bonnie-fhir.healthit.gov/",
        "value": "61152a3b98086b7a79cbd7c1"
      } ],
      "active": true,
      "name": [ {
        "use": "usual",
        "family": "DENOMPass",
        "given": [ "RiskVariableASAClass" ]
      } ],
      "gender": "female",
      "birthDate": "1966-07-12"
    },
    "request": {
      "method": "PUT",
      "url": "Patient/f9b65091-3a37-4f02-8e20-96f3d7b9f838"
    }
  }, {
    "fullUrl": "https://madie.cms.gov/Observation/1eff9aa5-d3fc-43bb-8c18-2b8f0954c159",
    "resource": {
      "resourceType": "Observation",
      "id": "1eff9aa5-d3fc-43bb-8c18-2b8f0954c159",
      "meta": {
        "profile": [ "http://hl7.org/fhir/us/qicore/StructureDefinition/qicore-observation-lab" ]
      },
      "status": "final",
      "category": [ {
        "coding": [ {
          "system": "http://terminology.hl7.org/CodeSystem/observation-category",
          "code": "laboratory",
          "display": "Laboratory"
        } ],
        "text": "Laboratory"
      } ],
      "code": {
        "coding": [ {
          "system": "http://loinc.org",
          "version": "2.76",
          "code": "11065-0",
          "display": "Urea nitrogen [Mass/volume] in Serum or Plasma --pre dialysis"
        } ]
      },
      "subject": {
        "reference": "Patient/f9b65091-3a37-4f02-8e20-96f3d7b9f838"
      },
      "encounter": {
        "reference": "Encounter/f1855ecc-dc8c-484a-8a57-398384986003"
      },
      "effectiveDateTime": "2026-04-11T08:00:00.000+00:00",
      "valueQuantity": {
        "value": 12,
        "unit": "mg/dL",
        "system": "http://unitsofmeasure.org",
        "code": "mg/dL"
      }
    },
    "request": {
      "method": "PUT",
      "url": "Observation/1eff9aa5-d3fc-43bb-8c18-2b8f0954c159"
    }
  }, {
    "fullUrl": "https://madie.cms.gov/Observation/f06690bc-9750-4615-a7d3-80edd99b42c5",
    "resource": {
      "resourceType": "Observation",
      "id": "f06690bc-9750-4615-a7d3-80edd99b42c5",
      "meta": {
        "profile": [ "http://hl7.org/fhir/us/qicore/StructureDefinition/qicore-observation-lab" ]
      },
      "status": "final",
      "category": [ {
        "coding": [ {
          "system": "http://terminology.hl7.org/CodeSystem/observation-category",
          "code": "laboratory",
          "display": "Laboratory"
        } ],
        "text": "Laboratory"
      } ],
      "code": {
        "coding": [ {
          "system": "http://loinc.org",
          "version": "2.76",
          "code": "11065-0",
          "display": "Urea nitrogen [Mass/volume] in Serum or Plasma --pre dialysis"
        } ]
      },
      "subject": {
        "reference": "Patient/f9b65091-3a37-4f02-8e20-96f3d7b9f838"
      },
      "encounter": {
        "reference": "Encounter/f1855ecc-dc8c-484a-8a57-398384986003"
      },
      "effectiveDateTime": "2026-04-11T09:00:00.000+00:00",
      "valueQuantity": {
        "value": 10,
        "unit": "mg/dL",
        "system": "http://unitsofmeasure.org",
        "code": "mg/dL"
      }
    },
    "request": {
      "method": "PUT",
      "url": "Observation/f06690bc-9750-4615-a7d3-80edd99b42c5"
    }
  }, {
    "fullUrl": "https://madie.cms.gov/Procedure/6891a3af-a397-476a-8771-f60d46be5470",
    "resource": {
      "resourceType": "Procedure",
      "id": "6891a3af-a397-476a-8771-f60d46be5470",
      "meta": {
        "profile": [ "http://hl7.org/fhir/us/qicore/StructureDefinition/qicore-procedure" ]
      },
      "extension": [ {
        "url": "http://hl7.org/fhir/us/qicore/StructureDefinition/qicore-recorded",
        "valueDateTime": "2026-04-11T10:30:00.000+00:00"
      } ],
      "status": "completed",
      "category": {
        "coding": [ {
          "system": "http://snomed.info/sct",
          "code": "18286008",
          "display": "General or neuraxial anesthesia"
        } ]
      },
      "code": {
        "coding": [ {
          "system": "http://snomed.info/sct",
          "code": "112943005",
          "display": "Epidural injection of anesthetic substance, diagnostic, caudal, continuous"
        } ]
      },
      "subject": {
        "reference": "Patient/f9b65091-3a37-4f02-8e20-96f3d7b9f838"
      },
      "performedPeriod": {
        "start": "2026-04-11T08:00:00.000+00:00",
        "end": "2026-04-11T10:15:00.000+00:00"
      }
    },
    "request": {
      "method": "PUT",
      "url": "Procedure/6891a3af-a397-476a-8771-f60d46be5470"
    }
  }, {
    "fullUrl": "https://madie.cms.gov/MeasureReport/7a8674b1-a212-4ea2-8748-83f9cf3f84ac",
    "resource": {
      "resourceType": "MeasureReport",
      "id": "7a8674b1-a212-4ea2-8748-83f9cf3f84ac",
      "meta": {
        "profile": [ "http://hl7.org/fhir/us/cqfmeasures/StructureDefinition/test-case-cqfm" ]
      },
      "contained": [ {
        "resourceType": "Parameters",
        "id": "2daae026-507d-44bf-a33e-76edc291735b-parameters",
        "parameter": [ {
          "name": "subject",
          "valueString": "f9b65091-3a37-4f02-8e20-96f3d7b9f838"
        } ]
      } ],
      "extension": [ {
        "url": "http://hl7.org/fhir/StructureDefinition/cqf-inputParameters",
        "valueReference": {
          "reference": "#2daae026-507d-44bf-a33e-76edc291735b-parameters"
        }
      }, {
        "url": "http://hl7.org/fhir/us/cqfmeasures/StructureDefinition/cqfm-testCaseDescription",
        "valueMarkdown": "DENOMPass Satisfies First Blood Urea Nitrogen variable"
      } ],
      "modifierExtension": [ {
        "url": "http://hl7.org/fhir/us/cqfmeasures/StructureDefinition/cqfm-isTestCase",
        "valueBoolean": true
      } ],
      "status": "complete",
      "type": "individual",
      "measure": "https://madie.cms.gov/Measure/CMS1218FHIRHHRF",
      "period": {
        "start": "2026-01-01",
        "end": "2026-12-31"
      },
      "group": [ {
        "id": "Group_1",
        "population": [ {
          "id": "InitialPopulation_1",
          "code": {
            "coding": [ {
              "system": "http://terminology.hl7.org/CodeSystem/measure-population",
              "code": "initial-population",
              "display": "Initial Population"
            } ]
          },
          "count": 1
        }, {
          "id": "Denominator_1",
          "code": {
            "coding": [ {
              "system": "http://terminology.hl7.org/CodeSystem/measure-population",
              "code": "denominator",
              "display": "Denominator"
            } ]
          },
          "count": 1
        }, {
          "id": "DenominatorExclusion_1",
          "code": {
            "coding": [ {
              "system": "http://terminology.hl7.org/CodeSystem/measure-population",
              "code": "denominator-exclusion",
              "display": "Denominator Exclusion"
            } ]
          },
          "count": 0
        }, {
          "id": "Numerator_1",
          "code": {
            "coding": [ {
              "system": "http://terminology.hl7.org/CodeSystem/measure-population",
              "code": "numerator",
              "display": "Numerator"
            } ]
          },
          "count": 0
        } ],
        "measureScore": {
          "value": 0.0
        }
      } ],
      "evaluatedResource": [ {
        "reference": "Encounter/f1855ecc-dc8c-484a-8a57-398384986003"
      }, {
        "reference": "Patient/f9b65091-3a37-4f02-8e20-96f3d7b9f838"
      }, {
        "reference": "Observation/1eff9aa5-d3fc-43bb-8c18-2b8f0954c159"
      }, {
        "reference": "Observation/f06690bc-9750-4615-a7d3-80edd99b42c5"
      }, {
        "reference": "Procedure/6891a3af-a397-476a-8771-f60d46be5470"
      } ]
    },
    "request": {
      "method": "PUT",
      "url": "MeasureReport/7a8674b1-a212-4ea2-8748-83f9cf3f84ac"
    }
  } ]
}