{
  "resourceType": "Bundle",
  "id": "812a80a15a55o70123c1111c",
  "type": "transaction",
  "entry": [ {
    "fullUrl": "https://madie.cms.gov/Patient/ba6e76f8-573d-48c3-b106-8f91fa02b1a9",
    "resource": {
      "resourceType": "Patient",
      "id": "ba6e76f8-573d-48c3-b106-8f91fa02b1a9",
      "meta": {
        "profile": [ "http://hl7.org/fhir/us/qicore/StructureDefinition/qicore-patient" ]
      },
      "extension": [ {
        "url": "http://hl7.org/fhir/us/core/StructureDefinition/us-core-race",
        "extension": [ {
          "url": "ombCategory",
          "valueCoding": {
            "system": "urn:oid:2.16.840.1.113883.6.238",
            "code": "2028-9",
            "display": "Asian",
            "userSelected": true
          }
        }, {
          "url": "text",
          "valueString": "Asian"
        } ]
      }, {
        "url": "http://hl7.org/fhir/us/core/StructureDefinition/us-core-ethnicity",
        "extension": [ {
          "url": "ombCategory",
          "valueCoding": {
            "system": "urn:oid:2.16.840.1.113883.6.238",
            "code": "2186-5",
            "display": "Not Hispanic or Latino",
            "userSelected": true
          }
        }, {
          "url": "text",
          "valueString": "Not Hispanic or Latino"
        } ]
      } ],
      "identifier": [ {
        "system": "http://hospital.smarthealthit.org",
        "value": "999999999"
      } ],
      "name": [ {
        "family": "DENOMPass",
        "given": [ "EncounterEndsOnMPStart" ]
      } ],
      "gender": "male",
      "birthDate": "1968-02-15"
    },
    "request": {
      "method": "PUT",
      "url": "Patient/ba6e76f8-573d-48c3-b106-8f91fa02b1a9"
    }
  }, {
    "fullUrl": "https://madie.cms.gov/Encounter/07bb3d39-4b54-40a9-a03a-84deb0e4f6e7",
    "resource": {
      "resourceType": "Encounter",
      "id": "07bb3d39-4b54-40a9-a03a-84deb0e4f6e7",
      "meta": {
        "profile": [ "http://hl7.org/fhir/us/qicore/StructureDefinition/qicore-encounter" ]
      },
      "status": "finished",
      "class": {
        "system": "http://terminology.hl7.org/CodeSystem/v3-ActCode",
        "code": "IMP",
        "display": "inpatient encounter"
      },
      "type": [ {
        "coding": [ {
          "system": "http://snomed.info/sct",
          "code": "183452005"
        } ]
      } ],
      "subject": {
        "reference": "Patient/ba6e76f8-573d-48c3-b106-8f91fa02b1a9"
      },
      "period": {
        "start": "2025-12-30T08:00:00.000+00:00",
        "end": "2026-01-01T00:00:00.000+00:00"
      }
    },
    "request": {
      "method": "PUT",
      "url": "Encounter/07bb3d39-4b54-40a9-a03a-84deb0e4f6e7"
    }
  }, {
    "fullUrl": "https://madie.cms.gov/MedicationAdministration/a479f1f6-a218-481a-a021-db4f4c629cd5",
    "resource": {
      "resourceType": "MedicationAdministration",
      "id": "a479f1f6-a218-481a-a021-db4f4c629cd5",
      "meta": {
        "profile": [ "http://hl7.org/fhir/us/qicore/StructureDefinition/qicore-medicationadministration" ]
      },
      "status": "completed",
      "medicationCodeableConcept": {
        "coding": [ {
          "system": "http://www.nlm.nih.gov/research/umls/rxnorm",
          "code": "1010600",
          "display": "Opioids, All"
        } ]
      },
      "subject": {
        "reference": "Patient/ba6e76f8-573d-48c3-b106-8f91fa02b1a9"
      },
      "effectivePeriod": {
        "start": "2025-12-31T08:00:00.000+00:00",
        "end": "2025-12-31T08:15:00.000+00:00"
      }
    },
    "request": {
      "method": "PUT",
      "url": "MedicationAdministration/a479f1f6-a218-481a-a021-db4f4c629cd5"
    }
  }, {
    "fullUrl": "https://madie.cms.gov/Coverage/58ed5146-259c-49b8-aa3d-e2cd71a05231",
    "resource": {
      "resourceType": "Coverage",
      "id": "58ed5146-259c-49b8-aa3d-e2cd71a05231",
      "meta": {
        "profile": [ "http://hl7.org/fhir/us/qicore/StructureDefinition/qicore-coverage" ]
      },
      "status": "active",
      "subscriberId": "523435",
      "beneficiary": {
        "reference": "Patient/ba6e76f8-573d-48c3-b106-8f91fa02b1a9"
      },
      "relationship": {
        "coding": [ {
          "system": "http://terminology.hl7.org/CodeSystem/subscriber-relationship",
          "code": "self"
        } ]
      },
      "payor": [ {
        "reference": "Organization/9003a14c-4469-4efe-9472-9a32216d811c"
      } ]
    },
    "request": {
      "method": "PUT",
      "url": "Coverage/58ed5146-259c-49b8-aa3d-e2cd71a05231"
    }
  }, {
    "fullUrl": "https://madie.cms.gov/Organization/9003a14c-4469-4efe-9472-9a32216d811c",
    "resource": {
      "resourceType": "Organization",
      "id": "9003a14c-4469-4efe-9472-9a32216d811c",
      "meta": {
        "profile": [ "http://hl7.org/fhir/us/qicore/StructureDefinition/qicore-organization" ]
      },
      "identifier": [ {
        "use": "temp",
        "system": "urn:oid:2.16.840.1.113883.4.4",
        "value": "21-3259825"
      } ],
      "active": true,
      "type": [ {
        "coding": [ {
          "system": "http://terminology.hl7.org/CodeSystem/organization-type",
          "code": "pay",
          "display": "Payer"
        } ]
      } ],
      "name": "Blue Cross Blue Shield of Texas",
      "telecom": [ {
        "system": "phone",
        "value": "(+1) 972-766-6900"
      } ],
      "address": [ {
        "use": "billing",
        "type": "postal",
        "line": [ "P.O. Box 660044" ],
        "city": "Dallas",
        "state": "TX",
        "postalCode": "75266-0044",
        "country": "USA"
      } ]
    },
    "request": {
      "method": "PUT",
      "url": "Organization/9003a14c-4469-4efe-9472-9a32216d811c"
    }
  }, {
    "fullUrl": "https://madie.cms.gov/MeasureReport/2222944b-65f0-4a7d-8d1d-e932d36c54ba",
    "resource": {
      "resourceType": "MeasureReport",
      "id": "2222944b-65f0-4a7d-8d1d-e932d36c54ba",
      "meta": {
        "profile": [ "http://hl7.org/fhir/us/cqfmeasures/StructureDefinition/test-case-cqfm" ]
      },
      "contained": [ {
        "resourceType": "Parameters",
        "id": "84c8b5ae-8c27-471e-a42e-da369a706acb-parameters",
        "parameter": [ {
          "name": "subject",
          "valueString": "ba6e76f8-573d-48c3-b106-8f91fa02b1a9"
        } ]
      } ],
      "extension": [ {
        "url": "http://hl7.org/fhir/StructureDefinition/cqf-inputParameters",
        "valueReference": {
          "reference": "#84c8b5ae-8c27-471e-a42e-da369a706acb-parameters"
        }
      }, {
        "url": "http://hl7.org/fhir/us/cqfmeasures/StructureDefinition/cqfm-testCaseDescription",
        "valueMarkdown": "Inpatient encounter starts in year prior to MP, ends 1st day of MP. Opioid given during encounter and not in OR. Meets IPP/Denom. "
      } ],
      "modifierExtension": [ {
        "url": "http://hl7.org/fhir/us/cqfmeasures/StructureDefinition/cqfm-isTestCase",
        "valueBoolean": true
      } ],
      "status": "complete",
      "type": "individual",
      "measure": "https://madie.cms.gov/Measure/CMS819FHIRHHORAE",
      "period": {
        "start": "2026-01-01",
        "end": "2026-12-31"
      },
      "group": [ {
        "id": "Group_1",
        "population": [ {
          "id": "InitialPopulation_1",
          "code": {
            "coding": [ {
              "system": "http://terminology.hl7.org/CodeSystem/measure-population",
              "code": "initial-population",
              "display": "Initial Population"
            } ]
          },
          "count": 1
        }, {
          "id": "Denominator_1",
          "code": {
            "coding": [ {
              "system": "http://terminology.hl7.org/CodeSystem/measure-population",
              "code": "denominator",
              "display": "Denominator"
            } ]
          },
          "count": 1
        }, {
          "id": "Numerator_1",
          "code": {
            "coding": [ {
              "system": "http://terminology.hl7.org/CodeSystem/measure-population",
              "code": "numerator",
              "display": "Numerator"
            } ]
          },
          "count": 0
        } ],
        "measureScore": {
          "value": 0.0
        }
      } ],
      "evaluatedResource": [ {
        "reference": "Patient/ba6e76f8-573d-48c3-b106-8f91fa02b1a9"
      }, {
        "reference": "Encounter/07bb3d39-4b54-40a9-a03a-84deb0e4f6e7"
      }, {
        "reference": "MedicationAdministration/a479f1f6-a218-481a-a021-db4f4c629cd5"
      }, {
        "reference": "Coverage/58ed5146-259c-49b8-aa3d-e2cd71a05231"
      }, {
        "reference": "Organization/9003a14c-4469-4efe-9472-9a32216d811c"
      } ]
    },
    "request": {
      "method": "PUT",
      "url": "MeasureReport/2222944b-65f0-4a7d-8d1d-e932d36c54ba"
    }
  } ]
}