{
  "resourceType": "Bundle",
  "id": "612e6e7d02c62a011f2ee909",
  "type": "transaction",
  "entry": [ {
    "fullUrl": "https://madie.cms.gov/Patient/2346628d-419a-491b-81d8-08c74ca8ea61",
    "resource": {
      "resourceType": "Patient",
      "id": "2346628d-419a-491b-81d8-08c74ca8ea61",
      "meta": {
        "profile": [ "http://hl7.org/fhir/us/qicore/StructureDefinition/qicore-patient" ]
      },
      "text": {
        "status": "generated",
        "div": "<div xmlns=\"http://www.w3.org/1999/xhtml\"><div class=\"hapiHeaderText\">CMODuringEDDoNotPerformFalse <b>DENEXPass </b></div><table class=\"hapiPropertyTable\"><tbody><tr><td>Identifier</td><td>45452ea1dc23640e1878befc89e45fab</td></tr><tr><td>Date of birth</td><td><span>03 March 1974</span></td></tr></tbody></table></div>"
      },
      "extension": [ {
        "url": "http://hl7.org/fhir/us/core/StructureDefinition/us-core-race",
        "extension": [ {
          "url": "ombCategory",
          "valueCoding": {
            "system": "urn:oid:2.16.840.1.113883.6.238",
            "code": "1002-5",
            "display": "American Indian or Alaska Native",
            "userSelected": true
          }
        }, {
          "url": "text",
          "valueString": "American Indian or Alaska Native"
        } ]
      }, {
        "url": "http://hl7.org/fhir/us/core/StructureDefinition/us-core-ethnicity",
        "extension": [ {
          "url": "ombCategory",
          "valueCoding": {
            "system": "urn:oid:2.16.840.1.113883.6.238",
            "code": "2135-2",
            "display": "Hispanic or Latino",
            "userSelected": true
          }
        }, {
          "url": "text",
          "valueString": "Hispanic or Latino"
        } ]
      } ],
      "identifier": [ {
        "type": {
          "coding": [ {
            "system": "http://terminology.hl7.org/CodeSystem/v2-0203",
            "code": "MR"
          } ]
        },
        "system": "https://bonnie-fhir.healthit.gov/",
        "value": "612e6e7d02c62a011f2ee909"
      } ],
      "active": true,
      "name": [ {
        "use": "usual",
        "family": "DENEXPass",
        "given": [ "CMODuringEDDoNotPerformFalse" ]
      } ],
      "gender": "female",
      "birthDate": "1975-03-03"
    },
    "request": {
      "method": "PUT",
      "url": "Patient/2346628d-419a-491b-81d8-08c74ca8ea61"
    }
  }, {
    "fullUrl": "https://madie.cms.gov/Encounter/14cbfac2-3e40-4015-ad3d-83471c22b753",
    "resource": {
      "resourceType": "Encounter",
      "id": "14cbfac2-3e40-4015-ad3d-83471c22b753",
      "meta": {
        "profile": [ "http://hl7.org/fhir/us/qicore/StructureDefinition/qicore-encounter" ]
      },
      "status": "finished",
      "class": {
        "system": "http://terminology.hl7.org/CodeSystem/v3-ActCode",
        "code": "EMER",
        "display": "emergency"
      },
      "type": [ {
        "coding": [ {
          "system": "http://snomed.info/sct",
          "code": "4525004"
        } ]
      } ],
      "subject": {
        "reference": "Patient/2346628d-419a-491b-81d8-08c74ca8ea61"
      },
      "period": {
        "start": "2026-12-04T06:00:00.000+00:00",
        "end": "2026-12-04T07:15:00.000+00:00"
      },
      "length": {
        "value": 0,
        "unit": "days"
      }
    },
    "request": {
      "method": "PUT",
      "url": "Encounter/14cbfac2-3e40-4015-ad3d-83471c22b753"
    }
  }, {
    "fullUrl": "https://madie.cms.gov/Encounter/c27cbe02-80af-4567-bc80-ddd340efa9ae",
    "resource": {
      "resourceType": "Encounter",
      "id": "c27cbe02-80af-4567-bc80-ddd340efa9ae",
      "meta": {
        "profile": [ "http://hl7.org/fhir/us/qicore/StructureDefinition/qicore-encounter" ]
      },
      "status": "finished",
      "class": {
        "system": "http://terminology.hl7.org/CodeSystem/v3-ActCode",
        "code": "IMP",
        "display": "inpatient encounter"
      },
      "type": [ {
        "coding": [ {
          "system": "http://snomed.info/sct",
          "code": "8715000"
        } ]
      } ],
      "subject": {
        "reference": "Patient/2346628d-419a-491b-81d8-08c74ca8ea61"
      },
      "period": {
        "start": "2026-12-04T08:00:00.000+00:00",
        "end": "2026-12-30T08:15:00.000+00:00"
      },
      "length": {
        "value": 26,
        "unit": "days"
      },
      "location": [ {
        "location": {
          "reference": "Location/b437683d-a091-4c3f-8372-93475ef132ce"
        },
        "period": {
          "start": "2026-12-26T08:00:00.000+00:00",
          "end": "2026-12-28T08:15:00.000+00:00"
        }
      } ]
    },
    "request": {
      "method": "PUT",
      "url": "Encounter/c27cbe02-80af-4567-bc80-ddd340efa9ae"
    }
  }, {
    "fullUrl": "https://madie.cms.gov/ServiceRequest/fd7b2ff6-8ce1-417c-9269-c4a2aa8c15a2",
    "resource": {
      "resourceType": "ServiceRequest",
      "id": "fd7b2ff6-8ce1-417c-9269-c4a2aa8c15a2",
      "meta": {
        "profile": [ "http://hl7.org/fhir/us/qicore/StructureDefinition/qicore-servicerequest" ]
      },
      "status": "completed",
      "intent": "order",
      "doNotPerform": false,
      "code": {
        "coding": [ {
          "system": "http://snomed.info/sct",
          "code": "133918004"
        } ]
      },
      "subject": {
        "reference": "Patient/2346628d-419a-491b-81d8-08c74ca8ea61"
      },
      "authoredOn": "2026-12-04T06:30:00.000+00:00"
    },
    "request": {
      "method": "PUT",
      "url": "ServiceRequest/fd7b2ff6-8ce1-417c-9269-c4a2aa8c15a2"
    }
  }, {
    "fullUrl": "https://madie.cms.gov/Coverage/e2032af9-bd3f-406d-b0e4-3b417c10519d",
    "resource": {
      "resourceType": "Coverage",
      "id": "e2032af9-bd3f-406d-b0e4-3b417c10519d",
      "status": "active",
      "beneficiary": {
        "reference": "Patient/2346628d-419a-491b-81d8-08c74ca8ea61"
      },
      "period": {
        "start": "1975-03-03T08:00:00.000+00:00"
      },
      "payor": [ {
        "reference": "Organization/15ced8ae-26dd-4ba9-b469-19df73dd0013"
      } ]
    },
    "request": {
      "method": "PUT",
      "url": "Coverage/e2032af9-bd3f-406d-b0e4-3b417c10519d"
    }
  }, {
    "fullUrl": "https://madie.cms.gov/Location/9bc36b90-0c21-4ab6-aa74-eaa7cdfcee17",
    "resource": {
      "resourceType": "Location",
      "id": "9bc36b90-0c21-4ab6-aa74-eaa7cdfcee17",
      "type": [ {
        "coding": [ {
          "system": "http://cts.nlm.nih.gov/fhir/cs/hsloc",
          "version": "2020",
          "code": "1025-6",
          "display": "Trauma Critical Care",
          "userSelected": true
        } ]
      } ]
    },
    "request": {
      "method": "PUT",
      "url": "Location/9bc36b90-0c21-4ab6-aa74-eaa7cdfcee17"
    }
  }, {
    "fullUrl": "https://madie.cms.gov/Location/b437683d-a091-4c3f-8372-93475ef132ce",
    "resource": {
      "resourceType": "Location",
      "id": "b437683d-a091-4c3f-8372-93475ef132ce",
      "meta": {
        "profile": [ "http://hl7.org/fhir/us/qicore/StructureDefinition/qicore-location" ]
      },
      "identifier": [ {
        "use": "usual",
        "system": "http://exampleoflocation.com",
        "value": "B1-S.F2"
      } ],
      "name": "Medical Surgical East, first floor",
      "type": [ {
        "coding": [ {
          "system": "https://www.cdc.gov/nhsn/cdaportal/terminology/codesystem/hsloc.html",
          "code": "1025-6",
          "display": "Trauma Critical Care",
          "userSelected": true
        } ]
      } ]
    },
    "request": {
      "method": "PUT",
      "url": "Location/b437683d-a091-4c3f-8372-93475ef132ce"
    }
  }, {
    "fullUrl": "https://madie.cms.gov/Organization/15ced8ae-26dd-4ba9-b469-19df73dd0013",
    "resource": {
      "resourceType": "Organization",
      "id": "15ced8ae-26dd-4ba9-b469-19df73dd0013",
      "meta": {
        "profile": [ "http://hl7.org/fhir/us/qicore/StructureDefinition/qicore-organization" ]
      },
      "identifier": [ {
        "use": "temp",
        "system": "urn:oid:2.16.840.1.113883.4.4",
        "value": "21-3259825"
      } ],
      "active": true,
      "type": [ {
        "coding": [ {
          "system": "http://terminology.hl7.org/CodeSystem/organization-type",
          "code": "pay",
          "display": "Payer"
        } ]
      } ],
      "name": "Blue Cross Blue Shield of Texas",
      "telecom": [ {
        "system": "phone",
        "value": "(+1) 972-766-6900"
      } ],
      "address": [ {
        "use": "billing",
        "type": "postal",
        "line": [ "P.O. Box 660044" ],
        "city": "Dallas",
        "state": "TX",
        "postalCode": "75266-0044",
        "country": "USA"
      } ]
    },
    "request": {
      "method": "PUT",
      "url": "Organization/15ced8ae-26dd-4ba9-b469-19df73dd0013"
    }
  }, {
    "fullUrl": "https://madie.cms.gov/Practitioner/b9f9e090-bf9d-4ff2-8e0e-15b617c56272",
    "resource": {
      "resourceType": "Practitioner",
      "id": "b9f9e090-bf9d-4ff2-8e0e-15b617c56272",
      "identifier": [ {
        "system": "http://hl7.org/fhir/sid/us-npi",
        "value": "123456"
      } ],
      "name": [ {
        "family": "Evil",
        "prefix": [ "Dr" ]
      } ]
    },
    "request": {
      "method": "PUT",
      "url": "Practitioner/b9f9e090-bf9d-4ff2-8e0e-15b617c56272"
    }
  }, {
    "fullUrl": "https://madie.cms.gov/MeasureReport/877a21f4-3adf-48cc-8fa5-81c8a9166fc7",
    "resource": {
      "resourceType": "MeasureReport",
      "id": "877a21f4-3adf-48cc-8fa5-81c8a9166fc7",
      "meta": {
        "profile": [ "http://hl7.org/fhir/us/cqfmeasures/StructureDefinition/test-case-cqfm" ]
      },
      "contained": [ {
        "resourceType": "Parameters",
        "id": "43836345-6dd2-4666-84f1-5e4f97fa8bc7-parameters",
        "parameter": [ {
          "name": "subject",
          "valueString": "2346628d-419a-491b-81d8-08c74ca8ea61"
        } ]
      } ],
      "extension": [ {
        "url": "http://hl7.org/fhir/StructureDefinition/cqf-inputParameters",
        "valueReference": {
          "reference": "#43836345-6dd2-4666-84f1-5e4f97fa8bc7-parameters"
        }
      }, {
        "url": "http://hl7.org/fhir/us/cqfmeasures/StructureDefinition/cqfm-testCaseDescription",
        "valueMarkdown": "test and cover servicerequest do not perform is false"
      } ],
      "modifierExtension": [ {
        "url": "http://hl7.org/fhir/us/cqfmeasures/StructureDefinition/cqfm-isTestCase",
        "valueBoolean": true
      } ],
      "status": "complete",
      "type": "individual",
      "measure": "https://madie.cms.gov/Measure/CMS190FHIRVTEProphylaxisICU",
      "period": {
        "start": "2026-01-01",
        "end": "2026-12-31"
      },
      "group": [ {
        "id": "Group_1",
        "population": [ {
          "id": "InitialPopulation_1",
          "code": {
            "coding": [ {
              "system": "http://terminology.hl7.org/CodeSystem/measure-population",
              "code": "initial-population",
              "display": "Initial Population"
            } ]
          },
          "count": 1
        }, {
          "id": "Denominator_1",
          "code": {
            "coding": [ {
              "system": "http://terminology.hl7.org/CodeSystem/measure-population",
              "code": "denominator",
              "display": "Denominator"
            } ]
          },
          "count": 1
        }, {
          "id": "DenominatorExclusion_1",
          "code": {
            "coding": [ {
              "system": "http://terminology.hl7.org/CodeSystem/measure-population",
              "code": "denominator-exclusion",
              "display": "Denominator Exclusion"
            } ]
          },
          "count": 1
        }, {
          "id": "Numerator_1",
          "code": {
            "coding": [ {
              "system": "http://terminology.hl7.org/CodeSystem/measure-population",
              "code": "numerator",
              "display": "Numerator"
            } ]
          },
          "count": 0
        }, {
          "id": "DenominatorException_1",
          "code": {
            "coding": [ {
              "system": "http://terminology.hl7.org/CodeSystem/measure-population",
              "code": "denominator-exception",
              "display": "Denominator Exception"
            } ]
          },
          "count": 0
        } ],
        "measureScore": {
          "value": 0.0
        }
      } ],
      "evaluatedResource": [ {
        "reference": "Patient/2346628d-419a-491b-81d8-08c74ca8ea61"
      }, {
        "reference": "Encounter/14cbfac2-3e40-4015-ad3d-83471c22b753"
      }, {
        "reference": "Encounter/c27cbe02-80af-4567-bc80-ddd340efa9ae"
      }, {
        "reference": "ServiceRequest/fd7b2ff6-8ce1-417c-9269-c4a2aa8c15a2"
      }, {
        "reference": "Coverage/e2032af9-bd3f-406d-b0e4-3b417c10519d"
      }, {
        "reference": "Location/9bc36b90-0c21-4ab6-aa74-eaa7cdfcee17"
      }, {
        "reference": "Location/b437683d-a091-4c3f-8372-93475ef132ce"
      }, {
        "reference": "Organization/15ced8ae-26dd-4ba9-b469-19df73dd0013"
      }, {
        "reference": "Practitioner/b9f9e090-bf9d-4ff2-8e0e-15b617c56272"
      } ]
    },
    "request": {
      "method": "PUT",
      "url": "MeasureReport/877a21f4-3adf-48cc-8fa5-81c8a9166fc7"
    }
  } ]
}