{
  "resourceType": "Bundle",
  "id": "633b3f9f0968f80122503cde",
  "type": "transaction",
  "entry": [ {
    "fullUrl": "https://madie.cms.gov/Patient/996cc735-1136-404d-9664-bd7912aafe9b",
    "resource": {
      "resourceType": "Patient",
      "id": "996cc735-1136-404d-9664-bd7912aafe9b",
      "meta": {
        "profile": [ "http://hl7.org/fhir/us/qicore/StructureDefinition/qicore-patient" ]
      },
      "text": {
        "status": "generated",
        "div": "<div xmlns=\"http://www.w3.org/1999/xhtml\"><div class=\"hapiHeaderText\">LastAssPrfEGARelvTmEQLastTmDELRsltDtTime<b>DENOMPASS</b></div><table class=\"hapiPropertyTable\"><tbody><tr><td>Date of birth</td><td><span>01 February 2004</span></td></tr></tbody></table></div>"
      },
      "extension": [ {
        "url": "http://hl7.org/fhir/us/core/StructureDefinition/us-core-race",
        "extension": [ {
          "url": "ombCategory",
          "valueCoding": {
            "system": "urn:oid:2.16.840.1.113883.6.238",
            "code": "1002-5",
            "display": "American Indian or Alaska Native",
            "userSelected": true
          }
        }, {
          "url": "text",
          "valueString": "American Indian or Alaska Native"
        } ]
      }, {
        "url": "http://hl7.org/fhir/us/core/StructureDefinition/us-core-ethnicity",
        "extension": [ {
          "url": "ombCategory",
          "valueCoding": {
            "system": "urn:oid:2.16.840.1.113883.6.238",
            "code": "2135-2",
            "display": "Hispanic or Latino",
            "userSelected": true
          }
        }, {
          "url": "text",
          "valueString": "Hispanic or Latino"
        } ]
      } ],
      "identifier": [ {
        "type": {
          "coding": [ {
            "system": "http://terminology.hl7.org/CodeSystem/v2-0203",
            "code": "MR"
          } ]
        },
        "system": "https://bonnie-fhir.healthit.gov/",
        "value": "633b3f9f0968f80122503cde"
      } ],
      "active": true,
      "name": [ {
        "use": "usual",
        "family": "DENOMPass",
        "given": [ "LastAssPrfEGARelvTmEQLastTmDELRsltDtTime" ]
      } ],
      "gender": "female",
      "birthDate": "2005-02-01"
    },
    "request": {
      "method": "PUT",
      "url": "Patient/996cc735-1136-404d-9664-bd7912aafe9b"
    }
  }, {
    "fullUrl": "https://madie.cms.gov/Observation/fde0b614-99e4-4d32-bc3c-f72db32f19d1",
    "resource": {
      "resourceType": "Observation",
      "id": "fde0b614-99e4-4d32-bc3c-f72db32f19d1",
      "meta": {
        "profile": [ "http://hl7.org/fhir/us/qicore/StructureDefinition/qicore-simple-observation" ]
      },
      "status": "final",
      "category": [ {
        "coding": [ {
          "system": "http://terminology.hl7.org/CodeSystem/observation-category",
          "code": "exam",
          "display": "exam",
          "userSelected": true
        } ]
      } ],
      "code": {
        "coding": [ {
          "system": "http://loinc.org",
          "code": "93857-1"
        } ]
      },
      "subject": {
        "reference": "Patient/996cc735-1136-404d-9664-bd7912aafe9b"
      },
      "effectiveDateTime": "2026-02-01T08:00:00.000+00:00",
      "performer": [ {
        "reference": "Organization/example1",
        "display": "Hendricks Country Hospital"
      } ],
      "valueDateTime": "2026-02-01T08:00:00.000+00:00"
    },
    "request": {
      "method": "PUT",
      "url": "Observation/fde0b614-99e4-4d32-bc3c-f72db32f19d1"
    }
  }, {
    "fullUrl": "https://madie.cms.gov/Observation/d72d3402-e29c-431d-8ee8-89057e5fc75c",
    "resource": {
      "resourceType": "Observation",
      "id": "d72d3402-e29c-431d-8ee8-89057e5fc75c",
      "meta": {
        "profile": [ "http://hl7.org/fhir/us/qicore/StructureDefinition/qicore-simple-observation" ]
      },
      "status": "final",
      "category": [ {
        "coding": [ {
          "system": "http://terminology.hl7.org/CodeSystem/observation-category",
          "code": "exam",
          "display": "exam",
          "userSelected": true
        } ]
      } ],
      "code": {
        "coding": [ {
          "system": "http://loinc.org",
          "code": "11778-8"
        } ]
      },
      "subject": {
        "reference": "Patient/996cc735-1136-404d-9664-bd7912aafe9b"
      },
      "effectiveDateTime": "2026-02-01T08:00:00.000+00:00",
      "performer": [ {
        "reference": "Organization/example1",
        "display": "Hendricks Country Hospital"
      } ],
      "valueDateTime": "2026-02-01T08:00:00.000+00:00"
    },
    "request": {
      "method": "PUT",
      "url": "Observation/d72d3402-e29c-431d-8ee8-89057e5fc75c"
    }
  }, {
    "fullUrl": "https://madie.cms.gov/Encounter/e7d0f665-24bc-413b-9faa-22d6e7af3cc1",
    "resource": {
      "resourceType": "Encounter",
      "id": "e7d0f665-24bc-413b-9faa-22d6e7af3cc1",
      "meta": {
        "profile": [ "http://hl7.org/fhir/us/qicore/StructureDefinition/qicore-encounter" ]
      },
      "status": "finished",
      "class": {
        "system": "http://terminology.hl7.org/CodeSystem/v3-ActCode",
        "code": "IMP",
        "display": "inpatient encounter"
      },
      "type": [ {
        "coding": [ {
          "system": "http://snomed.info/sct",
          "code": "183452005"
        } ]
      } ],
      "subject": {
        "reference": "Patient/996cc735-1136-404d-9664-bd7912aafe9b"
      },
      "period": {
        "start": "2026-02-01T08:00:00.000+00:00",
        "end": "2026-02-05T08:15:00.000+00:00"
      }
    },
    "request": {
      "method": "PUT",
      "url": "Encounter/e7d0f665-24bc-413b-9faa-22d6e7af3cc1"
    }
  }, {
    "fullUrl": "https://madie.cms.gov/Procedure/1c0ee871-2859-497f-b2cb-9616f80587da",
    "resource": {
      "resourceType": "Procedure",
      "id": "1c0ee871-2859-497f-b2cb-9616f80587da",
      "meta": {
        "profile": [ "http://hl7.org/fhir/us/qicore/StructureDefinition/qicore-procedure" ]
      },
      "extension": [ {
        "url": "http://hl7.org/fhir/us/qicore/StructureDefinition/qicore-recorded",
        "valueDateTime": "2014-04-05T13:35:00.000+00:00"
      } ],
      "status": "completed",
      "code": {
        "coding": [ {
          "system": "http://snomed.info/sct",
          "code": "10745001"
        } ]
      },
      "subject": {
        "reference": "Patient/996cc735-1136-404d-9664-bd7912aafe9b"
      },
      "performedPeriod": {
        "start": "2026-02-01T08:00:00.000+00:00",
        "end": "2026-02-05T08:15:00.000+00:00"
      }
    },
    "request": {
      "method": "PUT",
      "url": "Procedure/1c0ee871-2859-497f-b2cb-9616f80587da"
    }
  }, {
    "fullUrl": "https://madie.cms.gov/Coverage/40541787-dd1f-4817-a805-76ae437792f6",
    "resource": {
      "resourceType": "Coverage",
      "id": "40541787-dd1f-4817-a805-76ae437792f6",
      "meta": {
        "profile": [ "http://hl7.org/fhir/us/qicore/StructureDefinition/qicore-coverage" ]
      },
      "status": "active",
      "subscriberId": "523435",
      "beneficiary": {
        "reference": "Patient/996cc735-1136-404d-9664-bd7912aafe9b"
      },
      "relationship": {
        "coding": [ {
          "system": "http://terminology.hl7.org/CodeSystem/subscriber-relationship",
          "code": "self"
        } ]
      },
      "payor": [ {
        "reference": "Organization/9e4db85b-e3d1-49a3-93ea-6c8f26e74b72"
      } ]
    },
    "request": {
      "method": "PUT",
      "url": "Coverage/40541787-dd1f-4817-a805-76ae437792f6"
    }
  }, {
    "fullUrl": "https://madie.cms.gov/Organization/9e4db85b-e3d1-49a3-93ea-6c8f26e74b72",
    "resource": {
      "resourceType": "Organization",
      "id": "9e4db85b-e3d1-49a3-93ea-6c8f26e74b72",
      "meta": {
        "profile": [ "http://hl7.org/fhir/us/qicore/StructureDefinition/qicore-organization" ]
      },
      "identifier": [ {
        "use": "temp",
        "system": "urn:oid:2.16.840.1.113883.4.4",
        "value": "21-3259825"
      } ],
      "active": true,
      "type": [ {
        "coding": [ {
          "system": "http://terminology.hl7.org/CodeSystem/organization-type",
          "code": "pay",
          "display": "Payer"
        } ]
      } ],
      "name": "Blue Cross Blue Shield of Texas",
      "telecom": [ {
        "system": "phone",
        "value": "(+1) 972-766-6900"
      } ],
      "address": [ {
        "use": "billing",
        "type": "postal",
        "line": [ "P.O. Box 660044" ],
        "city": "Dallas",
        "state": "TX",
        "postalCode": "75266-0044",
        "country": "USA"
      } ]
    },
    "request": {
      "method": "PUT",
      "url": "Organization/9e4db85b-e3d1-49a3-93ea-6c8f26e74b72"
    }
  }, {
    "fullUrl": "https://madie.cms.gov/Practitioner/c8a0edaf-0b16-42c6-b5f8-09c22bf5b2e9",
    "resource": {
      "resourceType": "Practitioner",
      "id": "c8a0edaf-0b16-42c6-b5f8-09c22bf5b2e9",
      "meta": {
        "profile": [ "http://hl7.org/fhir/us/qicore/StructureDefinition/qicore-practitioner" ]
      },
      "identifier": [ {
        "system": "http://hl7.org/fhir/sid/us-npi",
        "value": "1234567890"
      } ],
      "name": [ {
        "family": "Evil",
        "prefix": [ "Dr" ]
      } ]
    },
    "request": {
      "method": "PUT",
      "url": "Practitioner/c8a0edaf-0b16-42c6-b5f8-09c22bf5b2e9"
    }
  }, {
    "fullUrl": "https://madie.cms.gov/MeasureReport/5681e937-22f2-45b9-8f74-791a2f8f426c",
    "resource": {
      "resourceType": "MeasureReport",
      "id": "5681e937-22f2-45b9-8f74-791a2f8f426c",
      "meta": {
        "profile": [ "http://hl7.org/fhir/us/cqfmeasures/StructureDefinition/test-case-cqfm" ]
      },
      "contained": [ {
        "resourceType": "Parameters",
        "id": "d258a4e3-389b-4341-87dc-434553453e46-parameters",
        "parameter": [ {
          "name": "subject",
          "valueString": "996cc735-1136-404d-9664-bd7912aafe9b"
        } ]
      } ],
      "extension": [ {
        "url": "http://hl7.org/fhir/StructureDefinition/cqf-inputParameters",
        "valueReference": {
          "reference": "#d258a4e3-389b-4341-87dc-434553453e46-parameters"
        }
      }, {
        "url": "http://hl7.org/fhir/us/cqfmeasures/StructureDefinition/cqfm-testCaseDescription",
        "valueMarkdown": "Last assessment Performed, Estimated Delivery Date, Relevant time equal to  Delivery Result Date/Time\n"
      } ],
      "modifierExtension": [ {
        "url": "http://hl7.org/fhir/us/cqfmeasures/StructureDefinition/cqfm-isTestCase",
        "valueBoolean": true
      } ],
      "status": "complete",
      "type": "individual",
      "measure": "https://madie.cms.gov/Measure/CMS1028FHIRPCSevereOBComps",
      "period": {
        "start": "2026-01-01",
        "end": "2026-12-31"
      },
      "group": [ {
        "id": "Group_1",
        "population": [ {
          "id": "InitialPopulation_1",
          "code": {
            "coding": [ {
              "system": "http://terminology.hl7.org/CodeSystem/measure-population",
              "code": "initial-population",
              "display": "Initial Population"
            } ]
          },
          "count": 1
        }, {
          "id": "Denominator_1",
          "code": {
            "coding": [ {
              "system": "http://terminology.hl7.org/CodeSystem/measure-population",
              "code": "denominator",
              "display": "Denominator"
            } ]
          },
          "count": 1
        }, {
          "id": "Numerator_1",
          "code": {
            "coding": [ {
              "system": "http://terminology.hl7.org/CodeSystem/measure-population",
              "code": "numerator",
              "display": "Numerator"
            } ]
          },
          "count": 0
        }, {
          "id": "NumeratorExclusion_1",
          "code": {
            "coding": [ {
              "system": "http://terminology.hl7.org/CodeSystem/measure-population",
              "code": "numerator-exclusion",
              "display": "Numerator Exclusion"
            } ]
          },
          "count": 0
        } ],
        "measureScore": {
          "value": 0.0
        }
      }, {
        "id": "Group_2",
        "population": [ {
          "id": "InitialPopulation_2",
          "code": {
            "coding": [ {
              "system": "http://terminology.hl7.org/CodeSystem/measure-population",
              "code": "initial-population",
              "display": "Initial Population"
            } ]
          },
          "count": 1
        }, {
          "id": "Denominator_2",
          "code": {
            "coding": [ {
              "system": "http://terminology.hl7.org/CodeSystem/measure-population",
              "code": "denominator",
              "display": "Denominator"
            } ]
          },
          "count": 1
        }, {
          "id": "Numerator_2",
          "code": {
            "coding": [ {
              "system": "http://terminology.hl7.org/CodeSystem/measure-population",
              "code": "numerator",
              "display": "Numerator"
            } ]
          },
          "count": 0
        }, {
          "id": "NumeratorExclusion_2",
          "code": {
            "coding": [ {
              "system": "http://terminology.hl7.org/CodeSystem/measure-population",
              "code": "numerator-exclusion",
              "display": "Numerator Exclusion"
            } ]
          },
          "count": 0
        } ],
        "measureScore": {
          "value": 0.0
        }
      } ],
      "evaluatedResource": [ {
        "reference": "Patient/996cc735-1136-404d-9664-bd7912aafe9b"
      }, {
        "reference": "Observation/fde0b614-99e4-4d32-bc3c-f72db32f19d1"
      }, {
        "reference": "Observation/d72d3402-e29c-431d-8ee8-89057e5fc75c"
      }, {
        "reference": "Encounter/e7d0f665-24bc-413b-9faa-22d6e7af3cc1"
      }, {
        "reference": "Procedure/1c0ee871-2859-497f-b2cb-9616f80587da"
      }, {
        "reference": "Coverage/40541787-dd1f-4817-a805-76ae437792f6"
      }, {
        "reference": "Organization/9e4db85b-e3d1-49a3-93ea-6c8f26e74b72"
      }, {
        "reference": "Practitioner/c8a0edaf-0b16-42c6-b5f8-09c22bf5b2e9"
      } ]
    },
    "request": {
      "method": "PUT",
      "url": "MeasureReport/5681e937-22f2-45b9-8f74-791a2f8f426c"
    }
  } ]
}