{
  "resourceType": "Bundle",
  "id": "62fbb031667018577ef70c8a",
  "type": "collection",
  "entry": [ {
    "fullUrl": "https://madie.cms.gov/Patient/933dce03-06ac-41e1-ba4f-0de3776046ee",
    "resource": {
      "resourceType": "Patient",
      "id": "933dce03-06ac-41e1-ba4f-0de3776046ee",
      "meta": {
        "profile": [ "http://hl7.org/fhir/us/qicore/StructureDefinition/qicore-patient" ]
      },
      "extension": [ {
        "url": "http://hl7.org/fhir/us/core/StructureDefinition/us-core-race",
        "extension": [ {
          "url": "ombCategory",
          "valueCoding": {
            "system": "urn:oid:2.16.840.1.113883.6.238",
            "code": "1002-5",
            "display": "American Indian or Alaska Native",
            "userSelected": true
          }
        }, {
          "url": "text",
          "valueString": "American Indian or Alaska Native"
        } ]
      }, {
        "url": "http://hl7.org/fhir/us/core/StructureDefinition/us-core-ethnicity",
        "extension": [ {
          "url": "ombCategory",
          "valueCoding": {
            "system": "urn:oid:2.16.840.1.113883.6.238",
            "code": "2135-2",
            "display": "Hispanic or Latino",
            "userSelected": true
          }
        }, {
          "url": "text",
          "valueString": "Hispanic or Latino"
        } ]
      } ],
      "identifier": [ {
        "type": {
          "coding": [ {
            "system": "http://terminology.hl7.org/CodeSystem/v2-0203",
            "code": "MR"
          } ]
        },
        "system": "https://bonnie-fhir.healthit.gov/",
        "value": "62fbb031667018577ef70c8a"
      } ],
      "name": [ {
        "family": "IPFail",
        "given": [ "DiagnosisResolved" ]
      } ],
      "gender": "male",
      "birthDate": "1967-01-19"
    }
  }, {
    "fullUrl": "https://madie.cms.gov/Condition/8b13039b-2d46-4ffe-a21a-af8d33b7b17e",
    "resource": {
      "resourceType": "Condition",
      "id": "8b13039b-2d46-4ffe-a21a-af8d33b7b17e",
      "meta": {
        "profile": [ "http://hl7.org/fhir/us/qicore/StructureDefinition/qicore-condition-problems-health-concerns" ]
      },
      "clinicalStatus": {
        "coding": [ {
          "system": "http://terminology.hl7.org/CodeSystem/condition-clinical",
          "code": "resolved",
          "display": "resolved",
          "userSelected": true
        } ]
      },
      "category": [ {
        "coding": [ {
          "system": "http://terminology.hl7.org/CodeSystem/condition-category",
          "code": "problem-list-item",
          "display": "Problem List Item"
        }, {
          "system": "http://snomed.info/sct",
          "code": "439401001",
          "display": "Diagnosis"
        } ]
      } ],
      "code": {
        "coding": [ {
          "system": "http://snomed.info/sct",
          "code": "254900004",
          "display": "Carcinoma of prostate (disorder)",
          "userSelected": true
        } ]
      },
      "subject": {
        "reference": "Patient/933dce03-06ac-41e1-ba4f-0de3776046ee"
      },
      "onsetDateTime": "2022-08-17T08:00:00.000+00:00",
      "recordedDate": "2023-08-16T08:00:00.000+00:00"
    }
  }, {
    "fullUrl": "https://madie.cms.gov/Coverage/e9b20a22-c193-4fef-92bd-40e72ea09d0f",
    "resource": {
      "resourceType": "Coverage",
      "id": "e9b20a22-c193-4fef-92bd-40e72ea09d0f",
      "meta": {
        "profile": [ "http://hl7.org/fhir/us/qicore/StructureDefinition/qicore-coverage" ]
      },
      "status": "active",
      "subscriberId": "123456789",
      "beneficiary": {
        "reference": "Patient/933dce03-06ac-41e1-ba4f-0de3776046ee"
      },
      "relationship": {
        "coding": [ {
          "system": "http://terminology.hl7.org/CodeSystem/subscriber-relationship",
          "code": "self",
          "display": "Self",
          "userSelected": true
        } ]
      },
      "payor": [ {
        "reference": "Organization/6028aa5f-023d-40ea-8a19-0fc072ea032c"
      } ]
    }
  }, {
    "fullUrl": "https://madie.cms.gov/Organization/6028aa5f-023d-40ea-8a19-0fc072ea032c",
    "resource": {
      "resourceType": "Organization",
      "id": "6028aa5f-023d-40ea-8a19-0fc072ea032c",
      "meta": {
        "profile": [ "http://hl7.org/fhir/us/qicore/StructureDefinition/qicore-organization" ]
      },
      "identifier": [ {
        "use": "temp",
        "system": "urn:oid:2.16.840.1.113883.4.4",
        "value": "21-3259825"
      } ],
      "active": true,
      "type": [ {
        "coding": [ {
          "system": "http://terminology.hl7.org/CodeSystem/organization-type",
          "code": "pay",
          "display": "Payer"
        } ]
      } ],
      "name": "Blue Cross Blue Shield of Texas",
      "telecom": [ {
        "system": "phone",
        "value": "(+1) 972-766-6900"
      } ],
      "address": [ {
        "use": "billing",
        "type": "postal",
        "line": [ "P.O. Box 660044" ],
        "city": "Dallas",
        "state": "TX",
        "postalCode": "75266-0044",
        "country": "USA"
      } ]
    }
  }, {
    "fullUrl": "https://madie.cms.gov/Practitioner/7cba2503-1acf-4db5-81f4-4223be8f7aef",
    "resource": {
      "resourceType": "Practitioner",
      "id": "7cba2503-1acf-4db5-81f4-4223be8f7aef",
      "meta": {
        "profile": [ "http://hl7.org/fhir/us/qicore/StructureDefinition/qicore-practitioner" ]
      },
      "identifier": [ {
        "system": "http://hl7.org/fhir/sid/us-npi",
        "value": "1234567893"
      } ],
      "name": [ {
        "family": "Evil",
        "prefix": [ "Dr" ]
      } ]
    }
  }, {
    "fullUrl": "https://madie.cms.gov/MeasureReport/ef709df0-508d-4950-8e52-f2a3d9369b7d",
    "resource": {
      "resourceType": "MeasureReport",
      "id": "ef709df0-508d-4950-8e52-f2a3d9369b7d",
      "meta": {
        "profile": [ "http://hl7.org/fhir/us/cqfmeasures/StructureDefinition/test-case-cqfm" ]
      },
      "contained": [ {
        "resourceType": "Parameters",
        "id": "5e5c1f48-6606-48a2-a452-2343db5797b7-parameters",
        "parameter": [ {
          "name": "subject",
          "valueString": "933dce03-06ac-41e1-ba4f-0de3776046ee"
        } ]
      } ],
      "extension": [ {
        "url": "http://hl7.org/fhir/StructureDefinition/cqf-inputParameters",
        "valueReference": {
          "reference": "#5e5c1f48-6606-48a2-a452-2343db5797b7-parameters"
        }
      }, {
        "url": "http://hl7.org/fhir/us/cqfmeasures/StructureDefinition/cqfm-testCaseDescription",
        "valueMarkdown": "Prostate Ca Diagnosis onset before MP. Clinical status is not active (resolved)."
      } ],
      "modifierExtension": [ {
        "url": "http://hl7.org/fhir/us/cqfmeasures/StructureDefinition/cqfm-isTestCase",
        "valueBoolean": true
      } ],
      "status": "complete",
      "type": "individual",
      "measure": "https://madie.cms.gov/Measure/CMS129FHIRProstCaBoneScanUse",
      "period": {
        "start": "2026-01-01",
        "end": "2026-12-31"
      },
      "group": [ {
        "id": "Group_1",
        "population": [ {
          "id": "InitialPopulation_1",
          "code": {
            "coding": [ {
              "system": "http://terminology.hl7.org/CodeSystem/measure-population",
              "code": "initial-population",
              "display": "Initial Population"
            } ]
          },
          "count": 0
        }, {
          "id": "Denominator_1",
          "code": {
            "coding": [ {
              "system": "http://terminology.hl7.org/CodeSystem/measure-population",
              "code": "denominator",
              "display": "Denominator"
            } ]
          },
          "count": 0
        }, {
          "id": "Numerator_1",
          "code": {
            "coding": [ {
              "system": "http://terminology.hl7.org/CodeSystem/measure-population",
              "code": "numerator",
              "display": "Numerator"
            } ]
          },
          "count": 0
        }, {
          "id": "DenominatorException_1",
          "code": {
            "coding": [ {
              "system": "http://terminology.hl7.org/CodeSystem/measure-population",
              "code": "denominator-exception",
              "display": "Denominator Exception"
            } ]
          },
          "count": 0
        } ],
        "measureScore": {
          "value": 1.0
        }
      } ],
      "evaluatedResource": [ {
        "reference": "Patient/933dce03-06ac-41e1-ba4f-0de3776046ee"
      }, {
        "reference": "Condition/8b13039b-2d46-4ffe-a21a-af8d33b7b17e"
      }, {
        "reference": "Coverage/e9b20a22-c193-4fef-92bd-40e72ea09d0f"
      }, {
        "reference": "Organization/6028aa5f-023d-40ea-8a19-0fc072ea032c"
      }, {
        "reference": "Practitioner/7cba2503-1acf-4db5-81f4-4223be8f7aef"
      } ]
    }
  } ]
}