{
  "resourceType": "Bundle",
  "id": "633c9d030968f8012250fc85",
  "type": "transaction",
  "entry": [ {
    "fullUrl": "https://madie.cms.gov/Patient/63e42e45-fb2a-4a44-8354-79ea81b5d041",
    "resource": {
      "resourceType": "Patient",
      "id": "63e42e45-fb2a-4a44-8354-79ea81b5d041",
      "meta": {
        "profile": [ "http://hl7.org/fhir/us/qicore/StructureDefinition/qicore-patient" ]
      },
      "text": {
        "status": "generated",
        "div": "<div xmlns=\"http://www.w3.org/1999/xhtml\"><div class=\"hapiHeaderText\">CMOdurObs_NoEDObs&lt;1hrBFEnc <b>DENEXPASS </b></div><table class=\"hapiPropertyTable\"><tbody><tr><td>Identifier</td><td>78184564d7a2b04b1b82068bb9a7b746</td></tr><tr><td>Date of birth</td><td><span>18 September 1985</span></td></tr></tbody></table></div>"
      },
      "extension": [ {
        "url": "http://hl7.org/fhir/us/core/StructureDefinition/us-core-race",
        "extension": [ {
          "url": "ombCategory",
          "valueCoding": {
            "system": "urn:oid:2.16.840.1.113883.6.238",
            "code": "1002-5",
            "display": "American Indian or Alaska Native",
            "userSelected": true
          }
        }, {
          "url": "text",
          "valueString": "American Indian or Alaska Native"
        } ]
      }, {
        "url": "http://hl7.org/fhir/us/core/StructureDefinition/us-core-ethnicity",
        "extension": [ {
          "url": "ombCategory",
          "valueCoding": {
            "system": "urn:oid:2.16.840.1.113883.6.238",
            "code": "2135-2",
            "display": "Hispanic or Latino",
            "userSelected": true
          }
        }, {
          "url": "text",
          "valueString": "Hispanic or Latino"
        } ]
      } ],
      "identifier": [ {
        "type": {
          "coding": [ {
            "system": "http://terminology.hl7.org/CodeSystem/v2-0203",
            "code": "MR"
          } ]
        },
        "system": "https://bonnie-fhir.healthit.gov/",
        "value": "633c9d030968f8012250fc85"
      } ],
      "active": true,
      "name": [ {
        "use": "usual",
        "family": "DENEXPass",
        "given": [ "CMOdurObs_NoEDObs<1hrBFEnc" ]
      } ],
      "gender": "female",
      "birthDate": "1986-09-18"
    },
    "request": {
      "method": "PUT",
      "url": "Patient/63e42e45-fb2a-4a44-8354-79ea81b5d041"
    }
  }, {
    "fullUrl": "https://madie.cms.gov/Condition/a09dae56-99d1-4dc1-b775-8807381ac449",
    "resource": {
      "resourceType": "Condition",
      "id": "a09dae56-99d1-4dc1-b775-8807381ac449",
      "meta": {
        "profile": [ "http://hl7.org/fhir/us/qicore/StructureDefinition/qicore-condition-problems-health-concerns" ]
      },
      "clinicalStatus": {
        "coding": [ {
          "system": "http://terminology.hl7.org/CodeSystem/condition-clinical",
          "code": "inactive"
        } ]
      },
      "verificationStatus": {
        "coding": [ {
          "system": "http://terminology.hl7.org/CodeSystem/condition-ver-status",
          "code": "confirmed"
        } ]
      },
      "category": [ {
        "coding": [ {
          "system": "http://terminology.hl7.org/CodeSystem/condition-category",
          "code": "encounter-diagnosis",
          "display": "Encounter Diagnosis"
        } ]
      } ],
      "code": {
        "coding": [ {
          "system": "http://hl7.org/fhir/sid/icd-10-cm",
          "code": "I48.20"
        }, {
          "system": "http://hl7.org/fhir/sid/icd-10-cm",
          "code": "I48.0"
        }, {
          "system": "http://snomed.info/sct",
          "code": "5370000"
        } ]
      },
      "subject": {
        "reference": "Patient/63e42e45-fb2a-4a44-8354-79ea81b5d041"
      },
      "onsetDateTime": "2026-10-01T09:00:00.000+00:00",
      "abatementDateTime": "2026-10-12T00:15:00.000+00:00"
    },
    "request": {
      "method": "PUT",
      "url": "Condition/a09dae56-99d1-4dc1-b775-8807381ac449"
    }
  }, {
    "fullUrl": "https://madie.cms.gov/Encounter/61820887-8da6-4418-ad01-b73b2220eb03",
    "resource": {
      "resourceType": "Encounter",
      "id": "61820887-8da6-4418-ad01-b73b2220eb03",
      "meta": {
        "profile": [ "http://hl7.org/fhir/us/qicore/StructureDefinition/qicore-encounter" ]
      },
      "status": "finished",
      "class": {
        "system": "http://terminology.hl7.org/CodeSystem/v3-ActCode",
        "code": "OBSENC",
        "display": "observation encounter"
      },
      "type": [ {
        "coding": [ {
          "system": "http://snomed.info/sct",
          "code": "448951000124107"
        } ]
      } ],
      "subject": {
        "reference": "Patient/63e42e45-fb2a-4a44-8354-79ea81b5d041"
      },
      "period": {
        "start": "2026-10-01T08:00:00.000+00:00",
        "end": "2026-10-01T08:59:00.000+00:00"
      },
      "length": {
        "value": 0,
        "unit": "days"
      }
    },
    "request": {
      "method": "PUT",
      "url": "Encounter/61820887-8da6-4418-ad01-b73b2220eb03"
    }
  }, {
    "fullUrl": "https://madie.cms.gov/Encounter/1d54d1bd-b3c4-4958-90bd-5044954fab75",
    "resource": {
      "resourceType": "Encounter",
      "id": "1d54d1bd-b3c4-4958-90bd-5044954fab75",
      "meta": {
        "profile": [ "http://hl7.org/fhir/us/qicore/StructureDefinition/qicore-encounter" ]
      },
      "status": "finished",
      "class": {
        "system": "http://terminology.hl7.org/CodeSystem/v3-ActCode",
        "code": "IMP",
        "display": "inpatient encounter"
      },
      "type": [ {
        "coding": [ {
          "system": "http://snomed.info/sct",
          "code": "32485007"
        } ]
      } ],
      "subject": {
        "reference": "Patient/63e42e45-fb2a-4a44-8354-79ea81b5d041"
      },
      "period": {
        "start": "2026-10-01T09:00:00.000+00:00",
        "end": "2026-10-12T00:15:00.000+00:00"
      },
      "length": {
        "value": 11,
        "unit": "days"
      },
      "reasonReference": [ {
        "reference": "Condition/a09dae56-99d1-4dc1-b775-8807381ac449"
      } ]
    },
    "request": {
      "method": "PUT",
      "url": "Encounter/1d54d1bd-b3c4-4958-90bd-5044954fab75"
    }
  }, {
    "fullUrl": "https://madie.cms.gov/ServiceRequest/caafbdab-2cc1-4602-b7d8-7b370b787ca4",
    "resource": {
      "resourceType": "ServiceRequest",
      "id": "caafbdab-2cc1-4602-b7d8-7b370b787ca4",
      "meta": {
        "profile": [ "http://hl7.org/fhir/us/qicore/StructureDefinition/qicore-servicerequest" ]
      },
      "status": "active",
      "intent": "order",
      "code": {
        "coding": [ {
          "system": "http://snomed.info/sct",
          "code": "133918004"
        } ]
      },
      "subject": {
        "reference": "Patient/63e42e45-fb2a-4a44-8354-79ea81b5d041"
      },
      "authoredOn": "2026-10-01T08:01:00.000+00:00"
    },
    "request": {
      "method": "PUT",
      "url": "ServiceRequest/caafbdab-2cc1-4602-b7d8-7b370b787ca4"
    }
  }, {
    "fullUrl": "https://madie.cms.gov/Coverage/700db3d1-f8b7-4396-93ac-d4448adb76af",
    "resource": {
      "resourceType": "Coverage",
      "id": "700db3d1-f8b7-4396-93ac-d4448adb76af",
      "status": "active",
      "subscriberId": "523435",
      "beneficiary": {
        "reference": "Patient/63e42e45-fb2a-4a44-8354-79ea81b5d041"
      },
      "relationship": {
        "coding": [ {
          "system": "http://terminology.hl7.org/CodeSystem/subscriber-relationship",
          "code": "self"
        } ]
      },
      "period": {
        "start": "1986-09-18T08:00:00.000+00:00"
      },
      "payor": [ {
        "reference": "Organization/475499d1-2a73-4e3a-b46c-c1d9beadb9d6"
      } ]
    },
    "request": {
      "method": "PUT",
      "url": "Coverage/700db3d1-f8b7-4396-93ac-d4448adb76af"
    }
  }, {
    "fullUrl": "https://madie.cms.gov/claim/5ca62962b8484628b8de1ec5",
    "resource": {
      "resourceType": "Claim",
      "id": "5ca62962b8484628b8de1ec5",
      "meta": {
        "profile": [ "http://hl7.org/fhir/us/qicore/StructureDefinition/qicore-claim" ]
      },
      "status": "active",
      "type": {
        "coding": [ {
          "system": "http://terminology.hl7.org/CodeSystem/claim-type",
          "code": "institutional"
        } ]
      },
      "use": "claim",
      "patient": {
        "reference": "Patient/d170a0a8-b5ad-4303-b6df-e304dd5f92ad"
      },
      "created": "2026-12-01",
      "provider": {
        "reference": "Practitioner/facab5c3-e316-4c22-bc13-f0d9cce57990"
      },
      "priority": {
        "coding": [ {
          "system": "http://terminology.hl7.org/CodeSystem/processpriority",
          "code": "normal"
        } ]
      },
      "diagnosis": [ {
        "sequence": 1,
        "diagnosisCodeableConcept": {
          "coding": [ {
            "system": "http://hl7.org/fhir/sid/icd-10-cm",
            "code": "I63.00"
          } ]
        },
        "type": [ {
          "coding": [ {
            "system": "http://terminology.hl7.org/CodeSystem/ex-diagnosistype",
            "code": "principal"
          } ]
        } ]
      } ],
      "insurance": [ {
        "sequence": 1,
        "focal": true,
        "coverage": {
          "reference": "Coverage/5fa041661c76ba66d9959367"
        }
      } ],
      "item": [ {
        "sequence": 1,
        "diagnosisSequence": [ 1 ],
        "productOrService": {
          "coding": [ {
            "system": "http://terminology.hl7.org/CodeSystem/ex-USCLS",
            "code": "99555"
          } ]
        },
        "encounter": [ {
          "reference": "Encounter/1d54d1bd-b3c4-4958-90bd-5044954fab75"
        } ]
      } ]
    },
    "request": {
      "method": "PUT",
      "url": "Claim/5ca62962b8484628b8de1ec5"
    }
  }, {
    "fullUrl": "https://madie.cms.gov/Condition/9bf175f8-ee76-4a1b-92bb-45e77718faf0",
    "resource": {
      "resourceType": "Condition",
      "id": "9bf175f8-ee76-4a1b-92bb-45e77718faf0",
      "meta": {
        "profile": [ "http://hl7.org/fhir/us/qicore/StructureDefinition/qicore-condition-problems-health-concerns" ]
      },
      "clinicalStatus": {
        "coding": [ {
          "system": "http://terminology.hl7.org/CodeSystem/condition-clinical",
          "code": "active"
        } ]
      },
      "verificationStatus": {
        "coding": [ {
          "system": "http://terminology.hl7.org/CodeSystem/condition-ver-status",
          "code": "confirmed"
        } ]
      },
      "category": [ {
        "coding": [ {
          "system": "http://terminology.hl7.org/CodeSystem/condition-category",
          "code": "encounter-diagnosis",
          "display": "Encounter Diagnosis"
        } ]
      } ],
      "code": {
        "coding": [ {
          "system": "http://snomed.info/sct",
          "version": "2021-09",
          "code": "111297002",
          "display": "Nonparalytic stroke (disorder)",
          "userSelected": true
        } ]
      },
      "subject": {
        "reference": "Patient/63e42e45-fb2a-4a44-8354-79ea81b5d041"
      },
      "recordedDate": "2026-10-13T08:00:00.000+00:00"
    },
    "request": {
      "method": "PUT",
      "url": "Condition/9bf175f8-ee76-4a1b-92bb-45e77718faf0"
    }
  }, {
    "fullUrl": "https://madie.cms.gov/Organization/475499d1-2a73-4e3a-b46c-c1d9beadb9d6",
    "resource": {
      "resourceType": "Organization",
      "id": "475499d1-2a73-4e3a-b46c-c1d9beadb9d6",
      "meta": {
        "profile": [ "http://hl7.org/fhir/us/qicore/StructureDefinition/qicore-organization" ]
      },
      "identifier": [ {
        "use": "temp",
        "system": "urn:oid:2.16.840.1.113883.4.4",
        "value": "21-3259825"
      } ],
      "active": true,
      "type": [ {
        "coding": [ {
          "system": "http://terminology.hl7.org/CodeSystem/organization-type",
          "code": "pay",
          "display": "Payer"
        } ]
      } ],
      "name": "Blue Cross Blue Shield of Texas",
      "telecom": [ {
        "system": "phone",
        "value": "(+1) 972-766-6900"
      } ],
      "address": [ {
        "use": "billing",
        "type": "postal",
        "line": [ "P.O. Box 660044" ],
        "city": "Dallas",
        "state": "TX",
        "postalCode": "75266-0044",
        "country": "USA"
      } ]
    },
    "request": {
      "method": "PUT",
      "url": "Organization/475499d1-2a73-4e3a-b46c-c1d9beadb9d6"
    }
  }, {
    "fullUrl": "https://madie.cms.gov/Practitioner/facab5c3-e316-4c22-bc13-f0d9cce57990",
    "resource": {
      "resourceType": "Practitioner",
      "id": "facab5c3-e316-4c22-bc13-f0d9cce57990",
      "meta": {
        "profile": [ "http://hl7.org/fhir/us/qicore/StructureDefinition/qicore-practitioner" ]
      },
      "identifier": [ {
        "system": "http://hl7.org/fhir/sid/us-npi",
        "value": "9999999896"
      } ],
      "name": [ {
        "family": "Evil",
        "prefix": [ "Dr" ]
      } ]
    },
    "request": {
      "method": "PUT",
      "url": "Practitioner/facab5c3-e316-4c22-bc13-f0d9cce57990"
    }
  }, {
    "fullUrl": "https://madie.cms.gov/MeasureReport/770c0e80-6a74-4859-b6f9-45d9b649c9e7",
    "resource": {
      "resourceType": "MeasureReport",
      "id": "770c0e80-6a74-4859-b6f9-45d9b649c9e7",
      "meta": {
        "profile": [ "http://hl7.org/fhir/us/cqfmeasures/StructureDefinition/test-case-cqfm" ]
      },
      "contained": [ {
        "resourceType": "Parameters",
        "id": "5485c9a8-75d6-4519-9835-ca03fac5a428-parameters",
        "parameter": [ {
          "name": "subject",
          "valueString": "63e42e45-fb2a-4a44-8354-79ea81b5d041"
        } ]
      } ],
      "extension": [ {
        "url": "http://hl7.org/fhir/StructureDefinition/cqf-inputParameters",
        "valueReference": {
          "reference": "#5485c9a8-75d6-4519-9835-ca03fac5a428-parameters"
        }
      }, {
        "url": "http://hl7.org/fhir/us/cqfmeasures/StructureDefinition/cqfm-testCaseDescription",
        "valueMarkdown": "Patient receives Observation. No ED Obs starts 1 min before inpatient encounter. Testing HospitalizationWithObservation function.\n"
      } ],
      "modifierExtension": [ {
        "url": "http://hl7.org/fhir/us/cqfmeasures/StructureDefinition/cqfm-isTestCase",
        "valueBoolean": true
      } ],
      "status": "complete",
      "type": "individual",
      "measure": "https://madie.cms.gov/Measure/CMS71FHIRSTKAnticoagAFFlutter",
      "period": {
        "start": "2026-01-01",
        "end": "2026-12-31"
      },
      "group": [ {
        "id": "Group_1",
        "population": [ {
          "id": "InitialPopulation_1",
          "code": {
            "coding": [ {
              "system": "http://terminology.hl7.org/CodeSystem/measure-population",
              "code": "initial-population",
              "display": "Initial Population"
            } ]
          },
          "count": 1
        }, {
          "id": "Denominator_1",
          "code": {
            "coding": [ {
              "system": "http://terminology.hl7.org/CodeSystem/measure-population",
              "code": "denominator",
              "display": "Denominator"
            } ]
          },
          "count": 1
        }, {
          "id": "DenominatorExclusion_1",
          "code": {
            "coding": [ {
              "system": "http://terminology.hl7.org/CodeSystem/measure-population",
              "code": "denominator-exclusion",
              "display": "Denominator Exclusion"
            } ]
          },
          "count": 1
        }, {
          "id": "Numerator_1",
          "code": {
            "coding": [ {
              "system": "http://terminology.hl7.org/CodeSystem/measure-population",
              "code": "numerator",
              "display": "Numerator"
            } ]
          },
          "count": 0
        }, {
          "id": "DenominatorException_1",
          "code": {
            "coding": [ {
              "system": "http://terminology.hl7.org/CodeSystem/measure-population",
              "code": "denominator-exception",
              "display": "Denominator Exception"
            } ]
          },
          "count": 0
        } ],
        "measureScore": {
          "value": 0.0
        }
      } ],
      "evaluatedResource": [ {
        "reference": "Patient/63e42e45-fb2a-4a44-8354-79ea81b5d041"
      }, {
        "reference": "Condition/a09dae56-99d1-4dc1-b775-8807381ac449"
      }, {
        "reference": "Encounter/61820887-8da6-4418-ad01-b73b2220eb03"
      }, {
        "reference": "Encounter/1d54d1bd-b3c4-4958-90bd-5044954fab75"
      }, {
        "reference": "ServiceRequest/caafbdab-2cc1-4602-b7d8-7b370b787ca4"
      }, {
        "reference": "Coverage/700db3d1-f8b7-4396-93ac-d4448adb76af"
      }, {
        "reference": "Claim/5ca62962b8484628b8de1ec5"
      }, {
        "reference": "Condition/9bf175f8-ee76-4a1b-92bb-45e77718faf0"
      }, {
        "reference": "Organization/475499d1-2a73-4e3a-b46c-c1d9beadb9d6"
      }, {
        "reference": "Practitioner/facab5c3-e316-4c22-bc13-f0d9cce57990"
      } ]
    },
    "request": {
      "method": "PUT",
      "url": "MeasureReport/770c0e80-6a74-4859-b6f9-45d9b649c9e7"
    }
  } ]
}