{
  "resourceType": "Bundle",
  "id": "62fa58e4f4a8c3cd9f4553a4",
  "type": "transaction",
  "entry": [ {
    "fullUrl": "https://madie.cms.gov/Patient/b998e967-eb53-426b-a3a9-8226939efdb6",
    "resource": {
      "resourceType": "Patient",
      "id": "b998e967-eb53-426b-a3a9-8226939efdb6",
      "meta": {
        "profile": [ "http://hl7.org/fhir/us/qicore/StructureDefinition/qicore-patient" ]
      },
      "extension": [ {
        "url": "http://hl7.org/fhir/us/core/StructureDefinition/us-core-race",
        "extension": [ {
          "url": "ombCategory",
          "valueCoding": {
            "system": "urn:oid:2.16.840.1.113883.6.238",
            "code": "2106-3",
            "display": "White",
            "userSelected": true
          }
        }, {
          "url": "text",
          "valueString": "White"
        } ]
      }, {
        "url": "http://hl7.org/fhir/us/core/StructureDefinition/us-core-ethnicity",
        "extension": [ {
          "url": "ombCategory",
          "valueCoding": {
            "system": "urn:oid:2.16.840.1.113883.6.238",
            "code": "2186-5",
            "display": "Not Hispanic or Latino",
            "userSelected": true
          }
        }, {
          "url": "text",
          "valueString": "Not Hispanic or Latino"
        } ]
      } ],
      "identifier": [ {
        "type": {
          "coding": [ {
            "system": "http://terminology.hl7.org/CodeSystem/v2-0203",
            "code": "MR"
          } ]
        },
        "system": "https://bonnie-fhir.healthit.gov/",
        "value": "62fa58e4f4a8c3cd9f4553a4"
      } ],
      "name": [ {
        "family": "DenExPass",
        "given": [ "EndStageRenalHospiceAllVisits" ]
      } ],
      "gender": "male",
      "birthDate": "1991-12-01"
    },
    "request": {
      "method": "PUT",
      "url": "Patient/b998e967-eb53-426b-a3a9-8226939efdb6"
    }
  }, {
    "fullUrl": "https://madie.cms.gov/Condition/42152bfa-306b-491d-8734-e1f0fbbe12ed",
    "resource": {
      "resourceType": "Condition",
      "id": "42152bfa-306b-491d-8734-e1f0fbbe12ed",
      "meta": {
        "profile": [ "http://hl7.org/fhir/us/qicore/StructureDefinition/qicore-condition-encounter-diagnosis" ]
      },
      "clinicalStatus": {
        "coding": [ {
          "system": "http://terminology.hl7.org/CodeSystem/condition-clinical",
          "code": "active",
          "display": "active",
          "userSelected": true
        } ]
      },
      "category": [ {
        "coding": [ {
          "system": "http://terminology.hl7.org/CodeSystem/condition-category",
          "code": "encounter-diagnosis",
          "display": "Encounter Diagnosis",
          "userSelected": true
        } ]
      } ],
      "code": {
        "coding": [ {
          "system": "http://snomed.info/sct",
          "version": "2021-09",
          "code": "102781000119107",
          "display": "Sensory neuropathy due to type 1 diabetes mellitus (disorder)",
          "userSelected": true
        } ]
      },
      "subject": {
        "reference": "Patient/b998e967-eb53-426b-a3a9-8226939efdb6"
      },
      "onsetDateTime": "2025-03-24T08:00:00.000+00:00"
    },
    "request": {
      "method": "PUT",
      "url": "Condition/42152bfa-306b-491d-8734-e1f0fbbe12ed"
    }
  }, {
    "fullUrl": "https://madie.cms.gov/Encounter/23ffccf2-4da9-4e76-8ab2-cbfd507e8400",
    "resource": {
      "resourceType": "Encounter",
      "id": "23ffccf2-4da9-4e76-8ab2-cbfd507e8400",
      "meta": {
        "profile": [ "http://hl7.org/fhir/us/qicore/StructureDefinition/qicore-encounter" ]
      },
      "status": "finished",
      "class": {
        "system": "http://terminology.hl7.org/CodeSystem/v3-ActCode",
        "code": "AMB",
        "display": "ambulatory",
        "userSelected": true
      },
      "type": [ {
        "coding": [ {
          "system": "http://snomed.info/sct",
          "version": "2021-09",
          "code": "185463005",
          "display": "Visit out of hours (procedure)",
          "userSelected": true
        } ]
      } ],
      "subject": {
        "reference": "Patient/b998e967-eb53-426b-a3a9-8226939efdb6"
      },
      "period": {
        "start": "2026-08-15T08:00:00.000+00:00",
        "end": "2026-08-15T08:15:00.000+00:00"
      }
    },
    "request": {
      "method": "PUT",
      "url": "Encounter/23ffccf2-4da9-4e76-8ab2-cbfd507e8400"
    }
  }, {
    "fullUrl": "https://madie.cms.gov/Observation/c449735c-853b-4c79-a56b-a131fe78bb99",
    "resource": {
      "resourceType": "Observation",
      "id": "c449735c-853b-4c79-a56b-a131fe78bb99",
      "meta": {
        "profile": [ "http://hl7.org/fhir/us/qicore/StructureDefinition/qicore-observation-lab" ]
      },
      "status": "final",
      "category": [ {
        "coding": [ {
          "system": "http://terminology.hl7.org/CodeSystem/observation-category",
          "code": "laboratory",
          "display": "Laboratory",
          "userSelected": true
        } ]
      } ],
      "code": {
        "coding": [ {
          "system": "http://loinc.org",
          "version": "2.71",
          "code": "48642-3",
          "display": "Glomerular filtration rate [Volume Rate/Area] in Serum, Plasma or Blood by Creatinine-based formula (MDRD)/1.73 sq M among non black population",
          "userSelected": true
        } ]
      },
      "subject": {
        "reference": "Patient/b998e967-eb53-426b-a3a9-8226939efdb6"
      },
      "effectiveDateTime": "2026-08-15T08:00:00.000+00:00",
      "valueBoolean": true
    },
    "request": {
      "method": "PUT",
      "url": "Observation/c449735c-853b-4c79-a56b-a131fe78bb99"
    }
  }, {
    "fullUrl": "https://madie.cms.gov/Observation/3521a6a7-ed61-4441-9cf7-c0692669cea7",
    "resource": {
      "resourceType": "Observation",
      "id": "3521a6a7-ed61-4441-9cf7-c0692669cea7",
      "meta": {
        "profile": [ "http://hl7.org/fhir/us/qicore/StructureDefinition/qicore-observation-lab" ]
      },
      "status": "final",
      "category": [ {
        "coding": [ {
          "system": "http://terminology.hl7.org/CodeSystem/observation-category",
          "code": "laboratory",
          "display": "Laboratory",
          "userSelected": true
        } ]
      } ],
      "code": {
        "coding": [ {
          "system": "http://loinc.org",
          "version": "2.71",
          "code": "13705-9",
          "display": "Albumin/Creatinine [Mass Ratio] in 24 hour Urine",
          "userSelected": true
        } ]
      },
      "subject": {
        "reference": "Patient/b998e967-eb53-426b-a3a9-8226939efdb6"
      },
      "effectiveDateTime": "2026-08-15T08:00:00.000+00:00",
      "valueBoolean": true
    },
    "request": {
      "method": "PUT",
      "url": "Observation/3521a6a7-ed61-4441-9cf7-c0692669cea7"
    }
  }, {
    "fullUrl": "https://madie.cms.gov/Condition/a40dc24d-225a-44f4-8ec3-f44df63dd31e",
    "resource": {
      "resourceType": "Condition",
      "id": "a40dc24d-225a-44f4-8ec3-f44df63dd31e",
      "meta": {
        "profile": [ "http://hl7.org/fhir/us/qicore/StructureDefinition/qicore-condition-problems-health-concerns" ]
      },
      "clinicalStatus": {
        "coding": [ {
          "system": "http://terminology.hl7.org/CodeSystem/condition-clinical",
          "code": "active",
          "display": "active",
          "userSelected": true
        } ]
      },
      "category": [ {
        "coding": [ {
          "system": "http://terminology.hl7.org/CodeSystem/condition-category",
          "code": "problem-list-item",
          "display": "Problem List Item",
          "userSelected": true
        } ]
      } ],
      "code": {
        "coding": [ {
          "system": "http://snomed.info/sct",
          "version": "2021-09",
          "code": "236434000",
          "display": "End stage renal failure untreated by renal replacement therapy (disorder)",
          "userSelected": true
        } ]
      },
      "subject": {
        "reference": "Patient/b998e967-eb53-426b-a3a9-8226939efdb6"
      },
      "onsetDateTime": "2026-08-15T08:00:00.000+00:00",
      "recordedDate": "2026-08-15T08:00:00.000+00:00"
    },
    "request": {
      "method": "PUT",
      "url": "Condition/a40dc24d-225a-44f4-8ec3-f44df63dd31e"
    }
  }, {
    "fullUrl": "https://madie.cms.gov/Encounter/2e874871-3e3c-432c-8280-fb07c63b337a",
    "resource": {
      "resourceType": "Encounter",
      "id": "2e874871-3e3c-432c-8280-fb07c63b337a",
      "meta": {
        "profile": [ "http://hl7.org/fhir/us/qicore/StructureDefinition/qicore-encounter" ]
      },
      "status": "finished",
      "class": {
        "system": "http://terminology.hl7.org/CodeSystem/v3-ActCode",
        "code": "AMB",
        "display": "ambulatory",
        "userSelected": true
      },
      "type": [ {
        "coding": [ {
          "system": "http://snomed.info/sct",
          "version": "2021-09",
          "code": "444971000124105",
          "display": "Annual wellness visit (procedure)",
          "userSelected": true
        } ]
      } ],
      "subject": {
        "reference": "Patient/b998e967-eb53-426b-a3a9-8226939efdb6"
      },
      "period": {
        "start": "2026-08-15T08:00:00.000+00:00",
        "end": "2026-08-15T08:15:00.000+00:00"
      }
    },
    "request": {
      "method": "PUT",
      "url": "Encounter/2e874871-3e3c-432c-8280-fb07c63b337a"
    }
  }, {
    "fullUrl": "https://madie.cms.gov/Encounter/c4575335-65db-46c0-b9a3-00e420d40171",
    "resource": {
      "resourceType": "Encounter",
      "id": "c4575335-65db-46c0-b9a3-00e420d40171",
      "meta": {
        "profile": [ "http://hl7.org/fhir/us/qicore/StructureDefinition/qicore-encounter" ]
      },
      "status": "finished",
      "class": {
        "system": "http://terminology.hl7.org/CodeSystem/v3-ActCode",
        "code": "AMB",
        "display": "ambulatory",
        "userSelected": true
      },
      "type": [ {
        "coding": [ {
          "system": "http://snomed.info/sct",
          "version": "2021-09",
          "code": "281036007",
          "display": "Follow-up consultation (procedure)",
          "userSelected": true
        } ]
      } ],
      "subject": {
        "reference": "Patient/b998e967-eb53-426b-a3a9-8226939efdb6"
      },
      "period": {
        "end": "2026-08-15T08:15:00.000+00:00"
      }
    },
    "request": {
      "method": "PUT",
      "url": "Encounter/c4575335-65db-46c0-b9a3-00e420d40171"
    }
  }, {
    "fullUrl": "https://madie.cms.gov/Encounter/680e9229-f8b6-483c-8e2a-cf0429cb7809",
    "resource": {
      "resourceType": "Encounter",
      "id": "680e9229-f8b6-483c-8e2a-cf0429cb7809",
      "meta": {
        "profile": [ "http://hl7.org/fhir/us/qicore/StructureDefinition/qicore-encounter" ]
      },
      "status": "finished",
      "class": {
        "system": "http://terminology.hl7.org/CodeSystem/v3-ActCode",
        "code": "AMB",
        "display": "ambulatory",
        "userSelected": true
      },
      "type": [ {
        "coding": [ {
          "system": "http://snomed.info/sct",
          "version": "2021-09",
          "code": "183919006",
          "display": "Urgent admission to hospice (procedure)",
          "userSelected": true
        } ]
      } ],
      "subject": {
        "reference": "Patient/b998e967-eb53-426b-a3a9-8226939efdb6"
      },
      "period": {
        "start": "2026-08-15T08:00:00.000+00:00",
        "end": "2026-08-15T08:15:00.000+00:00"
      }
    },
    "request": {
      "method": "PUT",
      "url": "Encounter/680e9229-f8b6-483c-8e2a-cf0429cb7809"
    }
  }, {
    "fullUrl": "https://madie.cms.gov/Encounter/2d4c1416-1ed9-480a-bbc3-32434ae8c0df",
    "resource": {
      "resourceType": "Encounter",
      "id": "2d4c1416-1ed9-480a-bbc3-32434ae8c0df",
      "meta": {
        "profile": [ "http://hl7.org/fhir/us/qicore/StructureDefinition/qicore-encounter" ]
      },
      "status": "finished",
      "class": {
        "system": "http://terminology.hl7.org/CodeSystem/v3-ActCode",
        "code": "AMB",
        "display": "ambulatory",
        "userSelected": true
      },
      "type": [ {
        "coding": [ {
          "system": "http://snomed.info/sct",
          "version": "2021-09",
          "code": "185460008",
          "display": "Home visit request by patient (procedure)",
          "userSelected": true
        } ]
      } ],
      "subject": {
        "reference": "Patient/b998e967-eb53-426b-a3a9-8226939efdb6"
      },
      "period": {
        "start": "2026-08-15T08:00:00.000+00:00",
        "end": "2026-08-15T08:15:00.000+00:00"
      }
    },
    "request": {
      "method": "PUT",
      "url": "Encounter/2d4c1416-1ed9-480a-bbc3-32434ae8c0df"
    }
  }, {
    "fullUrl": "https://madie.cms.gov/Encounter/789daa07-c9c1-448b-a909-967aac24caa2",
    "resource": {
      "resourceType": "Encounter",
      "id": "789daa07-c9c1-448b-a909-967aac24caa2",
      "meta": {
        "profile": [ "http://hl7.org/fhir/us/qicore/StructureDefinition/qicore-encounter" ]
      },
      "status": "finished",
      "class": {
        "system": "http://terminology.hl7.org/CodeSystem/v3-ActCode",
        "code": "AMB",
        "display": "ambulatory",
        "userSelected": true
      },
      "type": [ {
        "coding": [ {
          "system": "http://www.ama-assn.org/go/cpt",
          "version": "2021",
          "code": "99385",
          "display": "Initial comprehensive preventive medicine evaluation and management of an individual including an age and gender appropriate history, examination, counseling/anticipatory guidance/risk factor reduction interventions, and the ordering of laboratory/diagnostic procedures, new patient; 18-39 years",
          "userSelected": true
        } ]
      } ],
      "subject": {
        "reference": "Patient/b998e967-eb53-426b-a3a9-8226939efdb6"
      },
      "period": {
        "start": "2026-08-15T08:00:00.000+00:00",
        "end": "2026-08-15T08:15:00.000+00:00"
      }
    },
    "request": {
      "method": "PUT",
      "url": "Encounter/789daa07-c9c1-448b-a909-967aac24caa2"
    }
  }, {
    "fullUrl": "https://madie.cms.gov/Encounter/991821e4-d121-455a-a5fe-59e18eb51ba5",
    "resource": {
      "resourceType": "Encounter",
      "id": "991821e4-d121-455a-a5fe-59e18eb51ba5",
      "meta": {
        "profile": [ "http://hl7.org/fhir/us/qicore/StructureDefinition/qicore-encounter" ]
      },
      "status": "finished",
      "class": {
        "system": "http://terminology.hl7.org/CodeSystem/v3-ActCode",
        "code": "AMB",
        "display": "ambulatory",
        "userSelected": true
      },
      "type": [ {
        "coding": [ {
          "system": "http://snomed.info/sct",
          "version": "2021-09",
          "code": "185317003",
          "display": "Telephone encounter (procedure)",
          "userSelected": true
        } ]
      } ],
      "subject": {
        "reference": "Patient/b998e967-eb53-426b-a3a9-8226939efdb6"
      },
      "period": {
        "start": "2026-08-15T08:00:00.000+00:00",
        "end": "2026-08-15T08:15:00.000+00:00"
      }
    },
    "request": {
      "method": "PUT",
      "url": "Encounter/991821e4-d121-455a-a5fe-59e18eb51ba5"
    }
  }, {
    "fullUrl": "https://madie.cms.gov/Encounter/da72612e-4819-4aae-a847-53631104cf8c",
    "resource": {
      "resourceType": "Encounter",
      "id": "da72612e-4819-4aae-a847-53631104cf8c",
      "meta": {
        "profile": [ "http://hl7.org/fhir/us/qicore/StructureDefinition/qicore-encounter" ]
      },
      "status": "finished",
      "class": {
        "system": "http://terminology.hl7.org/CodeSystem/v3-ActCode",
        "code": "AMB",
        "display": "ambulatory",
        "userSelected": true
      },
      "type": [ {
        "coding": [ {
          "system": "http://www.ama-assn.org/go/cpt",
          "version": "2021",
          "code": "99395",
          "display": "Periodic comprehensive preventive medicine reevaluation and management of an individual including an age and gender appropriate history, examination, counseling/anticipatory guidance/risk factor reduction interventions, and the ordering of laboratory/diagnostic procedures, established patient; 18-39 years",
          "userSelected": true
        } ]
      } ],
      "subject": {
        "reference": "Patient/b998e967-eb53-426b-a3a9-8226939efdb6"
      },
      "period": {
        "start": "2026-08-15T08:00:00.000+00:00",
        "end": "2026-08-15T08:15:00.000+00:00"
      }
    },
    "request": {
      "method": "PUT",
      "url": "Encounter/da72612e-4819-4aae-a847-53631104cf8c"
    }
  }, {
    "fullUrl": "https://madie.cms.gov/Encounter/3fdd92d5-77dd-486d-aa72-2e12bbe404c5",
    "resource": {
      "resourceType": "Encounter",
      "id": "3fdd92d5-77dd-486d-aa72-2e12bbe404c5",
      "meta": {
        "profile": [ "http://hl7.org/fhir/us/qicore/StructureDefinition/qicore-encounter" ]
      },
      "status": "finished",
      "class": {
        "system": "http://terminology.hl7.org/CodeSystem/v3-ActCode",
        "code": "AMB",
        "display": "ambulatory",
        "userSelected": true
      },
      "type": [ {
        "coding": [ {
          "system": "http://snomed.info/sct",
          "version": "2021-09",
          "code": "305284002",
          "display": "Admission by palliative care physician (procedure)",
          "userSelected": true
        } ]
      } ],
      "subject": {
        "reference": "Patient/b998e967-eb53-426b-a3a9-8226939efdb6"
      },
      "period": {
        "start": "2026-08-15T08:00:00.000+00:00",
        "end": "2026-08-15T08:15:00.000+00:00"
      }
    },
    "request": {
      "method": "PUT",
      "url": "Encounter/3fdd92d5-77dd-486d-aa72-2e12bbe404c5"
    }
  }, {
    "fullUrl": "https://madie.cms.gov/MeasureReport/d4263843-0b5f-4084-9071-c09c85134757",
    "resource": {
      "resourceType": "MeasureReport",
      "id": "d4263843-0b5f-4084-9071-c09c85134757",
      "meta": {
        "profile": [ "http://hl7.org/fhir/us/cqfmeasures/StructureDefinition/test-case-cqfm" ]
      },
      "contained": [ {
        "resourceType": "Parameters",
        "id": "8f10885d-e003-4478-a3e9-f805843038f7-parameters",
        "parameter": [ {
          "name": "subject",
          "valueString": "b998e967-eb53-426b-a3a9-8226939efdb6"
        } ]
      } ],
      "extension": [ {
        "url": "http://hl7.org/fhir/StructureDefinition/cqf-inputParameters",
        "valueReference": {
          "reference": "#8f10885d-e003-4478-a3e9-f805843038f7-parameters"
        }
      }, {
        "url": "http://hl7.org/fhir/us/cqfmeasures/StructureDefinition/cqfm-testCaseDescription",
        "valueMarkdown": "This patient has diabetes and both labs, plus end stage renal disease and all possible hospice encounters. This case tests the denominator exclusions."
      } ],
      "modifierExtension": [ {
        "url": "http://hl7.org/fhir/us/cqfmeasures/StructureDefinition/cqfm-isTestCase",
        "valueBoolean": true
      } ],
      "status": "complete",
      "type": "individual",
      "measure": "https://madie.cms.gov/Measure/CMS951FHIRKidneyHealthEval",
      "period": {
        "start": "2026-01-01",
        "end": "2026-12-31"
      },
      "group": [ {
        "id": "Group_1",
        "population": [ {
          "id": "InitialPopulation_1",
          "code": {
            "coding": [ {
              "system": "http://terminology.hl7.org/CodeSystem/measure-population",
              "code": "initial-population",
              "display": "Initial Population"
            } ]
          },
          "count": 1
        }, {
          "id": "Denominator_1",
          "code": {
            "coding": [ {
              "system": "http://terminology.hl7.org/CodeSystem/measure-population",
              "code": "denominator",
              "display": "Denominator"
            } ]
          },
          "count": 1
        }, {
          "id": "DenominatorExclusion_1",
          "code": {
            "coding": [ {
              "system": "http://terminology.hl7.org/CodeSystem/measure-population",
              "code": "denominator-exclusion",
              "display": "Denominator Exclusion"
            } ]
          },
          "count": 1
        }, {
          "id": "Numerator_1",
          "code": {
            "coding": [ {
              "system": "http://terminology.hl7.org/CodeSystem/measure-population",
              "code": "numerator",
              "display": "Numerator"
            } ]
          },
          "count": 0
        } ],
        "measureScore": {
          "value": 1.0
        }
      } ],
      "evaluatedResource": [ {
        "reference": "Patient/b998e967-eb53-426b-a3a9-8226939efdb6"
      }, {
        "reference": "Condition/42152bfa-306b-491d-8734-e1f0fbbe12ed"
      }, {
        "reference": "Encounter/23ffccf2-4da9-4e76-8ab2-cbfd507e8400"
      }, {
        "reference": "Observation/c449735c-853b-4c79-a56b-a131fe78bb99"
      }, {
        "reference": "Observation/3521a6a7-ed61-4441-9cf7-c0692669cea7"
      }, {
        "reference": "Condition/a40dc24d-225a-44f4-8ec3-f44df63dd31e"
      }, {
        "reference": "Encounter/2e874871-3e3c-432c-8280-fb07c63b337a"
      }, {
        "reference": "Encounter/c4575335-65db-46c0-b9a3-00e420d40171"
      }, {
        "reference": "Encounter/680e9229-f8b6-483c-8e2a-cf0429cb7809"
      }, {
        "reference": "Encounter/2d4c1416-1ed9-480a-bbc3-32434ae8c0df"
      }, {
        "reference": "Encounter/789daa07-c9c1-448b-a909-967aac24caa2"
      }, {
        "reference": "Encounter/991821e4-d121-455a-a5fe-59e18eb51ba5"
      }, {
        "reference": "Encounter/da72612e-4819-4aae-a847-53631104cf8c"
      }, {
        "reference": "Encounter/3fdd92d5-77dd-486d-aa72-2e12bbe404c5"
      } ]
    },
    "request": {
      "method": "PUT",
      "url": "MeasureReport/d4263843-0b5f-4084-9071-c09c85134757"
    }
  } ]
}