{
  "resourceType": "Bundle",
  "id": "6109658e98086b538055b9d0",
  "type": "collection",
  "entry": [ {
    "fullUrl": "https://madie.cms.gov/Patient/68109c29-0e38-4fb1-b994-846311eb3079",
    "resource": {
      "resourceType": "Patient",
      "id": "68109c29-0e38-4fb1-b994-846311eb3079",
      "meta": {
        "profile": [ "http://hl7.org/fhir/us/qicore/StructureDefinition/qicore-patient" ]
      },
      "extension": [ {
        "url": "http://hl7.org/fhir/us/core/StructureDefinition/us-core-race",
        "extension": [ {
          "url": "ombCategory",
          "valueCoding": {
            "system": "urn:oid:2.16.840.1.113883.6.238",
            "code": "2106-3",
            "display": "White",
            "userSelected": true
          }
        }, {
          "url": "text",
          "valueString": "White"
        } ]
      }, {
        "url": "http://hl7.org/fhir/us/core/StructureDefinition/us-core-ethnicity",
        "extension": [ {
          "url": "ombCategory",
          "valueCoding": {
            "system": "urn:oid:2.16.840.1.113883.6.238",
            "code": "2135-2",
            "display": "Hispanic or Latino",
            "userSelected": true
          }
        }, {
          "url": "text",
          "valueString": "Hispanic or Latino"
        } ]
      } ],
      "identifier": [ {
        "type": {
          "coding": [ {
            "system": "http://terminology.hl7.org/CodeSystem/v2-0203",
            "code": "MR"
          } ]
        },
        "system": "https://GoodHealthCare.com/",
        "value": "6109658e98086b538055b9d0"
      } ],
      "active": true,
      "name": [ {
        "use": "usual",
        "family": "NUMERPass",
        "given": [ "OpticDiscExm1MinB4EncEdge" ]
      } ],
      "gender": "male",
      "birthDate": "1971-03-15"
    }
  }, {
    "fullUrl": "https://madie.cms.gov/Condition/d4ee3a20-401b-420d-b909-ff26c32fd411",
    "resource": {
      "resourceType": "Condition",
      "id": "d4ee3a20-401b-420d-b909-ff26c32fd411",
      "meta": {
        "profile": [ "http://hl7.org/fhir/us/qicore/StructureDefinition/qicore-condition-problems-health-concerns" ]
      },
      "clinicalStatus": {
        "coding": [ {
          "system": "http://terminology.hl7.org/CodeSystem/condition-clinical",
          "code": "active",
          "display": "active",
          "userSelected": true
        } ]
      },
      "category": [ {
        "coding": [ {
          "system": "http://terminology.hl7.org/CodeSystem/condition-category",
          "code": "problem-list-item",
          "display": "Problem List Item",
          "userSelected": true
        } ]
      } ],
      "code": {
        "coding": [ {
          "system": "http://hl7.org/fhir/sid/icd-10-cm",
          "version": "2023",
          "code": "H40.1121"
        } ]
      },
      "subject": {
        "reference": "Patient/68109c29-0e38-4fb1-b994-846311eb3079"
      },
      "onsetDateTime": "2021-03-15T07:30:00.000+00:00"
    }
  }, {
    "fullUrl": "https://madie.cms.gov/Observation/cd015948-98d4-4121-b695-63c68900271e",
    "resource": {
      "resourceType": "Observation",
      "id": "cd015948-98d4-4121-b695-63c68900271e",
      "meta": {
        "profile": [ "http://hl7.org/fhir/us/qicore/StructureDefinition/qicore-observation-clinical-result" ]
      },
      "status": "final",
      "category": [ {
        "coding": [ {
          "system": "http://terminology.hl7.org/CodeSystem/observation-category",
          "code": "laboratory",
          "display": "laboratory",
          "userSelected": true
        } ]
      }, {
        "coding": [ {
          "system": "http://terminology.hl7.org/CodeSystem/observation-category",
          "code": "survey"
        } ]
      } ],
      "code": {
        "coding": [ {
          "system": "http://loinc.org",
          "version": "2.73",
          "code": "71487-3"
        } ]
      },
      "subject": {
        "reference": "Patient/68109c29-0e38-4fb1-b994-846311eb3079"
      },
      "effectiveDateTime": "2026-01-28T08:00:00.000+00:00",
      "valueQuantity": {
        "value": 0.8
      }
    }
  }, {
    "fullUrl": "https://madie.cms.gov/Observation/58966ac8-e216-4332-8798-b84ca1703b64",
    "resource": {
      "resourceType": "Observation",
      "id": "58966ac8-e216-4332-8798-b84ca1703b64",
      "meta": {
        "profile": [ "http://hl7.org/fhir/us/qicore/StructureDefinition/qicore-observation-clinical-result" ]
      },
      "status": "final",
      "category": [ {
        "coding": [ {
          "system": "http://terminology.hl7.org/CodeSystem/observation-category",
          "code": "laboratory",
          "display": "laboratory",
          "userSelected": true
        } ]
      }, {
        "coding": [ {
          "system": "http://terminology.hl7.org/CodeSystem/observation-category",
          "code": "survey"
        } ]
      } ],
      "code": {
        "coding": [ {
          "system": "http://loinc.org",
          "version": "2.73",
          "code": "71484-0"
        } ]
      },
      "subject": {
        "reference": "Patient/68109c29-0e38-4fb1-b994-846311eb3079"
      },
      "effectiveDateTime": "2026-01-28T08:29:00.000+00:00",
      "valueQuantity": {
        "value": 0.7
      }
    }
  }, {
    "fullUrl": "https://madie.cms.gov/Encounter/88645d2e-9253-4380-893f-912bdb361af8",
    "resource": {
      "resourceType": "Encounter",
      "id": "88645d2e-9253-4380-893f-912bdb361af8",
      "meta": {
        "profile": [ "http://hl7.org/fhir/us/qicore/StructureDefinition/qicore-encounter" ]
      },
      "status": "finished",
      "class": {
        "system": "http://terminology.hl7.org/CodeSystem/v3-ActCode",
        "code": "AMB",
        "display": "ambulatory",
        "userSelected": true
      },
      "type": [ {
        "coding": [ {
          "system": "http://www.ama-assn.org/go/cpt",
          "version": "2023",
          "code": "99309"
        } ]
      } ],
      "subject": {
        "reference": "Patient/68109c29-0e38-4fb1-b994-846311eb3079"
      },
      "period": {
        "start": "2026-01-28T08:00:00.000+00:00",
        "end": "2026-01-28T08:30:00.000+00:00"
      },
      "length": {
        "value": 0.0,
        "unit": "days"
      }
    }
  }, {
    "fullUrl": "https://madie.cms.gov/MeasureReport/07725474-5fb6-4642-b4ef-564439272423",
    "resource": {
      "resourceType": "MeasureReport",
      "id": "07725474-5fb6-4642-b4ef-564439272423",
      "meta": {
        "profile": [ "http://hl7.org/fhir/us/cqfmeasures/StructureDefinition/test-case-cqfm" ]
      },
      "contained": [ {
        "resourceType": "Parameters",
        "id": "c06a74f2-2615-4a28-bd07-c4fcff2cab5b-parameters",
        "parameter": [ {
          "name": "subject",
          "valueString": "68109c29-0e38-4fb1-b994-846311eb3079"
        } ]
      } ],
      "extension": [ {
        "url": "http://hl7.org/fhir/StructureDefinition/cqf-inputParameters",
        "valueReference": {
          "reference": "#c06a74f2-2615-4a28-bd07-c4fcff2cab5b-parameters"
        }
      }, {
        "url": "http://hl7.org/fhir/us/cqfmeasures/StructureDefinition/cqfm-testCaseDescription",
        "valueMarkdown": "Numerator required optic disc exam occurs 1 minute before end of encounter."
      } ],
      "modifierExtension": [ {
        "url": "http://hl7.org/fhir/us/cqfmeasures/StructureDefinition/cqfm-isTestCase",
        "valueBoolean": true
      } ],
      "status": "complete",
      "type": "individual",
      "measure": "https://madie.cms.gov/Measure/CMS143FHIRPOAGOpticNerveEval",
      "period": {
        "start": "2026-01-01",
        "end": "2026-12-31"
      },
      "group": [ {
        "id": "Group_1",
        "population": [ {
          "id": "InitialPopulation_1",
          "code": {
            "coding": [ {
              "system": "http://terminology.hl7.org/CodeSystem/measure-population",
              "code": "initial-population",
              "display": "Initial Population"
            } ]
          },
          "count": 1
        }, {
          "id": "Denominator_1",
          "code": {
            "coding": [ {
              "system": "http://terminology.hl7.org/CodeSystem/measure-population",
              "code": "denominator",
              "display": "Denominator"
            } ]
          },
          "count": 1
        }, {
          "id": "Numerator_1",
          "code": {
            "coding": [ {
              "system": "http://terminology.hl7.org/CodeSystem/measure-population",
              "code": "numerator",
              "display": "Numerator"
            } ]
          },
          "count": 1
        }, {
          "id": "DenominatorException_1",
          "code": {
            "coding": [ {
              "system": "http://terminology.hl7.org/CodeSystem/measure-population",
              "code": "denominator-exception",
              "display": "Denominator Exception"
            } ]
          },
          "count": 0
        } ],
        "measureScore": {
          "value": 1.0
        }
      } ],
      "evaluatedResource": [ {
        "reference": "Patient/68109c29-0e38-4fb1-b994-846311eb3079"
      }, {
        "reference": "Condition/d4ee3a20-401b-420d-b909-ff26c32fd411"
      }, {
        "reference": "Observation/cd015948-98d4-4121-b695-63c68900271e"
      }, {
        "reference": "Observation/58966ac8-e216-4332-8798-b84ca1703b64"
      }, {
        "reference": "Encounter/88645d2e-9253-4380-893f-912bdb361af8"
      } ]
    }
  } ]
}