{
  "resourceType": "Bundle",
  "id": "617bf94b1289f5673c8ceff6",
  "type": "transaction",
  "entry": [ {
    "fullUrl": "https://madie.cms.gov/Patient/ef443a3d-6cde-467d-b374-d90a2f244e83",
    "resource": {
      "resourceType": "Patient",
      "id": "ef443a3d-6cde-467d-b374-d90a2f244e83",
      "meta": {
        "profile": [ "http://hl7.org/fhir/us/qicore/StructureDefinition/qicore-patient" ]
      },
      "extension": [ {
        "url": "http://hl7.org/fhir/us/core/StructureDefinition/us-core-race",
        "extension": [ {
          "url": "ombCategory",
          "valueCoding": {
            "system": "urn:oid:2.16.840.1.113883.6.238",
            "code": "2028-9",
            "display": "Asian",
            "userSelected": true
          }
        }, {
          "url": "text",
          "valueString": "Other Race"
        } ]
      }, {
        "url": "http://hl7.org/fhir/us/core/StructureDefinition/us-core-ethnicity",
        "extension": [ {
          "url": "ombCategory",
          "valueCoding": {
            "system": "urn:oid:2.16.840.1.113883.6.238",
            "code": "2135-2",
            "display": "Hispanic or Latino",
            "userSelected": true
          }
        }, {
          "url": "text",
          "valueString": "Hispanic or Latino"
        } ]
      }, {
        "url": "http://hl7.org/fhir/us/core/StructureDefinition/us-core-sex",
        "valueCode": "248153007"
      } ],
      "identifier": [ {
        "type": {
          "coding": [ {
            "system": "http://terminology.hl7.org/CodeSystem/v2-0203",
            "code": "MR"
          } ]
        },
        "system": "https://bonnie-fhir.healthit.gov/",
        "value": "617bf94b1289f5673c8ceff6"
      } ],
      "name": [ {
        "family": "DenExcl8Pass",
        "given": [ "AllergyStartsDuringEDNoEnd" ]
      } ],
      "gender": "male",
      "birthDate": "1985-12-02"
    },
    "request": {
      "method": "PUT",
      "url": "Patient/ef443a3d-6cde-467d-b374-d90a2f244e83"
    }
  }, {
    "fullUrl": "https://madie.cms.gov/Encounter/1bd8c4ba-9fcc-46a7-9a82-bc6332395e3f",
    "resource": {
      "resourceType": "Encounter",
      "id": "1bd8c4ba-9fcc-46a7-9a82-bc6332395e3f",
      "meta": {
        "profile": [ "http://hl7.org/fhir/us/qicore/StructureDefinition/qicore-encounter" ]
      },
      "status": "finished",
      "class": {
        "system": "http://terminology.hl7.org/CodeSystem/v3-ActCode",
        "code": "EMER",
        "display": "emergency",
        "userSelected": true
      },
      "type": [ {
        "coding": [ {
          "system": "http://snomed.info/sct",
          "version": "2020-09",
          "code": "4525004",
          "display": "Emergency department patient visit (procedure)",
          "userSelected": true
        } ]
      } ],
      "subject": {
        "reference": "Patient/ef443a3d-6cde-467d-b374-d90a2f244e83"
      },
      "period": {
        "start": "2026-10-09T08:05:00.000+00:00",
        "end": "2026-10-10T07:15:00.000+00:00"
      },
      "reasonCode": [ {
        "coding": [ {
          "system": "http://snomed.info/sct",
          "version": "2020-09",
          "code": "703211006",
          "display": "Subsequent ST segment elevation myocardial infarction (disorder)",
          "userSelected": true
        } ]
      } ]
    },
    "request": {
      "method": "PUT",
      "url": "Encounter/1bd8c4ba-9fcc-46a7-9a82-bc6332395e3f"
    }
  }, {
    "fullUrl": "https://madie.cms.gov/AllergyIntolerance/a5345d34-004c-4af0-9a97-510b0218c056",
    "resource": {
      "resourceType": "AllergyIntolerance",
      "id": "a5345d34-004c-4af0-9a97-510b0218c056",
      "meta": {
        "profile": [ "http://hl7.org/fhir/us/qicore/StructureDefinition/qicore-allergyintolerance" ]
      },
      "clinicalStatus": {
        "coding": [ {
          "system": "http://terminology.hl7.org/CodeSystem/allergyintolerance-clinical",
          "code": "active",
          "display": "Active",
          "userSelected": true
        } ]
      },
      "code": {
        "coding": [ {
          "system": "http://www.nlm.nih.gov/research/umls/rxnorm",
          "version": "2021-01",
          "code": "10106",
          "display": "streptokinase",
          "userSelected": true
        } ]
      },
      "patient": {
        "reference": "Patient/ef443a3d-6cde-467d-b374-d90a2f244e83"
      },
      "onsetPeriod": {
        "start": "2021-10-09T13:00:00.000+00:00"
      }
    },
    "request": {
      "method": "PUT",
      "url": "AllergyIntolerance/a5345d34-004c-4af0-9a97-510b0218c056"
    }
  }, {
    "fullUrl": "https://madie.cms.gov/MeasureReport/b3fb2782-c9b5-4ba2-9f59-04f2dccc9ec2",
    "resource": {
      "resourceType": "MeasureReport",
      "id": "b3fb2782-c9b5-4ba2-9f59-04f2dccc9ec2",
      "meta": {
        "profile": [ "http://hl7.org/fhir/us/cqfmeasures/StructureDefinition/test-case-cqfm" ]
      },
      "contained": [ {
        "resourceType": "Parameters",
        "id": "c3fc95dc-cf4f-48f1-a619-2a544eba98a6-parameters",
        "parameter": [ {
          "name": "subject",
          "valueString": "ef443a3d-6cde-467d-b374-d90a2f244e83"
        } ]
      } ],
      "extension": [ {
        "url": "http://hl7.org/fhir/StructureDefinition/cqf-inputParameters",
        "valueReference": {
          "reference": "#c3fc95dc-cf4f-48f1-a619-2a544eba98a6-parameters"
        }
      }, {
        "url": "http://hl7.org/fhir/us/cqfmeasures/StructureDefinition/cqfm-testCaseDescription",
        "valueMarkdown": "Patient has allergy to medication ingredient starts during ED and no end"
      } ],
      "modifierExtension": [ {
        "url": "http://hl7.org/fhir/us/cqfmeasures/StructureDefinition/cqfm-isTestCase",
        "valueBoolean": true
      } ],
      "status": "complete",
      "type": "individual",
      "measure": "https://madie.cms.gov/Measure/CMS996FHIRAptTxforSTEMI",
      "period": {
        "start": "2026-01-01",
        "end": "2026-12-31"
      },
      "group": [ {
        "id": "Group_1",
        "population": [ {
          "id": "InitialPopulation_1",
          "code": {
            "coding": [ {
              "system": "http://terminology.hl7.org/CodeSystem/measure-population",
              "code": "initial-population",
              "display": "Initial Population"
            } ]
          },
          "count": 1
        }, {
          "id": "Denominator_1",
          "code": {
            "coding": [ {
              "system": "http://terminology.hl7.org/CodeSystem/measure-population",
              "code": "denominator",
              "display": "Denominator"
            } ]
          },
          "count": 1
        }, {
          "id": "DenominatorExclusion_1",
          "code": {
            "coding": [ {
              "system": "http://terminology.hl7.org/CodeSystem/measure-population",
              "code": "denominator-exclusion",
              "display": "Denominator Exclusion"
            } ]
          },
          "count": 1
        }, {
          "id": "Numerator_1",
          "code": {
            "coding": [ {
              "system": "http://terminology.hl7.org/CodeSystem/measure-population",
              "code": "numerator",
              "display": "Numerator"
            } ]
          },
          "count": 0
        }, {
          "id": "DenominatorException_1",
          "code": {
            "coding": [ {
              "system": "http://terminology.hl7.org/CodeSystem/measure-population",
              "code": "denominator-exception",
              "display": "Denominator Exception"
            } ]
          },
          "count": 0
        } ],
        "measureScore": {
          "value": 0.0
        }
      } ],
      "evaluatedResource": [ {
        "reference": "Patient/ef443a3d-6cde-467d-b374-d90a2f244e83"
      }, {
        "reference": "Encounter/1bd8c4ba-9fcc-46a7-9a82-bc6332395e3f"
      }, {
        "reference": "AllergyIntolerance/a5345d34-004c-4af0-9a97-510b0218c056"
      } ]
    },
    "request": {
      "method": "PUT",
      "url": "MeasureReport/b3fb2782-c9b5-4ba2-9f59-04f2dccc9ec2"
    }
  } ]
}