{
  "resourceType": "Bundle",
  "id": "NUMER2Pass-HHS",
  "type": "transaction",
  "entry": [ {
    "fullUrl": "https://madie.cms.gov/Patient/055d7918-9022-4003-ba82-2c027437380e",
    "resource": {
      "resourceType": "Patient",
      "id": "055d7918-9022-4003-ba82-2c027437380e",
      "meta": {
        "profile": [ "http://hl7.org/fhir/us/qicore/StructureDefinition/qicore-patient" ]
      },
      "extension": [ {
        "url": "http://hl7.org/fhir/us/core/StructureDefinition/us-core-race",
        "extension": [ {
          "url": "ombCategory",
          "valueCoding": {
            "system": "urn:oid:2.16.840.1.113883.6.238",
            "code": "2028-9",
            "display": "Asian",
            "userSelected": true
          }
        }, {
          "url": "text",
          "valueString": "Asian"
        } ]
      }, {
        "url": "http://hl7.org/fhir/us/core/StructureDefinition/us-core-ethnicity",
        "extension": [ {
          "url": "ombCategory",
          "valueCoding": {
            "system": "urn:oid:2.16.840.1.113883.6.238",
            "code": "2135-2",
            "display": "Hispanic or Latino",
            "userSelected": true
          }
        }, {
          "url": "text",
          "valueString": "Hispanic or Latino"
        } ]
      } ],
      "identifier": [ {
        "type": {
          "coding": [ {
            "system": "http://terminology.hl7.org/CodeSystem/v2-0203",
            "code": "MR"
          } ]
        },
        "system": "http://hospital.smarthealthit.org",
        "value": "999999995"
      } ],
      "name": [ {
        "family": "Bertha",
        "given": [ "Betty" ]
      } ],
      "gender": "female",
      "birthDate": "2016-12-31"
    },
    "request": {
      "method": "PUT",
      "url": "Patient/055d7918-9022-4003-ba82-2c027437380e"
    }
  }, {
    "fullUrl": "https://madie.cms.gov/Encounter/062b412f-fcd0-4672-bbbe-acda55de762b",
    "resource": {
      "resourceType": "Encounter",
      "id": "062b412f-fcd0-4672-bbbe-acda55de762b",
      "meta": {
        "profile": [ "http://hl7.org/fhir/us/qicore/StructureDefinition/qicore-encounter" ]
      },
      "status": "finished",
      "class": {
        "system": "http://terminology.hl7.org/CodeSystem/v3-ActCode",
        "code": "AMB",
        "display": "ambulatory"
      },
      "type": [ {
        "coding": [ {
          "system": "http://snomed.info/sct",
          "code": "185464004",
          "display": "Out of hours visit - not night visit (procedure)"
        } ]
      } ],
      "subject": {
        "reference": "Patient/055d7918-9022-4003-ba82-2c027437380e"
      },
      "period": {
        "start": "2026-01-01T00:00:00.000+00:00",
        "end": "2026-01-01T01:00:00.000+00:00"
      }
    },
    "request": {
      "method": "PUT",
      "url": "Encounter/062b412f-fcd0-4672-bbbe-acda55de762b"
    }
  }, {
    "fullUrl": "https://madie.cms.gov/MedicationRequest/d4c518ea-43fe-41d9-8f85-0bfe18dba684",
    "resource": {
      "resourceType": "MedicationRequest",
      "id": "d4c518ea-43fe-41d9-8f85-0bfe18dba684",
      "meta": {
        "profile": [ "http://hl7.org/fhir/us/qicore/StructureDefinition/qicore-medicationrequest" ]
      },
      "status": "completed",
      "intent": "order",
      "medicationCodeableConcept": {
        "coding": [ {
          "system": "http://www.nlm.nih.gov/research/umls/rxnorm",
          "code": "884173",
          "display": "clonidine hydrochloride 0.1 MG Oral Tablet"
        } ]
      },
      "subject": {
        "reference": "Patient/055d7918-9022-4003-ba82-2c027437380e"
      },
      "authoredOn": "2026-01-02T00:00:00.000+00:00",
      "requester": {
        "reference": "Practitioner/example"
      },
      "dosageInstruction": [ {
        "timing": {
          "repeat": {
            "boundsPeriod": {
              "start": "2026-01-02T00:00:00.000+00:00",
              "end": "2026-07-30T23:59:59.000+00:00"
            }
          }
        }
      } ],
      "dispenseRequest": {
        "expectedSupplyDuration": {
          "value": 210,
          "system": "http://unitsofmeasure.org",
          "code": "d"
        }
      }
    },
    "request": {
      "method": "PUT",
      "url": "MedicationRequest/d4c518ea-43fe-41d9-8f85-0bfe18dba684"
    }
  }, {
    "fullUrl": "https://madie.cms.gov/Encounter/76438a5f-458c-424a-bdd5-8e67315082f5",
    "resource": {
      "resourceType": "Encounter",
      "id": "76438a5f-458c-424a-bdd5-8e67315082f5",
      "meta": {
        "profile": [ "http://hl7.org/fhir/us/qicore/StructureDefinition/qicore-encounter" ]
      },
      "status": "finished",
      "class": {
        "system": "http://terminology.hl7.org/CodeSystem/v3-ActCode",
        "code": "AMB",
        "display": "ambulatory"
      },
      "type": [ {
        "coding": [ {
          "system": "http://www.ama-assn.org/go/cpt",
          "code": "90791",
          "display": "Psychiatric diagnostic evaluation"
        } ]
      } ],
      "subject": {
        "reference": "Patient/055d7918-9022-4003-ba82-2c027437380e"
      },
      "period": {
        "start": "2026-01-31T00:00:00.000+00:00",
        "end": "2026-01-31T01:00:00.000+00:00"
      }
    },
    "request": {
      "method": "PUT",
      "url": "Encounter/76438a5f-458c-424a-bdd5-8e67315082f5"
    }
  }, {
    "fullUrl": "https://madie.cms.gov/Encounter/7a71eb38-e022-4ccf-af61-5075b50ac0c3",
    "resource": {
      "resourceType": "Encounter",
      "id": "7a71eb38-e022-4ccf-af61-5075b50ac0c3",
      "meta": {
        "profile": [ "http://hl7.org/fhir/us/qicore/StructureDefinition/qicore-encounter" ]
      },
      "status": "finished",
      "class": {
        "system": "http://terminology.hl7.org/CodeSystem/v3-ActCode",
        "code": "AMB",
        "display": "ambulatory"
      },
      "type": [ {
        "coding": [ {
          "system": "http://www.ama-assn.org/go/cpt",
          "code": "90791",
          "display": "Psychiatric diagnostic evaluation"
        } ]
      } ],
      "subject": {
        "reference": "Patient/055d7918-9022-4003-ba82-2c027437380e"
      },
      "period": {
        "start": "2026-06-30T00:00:00.000+00:00",
        "end": "2026-06-30T01:00:00.000+00:00"
      }
    },
    "request": {
      "method": "PUT",
      "url": "Encounter/7a71eb38-e022-4ccf-af61-5075b50ac0c3"
    }
  }, {
    "fullUrl": "https://madie.cms.gov/Encounter/5abee81f-3535-434b-84bf-dec9e2d1e74f",
    "resource": {
      "resourceType": "Encounter",
      "id": "5abee81f-3535-434b-84bf-dec9e2d1e74f",
      "meta": {
        "profile": [ "http://hl7.org/fhir/us/qicore/StructureDefinition/qicore-encounter" ]
      },
      "status": "finished",
      "class": {
        "system": "http://terminology.hl7.org/CodeSystem/v3-ActCode",
        "code": "AMB",
        "display": "ambulatory"
      },
      "type": [ {
        "coding": [ {
          "system": "http://www.ama-assn.org/go/cpt",
          "code": "99342",
          "display": "Home or residence visit for the evaluation and management of a new patient, which requires a medically appropriate history and/or examination and low level of medical decision making. When using total time on the date of the encounter for code selection, 30 minutes must be met or exceeded."
        } ]
      } ],
      "subject": {
        "reference": "Patient/055d7918-9022-4003-ba82-2c027437380e"
      },
      "period": {
        "start": "2026-08-31T00:00:00.000+00:00",
        "end": "2026-08-31T01:00:00.000+00:00"
      }
    },
    "request": {
      "method": "PUT",
      "url": "Encounter/5abee81f-3535-434b-84bf-dec9e2d1e74f"
    }
  }, {
    "fullUrl": "https://madie.cms.gov/MeasureReport/5e3d243a-1844-4992-b1d8-01cb2da1ebb0",
    "resource": {
      "resourceType": "MeasureReport",
      "id": "5e3d243a-1844-4992-b1d8-01cb2da1ebb0",
      "meta": {
        "profile": [ "http://hl7.org/fhir/us/cqfmeasures/StructureDefinition/test-case-cqfm" ]
      },
      "contained": [ {
        "resourceType": "Parameters",
        "id": "eb7515e4-3941-4bbe-a8d0-182bcbfe6bcc-parameters",
        "parameter": [ {
          "name": "subject",
          "valueString": "055d7918-9022-4003-ba82-2c027437380e"
        } ]
      } ],
      "extension": [ {
        "url": "http://hl7.org/fhir/StructureDefinition/cqf-inputParameters",
        "valueReference": {
          "reference": "#eb7515e4-3941-4bbe-a8d0-182bcbfe6bcc-parameters"
        }
      }, {
        "url": "http://hl7.org/fhir/us/cqfmeasures/StructureDefinition/cqfm-testCaseDescription",
        "valueMarkdown": "Qualifying encounter is a home healthcare service"
      } ],
      "modifierExtension": [ {
        "url": "http://hl7.org/fhir/us/cqfmeasures/StructureDefinition/cqfm-isTestCase",
        "valueBoolean": true
      } ],
      "status": "complete",
      "type": "individual",
      "measure": "https://madie.cms.gov/Measure/CMS136FHIRChildADHDMedFollowUp",
      "period": {
        "start": "2026-01-01",
        "end": "2026-12-31"
      },
      "group": [ {
        "id": "Group_1",
        "population": [ {
          "id": "InitialPopulation_1",
          "code": {
            "coding": [ {
              "system": "http://terminology.hl7.org/CodeSystem/measure-population",
              "code": "initial-population",
              "display": "Initial Population"
            } ]
          },
          "count": 1
        }, {
          "id": "Denominator_1",
          "code": {
            "coding": [ {
              "system": "http://terminology.hl7.org/CodeSystem/measure-population",
              "code": "denominator",
              "display": "Denominator"
            } ]
          },
          "count": 1
        }, {
          "id": "DenominatorExclusion_1",
          "code": {
            "coding": [ {
              "system": "http://terminology.hl7.org/CodeSystem/measure-population",
              "code": "denominator-exclusion",
              "display": "Denominator Exclusion"
            } ]
          },
          "count": 0
        }, {
          "id": "Numerator_1",
          "code": {
            "coding": [ {
              "system": "http://terminology.hl7.org/CodeSystem/measure-population",
              "code": "numerator",
              "display": "Numerator"
            } ]
          },
          "count": 1
        } ],
        "measureScore": {
          "value": 1.0
        }
      }, {
        "id": "Group_2",
        "population": [ {
          "id": "InitialPopulation_2",
          "code": {
            "coding": [ {
              "system": "http://terminology.hl7.org/CodeSystem/measure-population",
              "code": "initial-population",
              "display": "Initial Population"
            } ]
          },
          "count": 1
        }, {
          "id": "Denominator_2",
          "code": {
            "coding": [ {
              "system": "http://terminology.hl7.org/CodeSystem/measure-population",
              "code": "denominator",
              "display": "Denominator"
            } ]
          },
          "count": 1
        }, {
          "id": "DenominatorExclusion_2",
          "code": {
            "coding": [ {
              "system": "http://terminology.hl7.org/CodeSystem/measure-population",
              "code": "denominator-exclusion",
              "display": "Denominator Exclusion"
            } ]
          },
          "count": 0
        }, {
          "id": "Numerator_2",
          "code": {
            "coding": [ {
              "system": "http://terminology.hl7.org/CodeSystem/measure-population",
              "code": "numerator",
              "display": "Numerator"
            } ]
          },
          "count": 1
        } ],
        "measureScore": {
          "value": 1.0
        }
      } ],
      "evaluatedResource": [ {
        "reference": "Patient/055d7918-9022-4003-ba82-2c027437380e"
      }, {
        "reference": "Encounter/062b412f-fcd0-4672-bbbe-acda55de762b"
      }, {
        "reference": "MedicationRequest/d4c518ea-43fe-41d9-8f85-0bfe18dba684"
      }, {
        "reference": "Encounter/76438a5f-458c-424a-bdd5-8e67315082f5"
      }, {
        "reference": "Encounter/7a71eb38-e022-4ccf-af61-5075b50ac0c3"
      }, {
        "reference": "Encounter/5abee81f-3535-434b-84bf-dec9e2d1e74f"
      } ]
    },
    "request": {
      "method": "PUT",
      "url": "MeasureReport/5e3d243a-1844-4992-b1d8-01cb2da1ebb0"
    }
  } ]
}