{
  "resourceType": "Bundle",
  "id": "63487c2d0968f8012254014c",
  "type": "transaction",
  "entry": [ {
    "fullUrl": "https://madie.cms.gov/Patient/8d2b169f-2590-4dc3-ade9-20ee0aa17eea",
    "resource": {
      "resourceType": "Patient",
      "id": "8d2b169f-2590-4dc3-ade9-20ee0aa17eea",
      "meta": {
        "profile": [ "http://hl7.org/fhir/us/qicore/StructureDefinition/qicore-patient" ]
      },
      "text": {
        "status": "generated",
        "div": "<div xmlns=\"http://www.w3.org/1999/xhtml\"><div class=\"hapiHeaderText\">ProcDelivStartAfterEncInpEnd<b>IPOPFail</b></div><table class=\"hapiPropertyTable\"><tbody><tr><td>Identifier</td><td>8feb75fb0b87d407a78ff5992b319da07b86b88c054236dab2f11601028d7a21</td></tr><tr><td>Date of birth</td><td><span>14 February 1985</span></td></tr></tbody></table></div>"
      },
      "extension": [ {
        "url": "http://hl7.org/fhir/us/core/StructureDefinition/us-core-race",
        "extension": [ {
          "url": "ombCategory",
          "valueCoding": {
            "system": "urn:oid:2.16.840.1.113883.6.238",
            "code": "1002-5",
            "display": "American Indian or Alaska Native",
            "userSelected": true
          }
        }, {
          "url": "text",
          "valueString": "American Indian or Alaska Native"
        } ]
      }, {
        "url": "http://hl7.org/fhir/us/core/StructureDefinition/us-core-ethnicity",
        "extension": [ {
          "url": "ombCategory",
          "valueCoding": {
            "system": "urn:oid:2.16.840.1.113883.6.238",
            "code": "2135-2",
            "display": "Hispanic or Latino",
            "userSelected": true
          }
        }, {
          "url": "text",
          "valueString": "Hispanic or Latino"
        } ]
      } ],
      "identifier": [ {
        "type": {
          "coding": [ {
            "system": "http://terminology.hl7.org/CodeSystem/v2-0203",
            "code": "MR"
          } ]
        },
        "system": "https://bonnie-fhir.healthit.gov/",
        "value": "63487c2d0968f8012254014c"
      } ],
      "active": true,
      "name": [ {
        "use": "usual",
        "family": "IPOPFail",
        "given": [ "ProcDelivStartDayAfterEncInpEnd" ]
      } ],
      "gender": "female",
      "birthDate": "1986-02-14"
    },
    "request": {
      "method": "PUT",
      "url": "Patient/8d2b169f-2590-4dc3-ade9-20ee0aa17eea"
    }
  }, {
    "fullUrl": "https://madie.cms.gov/Encounter/38b69ebd-14b9-4f20-a535-330a1306a3ed",
    "resource": {
      "resourceType": "Encounter",
      "id": "38b69ebd-14b9-4f20-a535-330a1306a3ed",
      "meta": {
        "profile": [ "http://hl7.org/fhir/us/qicore/StructureDefinition/qicore-encounter" ]
      },
      "status": "finished",
      "class": {
        "system": "http://terminology.hl7.org/CodeSystem/v3-ActCode",
        "code": "IMP",
        "display": "inpatient encounter"
      },
      "type": [ {
        "coding": [ {
          "system": "http://snomed.info/sct",
          "code": "8715000"
        } ]
      } ],
      "subject": {
        "reference": "Patient/8d2b169f-2590-4dc3-ade9-20ee0aa17eea"
      },
      "period": {
        "start": "2026-11-28T08:00:00.000+00:00",
        "end": "2026-11-30T08:15:00.000+00:00"
      },
      "length": {
        "value": 2,
        "unit": "days"
      },
      "diagnosis": [ {
        "condition": {
          "reference": "Condition/Condition-2"
        },
        "use": {
          "coding": [ {
            "system": "http://snomed.info/sct",
            "code": "169826009",
            "display": "Single live birth from singleton pregnancy (finding)"
          } ]
        }
      } ]
    },
    "request": {
      "method": "PUT",
      "url": "Encounter/38b69ebd-14b9-4f20-a535-330a1306a3ed"
    }
  }, {
    "fullUrl": "https://madie.cms.gov/Procedure/a1e78df1-ab9d-44f1-985e-3a2ea5c37559",
    "resource": {
      "resourceType": "Procedure",
      "id": "a1e78df1-ab9d-44f1-985e-3a2ea5c37559",
      "meta": {
        "profile": [ "http://hl7.org/fhir/us/qicore/StructureDefinition/qicore-procedure" ]
      },
      "extension": [ {
        "url": "http://hl7.org/fhir/us/qicore/StructureDefinition/qicore-recorded",
        "valueDateTime": "2014-04-05T13:35:00.000+00:00"
      } ],
      "status": "completed",
      "code": {
        "coding": [ {
          "system": "http://www.cms.gov/Medicare/Coding/ICD10",
          "code": "10D00Z0",
          "userSelected": true
        } ]
      },
      "subject": {
        "reference": "Patient/8d2b169f-2590-4dc3-ade9-20ee0aa17eea"
      },
      "performedDateTime": "2026-12-01T00:01:00.000+00:00"
    },
    "request": {
      "method": "PUT",
      "url": "Procedure/a1e78df1-ab9d-44f1-985e-3a2ea5c37559"
    }
  }, {
    "fullUrl": "https://madie.cms.gov/Coverage/ce69760c-ee46-4087-9ce5-4c9a72983db1",
    "resource": {
      "resourceType": "Coverage",
      "id": "ce69760c-ee46-4087-9ce5-4c9a72983db1",
      "meta": {
        "profile": [ "http://hl7.org/fhir/us/qicore/StructureDefinition/qicore-coverage" ]
      },
      "status": "active",
      "subscriberId": "523435",
      "beneficiary": {
        "reference": "Patient/8d2b169f-2590-4dc3-ade9-20ee0aa17eea"
      },
      "relationship": {
        "coding": [ {
          "system": "http://terminology.hl7.org/CodeSystem/subscriber-relationship",
          "code": "self"
        } ]
      },
      "payor": [ {
        "reference": "Organization/cceead7f-2226-4b89-8a47-a9250f51868e"
      } ]
    },
    "request": {
      "method": "PUT",
      "url": "Coverage/ce69760c-ee46-4087-9ce5-4c9a72983db1"
    }
  }, {
    "fullUrl": "https://madie.cms.gov/Organization/cceead7f-2226-4b89-8a47-a9250f51868e",
    "resource": {
      "resourceType": "Organization",
      "id": "cceead7f-2226-4b89-8a47-a9250f51868e",
      "meta": {
        "profile": [ "http://hl7.org/fhir/us/qicore/StructureDefinition/qicore-organization" ]
      },
      "identifier": [ {
        "use": "temp",
        "system": "urn:oid:2.16.840.1.113883.4.4",
        "value": "21-3259825"
      } ],
      "active": true,
      "type": [ {
        "coding": [ {
          "system": "http://terminology.hl7.org/CodeSystem/organization-type",
          "code": "pay",
          "display": "Payer"
        } ]
      } ],
      "name": "Blue Cross Blue Shield of Texas",
      "telecom": [ {
        "system": "phone",
        "value": "(+1) 972-766-6900"
      } ],
      "address": [ {
        "use": "billing",
        "type": "postal",
        "line": [ "P.O. Box 660044" ],
        "city": "Dallas",
        "state": "TX",
        "postalCode": "75266-0044",
        "country": "USA"
      } ]
    },
    "request": {
      "method": "PUT",
      "url": "Organization/cceead7f-2226-4b89-8a47-a9250f51868e"
    }
  }, {
    "fullUrl": "https://madie.cms.gov/Practitioner/ad4a9bdb-5be8-44d7-a2cb-909f7405f607",
    "resource": {
      "resourceType": "Practitioner",
      "id": "ad4a9bdb-5be8-44d7-a2cb-909f7405f607",
      "identifier": [ {
        "system": "http://hl7.org/fhir/sid/us-npi",
        "value": "123456"
      } ],
      "name": [ {
        "family": "Evil",
        "prefix": [ "Dr" ]
      } ]
    },
    "request": {
      "method": "PUT",
      "url": "Practitioner/ad4a9bdb-5be8-44d7-a2cb-909f7405f607"
    }
  }, {
    "fullUrl": "https://madie.cms.gov/MeasureReport/1bfb0e74-f4df-4252-8900-8d01f8922e3e",
    "resource": {
      "resourceType": "MeasureReport",
      "id": "1bfb0e74-f4df-4252-8900-8d01f8922e3e",
      "meta": {
        "profile": [ "http://hl7.org/fhir/us/cqfmeasures/StructureDefinition/test-case-cqfm" ]
      },
      "contained": [ {
        "resourceType": "Parameters",
        "id": "a3c1e4bf-b70d-4f95-a6d1-b1b8941668ff-parameters",
        "parameter": [ {
          "name": "subject",
          "valueString": "8d2b169f-2590-4dc3-ade9-20ee0aa17eea"
        } ]
      } ],
      "extension": [ {
        "url": "http://hl7.org/fhir/StructureDefinition/cqf-inputParameters",
        "valueReference": {
          "reference": "#a3c1e4bf-b70d-4f95-a6d1-b1b8941668ff-parameters"
        }
      }, {
        "url": "http://hl7.org/fhir/us/cqfmeasures/StructureDefinition/cqfm-testCaseDescription",
        "valueMarkdown": "\"Fail IPP, ProcDelivStartAfter IP  end\n DEN, NUM. Parity result 0 (auth at 42 weeks) EGA 40 weeks;   Tests \"\"DeliveryProcedures.relevantPeriod starts during QualifyingEncounters.relevantPeriod\"\".\"\n"
      } ],
      "modifierExtension": [ {
        "url": "http://hl7.org/fhir/us/cqfmeasures/StructureDefinition/cqfm-isTestCase",
        "valueBoolean": true
      } ],
      "status": "complete",
      "type": "individual",
      "measure": "https://madie.cms.gov/Measure/CMS0334FHIRPCCesareanBirth",
      "period": {
        "start": "2026-01-01",
        "end": "2026-12-31"
      },
      "group": [ {
        "id": "Group_1",
        "population": [ {
          "id": "InitialPopulation_1",
          "code": {
            "coding": [ {
              "system": "http://terminology.hl7.org/CodeSystem/measure-population",
              "code": "initial-population",
              "display": "Initial Population"
            } ]
          },
          "count": 0
        }, {
          "id": "Denominator_1",
          "code": {
            "coding": [ {
              "system": "http://terminology.hl7.org/CodeSystem/measure-population",
              "code": "denominator",
              "display": "Denominator"
            } ]
          },
          "count": 0
        }, {
          "id": "DenominatorExclusion_1",
          "code": {
            "coding": [ {
              "system": "http://terminology.hl7.org/CodeSystem/measure-population",
              "code": "denominator-exclusion",
              "display": "Denominator Exclusion"
            } ]
          },
          "count": 0
        }, {
          "id": "Numerator_1",
          "code": {
            "coding": [ {
              "system": "http://terminology.hl7.org/CodeSystem/measure-population",
              "code": "numerator",
              "display": "Numerator"
            } ]
          },
          "count": 0
        } ],
        "measureScore": {
          "value": 0.0
        }
      } ],
      "evaluatedResource": [ {
        "reference": "Patient/8d2b169f-2590-4dc3-ade9-20ee0aa17eea"
      }, {
        "reference": "Encounter/38b69ebd-14b9-4f20-a535-330a1306a3ed"
      }, {
        "reference": "Procedure/a1e78df1-ab9d-44f1-985e-3a2ea5c37559"
      }, {
        "reference": "Coverage/ce69760c-ee46-4087-9ce5-4c9a72983db1"
      }, {
        "reference": "Organization/cceead7f-2226-4b89-8a47-a9250f51868e"
      }, {
        "reference": "Practitioner/ad4a9bdb-5be8-44d7-a2cb-909f7405f607"
      } ]
    },
    "request": {
      "method": "PUT",
      "url": "MeasureReport/1bfb0e74-f4df-4252-8900-8d01f8922e3e"
    }
  } ]
}