{
  "resourceType": "Bundle",
  "id": "6359776b6aee9629c8298235",
  "type": "transaction",
  "entry": [ {
    "fullUrl": "https://madie.cms.gov/Patient/cfed70be-9e5a-42f2-822d-133e3e970c3b",
    "resource": {
      "resourceType": "Patient",
      "id": "cfed70be-9e5a-42f2-822d-133e3e970c3b",
      "meta": {
        "profile": [ "http://hl7.org/fhir/us/qicore/StructureDefinition/qicore-patient" ]
      },
      "text": {
        "status": "generated",
        "div": "<div xmlns=\"http://www.w3.org/1999/xhtml\"><div class=\"hapiHeaderText\">1stWBCIsNull2ndIsGood<b>RISKFail</b></div><table class=\"hapiPropertyTable\"><tbody><tr><td>Date of birth</td><td><span>01 February 2004</span></td></tr></tbody></table></div>"
      },
      "extension": [ {
        "url": "http://hl7.org/fhir/us/core/StructureDefinition/us-core-race",
        "extension": [ {
          "url": "ombCategory",
          "valueCoding": {
            "system": "urn:oid:2.16.840.1.113883.6.238",
            "code": "1002-5",
            "display": "American Indian or Alaska Native",
            "userSelected": true
          }
        }, {
          "url": "text",
          "valueString": "American Indian or Alaska Native"
        } ]
      }, {
        "url": "http://hl7.org/fhir/us/core/StructureDefinition/us-core-ethnicity",
        "extension": [ {
          "url": "ombCategory",
          "valueCoding": {
            "system": "urn:oid:2.16.840.1.113883.6.238",
            "code": "2135-2",
            "display": "Hispanic or Latino",
            "userSelected": true
          }
        }, {
          "url": "text",
          "valueString": "Hispanic or Latino"
        } ]
      } ],
      "identifier": [ {
        "type": {
          "coding": [ {
            "system": "http://terminology.hl7.org/CodeSystem/v2-0203",
            "code": "MR"
          } ]
        },
        "system": "https://bonnie-fhir.healthit.gov/",
        "value": "6359776b6aee9629c8298235"
      } ],
      "active": true,
      "name": [ {
        "use": "usual",
        "family": "RiskFail",
        "given": [ "1stWBCIsNull2ndIsGood" ]
      } ],
      "gender": "female",
      "birthDate": "2005-02-01"
    },
    "request": {
      "method": "PUT",
      "url": "Patient/cfed70be-9e5a-42f2-822d-133e3e970c3b"
    }
  }, {
    "fullUrl": "https://madie.cms.gov/Observation/79a675c2-1764-4b50-a284-ec3d191804f0",
    "resource": {
      "resourceType": "Observation",
      "id": "79a675c2-1764-4b50-a284-ec3d191804f0",
      "meta": {
        "profile": [ "http://hl7.org/fhir/us/qicore/StructureDefinition/qicore-simple-observation" ]
      },
      "status": "final",
      "category": [ {
        "coding": [ {
          "system": "http://terminology.hl7.org/CodeSystem/observation-category",
          "code": "exam",
          "display": "exam",
          "userSelected": true
        } ]
      } ],
      "code": {
        "coding": [ {
          "system": "http://loinc.org",
          "code": "93857-1"
        } ]
      },
      "subject": {
        "reference": "Patient/cfed70be-9e5a-42f2-822d-133e3e970c3b"
      },
      "effectiveDateTime": "2026-02-01T08:15:00.000+00:00",
      "performer": [ {
        "reference": "Organization/example1",
        "display": "Hendricks Country Hospital"
      } ],
      "valueDateTime": "2026-02-01T08:15:00.000+00:00"
    },
    "request": {
      "method": "PUT",
      "url": "Observation/79a675c2-1764-4b50-a284-ec3d191804f0"
    }
  }, {
    "fullUrl": "https://madie.cms.gov/Condition/749872a4-a59d-4d5e-8e89-beb6484a6053",
    "resource": {
      "resourceType": "Condition",
      "id": "749872a4-a59d-4d5e-8e89-beb6484a6053",
      "meta": {
        "profile": [ "http://hl7.org/fhir/us/qicore/StructureDefinition/qicore-condition-encounter-diagnosis" ]
      },
      "category": [ {
        "coding": [ {
          "system": "http://terminology.hl7.org/CodeSystem/condition-category",
          "code": "encounter-diagnosis",
          "display": "Encounter Diagnosis"
        } ]
      } ],
      "code": {
        "coding": [ {
          "system": "http://hl7.org/fhir/sid/icd-10-cm",
          "version": "2023",
          "code": "Z3A.20",
          "display": "20 weeks gestation",
          "userSelected": true
        } ]
      },
      "subject": {
        "reference": "Patient/cfed70be-9e5a-42f2-822d-133e3e970c3b"
      },
      "recordedDate": "2026-10-26T08:00:00.000+00:00"
    },
    "request": {
      "method": "PUT",
      "url": "Condition/749872a4-a59d-4d5e-8e89-beb6484a6053"
    }
  }, {
    "fullUrl": "https://madie.cms.gov/Encounter/ba0b756a-6ca3-436a-8723-afeec0575a06",
    "resource": {
      "resourceType": "Encounter",
      "id": "ba0b756a-6ca3-436a-8723-afeec0575a06",
      "meta": {
        "profile": [ "http://hl7.org/fhir/us/qicore/StructureDefinition/qicore-encounter" ]
      },
      "status": "finished",
      "class": {
        "system": "http://terminology.hl7.org/CodeSystem/v3-ActCode",
        "code": "IMP",
        "display": "inpatient encounter"
      },
      "type": [ {
        "coding": [ {
          "system": "http://snomed.info/sct",
          "code": "183452005"
        } ]
      } ],
      "subject": {
        "reference": "Patient/cfed70be-9e5a-42f2-822d-133e3e970c3b"
      },
      "period": {
        "start": "2026-02-01T08:00:00.000+00:00",
        "end": "2026-02-05T08:15:00.000+00:00"
      },
      "reasonReference": [ {
        "reference": "Condition/749872a4-a59d-4d5e-8e89-beb6484a6053"
      } ]
    },
    "request": {
      "method": "PUT",
      "url": "Encounter/ba0b756a-6ca3-436a-8723-afeec0575a06"
    }
  }, {
    "fullUrl": "https://madie.cms.gov/Encounter/dd114b4a-439b-4d31-b2b2-0259ca4e6aa4",
    "resource": {
      "resourceType": "Encounter",
      "id": "dd114b4a-439b-4d31-b2b2-0259ca4e6aa4",
      "meta": {
        "profile": [ "http://hl7.org/fhir/us/qicore/StructureDefinition/qicore-encounter" ]
      },
      "status": "finished",
      "class": {
        "system": "http://terminology.hl7.org/CodeSystem/v3-ActCode",
        "code": "EMER",
        "display": "emergency"
      },
      "type": [ {
        "coding": [ {
          "system": "http://snomed.info/sct",
          "code": "4525004"
        } ]
      } ],
      "subject": {
        "reference": "Patient/cfed70be-9e5a-42f2-822d-133e3e970c3b"
      },
      "period": {
        "start": "2026-02-01T07:00:00.000+00:00",
        "end": "2026-02-01T07:59:00.000+00:00"
      }
    },
    "request": {
      "method": "PUT",
      "url": "Encounter/dd114b4a-439b-4d31-b2b2-0259ca4e6aa4"
    }
  }, {
    "fullUrl": "https://madie.cms.gov/Observation/0e63e34f-04de-4a8f-bdbc-099a5e9acb2d",
    "resource": {
      "resourceType": "Observation",
      "id": "0e63e34f-04de-4a8f-bdbc-099a5e9acb2d",
      "meta": {
        "profile": [ "http://hl7.org/fhir/us/qicore/StructureDefinition/qicore-observation-lab" ]
      },
      "status": "final",
      "category": [ {
        "coding": [ {
          "system": "http://terminology.hl7.org/CodeSystem/observation-category",
          "code": "laboratory",
          "display": "laboratory",
          "userSelected": true
        } ]
      } ],
      "code": {
        "coding": [ {
          "system": "http://loinc.org",
          "version": "2.73",
          "code": "26464-8",
          "display": "Leukocytes [#/volume] in Blood",
          "userSelected": true
        } ]
      },
      "subject": {
        "reference": "Patient/cfed70be-9e5a-42f2-822d-133e3e970c3b"
      },
      "effectiveDateTime": "2026-02-01T08:00:00.000+00:00",
      "issued": "2026-02-01T08:00:00.000+00:00",
      "valueQuantity": {
        "unit": "10*3/u"
      }
    },
    "request": {
      "method": "PUT",
      "url": "Observation/0e63e34f-04de-4a8f-bdbc-099a5e9acb2d"
    }
  }, {
    "fullUrl": "https://madie.cms.gov/Procedure/3b57cffa-360d-4065-b0e2-557e86c7544d",
    "resource": {
      "resourceType": "Procedure",
      "id": "3b57cffa-360d-4065-b0e2-557e86c7544d",
      "meta": {
        "profile": [ "http://hl7.org/fhir/us/qicore/StructureDefinition/qicore-procedure" ]
      },
      "extension": [ {
        "url": "http://hl7.org/fhir/us/qicore/StructureDefinition/qicore-recorded",
        "valueDateTime": "2026-02-04T13:35:00.000+00:00"
      } ],
      "status": "completed",
      "code": {
        "coding": [ {
          "system": "http://snomed.info/sct",
          "code": "10745001"
        } ]
      },
      "subject": {
        "reference": "Patient/cfed70be-9e5a-42f2-822d-133e3e970c3b"
      },
      "performedPeriod": {
        "start": "2026-02-01T08:00:00.000+00:00",
        "end": "2026-02-05T08:15:00.000+00:00"
      }
    },
    "request": {
      "method": "PUT",
      "url": "Procedure/3b57cffa-360d-4065-b0e2-557e86c7544d"
    }
  }, {
    "fullUrl": "https://madie.cms.gov/Observation/cca53188-c0ba-41c2-8e24-45ed564bbd8c",
    "resource": {
      "resourceType": "Observation",
      "id": "cca53188-c0ba-41c2-8e24-45ed564bbd8c",
      "meta": {
        "profile": [ "http://hl7.org/fhir/us/qicore/StructureDefinition/qicore-observation-lab" ]
      },
      "status": "final",
      "category": [ {
        "coding": [ {
          "system": "http://terminology.hl7.org/CodeSystem/observation-category",
          "code": "laboratory",
          "display": "laboratory",
          "userSelected": true
        } ]
      } ],
      "code": {
        "coding": [ {
          "system": "http://loinc.org",
          "version": "2.73",
          "code": "26464-8",
          "display": "Leukocytes [#/volume] in Blood",
          "userSelected": true
        } ]
      },
      "subject": {
        "reference": "Patient/cfed70be-9e5a-42f2-822d-133e3e970c3b"
      },
      "effectiveDateTime": "2026-02-01T08:01:00.000+00:00",
      "issued": "2026-02-01T08:01:00.000+00:00",
      "valueQuantity": {
        "value": 10,
        "unit": "10*3/u"
      }
    },
    "request": {
      "method": "PUT",
      "url": "Observation/cca53188-c0ba-41c2-8e24-45ed564bbd8c"
    }
  }, {
    "fullUrl": "https://madie.cms.gov/MeasureReport/1e3b2444-c845-4faa-b2ec-4eefd040be0f",
    "resource": {
      "resourceType": "MeasureReport",
      "id": "1e3b2444-c845-4faa-b2ec-4eefd040be0f",
      "meta": {
        "profile": [ "http://hl7.org/fhir/us/cqfmeasures/StructureDefinition/test-case-cqfm" ]
      },
      "contained": [ {
        "resourceType": "Parameters",
        "id": "8df1a546-2ada-431c-8053-2219c9618346-parameters",
        "parameter": [ {
          "name": "subject",
          "valueString": "cfed70be-9e5a-42f2-822d-133e3e970c3b"
        } ]
      } ],
      "extension": [ {
        "url": "http://hl7.org/fhir/StructureDefinition/cqf-inputParameters",
        "valueReference": {
          "reference": "#8df1a546-2ada-431c-8053-2219c9618346-parameters"
        }
      }, {
        "url": "http://hl7.org/fhir/us/cqfmeasures/StructureDefinition/cqfm-testCaseDescription",
        "valueMarkdown": "First WBC is Null.  2nd WBC is resulted and meets timing parameters"
      } ],
      "modifierExtension": [ {
        "url": "http://hl7.org/fhir/us/cqfmeasures/StructureDefinition/cqfm-isTestCase",
        "valueBoolean": true
      } ],
      "status": "complete",
      "type": "individual",
      "measure": "https://madie.cms.gov/Measure/CMS1028FHIRPCSevereOBComps",
      "period": {
        "start": "2026-01-01",
        "end": "2026-12-31"
      },
      "group": [ {
        "id": "Group_1",
        "population": [ {
          "id": "InitialPopulation_1",
          "code": {
            "coding": [ {
              "system": "http://terminology.hl7.org/CodeSystem/measure-population",
              "code": "initial-population",
              "display": "Initial Population"
            } ]
          },
          "count": 1
        }, {
          "id": "Denominator_1",
          "code": {
            "coding": [ {
              "system": "http://terminology.hl7.org/CodeSystem/measure-population",
              "code": "denominator",
              "display": "Denominator"
            } ]
          },
          "count": 1
        }, {
          "id": "Numerator_1",
          "code": {
            "coding": [ {
              "system": "http://terminology.hl7.org/CodeSystem/measure-population",
              "code": "numerator",
              "display": "Numerator"
            } ]
          },
          "count": 0
        }, {
          "id": "NumeratorExclusion_1",
          "code": {
            "coding": [ {
              "system": "http://terminology.hl7.org/CodeSystem/measure-population",
              "code": "numerator-exclusion",
              "display": "Numerator Exclusion"
            } ]
          },
          "count": 0
        } ],
        "measureScore": {
          "value": 0.0
        }
      }, {
        "id": "Group_2",
        "population": [ {
          "id": "InitialPopulation_2",
          "code": {
            "coding": [ {
              "system": "http://terminology.hl7.org/CodeSystem/measure-population",
              "code": "initial-population",
              "display": "Initial Population"
            } ]
          },
          "count": 1
        }, {
          "id": "Denominator_2",
          "code": {
            "coding": [ {
              "system": "http://terminology.hl7.org/CodeSystem/measure-population",
              "code": "denominator",
              "display": "Denominator"
            } ]
          },
          "count": 1
        }, {
          "id": "Numerator_2",
          "code": {
            "coding": [ {
              "system": "http://terminology.hl7.org/CodeSystem/measure-population",
              "code": "numerator",
              "display": "Numerator"
            } ]
          },
          "count": 0
        }, {
          "id": "NumeratorExclusion_2",
          "code": {
            "coding": [ {
              "system": "http://terminology.hl7.org/CodeSystem/measure-population",
              "code": "numerator-exclusion",
              "display": "Numerator Exclusion"
            } ]
          },
          "count": 0
        } ],
        "measureScore": {
          "value": 0.0
        }
      } ],
      "evaluatedResource": [ {
        "reference": "Patient/cfed70be-9e5a-42f2-822d-133e3e970c3b"
      }, {
        "reference": "Observation/79a675c2-1764-4b50-a284-ec3d191804f0"
      }, {
        "reference": "Condition/749872a4-a59d-4d5e-8e89-beb6484a6053"
      }, {
        "reference": "Encounter/ba0b756a-6ca3-436a-8723-afeec0575a06"
      }, {
        "reference": "Encounter/dd114b4a-439b-4d31-b2b2-0259ca4e6aa4"
      }, {
        "reference": "Observation/0e63e34f-04de-4a8f-bdbc-099a5e9acb2d"
      }, {
        "reference": "Procedure/3b57cffa-360d-4065-b0e2-557e86c7544d"
      }, {
        "reference": "Observation/cca53188-c0ba-41c2-8e24-45ed564bbd8c"
      } ]
    },
    "request": {
      "method": "PUT",
      "url": "MeasureReport/1e3b2444-c845-4faa-b2ec-4eefd040be0f"
    }
  } ]
}