{
  "resourceType": "Bundle",
  "id": "61095b0998086b53805591a5",
  "type": "collection",
  "entry": [ {
    "fullUrl": "https://madie.cms.gov/Patient/e4f0c8b6-6004-4565-93d6-9df005b8061f",
    "resource": {
      "resourceType": "Patient",
      "id": "e4f0c8b6-6004-4565-93d6-9df005b8061f",
      "meta": {
        "profile": [ "http://hl7.org/fhir/us/qicore/StructureDefinition/qicore-patient" ]
      },
      "text": {
        "status": "generated",
        "div": "<div xmlns=\"http://www.w3.org/1999/xhtml\"><div class=\"hapiHeaderText\">Age@18 <b>DENOMPASS </b></div><table class=\"hapiPropertyTable\"><tbody><tr><td>Identifier</td><td>67f3e33acf17bcb386e754d726ed064ccd48ba21ff0ffb2eb678740a684398be</td></tr><tr><td>Date of birth</td><td><span>01 January 1994</span></td></tr></tbody></table></div>"
      },
      "extension": [ {
        "url": "http://hl7.org/fhir/us/core/StructureDefinition/us-core-race",
        "extension": [ {
          "url": "ombCategory",
          "valueCoding": {
            "system": "urn:oid:2.16.840.1.113883.6.238",
            "code": "1002-5",
            "display": "American Indian or Alaska Native",
            "userSelected": true
          }
        }, {
          "url": "text",
          "valueString": "American Indian or Alaska Native"
        } ]
      }, {
        "url": "http://hl7.org/fhir/us/core/StructureDefinition/us-core-ethnicity",
        "extension": [ {
          "url": "ombCategory",
          "valueCoding": {
            "system": "urn:oid:2.16.840.1.113883.6.238",
            "code": "2135-2",
            "display": "Hispanic or Latino",
            "userSelected": true
          }
        }, {
          "url": "text",
          "valueString": "Hispanic or Latino"
        } ]
      } ],
      "identifier": [ {
        "type": {
          "coding": [ {
            "system": "http://terminology.hl7.org/CodeSystem/v2-0203",
            "code": "MR"
          } ]
        },
        "system": "https://bonnie-fhir.healthit.gov/",
        "value": "61095b0998086b53805591a5"
      } ],
      "active": true,
      "name": [ {
        "use": "usual",
        "family": "DENEXPASS",
        "given": [ "UveitisWithCatSurg" ]
      } ],
      "gender": "female",
      "birthDate": "1996-01-01"
    }
  }, {
    "fullUrl": "https://madie.cms.gov/Observation/9034eaa7-af2d-4c02-813b-b7203147dba7",
    "resource": {
      "resourceType": "Observation",
      "id": "9034eaa7-af2d-4c02-813b-b7203147dba7",
      "meta": {
        "profile": [ "http://hl7.org/fhir/us/qicore/StructureDefinition/qicore-observation-clinical-result" ]
      },
      "status": "final",
      "category": [ {
        "coding": [ {
          "system": "http://terminology.hl7.org/CodeSystem/observation-category",
          "code": "exam",
          "display": "Exam"
        } ]
      }, {
        "coding": [ {
          "system": "http://terminology.hl7.org/CodeSystem/observation-category",
          "code": "survey"
        } ]
      } ],
      "code": {
        "coding": [ {
          "system": "http://snomed.info/sct",
          "version": "http://snomed.info/sct/731000124108/version/20250301",
          "code": "419775003"
        } ]
      },
      "subject": {
        "reference": "Patient/e4f0c8b6-6004-4565-93d6-9df005b8061f"
      },
      "effectivePeriod": {
        "start": "2026-03-13T09:00:00.000+00:00",
        "end": "2026-03-13T09:30:00.000+00:00"
      },
      "dataAbsentReason": {
        "coding": [ {
          "system": "http://terminology.hl7.org/CodeSystem/data-absent-reason",
          "code": "unknown",
          "display": "Unknown"
        } ]
      }
    }
  }, {
    "fullUrl": "https://madie.cms.gov/Procedure/dafbeb1d-343a-4e28-900c-1c968e7b393b",
    "resource": {
      "resourceType": "Procedure",
      "id": "dafbeb1d-343a-4e28-900c-1c968e7b393b",
      "meta": {
        "profile": [ "http://hl7.org/fhir/us/qicore/StructureDefinition/qicore-procedure" ]
      },
      "extension": [ {
        "url": "http://hl7.org/fhir/us/qicore/StructureDefinition/qicore-recorded",
        "valueDateTime": "2026-03-05T13:35:00.000+00:00"
      } ],
      "status": "completed",
      "code": {
        "coding": [ {
          "system": "http://snomed.info/sct",
          "code": "84149000"
        } ]
      },
      "subject": {
        "reference": "Patient/e4f0c8b6-6004-4565-93d6-9df005b8061f"
      },
      "performedPeriod": {
        "start": "2026-03-05T13:20:00.000+00:00",
        "end": "2026-04-05T14:30:00.000+00:00"
      }
    }
  }, {
    "fullUrl": "https://madie.cms.gov/Condition/cf146baa-831e-4032-8c63-a20ff5330484",
    "resource": {
      "resourceType": "Condition",
      "id": "cf146baa-831e-4032-8c63-a20ff5330484",
      "meta": {
        "profile": [ "http://hl7.org/fhir/us/qicore/StructureDefinition/qicore-condition-problems-health-concerns" ]
      },
      "clinicalStatus": {
        "coding": [ {
          "system": "http://terminology.hl7.org/CodeSystem/condition-clinical",
          "code": "active",
          "display": "active",
          "userSelected": true
        } ]
      },
      "category": [ {
        "coding": [ {
          "system": "http://terminology.hl7.org/CodeSystem/condition-category",
          "code": "problem-list-item",
          "display": "Problem List Item"
        } ]
      } ],
      "code": {
        "coding": [ {
          "system": "http://hl7.org/fhir/sid/icd-10-cm",
          "code": "H44.113",
          "userSelected": true
        }, {
          "system": "http://snomed.info/sct",
          "version": "http://snomed.info/sct/731000124108/version/20250301",
          "code": "16553002",
          "userSelected": true
        } ]
      },
      "subject": {
        "reference": "Patient/e4f0c8b6-6004-4565-93d6-9df005b8061f"
      },
      "onsetDateTime": "2024-11-01T08:00:00.000+00:00"
    }
  }, {
    "fullUrl": "https://madie.cms.gov/Coverage/2aa1b5d0-7e97-4212-8495-95247c49b53e",
    "resource": {
      "resourceType": "Coverage",
      "id": "2aa1b5d0-7e97-4212-8495-95247c49b53e",
      "meta": {
        "profile": [ "http://hl7.org/fhir/us/qicore/StructureDefinition/qicore-coverage" ]
      },
      "status": "active",
      "subscriberId": "123456",
      "beneficiary": {
        "reference": "Patient/e4f0c8b6-6004-4565-93d6-9df005b8061f"
      },
      "relationship": {
        "coding": [ {
          "system": "http://terminology.hl7.org/CodeSystem/subscriber-relationship",
          "code": "self",
          "display": "Self"
        } ]
      },
      "payor": [ {
        "reference": "Organization/af7d32d9-5bd5-4a82-be5e-6e99ed32100e"
      } ]
    }
  }, {
    "fullUrl": "https://madie.cms.gov/Organization/af7d32d9-5bd5-4a82-be5e-6e99ed32100e",
    "resource": {
      "resourceType": "Organization",
      "id": "af7d32d9-5bd5-4a82-be5e-6e99ed32100e",
      "meta": {
        "profile": [ "http://hl7.org/fhir/us/qicore/StructureDefinition/qicore-organization" ]
      },
      "identifier": [ {
        "use": "temp",
        "system": "urn:oid:2.16.840.1.113883.4.4",
        "value": "21-3259825"
      } ],
      "active": true,
      "type": [ {
        "coding": [ {
          "system": "http://terminology.hl7.org/CodeSystem/organization-type",
          "code": "pay",
          "display": "Payer"
        } ]
      } ],
      "name": "Blue Cross Blue Shield of Texas",
      "telecom": [ {
        "system": "phone",
        "value": "(+1) 972-766-6900"
      } ],
      "address": [ {
        "use": "billing",
        "type": "postal",
        "line": [ "P.O. Box 660044" ],
        "city": "Dallas",
        "state": "TX",
        "postalCode": "75266-0044",
        "country": "USA"
      } ]
    }
  }, {
    "fullUrl": "https://madie.cms.gov/Practitioner/1dad3a0e-33b3-4b98-a183-d0a080dad7d0",
    "resource": {
      "resourceType": "Practitioner",
      "id": "1dad3a0e-33b3-4b98-a183-d0a080dad7d0",
      "meta": {
        "profile": [ "http://hl7.org/fhir/us/qicore/StructureDefinition/qicore-practitioner" ]
      },
      "identifier": [ {
        "system": "http://hl7.org/fhir/sid/us-npi",
        "value": "1689411712"
      } ],
      "name": [ {
        "family": "Evil",
        "prefix": [ "Dr" ]
      } ]
    }
  }, {
    "fullUrl": "https://madie.cms.gov/MeasureReport/72e6f04b-6416-43eb-b3e1-6a4d78c1b882",
    "resource": {
      "resourceType": "MeasureReport",
      "id": "72e6f04b-6416-43eb-b3e1-6a4d78c1b882",
      "meta": {
        "profile": [ "http://hl7.org/fhir/us/cqfmeasures/StructureDefinition/test-case-cqfm" ]
      },
      "contained": [ {
        "resourceType": "Parameters",
        "id": "0592d9e7-5b5c-45d2-8f6a-87ddf5061fe9-parameters",
        "parameter": [ {
          "name": "subject",
          "valueString": "e4f0c8b6-6004-4565-93d6-9df005b8061f"
        } ]
      } ],
      "extension": [ {
        "url": "http://hl7.org/fhir/StructureDefinition/cqf-inputParameters",
        "valueReference": {
          "reference": "#0592d9e7-5b5c-45d2-8f6a-87ddf5061fe9-parameters"
        }
      }, {
        "url": "http://hl7.org/fhir/us/cqfmeasures/StructureDefinition/cqfm-testCaseDescription",
        "valueMarkdown": "Patient with Uveitis with cataract surgery. "
      } ],
      "modifierExtension": [ {
        "url": "http://hl7.org/fhir/us/cqfmeasures/StructureDefinition/cqfm-isTestCase",
        "valueBoolean": true
      } ],
      "status": "complete",
      "type": "individual",
      "measure": "https://madie.cms.gov/Measure/CMS133FHIRCataracts2040BCVA90Days",
      "period": {
        "start": "2026-01-01",
        "end": "2026-12-31"
      },
      "group": [ {
        "id": "Group_1",
        "population": [ {
          "id": "InitialPopulation_1",
          "code": {
            "coding": [ {
              "system": "http://terminology.hl7.org/CodeSystem/measure-population",
              "code": "initial-population",
              "display": "Initial Population"
            } ]
          },
          "count": 1
        }, {
          "id": "Denominator_1",
          "code": {
            "coding": [ {
              "system": "http://terminology.hl7.org/CodeSystem/measure-population",
              "code": "denominator",
              "display": "Denominator"
            } ]
          },
          "count": 1
        }, {
          "id": "DenominatorExclusion_1",
          "code": {
            "coding": [ {
              "system": "http://terminology.hl7.org/CodeSystem/measure-population",
              "code": "denominator-exclusion",
              "display": "Denominator Exclusion"
            } ]
          },
          "count": 1
        }, {
          "id": "Numerator_1",
          "code": {
            "coding": [ {
              "system": "http://terminology.hl7.org/CodeSystem/measure-population",
              "code": "numerator",
              "display": "Numerator"
            } ]
          },
          "count": 0
        } ],
        "measureScore": {
          "value": 0.0
        }
      } ],
      "evaluatedResource": [ {
        "reference": "Patient/e4f0c8b6-6004-4565-93d6-9df005b8061f"
      }, {
        "reference": "Observation/9034eaa7-af2d-4c02-813b-b7203147dba7"
      }, {
        "reference": "Procedure/dafbeb1d-343a-4e28-900c-1c968e7b393b"
      }, {
        "reference": "Condition/cf146baa-831e-4032-8c63-a20ff5330484"
      }, {
        "reference": "Coverage/2aa1b5d0-7e97-4212-8495-95247c49b53e"
      }, {
        "reference": "Organization/af7d32d9-5bd5-4a82-be5e-6e99ed32100e"
      }, {
        "reference": "Practitioner/1dad3a0e-33b3-4b98-a183-d0a080dad7d0"
      } ]
    }
  } ]
}