{
  "resourceType": "Bundle",
  "id": "NUMERPass-TwoHepBAndOneNewBorn",
  "type": "transaction",
  "entry": [ {
    "fullUrl": "https://madie.cms.gov/Patient/65c8f22c-bf45-43d6-abde-3227f0699c9e",
    "resource": {
      "resourceType": "Patient",
      "id": "65c8f22c-bf45-43d6-abde-3227f0699c9e",
      "meta": {
        "profile": [ "http://hl7.org/fhir/us/qicore/StructureDefinition/qicore-patient" ]
      },
      "extension": [ {
        "url": "http://hl7.org/fhir/us/core/StructureDefinition/us-core-race",
        "extension": [ {
          "url": "ombCategory",
          "valueCoding": {
            "system": "urn:oid:2.16.840.1.113883.6.238",
            "code": "2028-9",
            "display": "Asian"
          }
        }, {
          "url": "text",
          "valueString": "Asian"
        } ]
      }, {
        "url": "http://hl7.org/fhir/us/core/StructureDefinition/us-core-ethnicity",
        "extension": [ {
          "url": "ombCategory",
          "valueCoding": {
            "system": "urn:oid:2.16.840.1.113883.6.238",
            "code": "2135-2",
            "display": "Hispanic or Latino"
          }
        }, {
          "url": "text",
          "valueString": "Hispanic or Latino"
        } ]
      } ],
      "identifier": [ {
        "system": "http://hospital.smarthealthit.org",
        "value": "999999995"
      } ],
      "name": [ {
        "family": "Bertha",
        "given": [ "Betty" ]
      } ],
      "gender": "female",
      "birthDate": "2024-01-01"
    },
    "request": {
      "method": "PUT",
      "url": "Patient/65c8f22c-bf45-43d6-abde-3227f0699c9e"
    }
  }, {
    "fullUrl": "https://madie.cms.gov/Encounter/7775ba4b-13d4-4a8f-8efb-834c56d8438b",
    "resource": {
      "resourceType": "Encounter",
      "id": "7775ba4b-13d4-4a8f-8efb-834c56d8438b",
      "meta": {
        "profile": [ "http://hl7.org/fhir/us/qicore/StructureDefinition/qicore-encounter" ]
      },
      "status": "finished",
      "class": {
        "system": "http://terminology.hl7.org/CodeSystem/v3-ActCode",
        "code": "AMB",
        "display": "ambulatory"
      },
      "type": [ {
        "coding": [ {
          "system": "http://snomed.info/sct",
          "code": "185317003",
          "display": "Telephone encounter (procedure)"
        } ]
      } ],
      "subject": {
        "reference": "Patient/65c8f22c-bf45-43d6-abde-3227f0699c9e"
      },
      "period": {
        "start": "2026-01-01T01:00:00.000+00:00",
        "end": "2026-01-01T01:15:00.000+00:00"
      }
    },
    "request": {
      "method": "PUT",
      "url": "Encounter/7775ba4b-13d4-4a8f-8efb-834c56d8438b"
    }
  }, {
    "fullUrl": "https://madie.cms.gov/Immunization/ed394ee5-ee43-485c-b455-09dac577fd41",
    "resource": {
      "resourceType": "Immunization",
      "id": "ed394ee5-ee43-485c-b455-09dac577fd41",
      "meta": {
        "profile": [ "http://hl7.org/fhir/us/qicore/StructureDefinition/qicore-immunization" ]
      },
      "status": "completed",
      "vaccineCode": {
        "coding": [ {
          "system": "http://hl7.org/fhir/sid/cvx",
          "code": "146",
          "display": "DTaP,IPV,Hib,HepB"
        } ]
      },
      "patient": {
        "reference": "Patient/65c8f22c-bf45-43d6-abde-3227f0699c9e"
      },
      "occurrenceDateTime": "2025-01-02T00:00:00.000+00:00",
      "recorded": "2025-01-02T00:00:00.000+00:00",
      "primarySource": true
    },
    "request": {
      "method": "PUT",
      "url": "Immunization/ed394ee5-ee43-485c-b455-09dac577fd41"
    }
  }, {
    "fullUrl": "https://madie.cms.gov/Immunization/e866fb22-2470-4700-9146-40b7341de496",
    "resource": {
      "resourceType": "Immunization",
      "id": "e866fb22-2470-4700-9146-40b7341de496",
      "meta": {
        "profile": [ "http://hl7.org/fhir/us/qicore/StructureDefinition/qicore-immunization" ]
      },
      "status": "completed",
      "vaccineCode": {
        "coding": [ {
          "system": "http://hl7.org/fhir/sid/cvx",
          "code": "146",
          "display": "DTaP,IPV,Hib,HepB"
        } ]
      },
      "patient": {
        "reference": "Patient/65c8f22c-bf45-43d6-abde-3227f0699c9e"
      },
      "occurrenceDateTime": "2025-01-05T00:00:00.000+00:00",
      "recorded": "2025-01-02T00:00:00.000+00:00",
      "primarySource": true
    },
    "request": {
      "method": "PUT",
      "url": "Immunization/e866fb22-2470-4700-9146-40b7341de496"
    }
  }, {
    "fullUrl": "https://madie.cms.gov/Immunization/6ded4cb6-2d7e-405e-afc2-7af212490a53",
    "resource": {
      "resourceType": "Immunization",
      "id": "6ded4cb6-2d7e-405e-afc2-7af212490a53",
      "meta": {
        "profile": [ "http://hl7.org/fhir/us/qicore/StructureDefinition/qicore-immunization" ]
      },
      "status": "completed",
      "vaccineCode": {
        "coding": [ {
          "system": "http://hl7.org/fhir/sid/cvx",
          "code": "146",
          "display": "DTaP,IPV,Hib,HepB"
        } ]
      },
      "patient": {
        "reference": "Patient/65c8f22c-bf45-43d6-abde-3227f0699c9e"
      },
      "occurrenceDateTime": "2025-01-07T00:00:00.000+00:00",
      "recorded": "2025-01-02T00:00:00.000+00:00",
      "primarySource": true
    },
    "request": {
      "method": "PUT",
      "url": "Immunization/6ded4cb6-2d7e-405e-afc2-7af212490a53"
    }
  }, {
    "fullUrl": "https://madie.cms.gov/Immunization/3dcc7112-f454-4ccb-bcb6-f9796a709c56",
    "resource": {
      "resourceType": "Immunization",
      "id": "3dcc7112-f454-4ccb-bcb6-f9796a709c56",
      "meta": {
        "profile": [ "http://hl7.org/fhir/us/qicore/StructureDefinition/qicore-immunization" ]
      },
      "status": "completed",
      "vaccineCode": {
        "coding": [ {
          "system": "http://hl7.org/fhir/sid/cvx",
          "code": "146",
          "display": "DTaP,IPV,Hib,HepB"
        } ]
      },
      "patient": {
        "reference": "Patient/65c8f22c-bf45-43d6-abde-3227f0699c9e"
      },
      "occurrenceDateTime": "2025-01-10T00:00:00.000+00:00",
      "recorded": "2025-01-02T00:00:00.000+00:00",
      "primarySource": true
    },
    "request": {
      "method": "PUT",
      "url": "Immunization/3dcc7112-f454-4ccb-bcb6-f9796a709c56"
    }
  }, {
    "fullUrl": "https://madie.cms.gov/Immunization/e03e4f15-b508-4cb8-95f1-57df43cb9882",
    "resource": {
      "resourceType": "Immunization",
      "id": "e03e4f15-b508-4cb8-95f1-57df43cb9882",
      "meta": {
        "profile": [ "http://hl7.org/fhir/us/qicore/StructureDefinition/qicore-immunization" ]
      },
      "status": "completed",
      "vaccineCode": {
        "coding": [ {
          "system": "http://hl7.org/fhir/sid/cvx",
          "code": "146",
          "display": "DTaP,IPV,Hib,HepB"
        } ]
      },
      "patient": {
        "reference": "Patient/65c8f22c-bf45-43d6-abde-3227f0699c9e"
      },
      "occurrenceDateTime": "2025-01-02T00:00:00.000+00:00",
      "recorded": "2025-01-02T00:00:00.000+00:00",
      "primarySource": true
    },
    "request": {
      "method": "PUT",
      "url": "Immunization/e03e4f15-b508-4cb8-95f1-57df43cb9882"
    }
  }, {
    "fullUrl": "https://madie.cms.gov/Immunization/a2558880-051b-4c03-a4e5-5f355c3fc871",
    "resource": {
      "resourceType": "Immunization",
      "id": "a2558880-051b-4c03-a4e5-5f355c3fc871",
      "meta": {
        "profile": [ "http://hl7.org/fhir/us/qicore/StructureDefinition/qicore-immunization" ]
      },
      "status": "completed",
      "vaccineCode": {
        "coding": [ {
          "system": "http://hl7.org/fhir/sid/cvx",
          "code": "146",
          "display": "DTaP,IPV,Hib,HepB"
        } ]
      },
      "patient": {
        "reference": "Patient/65c8f22c-bf45-43d6-abde-3227f0699c9e"
      },
      "occurrenceDateTime": "2025-01-06T00:00:00.000+00:00",
      "recorded": "2025-01-02T00:00:00.000+00:00",
      "primarySource": true
    },
    "request": {
      "method": "PUT",
      "url": "Immunization/a2558880-051b-4c03-a4e5-5f355c3fc871"
    }
  }, {
    "fullUrl": "https://madie.cms.gov/Immunization/d3eda3e7-4650-43be-8958-cb323ab22e72",
    "resource": {
      "resourceType": "Immunization",
      "id": "d3eda3e7-4650-43be-8958-cb323ab22e72",
      "meta": {
        "profile": [ "http://hl7.org/fhir/us/qicore/StructureDefinition/qicore-immunization" ]
      },
      "status": "completed",
      "vaccineCode": {
        "coding": [ {
          "system": "http://hl7.org/fhir/sid/cvx",
          "code": "146",
          "display": "DTaP,IPV,Hib,HepB"
        } ]
      },
      "patient": {
        "reference": "Patient/65c8f22c-bf45-43d6-abde-3227f0699c9e"
      },
      "occurrenceDateTime": "2025-01-09T00:00:00.000+00:00",
      "recorded": "2025-01-02T00:00:00.000+00:00",
      "primarySource": true
    },
    "request": {
      "method": "PUT",
      "url": "Immunization/d3eda3e7-4650-43be-8958-cb323ab22e72"
    }
  }, {
    "fullUrl": "https://madie.cms.gov/Immunization/c3586425-c8d7-4c73-b02e-69bf425caefd",
    "resource": {
      "resourceType": "Immunization",
      "id": "c3586425-c8d7-4c73-b02e-69bf425caefd",
      "meta": {
        "profile": [ "http://hl7.org/fhir/us/qicore/StructureDefinition/qicore-immunization" ]
      },
      "status": "completed",
      "vaccineCode": {
        "coding": [ {
          "system": "http://hl7.org/fhir/sid/cvx",
          "code": "94",
          "display": "measles, mumps, rubella, and varicella virus vaccine"
        } ]
      },
      "patient": {
        "reference": "Patient/65c8f22c-bf45-43d6-abde-3227f0699c9e"
      },
      "occurrenceDateTime": "2025-01-02T00:00:00.000+00:00",
      "recorded": "2025-01-02T00:00:00.000+00:00",
      "primarySource": true
    },
    "request": {
      "method": "PUT",
      "url": "Immunization/c3586425-c8d7-4c73-b02e-69bf425caefd"
    }
  }, {
    "fullUrl": "https://madie.cms.gov/Immunization/01ba419b-758c-4a06-95cc-a69bd7addcc4",
    "resource": {
      "resourceType": "Immunization",
      "id": "01ba419b-758c-4a06-95cc-a69bd7addcc4",
      "meta": {
        "profile": [ "http://hl7.org/fhir/us/qicore/StructureDefinition/qicore-immunization" ]
      },
      "status": "completed",
      "vaccineCode": {
        "coding": [ {
          "system": "http://hl7.org/fhir/sid/cvx",
          "code": "49",
          "display": "Haemophilus influenzae type b vaccine, PRP-OMP conjugate"
        } ]
      },
      "patient": {
        "reference": "Patient/65c8f22c-bf45-43d6-abde-3227f0699c9e"
      },
      "occurrenceDateTime": "2023-01-02T00:00:00.000+00:00",
      "recorded": "2025-01-02T00:00:00.000+00:00",
      "primarySource": true
    },
    "request": {
      "method": "PUT",
      "url": "Immunization/01ba419b-758c-4a06-95cc-a69bd7addcc4"
    }
  }, {
    "fullUrl": "https://madie.cms.gov/Immunization/40952d1a-83ee-4841-94cc-732a4aad32a8",
    "resource": {
      "resourceType": "Immunization",
      "id": "40952d1a-83ee-4841-94cc-732a4aad32a8",
      "meta": {
        "profile": [ "http://hl7.org/fhir/us/qicore/StructureDefinition/qicore-immunization" ]
      },
      "status": "completed",
      "vaccineCode": {
        "coding": [ {
          "system": "http://hl7.org/fhir/sid/cvx",
          "code": "49",
          "display": "Haemophilus influenzae type b vaccine, PRP-OMP conjugate"
        } ]
      },
      "patient": {
        "reference": "Patient/65c8f22c-bf45-43d6-abde-3227f0699c9e"
      },
      "occurrenceDateTime": "2025-01-02T00:00:00.000+00:00",
      "recorded": "2025-01-02T00:00:00.000+00:00",
      "primarySource": true
    },
    "request": {
      "method": "PUT",
      "url": "Immunization/40952d1a-83ee-4841-94cc-732a4aad32a8"
    }
  }, {
    "fullUrl": "https://madie.cms.gov/Immunization/524683fa-5626-46ea-87cd-b5e37fc9a424",
    "resource": {
      "resourceType": "Immunization",
      "id": "524683fa-5626-46ea-87cd-b5e37fc9a424",
      "meta": {
        "profile": [ "http://hl7.org/fhir/us/qicore/StructureDefinition/qicore-immunization" ]
      },
      "status": "completed",
      "vaccineCode": {
        "coding": [ {
          "system": "http://hl7.org/fhir/sid/cvx",
          "code": "49",
          "display": "Haemophilus influenzae type b vaccine, PRP-OMP conjugate"
        } ]
      },
      "patient": {
        "reference": "Patient/65c8f22c-bf45-43d6-abde-3227f0699c9e"
      },
      "occurrenceDateTime": "2025-01-02T00:00:00.000+00:00",
      "recorded": "2025-01-02T00:00:00.000+00:00",
      "primarySource": true
    },
    "request": {
      "method": "PUT",
      "url": "Immunization/524683fa-5626-46ea-87cd-b5e37fc9a424"
    }
  }, {
    "fullUrl": "https://madie.cms.gov/Procedure/ef9bddd5-9685-487a-8325-e900a954a0e2",
    "resource": {
      "resourceType": "Procedure",
      "id": "ef9bddd5-9685-487a-8325-e900a954a0e2",
      "meta": {
        "profile": [ "http://hl7.org/fhir/us/qicore/StructureDefinition/qicore-procedure" ]
      },
      "extension": [ {
        "url": "http://hl7.org/fhir/us/qicore/StructureDefinition/qicore-recorded",
        "valueDateTime": "2026-12-31T00:00:00.000+00:00"
      } ],
      "status": "completed",
      "code": {
        "coding": [ {
          "system": "http://www.cms.gov/Medicare/Coding/ICD10",
          "code": "3E0234Z",
          "display": "Introduction of Serum, Toxoid and Vaccine into Muscle, Percutaneous Approach"
        } ]
      },
      "subject": {
        "reference": "Patient/65c8f22c-bf45-43d6-abde-3227f0699c9e"
      },
      "performedPeriod": {
        "start": "2024-01-03T00:00:00.000+00:00",
        "end": "2024-01-03T23:59:59.000+00:00"
      }
    },
    "request": {
      "method": "PUT",
      "url": "Procedure/ef9bddd5-9685-487a-8325-e900a954a0e2"
    }
  }, {
    "fullUrl": "https://madie.cms.gov/Immunization/1c5b4e92-a619-42e9-9e4f-2973ae115150",
    "resource": {
      "resourceType": "Immunization",
      "id": "1c5b4e92-a619-42e9-9e4f-2973ae115150",
      "meta": {
        "profile": [ "http://hl7.org/fhir/us/qicore/StructureDefinition/qicore-immunization" ]
      },
      "status": "completed",
      "vaccineCode": {
        "coding": [ {
          "system": "http://hl7.org/fhir/sid/cvx",
          "code": "51",
          "display": "Haemophilus influenzae type b conjugate and Hepatitis B vaccine"
        } ]
      },
      "patient": {
        "reference": "Patient/65c8f22c-bf45-43d6-abde-3227f0699c9e"
      },
      "occurrenceDateTime": "2025-01-10T00:00:00.000+00:00",
      "recorded": "2025-01-02T00:00:00.000+00:00",
      "primarySource": true
    },
    "request": {
      "method": "PUT",
      "url": "Immunization/1c5b4e92-a619-42e9-9e4f-2973ae115150"
    }
  }, {
    "fullUrl": "https://madie.cms.gov/Immunization/89aec6bd-6495-415c-b565-895a01f950af",
    "resource": {
      "resourceType": "Immunization",
      "id": "89aec6bd-6495-415c-b565-895a01f950af",
      "meta": {
        "profile": [ "http://hl7.org/fhir/us/qicore/StructureDefinition/qicore-immunization" ]
      },
      "status": "completed",
      "vaccineCode": {
        "coding": [ {
          "system": "http://hl7.org/fhir/sid/cvx",
          "code": "51",
          "display": "Haemophilus influenzae type b conjugate and Hepatitis B vaccine"
        } ]
      },
      "patient": {
        "reference": "Patient/65c8f22c-bf45-43d6-abde-3227f0699c9e"
      },
      "occurrenceDateTime": "2025-01-12T00:00:00.000+00:00",
      "recorded": "2025-01-02T00:00:00.000+00:00",
      "primarySource": true
    },
    "request": {
      "method": "PUT",
      "url": "Immunization/89aec6bd-6495-415c-b565-895a01f950af"
    }
  }, {
    "fullUrl": "https://madie.cms.gov/Immunization/77ed33a8-28ed-407e-8107-4ee78794dd28",
    "resource": {
      "resourceType": "Immunization",
      "id": "77ed33a8-28ed-407e-8107-4ee78794dd28",
      "meta": {
        "profile": [ "http://hl7.org/fhir/us/qicore/StructureDefinition/qicore-immunization" ]
      },
      "status": "completed",
      "vaccineCode": {
        "coding": [ {
          "system": "http://hl7.org/fhir/sid/cvx",
          "code": "94",
          "display": "measles, mumps, rubella, and varicella virus vaccine"
        } ]
      },
      "patient": {
        "reference": "Patient/65c8f22c-bf45-43d6-abde-3227f0699c9e"
      },
      "occurrenceDateTime": "2025-01-02T00:00:00.000+00:00",
      "recorded": "2025-01-02T00:00:00.000+00:00",
      "primarySource": true
    },
    "request": {
      "method": "PUT",
      "url": "Immunization/77ed33a8-28ed-407e-8107-4ee78794dd28"
    }
  }, {
    "fullUrl": "https://madie.cms.gov/Immunization/24d4ec6c-8c1f-4d47-ba7b-2c9f1090712f",
    "resource": {
      "resourceType": "Immunization",
      "id": "24d4ec6c-8c1f-4d47-ba7b-2c9f1090712f",
      "meta": {
        "profile": [ "http://hl7.org/fhir/us/qicore/StructureDefinition/qicore-immunization" ]
      },
      "status": "completed",
      "vaccineCode": {
        "coding": [ {
          "system": "http://hl7.org/fhir/sid/cvx",
          "code": "215",
          "display": "Pneumococcal conjugate vaccine 15-valent (PCV15), polysaccharide CRM197 conjugate, adjuvant, preservative free"
        } ]
      },
      "patient": {
        "reference": "Patient/65c8f22c-bf45-43d6-abde-3227f0699c9e"
      },
      "occurrenceDateTime": "2025-01-12T00:00:00.000+00:00",
      "recorded": "2025-01-02T00:00:00.000+00:00",
      "primarySource": true
    },
    "request": {
      "method": "PUT",
      "url": "Immunization/24d4ec6c-8c1f-4d47-ba7b-2c9f1090712f"
    }
  }, {
    "fullUrl": "https://madie.cms.gov/Immunization/6751c03b-be6a-46db-832e-e3ceba2f1520",
    "resource": {
      "resourceType": "Immunization",
      "id": "6751c03b-be6a-46db-832e-e3ceba2f1520",
      "meta": {
        "profile": [ "http://hl7.org/fhir/us/qicore/StructureDefinition/qicore-immunization" ]
      },
      "status": "completed",
      "vaccineCode": {
        "coding": [ {
          "system": "http://hl7.org/fhir/sid/cvx",
          "code": "215",
          "display": "Pneumococcal conjugate vaccine 15-valent (PCV15), polysaccharide CRM197 conjugate, adjuvant, preservative free"
        } ]
      },
      "patient": {
        "reference": "Patient/65c8f22c-bf45-43d6-abde-3227f0699c9e"
      },
      "occurrenceDateTime": "2025-01-14T00:00:00.000+00:00",
      "recorded": "2025-01-02T00:00:00.000+00:00",
      "primarySource": true
    },
    "request": {
      "method": "PUT",
      "url": "Immunization/6751c03b-be6a-46db-832e-e3ceba2f1520"
    }
  }, {
    "fullUrl": "https://madie.cms.gov/Immunization/39a250fa-7de4-46b5-8104-38a7ec879232",
    "resource": {
      "resourceType": "Immunization",
      "id": "39a250fa-7de4-46b5-8104-38a7ec879232",
      "meta": {
        "profile": [ "http://hl7.org/fhir/us/qicore/StructureDefinition/qicore-immunization" ]
      },
      "status": "completed",
      "vaccineCode": {
        "coding": [ {
          "system": "http://hl7.org/fhir/sid/cvx",
          "code": "215",
          "display": "Pneumococcal conjugate vaccine 15-valent (PCV15), polysaccharide CRM197 conjugate, adjuvant, preservative free"
        } ]
      },
      "patient": {
        "reference": "Patient/65c8f22c-bf45-43d6-abde-3227f0699c9e"
      },
      "occurrenceDateTime": "2025-01-20T00:00:00.000+00:00",
      "recorded": "2025-01-02T00:00:00.000+00:00",
      "primarySource": true
    },
    "request": {
      "method": "PUT",
      "url": "Immunization/39a250fa-7de4-46b5-8104-38a7ec879232"
    }
  }, {
    "fullUrl": "https://madie.cms.gov/Immunization/35ee5798-d37d-44bd-94d6-ee4723908e78",
    "resource": {
      "resourceType": "Immunization",
      "id": "35ee5798-d37d-44bd-94d6-ee4723908e78",
      "meta": {
        "profile": [ "http://hl7.org/fhir/us/qicore/StructureDefinition/qicore-immunization" ]
      },
      "status": "completed",
      "vaccineCode": {
        "coding": [ {
          "system": "http://hl7.org/fhir/sid/cvx",
          "code": "215",
          "display": "Pneumococcal conjugate vaccine 15-valent (PCV15), polysaccharide CRM197 conjugate, adjuvant, preservative free"
        } ]
      },
      "patient": {
        "reference": "Patient/65c8f22c-bf45-43d6-abde-3227f0699c9e"
      },
      "occurrenceDateTime": "2025-01-22T00:00:00.000+00:00",
      "recorded": "2025-01-02T00:00:00.000+00:00",
      "primarySource": true
    },
    "request": {
      "method": "PUT",
      "url": "Immunization/35ee5798-d37d-44bd-94d6-ee4723908e78"
    }
  }, {
    "fullUrl": "https://madie.cms.gov/Immunization/fdb38c4e-131a-4ccc-980a-6217946120d3",
    "resource": {
      "resourceType": "Immunization",
      "id": "fdb38c4e-131a-4ccc-980a-6217946120d3",
      "meta": {
        "profile": [ "http://hl7.org/fhir/us/qicore/StructureDefinition/qicore-immunization" ]
      },
      "status": "completed",
      "vaccineCode": {
        "coding": [ {
          "system": "http://hl7.org/fhir/sid/cvx",
          "code": "85",
          "display": "hepatitis A vaccine, unspecified formulation"
        } ]
      },
      "patient": {
        "reference": "Patient/65c8f22c-bf45-43d6-abde-3227f0699c9e"
      },
      "occurrenceDateTime": "2025-01-02T00:00:00.000+00:00",
      "recorded": "2025-01-02T00:00:00.000+00:00",
      "primarySource": true
    },
    "request": {
      "method": "PUT",
      "url": "Immunization/fdb38c4e-131a-4ccc-980a-6217946120d3"
    }
  }, {
    "fullUrl": "https://madie.cms.gov/Immunization/ce3de5ec-af29-41b7-b033-ea1c628abe0a",
    "resource": {
      "resourceType": "Immunization",
      "id": "ce3de5ec-af29-41b7-b033-ea1c628abe0a",
      "meta": {
        "profile": [ "http://hl7.org/fhir/us/qicore/StructureDefinition/qicore-immunization" ]
      },
      "status": "completed",
      "vaccineCode": {
        "coding": [ {
          "system": "http://hl7.org/fhir/sid/cvx",
          "code": "119",
          "display": "rotavirus, live, monovalent vaccine"
        } ]
      },
      "patient": {
        "reference": "Patient/65c8f22c-bf45-43d6-abde-3227f0699c9e"
      },
      "occurrenceDateTime": "2025-01-02T00:00:00.000+00:00",
      "recorded": "2025-01-02T00:00:00.000+00:00",
      "primarySource": true
    },
    "request": {
      "method": "PUT",
      "url": "Immunization/ce3de5ec-af29-41b7-b033-ea1c628abe0a"
    }
  }, {
    "fullUrl": "https://madie.cms.gov/Immunization/f272ac89-e578-4878-9c20-55e461f487e7",
    "resource": {
      "resourceType": "Immunization",
      "id": "f272ac89-e578-4878-9c20-55e461f487e7",
      "meta": {
        "profile": [ "http://hl7.org/fhir/us/qicore/StructureDefinition/qicore-immunization" ]
      },
      "status": "completed",
      "vaccineCode": {
        "coding": [ {
          "system": "http://hl7.org/fhir/sid/cvx",
          "code": "119",
          "display": "rotavirus, live, monovalent vaccine"
        } ]
      },
      "patient": {
        "reference": "Patient/65c8f22c-bf45-43d6-abde-3227f0699c9e"
      },
      "occurrenceDateTime": "2025-01-07T00:00:00.000+00:00",
      "recorded": "2025-01-02T00:00:00.000+00:00",
      "primarySource": true
    },
    "request": {
      "method": "PUT",
      "url": "Immunization/f272ac89-e578-4878-9c20-55e461f487e7"
    }
  }, {
    "fullUrl": "https://madie.cms.gov/Immunization/a71dde9e-a962-4f70-a7ed-2085bc1d5cad",
    "resource": {
      "resourceType": "Immunization",
      "id": "a71dde9e-a962-4f70-a7ed-2085bc1d5cad",
      "meta": {
        "profile": [ "http://hl7.org/fhir/us/qicore/StructureDefinition/qicore-immunization" ]
      },
      "status": "completed",
      "vaccineCode": {
        "coding": [ {
          "system": "http://hl7.org/fhir/sid/cvx",
          "code": "153",
          "display": "Influenza, injectable, MDCK, preservative free"
        } ]
      },
      "patient": {
        "reference": "Patient/65c8f22c-bf45-43d6-abde-3227f0699c9e"
      },
      "occurrenceDateTime": "2025-01-02T00:00:00.000+00:00",
      "recorded": "2025-01-02T00:00:00.000+00:00",
      "primarySource": true
    },
    "request": {
      "method": "PUT",
      "url": "Immunization/a71dde9e-a962-4f70-a7ed-2085bc1d5cad"
    }
  }, {
    "fullUrl": "https://madie.cms.gov/Immunization/d1f7aaa0-05af-4119-87e5-8260db2c8255",
    "resource": {
      "resourceType": "Immunization",
      "id": "d1f7aaa0-05af-4119-87e5-8260db2c8255",
      "meta": {
        "profile": [ "http://hl7.org/fhir/us/qicore/StructureDefinition/qicore-immunization" ]
      },
      "status": "completed",
      "vaccineCode": {
        "coding": [ {
          "system": "http://hl7.org/fhir/sid/cvx",
          "code": "153",
          "display": "Influenza, injectable, MDCK, preservative free"
        } ]
      },
      "patient": {
        "reference": "Patient/65c8f22c-bf45-43d6-abde-3227f0699c9e"
      },
      "occurrenceDateTime": "2025-01-10T00:00:00.000+00:00",
      "recorded": "2025-01-02T00:00:00.000+00:00",
      "primarySource": true
    },
    "request": {
      "method": "PUT",
      "url": "Immunization/d1f7aaa0-05af-4119-87e5-8260db2c8255"
    }
  }, {
    "fullUrl": "https://madie.cms.gov/MeasureReport/c8f5f294-92ac-4b6c-a28e-cb4eb2e6a4a6",
    "resource": {
      "resourceType": "MeasureReport",
      "id": "c8f5f294-92ac-4b6c-a28e-cb4eb2e6a4a6",
      "meta": {
        "profile": [ "http://hl7.org/fhir/us/cqfmeasures/StructureDefinition/test-case-cqfm" ]
      },
      "contained": [ {
        "resourceType": "Parameters",
        "id": "a692c7c6-e807-4ee2-ae67-d82d359c20ef-parameters",
        "parameter": [ {
          "name": "subject",
          "valueString": "65c8f22c-bf45-43d6-abde-3227f0699c9e"
        } ]
      } ],
      "extension": [ {
        "url": "http://hl7.org/fhir/StructureDefinition/cqf-inputParameters",
        "valueReference": {
          "reference": "#a692c7c6-e807-4ee2-ae67-d82d359c20ef-parameters"
        }
      }, {
        "url": "http://hl7.org/fhir/us/cqfmeasures/StructureDefinition/cqfm-testCaseDescription",
        "valueMarkdown": "Testing for 2 hep b vaccine using and one newborn. "
      } ],
      "modifierExtension": [ {
        "url": "http://hl7.org/fhir/us/cqfmeasures/StructureDefinition/cqfm-isTestCase",
        "valueBoolean": true
      } ],
      "status": "complete",
      "type": "individual",
      "measure": "https://madie.cms.gov/Measure/CMS117FHIRChildImmunStatus",
      "period": {
        "start": "2026-01-01",
        "end": "2026-12-31"
      },
      "group": [ {
        "id": "Group_1",
        "population": [ {
          "id": "InitialPopulation_1",
          "code": {
            "coding": [ {
              "system": "http://terminology.hl7.org/CodeSystem/measure-population",
              "code": "initial-population",
              "display": "Initial Population"
            } ]
          },
          "count": 1
        }, {
          "id": "Denominator_1",
          "code": {
            "coding": [ {
              "system": "http://terminology.hl7.org/CodeSystem/measure-population",
              "code": "denominator",
              "display": "Denominator"
            } ]
          },
          "count": 1
        }, {
          "id": "DenominatorExclusion_1",
          "code": {
            "coding": [ {
              "system": "http://terminology.hl7.org/CodeSystem/measure-population",
              "code": "denominator-exclusion",
              "display": "Denominator Exclusion"
            } ]
          },
          "count": 0
        }, {
          "id": "Numerator_1",
          "code": {
            "coding": [ {
              "system": "http://terminology.hl7.org/CodeSystem/measure-population",
              "code": "numerator",
              "display": "Numerator"
            } ]
          },
          "count": 1
        } ],
        "measureScore": {
          "value": 1.0
        }
      } ],
      "evaluatedResource": [ {
        "reference": "Patient/65c8f22c-bf45-43d6-abde-3227f0699c9e"
      }, {
        "reference": "Encounter/7775ba4b-13d4-4a8f-8efb-834c56d8438b"
      }, {
        "reference": "Immunization/ed394ee5-ee43-485c-b455-09dac577fd41"
      }, {
        "reference": "Immunization/e866fb22-2470-4700-9146-40b7341de496"
      }, {
        "reference": "Immunization/6ded4cb6-2d7e-405e-afc2-7af212490a53"
      }, {
        "reference": "Immunization/3dcc7112-f454-4ccb-bcb6-f9796a709c56"
      }, {
        "reference": "Immunization/e03e4f15-b508-4cb8-95f1-57df43cb9882"
      }, {
        "reference": "Immunization/a2558880-051b-4c03-a4e5-5f355c3fc871"
      }, {
        "reference": "Immunization/d3eda3e7-4650-43be-8958-cb323ab22e72"
      }, {
        "reference": "Immunization/c3586425-c8d7-4c73-b02e-69bf425caefd"
      }, {
        "reference": "Immunization/01ba419b-758c-4a06-95cc-a69bd7addcc4"
      }, {
        "reference": "Immunization/40952d1a-83ee-4841-94cc-732a4aad32a8"
      }, {
        "reference": "Immunization/524683fa-5626-46ea-87cd-b5e37fc9a424"
      }, {
        "reference": "Procedure/ef9bddd5-9685-487a-8325-e900a954a0e2"
      }, {
        "reference": "Immunization/1c5b4e92-a619-42e9-9e4f-2973ae115150"
      }, {
        "reference": "Immunization/89aec6bd-6495-415c-b565-895a01f950af"
      }, {
        "reference": "Immunization/77ed33a8-28ed-407e-8107-4ee78794dd28"
      }, {
        "reference": "Immunization/24d4ec6c-8c1f-4d47-ba7b-2c9f1090712f"
      }, {
        "reference": "Immunization/6751c03b-be6a-46db-832e-e3ceba2f1520"
      }, {
        "reference": "Immunization/39a250fa-7de4-46b5-8104-38a7ec879232"
      }, {
        "reference": "Immunization/35ee5798-d37d-44bd-94d6-ee4723908e78"
      }, {
        "reference": "Immunization/fdb38c4e-131a-4ccc-980a-6217946120d3"
      }, {
        "reference": "Immunization/ce3de5ec-af29-41b7-b033-ea1c628abe0a"
      }, {
        "reference": "Immunization/f272ac89-e578-4878-9c20-55e461f487e7"
      }, {
        "reference": "Immunization/a71dde9e-a962-4f70-a7ed-2085bc1d5cad"
      }, {
        "reference": "Immunization/d1f7aaa0-05af-4119-87e5-8260db2c8255"
      } ]
    },
    "request": {
      "method": "PUT",
      "url": "MeasureReport/c8f5f294-92ac-4b6c-a28e-cb4eb2e6a4a6"
    }
  } ]
}