{
  "resourceType": "Bundle",
  "id": "633c9d040968f8012250fca5",
  "type": "transaction",
  "entry": [ {
    "fullUrl": "https://madie.cms.gov/Patient/2d694619-fb6d-43e5-8f56-4eb95752c7a7",
    "resource": {
      "resourceType": "Patient",
      "id": "2d694619-fb6d-43e5-8f56-4eb95752c7a7",
      "meta": {
        "profile": [ "http://hl7.org/fhir/us/qicore/StructureDefinition/qicore-patient" ]
      },
      "text": {
        "status": "generated",
        "div": "<div xmlns=\"http://www.w3.org/1999/xhtml\"><div class=\"hapiHeaderText\">CMOdurED_ED=1hrObs=1hrBFEnc <b>DENEXPASS </b></div><table class=\"hapiPropertyTable\"><tbody><tr><td>Identifier</td><td>c7d7fbb05b3fb095f038e7bb032293f972cd9bbdd4b9c869e38f2b84ac1213ac</td></tr><tr><td>Date of birth</td><td><span>18 September 1985</span></td></tr></tbody></table></div>"
      },
      "extension": [ {
        "url": "http://hl7.org/fhir/us/core/StructureDefinition/us-core-race",
        "extension": [ {
          "url": "ombCategory",
          "valueCoding": {
            "system": "urn:oid:2.16.840.1.113883.6.238",
            "code": "1002-5",
            "display": "American Indian or Alaska Native",
            "userSelected": true
          }
        }, {
          "url": "text",
          "valueString": "American Indian or Alaska Native"
        } ]
      }, {
        "url": "http://hl7.org/fhir/us/core/StructureDefinition/us-core-ethnicity",
        "extension": [ {
          "url": "ombCategory",
          "valueCoding": {
            "system": "urn:oid:2.16.840.1.113883.6.238",
            "code": "2135-2",
            "display": "Hispanic or Latino",
            "userSelected": true
          }
        }, {
          "url": "text",
          "valueString": "Hispanic or Latino"
        } ]
      } ],
      "identifier": [ {
        "type": {
          "coding": [ {
            "system": "http://terminology.hl7.org/CodeSystem/v2-0203",
            "code": "MR"
          } ]
        },
        "system": "https://bonnie-fhir.healthit.gov/",
        "value": "633c9d040968f8012250fca5"
      } ],
      "active": true,
      "name": [ {
        "use": "usual",
        "family": "DENEXPass",
        "given": [ "CMOdurEDED1hObs1hrBFEnc" ]
      } ],
      "gender": "female",
      "birthDate": "1986-09-18"
    },
    "request": {
      "method": "PUT",
      "url": "Patient/2d694619-fb6d-43e5-8f56-4eb95752c7a7"
    }
  }, {
    "fullUrl": "https://madie.cms.gov/Condition/822020ac-0c6a-459c-88e3-b268daededc4",
    "resource": {
      "resourceType": "Condition",
      "id": "822020ac-0c6a-459c-88e3-b268daededc4",
      "meta": {
        "profile": [ "http://hl7.org/fhir/us/qicore/StructureDefinition/qicore-condition-problems-health-concerns" ]
      },
      "clinicalStatus": {
        "coding": [ {
          "system": "http://terminology.hl7.org/CodeSystem/condition-clinical",
          "code": "inactive"
        } ]
      },
      "verificationStatus": {
        "coding": [ {
          "system": "http://terminology.hl7.org/CodeSystem/condition-ver-status",
          "code": "confirmed"
        } ]
      },
      "category": [ {
        "coding": [ {
          "system": "http://terminology.hl7.org/CodeSystem/condition-category",
          "code": "encounter-diagnosis",
          "display": "Encounter Diagnosis"
        } ]
      } ],
      "code": {
        "coding": [ {
          "system": "http://hl7.org/fhir/sid/icd-10-cm",
          "code": "I48.20"
        }, {
          "system": "http://hl7.org/fhir/sid/icd-10-cm",
          "code": "I48.0"
        }, {
          "system": "http://snomed.info/sct",
          "code": "5370000"
        } ]
      },
      "subject": {
        "reference": "Patient/2d694619-fb6d-43e5-8f56-4eb95752c7a7"
      },
      "onsetDateTime": "2026-10-01T09:00:00.000+00:00",
      "abatementDateTime": "2026-10-12T00:15:00.000+00:00"
    },
    "request": {
      "method": "PUT",
      "url": "Condition/822020ac-0c6a-459c-88e3-b268daededc4"
    }
  }, {
    "fullUrl": "https://madie.cms.gov/Encounter/49bf2111-cbd4-4e29-abe2-a8a324ed95fd",
    "resource": {
      "resourceType": "Encounter",
      "id": "49bf2111-cbd4-4e29-abe2-a8a324ed95fd",
      "meta": {
        "profile": [ "http://hl7.org/fhir/us/qicore/StructureDefinition/qicore-encounter" ]
      },
      "status": "finished",
      "class": {
        "system": "http://terminology.hl7.org/CodeSystem/v3-ActCode",
        "code": "EMER",
        "display": "emergency"
      },
      "type": [ {
        "coding": [ {
          "system": "http://snomed.info/sct",
          "code": "4525004"
        } ]
      } ],
      "subject": {
        "reference": "Patient/2d694619-fb6d-43e5-8f56-4eb95752c7a7"
      },
      "period": {
        "start": "2026-09-30T07:59:00.000+00:00",
        "end": "2026-09-30T08:00:00.000+00:00"
      },
      "length": {
        "value": 0,
        "unit": "days"
      }
    },
    "request": {
      "method": "PUT",
      "url": "Encounter/49bf2111-cbd4-4e29-abe2-a8a324ed95fd"
    }
  }, {
    "fullUrl": "https://madie.cms.gov/Encounter/4cbdd68e-6137-4fd0-bcb4-cc53d4446d34",
    "resource": {
      "resourceType": "Encounter",
      "id": "4cbdd68e-6137-4fd0-bcb4-cc53d4446d34",
      "meta": {
        "profile": [ "http://hl7.org/fhir/us/qicore/StructureDefinition/qicore-encounter" ]
      },
      "status": "finished",
      "class": {
        "system": "http://terminology.hl7.org/CodeSystem/v3-ActCode",
        "code": "OBSENC",
        "display": "observation encounter"
      },
      "type": [ {
        "coding": [ {
          "system": "http://snomed.info/sct",
          "code": "448951000124107"
        } ]
      } ],
      "subject": {
        "reference": "Patient/2d694619-fb6d-43e5-8f56-4eb95752c7a7"
      },
      "period": {
        "start": "2026-09-30T09:00:00.000+00:00",
        "end": "2026-09-30T09:01:00.000+00:00"
      },
      "length": {
        "value": 0,
        "unit": "days"
      }
    },
    "request": {
      "method": "PUT",
      "url": "Encounter/4cbdd68e-6137-4fd0-bcb4-cc53d4446d34"
    }
  }, {
    "fullUrl": "https://madie.cms.gov/Encounter/8c4cf2ba-936c-4f9f-bea3-f1997ebb5b2e",
    "resource": {
      "resourceType": "Encounter",
      "id": "8c4cf2ba-936c-4f9f-bea3-f1997ebb5b2e",
      "meta": {
        "profile": [ "http://hl7.org/fhir/us/qicore/StructureDefinition/qicore-encounter" ]
      },
      "status": "finished",
      "class": {
        "system": "http://terminology.hl7.org/CodeSystem/v3-ActCode",
        "code": "IMP",
        "display": "inpatient encounter"
      },
      "type": [ {
        "coding": [ {
          "system": "http://snomed.info/sct",
          "code": "32485007"
        } ]
      } ],
      "subject": {
        "reference": "Patient/2d694619-fb6d-43e5-8f56-4eb95752c7a7"
      },
      "period": {
        "start": "2026-09-30T10:01:00.000+00:00",
        "end": "2026-10-12T00:15:00.000+00:00"
      },
      "length": {
        "value": 12,
        "unit": "days"
      },
      "reasonReference": [ {
        "reference": "Condition/822020ac-0c6a-459c-88e3-b268daededc4"
      } ]
    },
    "request": {
      "method": "PUT",
      "url": "Encounter/8c4cf2ba-936c-4f9f-bea3-f1997ebb5b2e"
    }
  }, {
    "fullUrl": "https://madie.cms.gov/claim/5ca62962b8484628b8de1ec5",
    "resource": {
      "resourceType": "Claim",
      "id": "5ca62962b8484628b8de1ec5",
      "meta": {
        "profile": [ "http://hl7.org/fhir/us/qicore/StructureDefinition/qicore-claim" ]
      },
      "status": "active",
      "type": {
        "coding": [ {
          "system": "http://terminology.hl7.org/CodeSystem/claim-type",
          "code": "institutional"
        } ]
      },
      "use": "claim",
      "patient": {
        "reference": "Patient/d170a0a8-b5ad-4303-b6df-e304dd5f92ad"
      },
      "created": "2026-12-01",
      "provider": {
        "reference": "Practitioner/251ae40c-71e8-4867-a24a-b5eeba722d0c"
      },
      "priority": {
        "coding": [ {
          "system": "http://terminology.hl7.org/CodeSystem/processpriority",
          "code": "normal"
        } ]
      },
      "diagnosis": [ {
        "sequence": 1,
        "diagnosisCodeableConcept": {
          "coding": [ {
            "system": "http://hl7.org/fhir/sid/icd-10-cm",
            "code": "I63.00"
          } ]
        },
        "type": [ {
          "coding": [ {
            "system": "http://terminology.hl7.org/CodeSystem/ex-diagnosistype",
            "code": "principal"
          } ]
        } ]
      } ],
      "insurance": [ {
        "sequence": 1,
        "focal": true,
        "coverage": {
          "reference": "Coverage/5fa041661c76ba66d9959367"
        }
      } ],
      "item": [ {
        "sequence": 1,
        "diagnosisSequence": [ 1 ],
        "productOrService": {
          "coding": [ {
            "system": "http://terminology.hl7.org/CodeSystem/ex-USCLS",
            "code": "99555"
          } ]
        },
        "encounter": [ {
          "reference": "Encounter/8c4cf2ba-936c-4f9f-bea3-f1997ebb5b2e"
        } ]
      } ]
    },
    "request": {
      "method": "PUT",
      "url": "Claim/5ca62962b8484628b8de1ec5"
    }
  }, {
    "fullUrl": "https://madie.cms.gov/ServiceRequest/b2aefc1b-4cc9-4b3a-97fb-7c101e9132e8",
    "resource": {
      "resourceType": "ServiceRequest",
      "id": "b2aefc1b-4cc9-4b3a-97fb-7c101e9132e8",
      "meta": {
        "profile": [ "http://hl7.org/fhir/us/qicore/StructureDefinition/qicore-servicerequest" ]
      },
      "status": "active",
      "intent": "order",
      "code": {
        "coding": [ {
          "system": "http://snomed.info/sct",
          "code": "133918004"
        } ]
      },
      "subject": {
        "reference": "Patient/2d694619-fb6d-43e5-8f56-4eb95752c7a7"
      },
      "authoredOn": "2026-09-30T08:00:00.000+00:00"
    },
    "request": {
      "method": "PUT",
      "url": "ServiceRequest/b2aefc1b-4cc9-4b3a-97fb-7c101e9132e8"
    }
  }, {
    "fullUrl": "https://madie.cms.gov/Coverage/a967acd9-5e0b-4876-9c4f-dc14ee02287b",
    "resource": {
      "resourceType": "Coverage",
      "id": "a967acd9-5e0b-4876-9c4f-dc14ee02287b",
      "status": "active",
      "subscriberId": "523435",
      "beneficiary": {
        "reference": "Patient/2d694619-fb6d-43e5-8f56-4eb95752c7a7"
      },
      "relationship": {
        "coding": [ {
          "system": "http://terminology.hl7.org/CodeSystem/subscriber-relationship",
          "code": "self"
        } ]
      },
      "period": {
        "start": "1986-09-18T08:00:00.000+00:00"
      },
      "payor": [ {
        "reference": "Organization/ef7feabb-fb2f-4b54-8485-983ae94af9f7"
      } ]
    },
    "request": {
      "method": "PUT",
      "url": "Coverage/a967acd9-5e0b-4876-9c4f-dc14ee02287b"
    }
  }, {
    "fullUrl": "https://madie.cms.gov/Condition/5bd5b2e1-6f70-4578-b1b8-84ea0fc84bee",
    "resource": {
      "resourceType": "Condition",
      "id": "5bd5b2e1-6f70-4578-b1b8-84ea0fc84bee",
      "meta": {
        "profile": [ "http://hl7.org/fhir/us/qicore/StructureDefinition/qicore-condition-problems-health-concerns" ]
      },
      "clinicalStatus": {
        "coding": [ {
          "system": "http://terminology.hl7.org/CodeSystem/condition-clinical",
          "code": "active"
        } ]
      },
      "verificationStatus": {
        "coding": [ {
          "system": "http://terminology.hl7.org/CodeSystem/condition-ver-status",
          "code": "confirmed"
        } ]
      },
      "category": [ {
        "coding": [ {
          "system": "http://terminology.hl7.org/CodeSystem/condition-category",
          "code": "encounter-diagnosis",
          "display": "Encounter Diagnosis"
        } ]
      } ],
      "code": {
        "coding": [ {
          "system": "http://snomed.info/sct",
          "version": "2021-09",
          "code": "111297002",
          "display": "Nonparalytic stroke (disorder)",
          "userSelected": true
        } ]
      },
      "subject": {
        "reference": "Patient/2d694619-fb6d-43e5-8f56-4eb95752c7a7"
      },
      "recordedDate": "2026-10-13T08:00:00.000+00:00"
    },
    "request": {
      "method": "PUT",
      "url": "Condition/5bd5b2e1-6f70-4578-b1b8-84ea0fc84bee"
    }
  }, {
    "fullUrl": "https://madie.cms.gov/Organization/ef7feabb-fb2f-4b54-8485-983ae94af9f7",
    "resource": {
      "resourceType": "Organization",
      "id": "ef7feabb-fb2f-4b54-8485-983ae94af9f7",
      "meta": {
        "profile": [ "http://hl7.org/fhir/us/qicore/StructureDefinition/qicore-organization" ]
      },
      "identifier": [ {
        "use": "temp",
        "system": "urn:oid:2.16.840.1.113883.4.4",
        "value": "21-3259825"
      } ],
      "active": true,
      "type": [ {
        "coding": [ {
          "system": "http://terminology.hl7.org/CodeSystem/organization-type",
          "code": "pay",
          "display": "Payer"
        } ]
      } ],
      "name": "Blue Cross Blue Shield of Texas",
      "telecom": [ {
        "system": "phone",
        "value": "(+1) 972-766-6900"
      } ],
      "address": [ {
        "use": "billing",
        "type": "postal",
        "line": [ "P.O. Box 660044" ],
        "city": "Dallas",
        "state": "TX",
        "postalCode": "75266-0044",
        "country": "USA"
      } ]
    },
    "request": {
      "method": "PUT",
      "url": "Organization/ef7feabb-fb2f-4b54-8485-983ae94af9f7"
    }
  }, {
    "fullUrl": "https://madie.cms.gov/Practitioner/251ae40c-71e8-4867-a24a-b5eeba722d0c",
    "resource": {
      "resourceType": "Practitioner",
      "id": "251ae40c-71e8-4867-a24a-b5eeba722d0c",
      "meta": {
        "profile": [ "http://hl7.org/fhir/us/qicore/StructureDefinition/qicore-practitioner" ]
      },
      "identifier": [ {
        "system": "http://hl7.org/fhir/sid/us-npi",
        "value": "9999999896"
      } ],
      "name": [ {
        "family": "Evil",
        "prefix": [ "Dr" ]
      } ]
    },
    "request": {
      "method": "PUT",
      "url": "Practitioner/251ae40c-71e8-4867-a24a-b5eeba722d0c"
    }
  }, {
    "fullUrl": "https://madie.cms.gov/MeasureReport/38ebc59f-4bc8-4f64-a62a-dba04e6cb8e7",
    "resource": {
      "resourceType": "MeasureReport",
      "id": "38ebc59f-4bc8-4f64-a62a-dba04e6cb8e7",
      "meta": {
        "profile": [ "http://hl7.org/fhir/us/cqfmeasures/StructureDefinition/test-case-cqfm" ]
      },
      "contained": [ {
        "resourceType": "Parameters",
        "id": "f28318da-de3c-4a4e-ad53-773778b80269-parameters",
        "parameter": [ {
          "name": "subject",
          "valueString": "2d694619-fb6d-43e5-8f56-4eb95752c7a7"
        } ]
      } ],
      "extension": [ {
        "url": "http://hl7.org/fhir/StructureDefinition/cqf-inputParameters",
        "valueReference": {
          "reference": "#f28318da-de3c-4a4e-ad53-773778b80269-parameters"
        }
      }, {
        "url": "http://hl7.org/fhir/us/cqfmeasures/StructureDefinition/cqfm-testCaseDescription",
        "valueMarkdown": "Patient receives CMO during ED. ED ends 60 min before Obs start and Obs ends 60 min before  inpatient start.  Testing HospitalizationWithObservation function\n"
      } ],
      "modifierExtension": [ {
        "url": "http://hl7.org/fhir/us/cqfmeasures/StructureDefinition/cqfm-isTestCase",
        "valueBoolean": true
      } ],
      "status": "complete",
      "type": "individual",
      "measure": "https://madie.cms.gov/Measure/CMS71FHIRSTKAnticoagAFFlutter",
      "period": {
        "start": "2026-01-01",
        "end": "2026-12-31"
      },
      "group": [ {
        "id": "Group_1",
        "population": [ {
          "id": "InitialPopulation_1",
          "code": {
            "coding": [ {
              "system": "http://terminology.hl7.org/CodeSystem/measure-population",
              "code": "initial-population",
              "display": "Initial Population"
            } ]
          },
          "count": 1
        }, {
          "id": "Denominator_1",
          "code": {
            "coding": [ {
              "system": "http://terminology.hl7.org/CodeSystem/measure-population",
              "code": "denominator",
              "display": "Denominator"
            } ]
          },
          "count": 1
        }, {
          "id": "DenominatorExclusion_1",
          "code": {
            "coding": [ {
              "system": "http://terminology.hl7.org/CodeSystem/measure-population",
              "code": "denominator-exclusion",
              "display": "Denominator Exclusion"
            } ]
          },
          "count": 1
        }, {
          "id": "Numerator_1",
          "code": {
            "coding": [ {
              "system": "http://terminology.hl7.org/CodeSystem/measure-population",
              "code": "numerator",
              "display": "Numerator"
            } ]
          },
          "count": 0
        }, {
          "id": "DenominatorException_1",
          "code": {
            "coding": [ {
              "system": "http://terminology.hl7.org/CodeSystem/measure-population",
              "code": "denominator-exception",
              "display": "Denominator Exception"
            } ]
          },
          "count": 0
        } ],
        "measureScore": {
          "value": 0.0
        }
      } ],
      "evaluatedResource": [ {
        "reference": "Patient/2d694619-fb6d-43e5-8f56-4eb95752c7a7"
      }, {
        "reference": "Condition/822020ac-0c6a-459c-88e3-b268daededc4"
      }, {
        "reference": "Encounter/49bf2111-cbd4-4e29-abe2-a8a324ed95fd"
      }, {
        "reference": "Encounter/4cbdd68e-6137-4fd0-bcb4-cc53d4446d34"
      }, {
        "reference": "Encounter/8c4cf2ba-936c-4f9f-bea3-f1997ebb5b2e"
      }, {
        "reference": "Claim/5ca62962b8484628b8de1ec5"
      }, {
        "reference": "ServiceRequest/b2aefc1b-4cc9-4b3a-97fb-7c101e9132e8"
      }, {
        "reference": "Coverage/a967acd9-5e0b-4876-9c4f-dc14ee02287b"
      }, {
        "reference": "Condition/5bd5b2e1-6f70-4578-b1b8-84ea0fc84bee"
      }, {
        "reference": "Organization/ef7feabb-fb2f-4b54-8485-983ae94af9f7"
      }, {
        "reference": "Practitioner/251ae40c-71e8-4867-a24a-b5eeba722d0c"
      } ]
    },
    "request": {
      "method": "PUT",
      "url": "MeasureReport/38ebc59f-4bc8-4f64-a62a-dba04e6cb8e7"
    }
  } ]
}