{
  "resourceType": "Bundle",
  "id": "tests-NUMERFail-LabBeforeMed-bundle",
  "type": "transaction",
  "entry": [ {
    "fullUrl": "https://madie.cms.gov/Encounter/a34265d4-ff24-49f1-8dc7-c1a56e6bab57",
    "resource": {
      "resourceType": "Encounter",
      "id": "a34265d4-ff24-49f1-8dc7-c1a56e6bab57",
      "meta": {
        "profile": [ "http://hl7.org/fhir/us/qicore/StructureDefinition/qicore-encounter" ]
      },
      "status": "finished",
      "class": {
        "system": "http://terminology.hl7.org/CodeSystem/v3-ActCode",
        "code": "IMP",
        "display": "Inpatient encounter"
      },
      "type": [ {
        "coding": [ {
          "system": "http://snomed.info/sct",
          "code": "183452005",
          "display": "Emergency hospital admission"
        } ]
      } ],
      "subject": {
        "reference": "Patient/2283b56f-0a6f-4576-800d-d480be2e5db3"
      },
      "period": {
        "start": "2026-01-11T08:00:00.000Z",
        "end": "2026-01-17T21:00:00.000Z"
      }
    },
    "request": {
      "method": "PUT",
      "url": "Encounter/a34265d4-ff24-49f1-8dc7-c1a56e6bab57"
    }
  }, {
    "fullUrl": "https://madie.cms.gov/MedicationAdministration/71284a03-0ca8-40a1-a5d4-0f47f3842530",
    "resource": {
      "resourceType": "MedicationAdministration",
      "id": "71284a03-0ca8-40a1-a5d4-0f47f3842530",
      "meta": {
        "profile": [ "http://hl7.org/fhir/us/qicore/StructureDefinition/qicore-medicationadministration" ]
      },
      "status": "completed",
      "medicationCodeableConcept": {
        "coding": [ {
          "system": "http://www.nlm.nih.gov/research/umls/rxnorm",
          "code": "1361493",
          "display": "glimepiride 6 MG Oral Tablet"
        } ]
      },
      "subject": {
        "reference": "Patient/2283b56f-0a6f-4576-800d-d480be2e5db3"
      },
      "effectivePeriod": {
        "start": "2026-01-11T09:00:00.000Z",
        "end": "2026-01-11T09:15:00.000Z"
      }
    },
    "request": {
      "method": "PUT",
      "url": "MedicationAdministration/71284a03-0ca8-40a1-a5d4-0f47f3842530"
    }
  }, {
    "fullUrl": "https://madie.cms.gov/Observation/796614cb-53f8-4474-aa5e-9eb7594a363f",
    "resource": {
      "resourceType": "Observation",
      "id": "796614cb-53f8-4474-aa5e-9eb7594a363f",
      "meta": {
        "profile": [ "http://hl7.org/fhir/us/qicore/StructureDefinition/qicore-observation-lab" ]
      },
      "status": "final",
      "category": [ {
        "coding": [ {
          "system": "http://terminology.hl7.org/CodeSystem/observation-category",
          "code": "laboratory",
          "display": "Laboratory"
        } ],
        "text": "Laboratory"
      } ],
      "code": {
        "coding": [ {
          "system": "http://loinc.org",
          "code": "1556-0",
          "display": "Fasting glucose [Mass/volume] in Capillary blood"
        } ]
      },
      "subject": {
        "reference": "Patient/2283b56f-0a6f-4576-800d-d480be2e5db3"
      },
      "effectivePeriod": {
        "start": "2026-01-11T08:00:00.000Z",
        "end": "2026-01-11T08:00:00.000Z"
      },
      "issued": "2026-01-11T08:00:00.000Z",
      "valueQuantity": {
        "value": 35,
        "unit": "mg/dL"
      }
    },
    "request": {
      "method": "PUT",
      "url": "Observation/796614cb-53f8-4474-aa5e-9eb7594a363f"
    }
  }, {
    "fullUrl": "https://madie.cms.gov/Patient/2283b56f-0a6f-4576-800d-d480be2e5db3",
    "resource": {
      "resourceType": "Patient",
      "id": "2283b56f-0a6f-4576-800d-d480be2e5db3",
      "meta": {
        "profile": [ "http://hl7.org/fhir/us/qicore/StructureDefinition/qicore-patient" ]
      },
      "extension": [ {
        "url": "http://hl7.org/fhir/us/core/StructureDefinition/us-core-race",
        "extension": [ {
          "url": "ombCategory",
          "valueCoding": {
            "system": "urn:oid:2.16.840.1.113883.6.238",
            "code": "2106-3",
            "display": "White"
          }
        }, {
          "url": "text",
          "valueString": "White"
        } ]
      }, {
        "url": "http://hl7.org/fhir/us/core/StructureDefinition/us-core-ethnicity",
        "extension": [ {
          "url": "ombCategory",
          "valueCoding": {
            "system": "urn:oid:2.16.840.1.113883.6.238",
            "code": "2135-2",
            "display": "Hispanic or Latino"
          }
        }, {
          "url": "text",
          "valueString": "Hispanic or Latino"
        } ]
      }, {
        "url": "http://hl7.org/fhir/us/core/StructureDefinition/us-core-sex",
        "valueCode": "248152002"
      } ],
      "identifier": [ {
        "system": "http://hospital.smarthealthit.org",
        "value": "999999999"
      } ],
      "name": [ {
        "family": "CMSNUMERFail",
        "given": [ "LabBeforeMed" ]
      } ],
      "gender": "female",
      "birthDate": "2000-07-11"
    },
    "request": {
      "method": "PUT",
      "url": "Patient/2283b56f-0a6f-4576-800d-d480be2e5db3"
    }
  }, {
    "fullUrl": "https://madie.cms.gov/MeasureReport/f006f2c3-844c-42ae-801d-caa7a29a7683",
    "resource": {
      "resourceType": "MeasureReport",
      "id": "f006f2c3-844c-42ae-801d-caa7a29a7683",
      "meta": {
        "profile": [ "http://hl7.org/fhir/us/cqfmeasures/StructureDefinition/test-case-cqfm" ]
      },
      "contained": [ {
        "resourceType": "Parameters",
        "id": "4fec8e36-0b40-4776-80ee-ce3632761b70-parameters",
        "parameter": [ {
          "name": "subject",
          "valueString": "2283b56f-0a6f-4576-800d-d480be2e5db3"
        } ]
      } ],
      "extension": [ {
        "url": "http://hl7.org/fhir/StructureDefinition/cqf-inputParameters",
        "valueReference": {
          "reference": "#4fec8e36-0b40-4776-80ee-ce3632761b70-parameters"
        }
      }, {
        "url": "http://hl7.org/fhir/us/cqfmeasures/StructureDefinition/cqfm-testCaseDescription",
        "valueMarkdown": "IP Encounter with meds administered, but glucose lab <40 was before med. Must be <40 within 24 hours after med to meet numerator. Numerator fails.\n\n(CMS #20)"
      } ],
      "modifierExtension": [ {
        "url": "http://hl7.org/fhir/us/cqfmeasures/StructureDefinition/cqfm-isTestCase",
        "valueBoolean": true
      } ],
      "status": "complete",
      "type": "individual",
      "measure": "https://madie.cms.gov/Measure/NHSNGlycemicControlHypoglycemiaInitialPopulation",
      "period": {
        "start": "2026-01-01",
        "end": "2026-12-31"
      },
      "group": [ {
        "id": "Group_1",
        "population": [ {
          "id": "InitialPopulation_1",
          "code": {
            "coding": [ {
              "system": "http://terminology.hl7.org/CodeSystem/measure-population",
              "code": "initial-population",
              "display": "Initial Population"
            } ]
          },
          "count": 1
        } ],
        "measureScore": {
          "value": 0.0
        }
      } ],
      "evaluatedResource": [ {
        "reference": "Encounter/a34265d4-ff24-49f1-8dc7-c1a56e6bab57"
      }, {
        "reference": "MedicationAdministration/71284a03-0ca8-40a1-a5d4-0f47f3842530"
      }, {
        "reference": "Observation/796614cb-53f8-4474-aa5e-9eb7594a363f"
      }, {
        "reference": "Patient/2283b56f-0a6f-4576-800d-d480be2e5db3"
      } ]
    },
    "request": {
      "method": "PUT",
      "url": "MeasureReport/f006f2c3-844c-42ae-801d-caa7a29a7683"
    }
  } ]
}