{
  "resourceType": "Bundle",
  "id": "633c9d030968f8012250fc7e",
  "type": "transaction",
  "entry": [ {
    "fullUrl": "https://madie.cms.gov/Patient/5704cb0f-a88b-4df3-b3d3-5438d3de4f6d",
    "resource": {
      "resourceType": "Patient",
      "id": "5704cb0f-a88b-4df3-b3d3-5438d3de4f6d",
      "meta": {
        "profile": [ "http://hl7.org/fhir/us/qicore/StructureDefinition/qicore-patient" ]
      },
      "text": {
        "status": "generated",
        "div": "<div xmlns=\"http://www.w3.org/1999/xhtml\"><div class=\"hapiHeaderText\"> CMOdurObs_ED&lt;1hrObs&gt;1hrBFEnc <b>DENEXFAIL </b></div><table class=\"hapiPropertyTable\"><tbody><tr><td>Identifier</td><td>0320cf57e9b83d932334af8e2d508abe</td></tr><tr><td>Date of birth</td><td><span>18 September 1985</span></td></tr></tbody></table></div>"
      },
      "extension": [ {
        "url": "http://hl7.org/fhir/us/core/StructureDefinition/us-core-race",
        "extension": [ {
          "url": "ombCategory",
          "valueCoding": {
            "system": "urn:oid:2.16.840.1.113883.6.238",
            "code": "1002-5",
            "display": "American Indian or Alaska Native",
            "userSelected": true
          }
        }, {
          "url": "text",
          "valueString": "American Indian or Alaska Native"
        } ]
      }, {
        "url": "http://hl7.org/fhir/us/core/StructureDefinition/us-core-ethnicity",
        "extension": [ {
          "url": "ombCategory",
          "valueCoding": {
            "system": "urn:oid:2.16.840.1.113883.6.238",
            "code": "2135-2",
            "display": "Hispanic or Latino",
            "userSelected": true
          }
        }, {
          "url": "text",
          "valueString": "Hispanic or Latino"
        } ]
      } ],
      "identifier": [ {
        "type": {
          "coding": [ {
            "system": "http://terminology.hl7.org/CodeSystem/v2-0203",
            "code": "MR"
          } ]
        },
        "system": "https://bonnie-fhir.healthit.gov/",
        "value": "633c9d030968f8012250fc7e"
      } ],
      "active": true,
      "name": [ {
        "use": "usual",
        "family": "DENEXFail",
        "given": [ "CMOdurObs_ED<1hrObs>1hrBFEnc" ]
      } ],
      "gender": "female",
      "birthDate": "1986-09-18"
    },
    "request": {
      "method": "PUT",
      "url": "Patient/5704cb0f-a88b-4df3-b3d3-5438d3de4f6d"
    }
  }, {
    "fullUrl": "https://madie.cms.gov/Condition/9fb48f57-059b-471f-9a9b-45c70031ec0b",
    "resource": {
      "resourceType": "Condition",
      "id": "9fb48f57-059b-471f-9a9b-45c70031ec0b",
      "meta": {
        "profile": [ "http://hl7.org/fhir/us/qicore/StructureDefinition/qicore-condition-problems-health-concerns" ]
      },
      "clinicalStatus": {
        "coding": [ {
          "system": "http://terminology.hl7.org/CodeSystem/condition-clinical",
          "code": "inactive",
          "display": "InActive"
        } ]
      },
      "verificationStatus": {
        "coding": [ {
          "system": "http://terminology.hl7.org/CodeSystem/condition-ver-status",
          "code": "confirmed",
          "display": "Confirmed"
        } ]
      },
      "category": [ {
        "coding": [ {
          "system": "http://terminology.hl7.org/CodeSystem/condition-category",
          "code": "encounter-diagnosis",
          "display": "Encounter Diagnosis"
        } ]
      } ],
      "code": {
        "coding": [ {
          "system": "http://hl7.org/fhir/sid/icd-10-cm",
          "code": "I48.0"
        }, {
          "system": "http://snomed.info/sct",
          "code": "5370000"
        } ]
      },
      "subject": {
        "reference": "Patient/5704cb0f-a88b-4df3-b3d3-5438d3de4f6d"
      },
      "onsetDateTime": "2026-02-11T08:00:00.000+00:00",
      "abatementDateTime": "2026-02-11T08:15:00.000+00:00"
    },
    "request": {
      "method": "PUT",
      "url": "Condition/9fb48f57-059b-471f-9a9b-45c70031ec0b"
    }
  }, {
    "fullUrl": "https://madie.cms.gov/Condition/e8a56596-e029-45f9-90c3-50f933a28396",
    "resource": {
      "resourceType": "Condition",
      "id": "e8a56596-e029-45f9-90c3-50f933a28396",
      "meta": {
        "profile": [ "http://hl7.org/fhir/us/qicore/StructureDefinition/qicore-condition-problems-health-concerns" ]
      },
      "clinicalStatus": {
        "coding": [ {
          "system": "http://terminology.hl7.org/CodeSystem/condition-clinical",
          "code": "inactive",
          "display": "Inactive"
        } ]
      },
      "verificationStatus": {
        "coding": [ {
          "system": "http://terminology.hl7.org/CodeSystem/condition-ver-status",
          "code": "confirmed",
          "display": "Confirmed"
        } ]
      },
      "category": [ {
        "coding": [ {
          "system": "http://terminology.hl7.org/CodeSystem/condition-category",
          "code": "encounter-diagnosis",
          "display": "Encounter Diagnosis"
        } ]
      } ],
      "code": {
        "coding": [ {
          "system": "http://hl7.org/fhir/sid/icd-10-cm",
          "code": "I48.0"
        }, {
          "system": "http://snomed.info/sct",
          "code": "5370000"
        } ]
      },
      "subject": {
        "reference": "Patient/5704cb0f-a88b-4df3-b3d3-5438d3de4f6d"
      },
      "onsetDateTime": "2026-10-01T09:00:00.000+00:00",
      "abatementDateTime": "2026-10-12T08:15:00.000+00:00"
    },
    "request": {
      "method": "PUT",
      "url": "Condition/e8a56596-e029-45f9-90c3-50f933a28396"
    }
  }, {
    "fullUrl": "https://madie.cms.gov/Encounter/c95e4ddd-2554-4998-a3cb-5b4f6ac25f46",
    "resource": {
      "resourceType": "Encounter",
      "id": "c95e4ddd-2554-4998-a3cb-5b4f6ac25f46",
      "meta": {
        "profile": [ "http://hl7.org/fhir/us/qicore/StructureDefinition/qicore-encounter" ]
      },
      "status": "finished",
      "class": {
        "system": "http://terminology.hl7.org/CodeSystem/v3-ActCode",
        "code": "EMER",
        "display": "emergency"
      },
      "type": [ {
        "coding": [ {
          "system": "http://snomed.info/sct",
          "code": "4525004"
        } ]
      } ],
      "subject": {
        "reference": "Patient/5704cb0f-a88b-4df3-b3d3-5438d3de4f6d"
      },
      "period": {
        "start": "2026-10-01T09:00:00.000+00:00",
        "end": "2026-10-01T09:15:00.000+00:00"
      },
      "length": {
        "value": 0,
        "unit": "days"
      }
    },
    "request": {
      "method": "PUT",
      "url": "Encounter/c95e4ddd-2554-4998-a3cb-5b4f6ac25f46"
    }
  }, {
    "fullUrl": "https://madie.cms.gov/Encounter/795e48a7-4c29-452e-bfa7-de1fe6e9e41f",
    "resource": {
      "resourceType": "Encounter",
      "id": "795e48a7-4c29-452e-bfa7-de1fe6e9e41f",
      "meta": {
        "profile": [ "http://hl7.org/fhir/us/qicore/StructureDefinition/qicore-encounter" ]
      },
      "status": "finished",
      "class": {
        "system": "http://terminology.hl7.org/CodeSystem/v3-ActCode",
        "code": "OBSENC",
        "display": "observation encounter"
      },
      "type": [ {
        "coding": [ {
          "system": "http://snomed.info/sct",
          "code": "448851000124103"
        } ]
      } ],
      "subject": {
        "reference": "Patient/5704cb0f-a88b-4df3-b3d3-5438d3de4f6d"
      },
      "period": {
        "start": "2026-10-01T09:16:00.000+00:00",
        "end": "2026-10-01T09:30:00.000+00:00"
      },
      "length": {
        "value": 0,
        "unit": "days"
      }
    },
    "request": {
      "method": "PUT",
      "url": "Encounter/795e48a7-4c29-452e-bfa7-de1fe6e9e41f"
    }
  }, {
    "fullUrl": "https://madie.cms.gov/Encounter/8e7514e9-4874-4c80-969b-384bd28739f2",
    "resource": {
      "resourceType": "Encounter",
      "id": "8e7514e9-4874-4c80-969b-384bd28739f2",
      "meta": {
        "profile": [ "http://hl7.org/fhir/us/qicore/StructureDefinition/qicore-encounter" ]
      },
      "status": "finished",
      "class": {
        "system": "http://terminology.hl7.org/CodeSystem/v3-ActCode",
        "code": "IMP",
        "display": "inpatient encounter"
      },
      "type": [ {
        "coding": [ {
          "system": "http://snomed.info/sct",
          "code": "32485007"
        } ]
      } ],
      "subject": {
        "reference": "Patient/5704cb0f-a88b-4df3-b3d3-5438d3de4f6d"
      },
      "period": {
        "start": "2026-10-01T10:31:00.000+00:00",
        "end": "2026-10-12T08:15:00.000+00:00"
      },
      "length": {
        "value": 11,
        "unit": "days"
      },
      "reasonReference": [ {
        "reference": "Condition/e8a56596-e029-45f9-90c3-50f933a28396"
      } ]
    },
    "request": {
      "method": "PUT",
      "url": "Encounter/8e7514e9-4874-4c80-969b-384bd28739f2"
    }
  }, {
    "fullUrl": "https://madie.cms.gov/ServiceRequest/7f923ea2-1fb9-459a-8d1e-d523fe4bafb6",
    "resource": {
      "resourceType": "ServiceRequest",
      "id": "7f923ea2-1fb9-459a-8d1e-d523fe4bafb6",
      "meta": {
        "profile": [ "http://hl7.org/fhir/us/qicore/StructureDefinition/qicore-servicerequest" ]
      },
      "status": "active",
      "intent": "order",
      "code": {
        "coding": [ {
          "system": "http://snomed.info/sct",
          "code": "133918004"
        } ]
      },
      "subject": {
        "reference": "Patient/5704cb0f-a88b-4df3-b3d3-5438d3de4f6d"
      },
      "authoredOn": "2026-10-01T09:17:00.000+00:00"
    },
    "request": {
      "method": "PUT",
      "url": "ServiceRequest/7f923ea2-1fb9-459a-8d1e-d523fe4bafb6"
    }
  }, {
    "fullUrl": "https://madie.cms.gov/Coverage/f08166b9-8eda-4940-8a91-1b702973edb0",
    "resource": {
      "resourceType": "Coverage",
      "id": "f08166b9-8eda-4940-8a91-1b702973edb0",
      "meta": {
        "profile": [ "http://hl7.org/fhir/us/qicore/StructureDefinition/qicore-coverage" ]
      },
      "status": "active",
      "subscriberId": "523435",
      "beneficiary": {
        "reference": "Patient/162a5913-9989-42f2-8d6a-ae460e245e4c"
      },
      "relationship": {
        "coding": [ {
          "system": "http://terminology.hl7.org/CodeSystem/subscriber-relationship",
          "code": "self"
        } ]
      },
      "payor": [ {
        "reference": "Organization/c243137f-5448-4778-bf61-051d00371f15"
      } ]
    },
    "request": {
      "method": "PUT",
      "url": "Coverage/f08166b9-8eda-4940-8a91-1b702973edb0"
    }
  }, {
    "fullUrl": "https://madie.cms.gov/Condition/f6fab295-dbc2-4c39-b17f-84dbea3834ba",
    "resource": {
      "resourceType": "Condition",
      "id": "f6fab295-dbc2-4c39-b17f-84dbea3834ba",
      "meta": {
        "profile": [ "http://hl7.org/fhir/us/qicore/StructureDefinition/qicore-condition-problems-health-concerns" ]
      },
      "clinicalStatus": {
        "coding": [ {
          "system": "http://terminology.hl7.org/CodeSystem/condition-clinical",
          "code": "active"
        } ]
      },
      "verificationStatus": {
        "coding": [ {
          "system": "http://terminology.hl7.org/CodeSystem/condition-ver-status",
          "code": "confirmed"
        } ]
      },
      "category": [ {
        "coding": [ {
          "system": "http://terminology.hl7.org/CodeSystem/condition-category",
          "code": "encounter-diagnosis",
          "display": "Encounter Diagnosis"
        } ]
      } ],
      "code": {
        "coding": [ {
          "system": "http://snomed.info/sct",
          "version": "2021-09",
          "code": "111297002",
          "display": "Nonparalytic stroke (disorder)",
          "userSelected": true
        } ]
      },
      "subject": {
        "reference": "Patient/5704cb0f-a88b-4df3-b3d3-5438d3de4f6d"
      },
      "recordedDate": "2026-10-13T08:00:00.000+00:00"
    },
    "request": {
      "method": "PUT",
      "url": "Condition/f6fab295-dbc2-4c39-b17f-84dbea3834ba"
    }
  }, {
    "fullUrl": "https://madie.cms.gov/claim/5ca62962b8484628b8de1ec5",
    "resource": {
      "resourceType": "Claim",
      "id": "5ca62962b8484628b8de1ec5",
      "meta": {
        "profile": [ "http://hl7.org/fhir/us/qicore/StructureDefinition/qicore-claim" ]
      },
      "status": "active",
      "type": {
        "coding": [ {
          "system": "http://terminology.hl7.org/CodeSystem/claim-type",
          "code": "institutional"
        } ]
      },
      "use": "claim",
      "patient": {
        "reference": "Patient/d170a0a8-b5ad-4303-b6df-e304dd5f92ad"
      },
      "created": "2026-12-01",
      "provider": {
        "reference": "Practitioner/practitioner-123456"
      },
      "priority": {
        "coding": [ {
          "system": "http://terminology.hl7.org/CodeSystem/processpriority",
          "code": "normal"
        } ]
      },
      "diagnosis": [ {
        "sequence": 1,
        "diagnosisCodeableConcept": {
          "coding": [ {
            "system": "http://hl7.org/fhir/sid/icd-10-cm",
            "code": "I63.00"
          } ]
        },
        "type": [ {
          "coding": [ {
            "system": "http://terminology.hl7.org/CodeSystem/ex-diagnosistype",
            "code": "principal"
          } ]
        } ]
      } ],
      "insurance": [ {
        "sequence": 1,
        "focal": true,
        "coverage": {
          "reference": "Coverage/5fa041661c76ba66d9959367"
        }
      } ],
      "item": [ {
        "sequence": 1,
        "diagnosisSequence": [ 1 ],
        "productOrService": {
          "coding": [ {
            "system": "http://terminology.hl7.org/CodeSystem/ex-USCLS",
            "code": "99555"
          } ]
        },
        "encounter": [ {
          "reference": "Encounter/8e7514e9-4874-4c80-969b-384bd28739f2"
        } ]
      } ]
    },
    "request": {
      "method": "PUT",
      "url": "Claim/5ca62962b8484628b8de1ec5"
    }
  }, {
    "fullUrl": "https://madie.cms.gov/Organization/c243137f-5448-4778-bf61-051d00371f15",
    "resource": {
      "resourceType": "Organization",
      "id": "c243137f-5448-4778-bf61-051d00371f15",
      "meta": {
        "profile": [ "http://hl7.org/fhir/us/qicore/StructureDefinition/qicore-organization" ]
      },
      "identifier": [ {
        "use": "temp",
        "system": "urn:oid:2.16.840.1.113883.4.4",
        "value": "21-3259825"
      } ],
      "active": true,
      "type": [ {
        "coding": [ {
          "system": "http://terminology.hl7.org/CodeSystem/organization-type",
          "code": "pay",
          "display": "Payer"
        } ]
      } ],
      "name": "Blue Cross Blue Shield of Texas",
      "telecom": [ {
        "system": "phone",
        "value": "(+1) 972-766-6900"
      } ],
      "address": [ {
        "use": "billing",
        "type": "postal",
        "line": [ "P.O. Box 660044" ],
        "city": "Dallas",
        "state": "TX",
        "postalCode": "75266-0044",
        "country": "USA"
      } ]
    },
    "request": {
      "method": "PUT",
      "url": "Organization/c243137f-5448-4778-bf61-051d00371f15"
    }
  }, {
    "fullUrl": "https://madie.cms.gov/MeasureReport/304d99e8-c190-41ac-aa59-1c2bbc097f3f",
    "resource": {
      "resourceType": "MeasureReport",
      "id": "304d99e8-c190-41ac-aa59-1c2bbc097f3f",
      "meta": {
        "profile": [ "http://hl7.org/fhir/us/cqfmeasures/StructureDefinition/test-case-cqfm" ]
      },
      "contained": [ {
        "resourceType": "Parameters",
        "id": "bea427dd-12e3-4a58-af13-72861cd7462f-parameters",
        "parameter": [ {
          "name": "subject",
          "valueString": "5704cb0f-a88b-4df3-b3d3-5438d3de4f6d"
        } ]
      } ],
      "extension": [ {
        "url": "http://hl7.org/fhir/StructureDefinition/cqf-inputParameters",
        "valueReference": {
          "reference": "#bea427dd-12e3-4a58-af13-72861cd7462f-parameters"
        }
      }, {
        "url": "http://hl7.org/fhir/us/cqfmeasures/StructureDefinition/cqfm-testCaseDescription",
        "valueMarkdown": "Patient receives CMO during Observation. ED ends 1 min before Obs start and Obs ends 61 min before inpatient encounter start. Testing HospitalizationWithObservation function.\n"
      } ],
      "modifierExtension": [ {
        "url": "http://hl7.org/fhir/us/cqfmeasures/StructureDefinition/cqfm-isTestCase",
        "valueBoolean": true
      } ],
      "status": "complete",
      "type": "individual",
      "measure": "https://madie.cms.gov/Measure/CMS71FHIRSTKAnticoagAFFlutter",
      "period": {
        "start": "2026-01-01",
        "end": "2026-12-31"
      },
      "group": [ {
        "id": "Group_1",
        "population": [ {
          "id": "InitialPopulation_1",
          "code": {
            "coding": [ {
              "system": "http://terminology.hl7.org/CodeSystem/measure-population",
              "code": "initial-population",
              "display": "Initial Population"
            } ]
          },
          "count": 1
        }, {
          "id": "Denominator_1",
          "code": {
            "coding": [ {
              "system": "http://terminology.hl7.org/CodeSystem/measure-population",
              "code": "denominator",
              "display": "Denominator"
            } ]
          },
          "count": 1
        }, {
          "id": "DenominatorExclusion_1",
          "code": {
            "coding": [ {
              "system": "http://terminology.hl7.org/CodeSystem/measure-population",
              "code": "denominator-exclusion",
              "display": "Denominator Exclusion"
            } ]
          },
          "count": 0
        }, {
          "id": "Numerator_1",
          "code": {
            "coding": [ {
              "system": "http://terminology.hl7.org/CodeSystem/measure-population",
              "code": "numerator",
              "display": "Numerator"
            } ]
          },
          "count": 0
        }, {
          "id": "DenominatorException_1",
          "code": {
            "coding": [ {
              "system": "http://terminology.hl7.org/CodeSystem/measure-population",
              "code": "denominator-exception",
              "display": "Denominator Exception"
            } ]
          },
          "count": 0
        } ],
        "measureScore": {
          "value": 0.0
        }
      } ],
      "evaluatedResource": [ {
        "reference": "Patient/5704cb0f-a88b-4df3-b3d3-5438d3de4f6d"
      }, {
        "reference": "Condition/9fb48f57-059b-471f-9a9b-45c70031ec0b"
      }, {
        "reference": "Condition/e8a56596-e029-45f9-90c3-50f933a28396"
      }, {
        "reference": "Encounter/c95e4ddd-2554-4998-a3cb-5b4f6ac25f46"
      }, {
        "reference": "Encounter/795e48a7-4c29-452e-bfa7-de1fe6e9e41f"
      }, {
        "reference": "Encounter/8e7514e9-4874-4c80-969b-384bd28739f2"
      }, {
        "reference": "ServiceRequest/7f923ea2-1fb9-459a-8d1e-d523fe4bafb6"
      }, {
        "reference": "Coverage/f08166b9-8eda-4940-8a91-1b702973edb0"
      }, {
        "reference": "Condition/f6fab295-dbc2-4c39-b17f-84dbea3834ba"
      }, {
        "reference": "Claim/5ca62962b8484628b8de1ec5"
      }, {
        "reference": "Organization/c243137f-5448-4778-bf61-051d00371f15"
      } ]
    },
    "request": {
      "method": "PUT",
      "url": "MeasureReport/304d99e8-c190-41ac-aa59-1c2bbc097f3f"
    }
  } ]
}