{
  "resourceType": "Bundle",
  "id": "612e6aaf02c62a011f2eaee7",
  "type": "transaction",
  "entry": [ {
    "fullUrl": "https://madie.cms.gov/Patient/7e7f4563-a628-40ab-990b-ca0837313759",
    "resource": {
      "resourceType": "Patient",
      "id": "7e7f4563-a628-40ab-990b-ca0837313759",
      "meta": {
        "profile": [ "http://hl7.org/fhir/us/qicore/StructureDefinition/qicore-patient" ]
      },
      "text": {
        "status": "generated",
        "div": "<div xmlns=\"http://www.w3.org/1999/xhtml\"><div class=\"hapiHeaderText\">PtRefMALMWHOBS <b>NUMERPASS </b></div><table class=\"hapiPropertyTable\"><tbody><tr><td>Identifier</td><td>3dc4a512478cd906257a70aca14edeef</td></tr><tr><td>Date of birth</td><td><span>02 January 1974</span></td></tr></tbody></table></div>"
      },
      "extension": [ {
        "url": "http://hl7.org/fhir/us/core/StructureDefinition/us-core-race",
        "extension": [ {
          "url": "ombCategory",
          "valueCoding": {
            "system": "urn:oid:2.16.840.1.113883.6.238",
            "code": "1002-5",
            "display": "American Indian or Alaska Native",
            "userSelected": true
          }
        }, {
          "url": "text",
          "valueString": "American Indian or Alaska Native"
        } ]
      }, {
        "url": "http://hl7.org/fhir/us/core/StructureDefinition/us-core-ethnicity",
        "extension": [ {
          "url": "ombCategory",
          "valueCoding": {
            "system": "urn:oid:2.16.840.1.113883.6.238",
            "code": "2135-2",
            "display": "Hispanic or Latino",
            "userSelected": true
          }
        }, {
          "url": "text",
          "valueString": "Hispanic or Latino"
        } ]
      } ],
      "identifier": [ {
        "type": {
          "coding": [ {
            "system": "http://terminology.hl7.org/CodeSystem/v2-0203",
            "code": "MR"
          } ]
        },
        "system": "https://bonnie-fhir.healthit.gov/",
        "value": "612e6aaf02c62a011f2eaee7"
      } ],
      "active": true,
      "name": [ {
        "use": "usual",
        "family": "NUMERPass",
        "given": [ "PtRefMALMWHOBS" ]
      } ],
      "gender": "male",
      "birthDate": "1975-01-02"
    },
    "request": {
      "method": "PUT",
      "url": "Patient/7e7f4563-a628-40ab-990b-ca0837313759"
    }
  }, {
    "fullUrl": "https://madie.cms.gov/Encounter/c9e68522-f8c0-4b10-8980-d3498b675622",
    "resource": {
      "resourceType": "Encounter",
      "id": "c9e68522-f8c0-4b10-8980-d3498b675622",
      "meta": {
        "profile": [ "http://hl7.org/fhir/us/qicore/StructureDefinition/qicore-encounter" ]
      },
      "status": "finished",
      "class": {
        "system": "http://terminology.hl7.org/CodeSystem/v3-ActCode",
        "code": "OBSENC",
        "display": "observation encounter"
      },
      "type": [ {
        "coding": [ {
          "system": "http://snomed.info/sct",
          "code": "448951000124107"
        } ]
      } ],
      "subject": {
        "reference": "Patient/7e7f4563-a628-40ab-990b-ca0837313759"
      },
      "period": {
        "start": "2026-10-31T05:00:00.000+00:00",
        "end": "2026-11-01T07:15:00.000+00:00"
      },
      "length": {
        "value": 1,
        "unit": "days"
      }
    },
    "request": {
      "method": "PUT",
      "url": "Encounter/c9e68522-f8c0-4b10-8980-d3498b675622"
    }
  }, {
    "fullUrl": "https://madie.cms.gov/Encounter/5a055e2a-b034-461a-9e11-e38960084567",
    "resource": {
      "resourceType": "Encounter",
      "id": "5a055e2a-b034-461a-9e11-e38960084567",
      "meta": {
        "profile": [ "http://hl7.org/fhir/us/qicore/StructureDefinition/qicore-encounter" ]
      },
      "status": "finished",
      "class": {
        "system": "http://terminology.hl7.org/CodeSystem/v3-ActCode",
        "code": "IMP",
        "display": "inpatient encounter"
      },
      "type": [ {
        "coding": [ {
          "system": "http://snomed.info/sct",
          "code": "8715000"
        } ]
      } ],
      "subject": {
        "reference": "Patient/7e7f4563-a628-40ab-990b-ca0837313759"
      },
      "period": {
        "start": "2026-11-01T08:00:00.000+00:00",
        "end": "2026-11-26T08:15:00.000+00:00"
      },
      "length": {
        "value": 25,
        "unit": "days"
      },
      "location": [ {
        "location": {
          "reference": "Location/967d28d8-5e61-4751-8f64-ce89cb623271"
        },
        "period": {
          "start": "2026-11-04T09:00:00.000+00:00",
          "end": "2026-11-06T08:15:00.000+00:00"
        }
      } ]
    },
    "request": {
      "method": "PUT",
      "url": "Encounter/5a055e2a-b034-461a-9e11-e38960084567"
    }
  }, {
    "fullUrl": "https://madie.cms.gov/Coverage/e5bf1b6c-0060-43c7-984b-a37656da734a",
    "resource": {
      "resourceType": "Coverage",
      "id": "e5bf1b6c-0060-43c7-984b-a37656da734a",
      "status": "active",
      "beneficiary": {
        "reference": "Patient/7e7f4563-a628-40ab-990b-ca0837313759"
      },
      "period": {
        "start": "1975-01-02T08:00:00.000+00:00"
      },
      "payor": [ {
        "reference": "Organization/e7aef120-0466-47e4-bb83-0051a0012b21"
      } ]
    },
    "request": {
      "method": "PUT",
      "url": "Coverage/e5bf1b6c-0060-43c7-984b-a37656da734a"
    }
  }, {
    "fullUrl": "https://madie.cms.gov/MedicationAdministration/7c6d5cce-87b7-480b-822d-8d09ba2cd18d",
    "resource": {
      "resourceType": "MedicationAdministration",
      "id": "7c6d5cce-87b7-480b-822d-8d09ba2cd18d",
      "meta": {
        "profile": [ "http://hl7.org/fhir/us/qicore/StructureDefinition/qicore-medicationadministrationnotdone" ]
      },
      "extension": [ {
        "url": "http://hl7.org/fhir/us/qicore/StructureDefinition/qicore-recorded",
        "valueDateTime": "2026-11-02T11:00:00.000+00:00"
      } ],
      "status": "not-done",
      "statusReason": [ {
        "coding": [ {
          "system": "http://snomed.info/sct",
          "code": "443390004",
          "display": "Refusal of treatment by patient (situation)"
        } ]
      } ],
      "medicationCodeableConcept": {
        "coding": [ {
          "system": "http://www.nlm.nih.gov/research/umls/rxnorm",
          "code": "854228"
        } ]
      },
      "subject": {
        "reference": "Patient/7e7f4563-a628-40ab-990b-ca0837313759"
      },
      "effectivePeriod": {
        "start": "2026-11-01T06:00:00.000+00:00"
      }
    },
    "request": {
      "method": "PUT",
      "url": "MedicationAdministration/7c6d5cce-87b7-480b-822d-8d09ba2cd18d"
    }
  }, {
    "fullUrl": "https://madie.cms.gov/Location/967d28d8-5e61-4751-8f64-ce89cb623271",
    "resource": {
      "resourceType": "Location",
      "id": "967d28d8-5e61-4751-8f64-ce89cb623271",
      "meta": {
        "profile": [ "http://hl7.org/fhir/us/qicore/StructureDefinition/qicore-location" ]
      },
      "identifier": [ {
        "use": "usual",
        "system": "http://exampleoflocation.com",
        "value": "B1-S.F2"
      } ],
      "name": "Medical Surgical East, first floor",
      "type": [ {
        "coding": [ {
          "system": "https://www.cdc.gov/nhsn/cdaportal/terminology/codesystem/hsloc.html",
          "code": "1025-6",
          "display": "Trauma Critical Care",
          "userSelected": true
        } ]
      } ]
    },
    "request": {
      "method": "PUT",
      "url": "Location/967d28d8-5e61-4751-8f64-ce89cb623271"
    }
  }, {
    "fullUrl": "https://madie.cms.gov/Organization/e7aef120-0466-47e4-bb83-0051a0012b21",
    "resource": {
      "resourceType": "Organization",
      "id": "e7aef120-0466-47e4-bb83-0051a0012b21",
      "meta": {
        "profile": [ "http://hl7.org/fhir/us/qicore/StructureDefinition/qicore-organization" ]
      },
      "identifier": [ {
        "use": "temp",
        "system": "urn:oid:2.16.840.1.113883.4.4",
        "value": "21-3259825"
      } ],
      "active": true,
      "type": [ {
        "coding": [ {
          "system": "http://terminology.hl7.org/CodeSystem/organization-type",
          "code": "pay",
          "display": "Payer"
        } ]
      } ],
      "name": "Blue Cross Blue Shield of Texas",
      "telecom": [ {
        "system": "phone",
        "value": "(+1) 972-766-6900"
      } ],
      "address": [ {
        "use": "billing",
        "type": "postal",
        "line": [ "P.O. Box 660044" ],
        "city": "Dallas",
        "state": "TX",
        "postalCode": "75266-0044",
        "country": "USA"
      } ]
    },
    "request": {
      "method": "PUT",
      "url": "Organization/e7aef120-0466-47e4-bb83-0051a0012b21"
    }
  }, {
    "fullUrl": "https://madie.cms.gov/Practitioner/d8d130f5-f57e-4346-a9e9-b35ad6b4a24e",
    "resource": {
      "resourceType": "Practitioner",
      "id": "d8d130f5-f57e-4346-a9e9-b35ad6b4a24e",
      "identifier": [ {
        "system": "http://hl7.org/fhir/sid/us-npi",
        "value": "123456"
      } ],
      "name": [ {
        "family": "Evil",
        "prefix": [ "Dr" ]
      } ]
    },
    "request": {
      "method": "PUT",
      "url": "Practitioner/d8d130f5-f57e-4346-a9e9-b35ad6b4a24e"
    }
  }, {
    "fullUrl": "https://madie.cms.gov/MeasureReport/6b131b52-199b-46ac-b099-fad21dbda4ad",
    "resource": {
      "resourceType": "MeasureReport",
      "id": "6b131b52-199b-46ac-b099-fad21dbda4ad",
      "meta": {
        "profile": [ "http://hl7.org/fhir/us/cqfmeasures/StructureDefinition/test-case-cqfm" ]
      },
      "contained": [ {
        "resourceType": "Parameters",
        "id": "09de6ad8-8f6c-4c6d-8b6f-b77112c8f92e-parameters",
        "parameter": [ {
          "name": "subject",
          "valueString": "7e7f4563-a628-40ab-990b-ca0837313759"
        } ]
      } ],
      "extension": [ {
        "url": "http://hl7.org/fhir/StructureDefinition/cqf-inputParameters",
        "valueReference": {
          "reference": "#09de6ad8-8f6c-4c6d-8b6f-b77112c8f92e-parameters"
        }
      }, {
        "url": "http://hl7.org/fhir/us/cqfmeasures/StructureDefinition/cqfm-testCaseDescription",
        "valueMarkdown": "Patient refuses LMWH adm in Observation Service\n"
      } ],
      "modifierExtension": [ {
        "url": "http://hl7.org/fhir/us/cqfmeasures/StructureDefinition/cqfm-isTestCase",
        "valueBoolean": true
      } ],
      "status": "complete",
      "type": "individual",
      "measure": "https://madie.cms.gov/Measure/CMS190FHIRVTEProphylaxisICU",
      "period": {
        "start": "2026-01-01",
        "end": "2026-12-31"
      },
      "group": [ {
        "id": "Group_1",
        "population": [ {
          "id": "InitialPopulation_1",
          "code": {
            "coding": [ {
              "system": "http://terminology.hl7.org/CodeSystem/measure-population",
              "code": "initial-population",
              "display": "Initial Population"
            } ]
          },
          "count": 1
        }, {
          "id": "Denominator_1",
          "code": {
            "coding": [ {
              "system": "http://terminology.hl7.org/CodeSystem/measure-population",
              "code": "denominator",
              "display": "Denominator"
            } ]
          },
          "count": 1
        }, {
          "id": "DenominatorExclusion_1",
          "code": {
            "coding": [ {
              "system": "http://terminology.hl7.org/CodeSystem/measure-population",
              "code": "denominator-exclusion",
              "display": "Denominator Exclusion"
            } ]
          },
          "count": 0
        }, {
          "id": "Numerator_1",
          "code": {
            "coding": [ {
              "system": "http://terminology.hl7.org/CodeSystem/measure-population",
              "code": "numerator",
              "display": "Numerator"
            } ]
          },
          "count": 1
        }, {
          "id": "DenominatorException_1",
          "code": {
            "coding": [ {
              "system": "http://terminology.hl7.org/CodeSystem/measure-population",
              "code": "denominator-exception",
              "display": "Denominator Exception"
            } ]
          },
          "count": 0
        } ],
        "measureScore": {
          "value": 0.0
        }
      } ],
      "evaluatedResource": [ {
        "reference": "Patient/7e7f4563-a628-40ab-990b-ca0837313759"
      }, {
        "reference": "Encounter/c9e68522-f8c0-4b10-8980-d3498b675622"
      }, {
        "reference": "Encounter/5a055e2a-b034-461a-9e11-e38960084567"
      }, {
        "reference": "Coverage/e5bf1b6c-0060-43c7-984b-a37656da734a"
      }, {
        "reference": "MedicationAdministration/7c6d5cce-87b7-480b-822d-8d09ba2cd18d"
      }, {
        "reference": "Location/967d28d8-5e61-4751-8f64-ce89cb623271"
      }, {
        "reference": "Organization/e7aef120-0466-47e4-bb83-0051a0012b21"
      }, {
        "reference": "Practitioner/d8d130f5-f57e-4346-a9e9-b35ad6b4a24e"
      } ]
    },
    "request": {
      "method": "PUT",
      "url": "MeasureReport/6b131b52-199b-46ac-b099-fad21dbda4ad"
    }
  } ]
}