{
  "resourceType": "Bundle",
  "id": "63487c2e0968f80122540170",
  "type": "transaction",
  "entry": [ {
    "fullUrl": "https://madie.cms.gov/Patient/301cbb39-bf89-40f4-9539-4e1b9eb5e5be",
    "resource": {
      "resourceType": "Patient",
      "id": "301cbb39-bf89-40f4-9539-4e1b9eb5e5be",
      "meta": {
        "profile": [ "http://hl7.org/fhir/us/qicore/StructureDefinition/qicore-patient" ]
      },
      "text": {
        "status": "generated",
        "div": "<div xmlns=\"http://www.w3.org/1999/xhtml\"><div class=\"hapiHeaderText\">AssessTimeOfDelivRelvDateTimeB4DelivEnc<b>DENOMFail</b></div><table class=\"hapiPropertyTable\"><tbody><tr><td>Identifier</td><td>47c319cd31456047c4f1e1acf1a65c9a687762be9778e0d4061ef15c003314c8</td></tr><tr><td>Date of birth</td><td><span>14 February 1985</span></td></tr></tbody></table></div>"
      },
      "extension": [ {
        "url": "http://hl7.org/fhir/us/core/StructureDefinition/us-core-race",
        "extension": [ {
          "url": "ombCategory",
          "valueCoding": {
            "system": "urn:oid:2.16.840.1.113883.6.238",
            "code": "1002-5",
            "display": "American Indian or Alaska Native",
            "userSelected": true
          }
        }, {
          "url": "text",
          "valueString": "American Indian or Alaska Native"
        } ]
      }, {
        "url": "http://hl7.org/fhir/us/core/StructureDefinition/us-core-ethnicity",
        "extension": [ {
          "url": "ombCategory",
          "valueCoding": {
            "system": "urn:oid:2.16.840.1.113883.6.238",
            "code": "2135-2",
            "display": "Hispanic or Latino",
            "userSelected": true
          }
        }, {
          "url": "text",
          "valueString": "Hispanic or Latino"
        } ]
      } ],
      "identifier": [ {
        "type": {
          "coding": [ {
            "system": "http://terminology.hl7.org/CodeSystem/v2-0203",
            "code": "MR"
          } ]
        },
        "system": "https://bonnie-fhir.healthit.gov/",
        "value": "63487c2e0968f80122540170"
      } ],
      "active": true,
      "name": [ {
        "use": "usual",
        "family": "DENOMFail",
        "given": [ "AssessTimeOfDelivRelvDateTimeB4DelivEnc" ]
      } ],
      "gender": "female",
      "birthDate": "1998-02-14"
    },
    "request": {
      "method": "PUT",
      "url": "Patient/301cbb39-bf89-40f4-9539-4e1b9eb5e5be"
    }
  }, {
    "fullUrl": "https://madie.cms.gov/Observation/97d0455c-103f-4e59-a20b-91fdcf0ec8f7",
    "resource": {
      "resourceType": "Observation",
      "id": "97d0455c-103f-4e59-a20b-91fdcf0ec8f7",
      "meta": {
        "profile": [ "http://hl7.org/fhir/us/qicore/StructureDefinition/qicore-simple-observation" ]
      },
      "status": "final",
      "category": [ {
        "coding": [ {
          "system": "http://terminology.hl7.org/CodeSystem/observation-category",
          "code": "exam",
          "display": "exam",
          "userSelected": true
        } ]
      } ],
      "code": {
        "coding": [ {
          "system": "http://loinc.org",
          "code": "11996-6"
        } ]
      },
      "subject": {
        "reference": "Patient/301cbb39-bf89-40f4-9539-4e1b9eb5e5be"
      },
      "effectiveDateTime": "2026-06-08T08:00:00.000+00:00",
      "performer": [ {
        "reference": "Organization/example1",
        "display": "Hendricks Country Hospital"
      } ],
      "valueInteger": 1
    },
    "request": {
      "method": "PUT",
      "url": "Observation/97d0455c-103f-4e59-a20b-91fdcf0ec8f7"
    }
  }, {
    "fullUrl": "https://madie.cms.gov/Observation/a7f98b93-c3fd-46a6-abfd-53d64036d316",
    "resource": {
      "resourceType": "Observation",
      "id": "a7f98b93-c3fd-46a6-abfd-53d64036d316",
      "meta": {
        "profile": [ "http://hl7.org/fhir/us/qicore/StructureDefinition/qicore-simple-observation" ]
      },
      "status": "final",
      "category": [ {
        "coding": [ {
          "system": "http://terminology.hl7.org/CodeSystem/observation-category",
          "code": "exam",
          "display": "exam",
          "userSelected": true
        } ]
      } ],
      "code": {
        "coding": [ {
          "system": "http://loinc.org",
          "code": "11884-4"
        } ]
      },
      "subject": {
        "reference": "Patient/301cbb39-bf89-40f4-9539-4e1b9eb5e5be"
      },
      "effectiveDateTime": "2026-06-08T09:15:00.000+00:00",
      "performer": [ {
        "reference": "Organization/example1",
        "display": "Hendricks Country Hospital"
      } ],
      "valueQuantity": {
        "value": 38,
        "system": "http://unitsofmeasure.org",
        "code": "wk"
      }
    },
    "request": {
      "method": "PUT",
      "url": "Observation/a7f98b93-c3fd-46a6-abfd-53d64036d316"
    }
  }, {
    "fullUrl": "https://madie.cms.gov/Observation/6b8d629a-ea4c-46dc-a13f-c4cf0dcabc8b",
    "resource": {
      "resourceType": "Observation",
      "id": "6b8d629a-ea4c-46dc-a13f-c4cf0dcabc8b",
      "meta": {
        "profile": [ "http://hl7.org/fhir/us/qicore/StructureDefinition/qicore-simple-observation" ]
      },
      "status": "final",
      "category": [ {
        "coding": [ {
          "system": "http://terminology.hl7.org/CodeSystem/observation-category",
          "code": "exam",
          "display": "exam",
          "userSelected": true
        } ]
      } ],
      "code": {
        "coding": [ {
          "system": "http://loinc.org",
          "code": "93857-1"
        } ]
      },
      "subject": {
        "reference": "Patient/301cbb39-bf89-40f4-9539-4e1b9eb5e5be"
      },
      "effectiveDateTime": "2026-06-05T09:15:00.000+00:00",
      "performer": [ {
        "reference": "Organization/example1",
        "display": "Hendricks Country Hospital"
      } ],
      "valueDateTime": "2026-06-05T09:15:00.000+00:00"
    },
    "request": {
      "method": "PUT",
      "url": "Observation/6b8d629a-ea4c-46dc-a13f-c4cf0dcabc8b"
    }
  }, {
    "fullUrl": "https://madie.cms.gov/Encounter/5d7859b7-014d-4aac-a297-52def4346de8",
    "resource": {
      "resourceType": "Encounter",
      "id": "5d7859b7-014d-4aac-a297-52def4346de8",
      "meta": {
        "profile": [ "http://hl7.org/fhir/us/qicore/StructureDefinition/qicore-encounter" ]
      },
      "status": "finished",
      "class": {
        "system": "http://terminology.hl7.org/CodeSystem/v3-ActCode",
        "code": "IMP",
        "display": "inpatient encounter"
      },
      "type": [ {
        "coding": [ {
          "system": "http://snomed.info/sct",
          "code": "183452005"
        } ]
      } ],
      "subject": {
        "reference": "Patient/301cbb39-bf89-40f4-9539-4e1b9eb5e5be"
      },
      "period": {
        "start": "2026-06-08T08:00:00.000+00:00",
        "end": "2026-06-10T08:15:00.000+00:00"
      },
      "length": {
        "value": 2,
        "unit": "days"
      },
      "reasonCode": [ {
        "coding": [ {
          "system": "http://snomed.info/sct",
          "code": "169826009",
          "display": "Single live birth from singleton pregnancy (finding)"
        } ]
      } ]
    },
    "request": {
      "method": "PUT",
      "url": "Encounter/5d7859b7-014d-4aac-a297-52def4346de8"
    }
  }, {
    "fullUrl": "https://madie.cms.gov/Procedure/a740e7a9-4d90-4f09-84c9-f95868a1e95a",
    "resource": {
      "resourceType": "Procedure",
      "id": "a740e7a9-4d90-4f09-84c9-f95868a1e95a",
      "meta": {
        "profile": [ "http://hl7.org/fhir/us/qicore/StructureDefinition/qicore-procedure" ]
      },
      "extension": [ {
        "url": "http://hl7.org/fhir/us/qicore/StructureDefinition/qicore-recorded",
        "valueDateTime": "2014-04-05T13:35:00.000+00:00"
      } ],
      "status": "completed",
      "code": {
        "coding": [ {
          "system": "http://www.cms.gov/Medicare/Coding/ICD10",
          "code": "10D00Z0"
        } ]
      },
      "subject": {
        "reference": "Patient/301cbb39-bf89-40f4-9539-4e1b9eb5e5be"
      },
      "performedPeriod": {
        "start": "2026-06-08T08:00:00.000+00:00",
        "end": "2026-06-08T09:15:00.000+00:00"
      }
    },
    "request": {
      "method": "PUT",
      "url": "Procedure/a740e7a9-4d90-4f09-84c9-f95868a1e95a"
    }
  }, {
    "fullUrl": "https://madie.cms.gov/Condition/37955743-73aa-4a07-8ef1-f0b34f36f388",
    "resource": {
      "resourceType": "Condition",
      "id": "37955743-73aa-4a07-8ef1-f0b34f36f388",
      "meta": {
        "profile": [ "http://hl7.org/fhir/us/qicore/StructureDefinition/qicore-condition" ]
      },
      "category": [ {
        "coding": [ {
          "system": "http://terminology.hl7.org/CodeSystem/condition-category",
          "code": "encounter-diagnosis",
          "display": "Encounter Diagnosis"
        } ]
      } ],
      "code": {
        "coding": [ {
          "system": "http://snomed.info/sct",
          "version": "2022-09",
          "code": "169826009",
          "display": "Single live birth (finding)",
          "userSelected": true
        } ]
      },
      "subject": {
        "reference": "Patient/301cbb39-bf89-40f4-9539-4e1b9eb5e5be"
      },
      "recordedDate": "2026-10-21T08:00:00.000+00:00"
    },
    "request": {
      "method": "PUT",
      "url": "Condition/37955743-73aa-4a07-8ef1-f0b34f36f388"
    }
  }, {
    "fullUrl": "https://madie.cms.gov/Coverage/d8a09f25-fb04-4002-b615-938691e116ed",
    "resource": {
      "resourceType": "Coverage",
      "id": "d8a09f25-fb04-4002-b615-938691e116ed",
      "meta": {
        "profile": [ "http://hl7.org/fhir/us/qicore/StructureDefinition/qicore-coverage" ]
      },
      "status": "active",
      "subscriberId": "523435",
      "beneficiary": {
        "reference": "Patient/301cbb39-bf89-40f4-9539-4e1b9eb5e5be"
      },
      "relationship": {
        "coding": [ {
          "system": "http://terminology.hl7.org/CodeSystem/subscriber-relationship",
          "code": "self"
        } ]
      },
      "payor": [ {
        "reference": "Organization/ce154f46-6cbf-46fa-887d-36288c5d162a"
      } ]
    },
    "request": {
      "method": "PUT",
      "url": "Coverage/d8a09f25-fb04-4002-b615-938691e116ed"
    }
  }, {
    "fullUrl": "https://madie.cms.gov/Organization/ce154f46-6cbf-46fa-887d-36288c5d162a",
    "resource": {
      "resourceType": "Organization",
      "id": "ce154f46-6cbf-46fa-887d-36288c5d162a",
      "meta": {
        "profile": [ "http://hl7.org/fhir/us/qicore/StructureDefinition/qicore-organization" ]
      },
      "identifier": [ {
        "use": "temp",
        "system": "urn:oid:2.16.840.1.113883.4.4",
        "value": "21-3259825"
      } ],
      "active": true,
      "type": [ {
        "coding": [ {
          "system": "http://terminology.hl7.org/CodeSystem/organization-type",
          "code": "pay",
          "display": "Payer"
        } ]
      } ],
      "name": "Blue Cross Blue Shield of Texas",
      "telecom": [ {
        "system": "phone",
        "value": "(+1) 972-766-6900"
      } ],
      "address": [ {
        "use": "billing",
        "type": "postal",
        "line": [ "P.O. Box 660044" ],
        "city": "Dallas",
        "state": "TX",
        "postalCode": "75266-0044",
        "country": "USA"
      } ]
    },
    "request": {
      "method": "PUT",
      "url": "Organization/ce154f46-6cbf-46fa-887d-36288c5d162a"
    }
  }, {
    "fullUrl": "https://madie.cms.gov/Practitioner/929cc52c-c0f2-4383-bb67-282c1a14e2d9",
    "resource": {
      "resourceType": "Practitioner",
      "id": "929cc52c-c0f2-4383-bb67-282c1a14e2d9",
      "meta": {
        "profile": [ "http://hl7.org/fhir/us/qicore/StructureDefinition/qicore-practitioner" ]
      },
      "identifier": [ {
        "system": "http://hl7.org/fhir/sid/us-npi",
        "value": "1234567890"
      } ],
      "name": [ {
        "family": "Evil",
        "prefix": [ "Dr" ]
      } ]
    },
    "request": {
      "method": "PUT",
      "url": "Practitioner/929cc52c-c0f2-4383-bb67-282c1a14e2d9"
    }
  }, {
    "fullUrl": "https://madie.cms.gov/MeasureReport/1f352af1-1144-4d24-bbac-71eb497471b0",
    "resource": {
      "resourceType": "MeasureReport",
      "id": "1f352af1-1144-4d24-bbac-71eb497471b0",
      "meta": {
        "profile": [ "http://hl7.org/fhir/us/cqfmeasures/StructureDefinition/test-case-cqfm" ]
      },
      "contained": [ {
        "resourceType": "Parameters",
        "id": "b9194b8f-e914-4566-b214-3cf8ccbff3c5-parameters",
        "parameter": [ {
          "name": "subject",
          "valueString": "301cbb39-bf89-40f4-9539-4e1b9eb5e5be"
        } ]
      } ],
      "extension": [ {
        "url": "http://hl7.org/fhir/StructureDefinition/cqf-inputParameters",
        "valueReference": {
          "reference": "#b9194b8f-e914-4566-b214-3cf8ccbff3c5-parameters"
        }
      }, {
        "url": "http://hl7.org/fhir/us/cqfmeasures/StructureDefinition/cqfm-testCaseDescription",
        "valueMarkdown": "Passes: IP, Pt is 27 years of age,  encounter dx of delivery of singleton, gravida, EGA @ 38 weeks, AssessTimeOfDeliv relevantDate B4 DelivEnc.  Tests \"TimeOfDelivery.relevantDatetime during DeliveryEncounters.relevantPeriod\".\n"
      } ],
      "modifierExtension": [ {
        "url": "http://hl7.org/fhir/us/cqfmeasures/StructureDefinition/cqfm-isTestCase",
        "valueBoolean": true
      } ],
      "status": "complete",
      "type": "individual",
      "measure": "https://madie.cms.gov/Measure/CMS0334FHIRPCCesareanBirth",
      "period": {
        "start": "2026-01-01",
        "end": "2026-12-31"
      },
      "group": [ {
        "id": "Group_1",
        "population": [ {
          "id": "InitialPopulation_1",
          "code": {
            "coding": [ {
              "system": "http://terminology.hl7.org/CodeSystem/measure-population",
              "code": "initial-population",
              "display": "Initial Population"
            } ]
          },
          "count": 1
        }, {
          "id": "Denominator_1",
          "code": {
            "coding": [ {
              "system": "http://terminology.hl7.org/CodeSystem/measure-population",
              "code": "denominator",
              "display": "Denominator"
            } ]
          },
          "count": 0
        }, {
          "id": "DenominatorExclusion_1",
          "code": {
            "coding": [ {
              "system": "http://terminology.hl7.org/CodeSystem/measure-population",
              "code": "denominator-exclusion",
              "display": "Denominator Exclusion"
            } ]
          },
          "count": 0
        }, {
          "id": "Numerator_1",
          "code": {
            "coding": [ {
              "system": "http://terminology.hl7.org/CodeSystem/measure-population",
              "code": "numerator",
              "display": "Numerator"
            } ]
          },
          "count": 0
        } ],
        "measureScore": {
          "value": 0.0
        }
      } ],
      "evaluatedResource": [ {
        "reference": "Patient/301cbb39-bf89-40f4-9539-4e1b9eb5e5be"
      }, {
        "reference": "Observation/97d0455c-103f-4e59-a20b-91fdcf0ec8f7"
      }, {
        "reference": "Observation/a7f98b93-c3fd-46a6-abfd-53d64036d316"
      }, {
        "reference": "Observation/6b8d629a-ea4c-46dc-a13f-c4cf0dcabc8b"
      }, {
        "reference": "Encounter/5d7859b7-014d-4aac-a297-52def4346de8"
      }, {
        "reference": "Procedure/a740e7a9-4d90-4f09-84c9-f95868a1e95a"
      }, {
        "reference": "Condition/37955743-73aa-4a07-8ef1-f0b34f36f388"
      }, {
        "reference": "Coverage/d8a09f25-fb04-4002-b615-938691e116ed"
      }, {
        "reference": "Organization/ce154f46-6cbf-46fa-887d-36288c5d162a"
      }, {
        "reference": "Practitioner/929cc52c-c0f2-4383-bb67-282c1a14e2d9"
      } ]
    },
    "request": {
      "method": "PUT",
      "url": "MeasureReport/1f352af1-1144-4d24-bbac-71eb497471b0"
    }
  } ]
}