{
  "resourceType": "Bundle",
  "id": "62fa569ef4a8c3cd9f45539b",
  "type": "transaction",
  "entry": [ {
    "fullUrl": "https://madie.cms.gov/Patient/fa02a22e-e0c5-49ef-8955-2e581ca12ca5",
    "resource": {
      "resourceType": "Patient",
      "id": "fa02a22e-e0c5-49ef-8955-2e581ca12ca5",
      "meta": {
        "profile": [ "http://hl7.org/fhir/us/qicore/StructureDefinition/qicore-patient" ]
      },
      "extension": [ {
        "url": "http://hl7.org/fhir/us/core/StructureDefinition/us-core-race",
        "extension": [ {
          "url": "ombCategory",
          "valueCoding": {
            "system": "urn:oid:2.16.840.1.113883.6.238",
            "code": "2106-3",
            "display": "White",
            "userSelected": true
          }
        }, {
          "url": "text",
          "valueString": "White"
        } ]
      }, {
        "url": "http://hl7.org/fhir/us/core/StructureDefinition/us-core-ethnicity",
        "extension": [ {
          "url": "ombCategory",
          "valueCoding": {
            "system": "urn:oid:2.16.840.1.113883.6.238",
            "code": "2186-5",
            "display": "Not Hispanic or Latino",
            "userSelected": true
          }
        }, {
          "url": "text",
          "valueString": "Not Hispanic or Latino"
        } ]
      } ],
      "identifier": [ {
        "type": {
          "coding": [ {
            "system": "http://terminology.hl7.org/CodeSystem/v2-0203",
            "code": "MR"
          } ]
        },
        "system": "https://bonnie-fhir.healthit.gov/",
        "value": "62fa569ef4a8c3cd9f45539b"
      } ],
      "name": [ {
        "family": "DENEXPass",
        "given": [ "EndStageRenal" ]
      } ],
      "gender": "male",
      "birthDate": "2006-12-01"
    },
    "request": {
      "method": "PUT",
      "url": "Patient/fa02a22e-e0c5-49ef-8955-2e581ca12ca5"
    }
  }, {
    "fullUrl": "https://madie.cms.gov/Condition/1619a1af-a5d9-40e6-b6c1-04312141e413",
    "resource": {
      "resourceType": "Condition",
      "id": "1619a1af-a5d9-40e6-b6c1-04312141e413",
      "meta": {
        "profile": [ "http://hl7.org/fhir/us/qicore/StructureDefinition/qicore-condition-encounter-diagnosis" ]
      },
      "clinicalStatus": {
        "coding": [ {
          "system": "http://terminology.hl7.org/CodeSystem/condition-clinical",
          "code": "active",
          "display": "active",
          "userSelected": true
        } ]
      },
      "category": [ {
        "coding": [ {
          "system": "http://terminology.hl7.org/CodeSystem/condition-category",
          "code": "encounter-diagnosis",
          "display": "Encounter Diagnosis",
          "userSelected": true
        } ]
      } ],
      "code": {
        "coding": [ {
          "system": "http://snomed.info/sct",
          "version": "2021-09",
          "code": "102781000119107",
          "display": "Sensory neuropathy due to type 1 diabetes mellitus (disorder)",
          "userSelected": true
        } ]
      },
      "subject": {
        "reference": "Patient/fa02a22e-e0c5-49ef-8955-2e581ca12ca5"
      },
      "onsetDateTime": "2024-08-15T08:00:00.000+00:00"
    },
    "request": {
      "method": "PUT",
      "url": "Condition/1619a1af-a5d9-40e6-b6c1-04312141e413"
    }
  }, {
    "fullUrl": "https://madie.cms.gov/Encounter/8691da2c-8a77-4ae7-afb5-e1498984d655",
    "resource": {
      "resourceType": "Encounter",
      "id": "8691da2c-8a77-4ae7-afb5-e1498984d655",
      "meta": {
        "profile": [ "http://hl7.org/fhir/us/qicore/StructureDefinition/qicore-encounter" ]
      },
      "status": "finished",
      "class": {
        "system": "http://terminology.hl7.org/CodeSystem/v3-ActCode",
        "code": "AMB",
        "display": "ambulatory",
        "userSelected": true
      },
      "type": [ {
        "coding": [ {
          "system": "http://snomed.info/sct",
          "version": "2021-09",
          "code": "185463005",
          "display": "Visit out of hours (procedure)",
          "userSelected": true
        } ]
      } ],
      "subject": {
        "reference": "Patient/fa02a22e-e0c5-49ef-8955-2e581ca12ca5"
      },
      "period": {
        "start": "2026-08-15T08:00:00.000+00:00",
        "end": "2026-08-15T08:15:00.000+00:00"
      }
    },
    "request": {
      "method": "PUT",
      "url": "Encounter/8691da2c-8a77-4ae7-afb5-e1498984d655"
    }
  }, {
    "fullUrl": "https://madie.cms.gov/Observation/301c8007-aef1-43a2-8a0c-88b7ab0c3c42",
    "resource": {
      "resourceType": "Observation",
      "id": "301c8007-aef1-43a2-8a0c-88b7ab0c3c42",
      "meta": {
        "profile": [ "http://hl7.org/fhir/us/qicore/StructureDefinition/qicore-observation-lab" ]
      },
      "status": "amended",
      "category": [ {
        "coding": [ {
          "system": "http://terminology.hl7.org/CodeSystem/observation-category",
          "code": "laboratory",
          "display": "Laboratory",
          "userSelected": true
        } ]
      } ],
      "code": {
        "coding": [ {
          "system": "http://loinc.org",
          "version": "2.71",
          "code": "48642-3",
          "display": "Glomerular filtration rate [Volume Rate/Area] in Serum, Plasma or Blood by Creatinine-based formula (MDRD)/1.73 sq M among non black population",
          "userSelected": true
        } ]
      },
      "subject": {
        "reference": "Patient/fa02a22e-e0c5-49ef-8955-2e581ca12ca5"
      },
      "effectiveDateTime": "2026-08-15T08:00:00.000+00:00",
      "valueBoolean": true
    },
    "request": {
      "method": "PUT",
      "url": "Observation/301c8007-aef1-43a2-8a0c-88b7ab0c3c42"
    }
  }, {
    "fullUrl": "https://madie.cms.gov/Observation/39c94e40-3739-47d5-a60f-9d6340dff6a3",
    "resource": {
      "resourceType": "Observation",
      "id": "39c94e40-3739-47d5-a60f-9d6340dff6a3",
      "meta": {
        "profile": [ "http://hl7.org/fhir/us/qicore/StructureDefinition/qicore-observation-lab" ]
      },
      "status": "amended",
      "category": [ {
        "coding": [ {
          "system": "http://terminology.hl7.org/CodeSystem/observation-category",
          "code": "laboratory",
          "display": "Laboratory",
          "userSelected": true
        } ]
      } ],
      "code": {
        "coding": [ {
          "system": "http://loinc.org",
          "version": "2.71",
          "code": "13705-9",
          "display": "Albumin/Creatinine [Mass Ratio] in 24 hour Urine",
          "userSelected": true
        } ]
      },
      "subject": {
        "reference": "Patient/fa02a22e-e0c5-49ef-8955-2e581ca12ca5"
      },
      "effectiveDateTime": "2026-08-15T08:00:00.000+00:00",
      "valueBoolean": true
    },
    "request": {
      "method": "PUT",
      "url": "Observation/39c94e40-3739-47d5-a60f-9d6340dff6a3"
    }
  }, {
    "fullUrl": "https://madie.cms.gov/Condition/af28b767-e459-474d-bd34-23faca6cb700",
    "resource": {
      "resourceType": "Condition",
      "id": "af28b767-e459-474d-bd34-23faca6cb700",
      "meta": {
        "profile": [ "http://hl7.org/fhir/us/qicore/StructureDefinition/qicore-condition-problems-health-concerns" ]
      },
      "clinicalStatus": {
        "coding": [ {
          "system": "http://terminology.hl7.org/CodeSystem/condition-clinical",
          "code": "active",
          "display": "Active",
          "userSelected": true
        } ]
      },
      "category": [ {
        "coding": [ {
          "system": "http://terminology.hl7.org/CodeSystem/condition-category",
          "code": "problem-list-item",
          "display": "Problem List Item",
          "userSelected": true
        } ]
      } ],
      "code": {
        "coding": [ {
          "system": "http://snomed.info/sct",
          "version": "2021-09",
          "code": "236434000",
          "display": "End stage renal failure untreated by renal replacement therapy (disorder)",
          "userSelected": true
        } ]
      },
      "subject": {
        "reference": "Patient/fa02a22e-e0c5-49ef-8955-2e581ca12ca5"
      },
      "onsetDateTime": "2026-08-15T08:00:00.000+00:00",
      "recordedDate": "2026-08-15T08:00:00.000+00:00"
    },
    "request": {
      "method": "PUT",
      "url": "Condition/af28b767-e459-474d-bd34-23faca6cb700"
    }
  }, {
    "fullUrl": "https://madie.cms.gov/MeasureReport/b71447f2-ae82-42bc-89f0-cdca5f122eaa",
    "resource": {
      "resourceType": "MeasureReport",
      "id": "b71447f2-ae82-42bc-89f0-cdca5f122eaa",
      "meta": {
        "profile": [ "http://hl7.org/fhir/us/cqfmeasures/StructureDefinition/test-case-cqfm" ]
      },
      "contained": [ {
        "resourceType": "Parameters",
        "id": "bccaca75-756f-4ed2-86cd-f7fd9983ab8c-parameters",
        "parameter": [ {
          "name": "subject",
          "valueString": "fa02a22e-e0c5-49ef-8955-2e581ca12ca5"
        } ]
      } ],
      "extension": [ {
        "url": "http://hl7.org/fhir/StructureDefinition/cqf-inputParameters",
        "valueReference": {
          "reference": "#bccaca75-756f-4ed2-86cd-f7fd9983ab8c-parameters"
        }
      }, {
        "url": "http://hl7.org/fhir/us/cqfmeasures/StructureDefinition/cqfm-testCaseDescription",
        "valueMarkdown": "This patient has diabetes prior to the MP and both labs, plus end stage renal disease starting during the MP. This case tests the denominator exclusions."
      } ],
      "modifierExtension": [ {
        "url": "http://hl7.org/fhir/us/cqfmeasures/StructureDefinition/cqfm-isTestCase",
        "valueBoolean": true
      } ],
      "status": "complete",
      "type": "individual",
      "measure": "https://madie.cms.gov/Measure/CMS951FHIRKidneyHealthEval",
      "period": {
        "start": "2026-01-01",
        "end": "2026-12-31"
      },
      "group": [ {
        "id": "Group_1",
        "population": [ {
          "id": "InitialPopulation_1",
          "code": {
            "coding": [ {
              "system": "http://terminology.hl7.org/CodeSystem/measure-population",
              "code": "initial-population",
              "display": "Initial Population"
            } ]
          },
          "count": 1
        }, {
          "id": "Denominator_1",
          "code": {
            "coding": [ {
              "system": "http://terminology.hl7.org/CodeSystem/measure-population",
              "code": "denominator",
              "display": "Denominator"
            } ]
          },
          "count": 1
        }, {
          "id": "DenominatorExclusion_1",
          "code": {
            "coding": [ {
              "system": "http://terminology.hl7.org/CodeSystem/measure-population",
              "code": "denominator-exclusion",
              "display": "Denominator Exclusion"
            } ]
          },
          "count": 1
        }, {
          "id": "Numerator_1",
          "code": {
            "coding": [ {
              "system": "http://terminology.hl7.org/CodeSystem/measure-population",
              "code": "numerator",
              "display": "Numerator"
            } ]
          },
          "count": 0
        } ],
        "measureScore": {
          "value": 1.0
        }
      } ],
      "evaluatedResource": [ {
        "reference": "Patient/fa02a22e-e0c5-49ef-8955-2e581ca12ca5"
      }, {
        "reference": "Condition/1619a1af-a5d9-40e6-b6c1-04312141e413"
      }, {
        "reference": "Encounter/8691da2c-8a77-4ae7-afb5-e1498984d655"
      }, {
        "reference": "Observation/301c8007-aef1-43a2-8a0c-88b7ab0c3c42"
      }, {
        "reference": "Observation/39c94e40-3739-47d5-a60f-9d6340dff6a3"
      }, {
        "reference": "Condition/af28b767-e459-474d-bd34-23faca6cb700"
      } ]
    },
    "request": {
      "method": "PUT",
      "url": "MeasureReport/b71447f2-ae82-42bc-89f0-cdca5f122eaa"
    }
  } ]
}