{
  "resourceType": "Bundle",
  "id": "DENEXPass-HospiceObsValueIsYes",
  "type": "transaction",
  "entry": [ {
    "fullUrl": "https://madie.cms.gov/Patient/b5f9f533-30c2-4fbe-b06e-3f8dccc8792c",
    "resource": {
      "resourceType": "Patient",
      "id": "b5f9f533-30c2-4fbe-b06e-3f8dccc8792c",
      "meta": {
        "profile": [ "http://hl7.org/fhir/us/qicore/StructureDefinition/qicore-patient" ]
      },
      "extension": [ {
        "url": "http://hl7.org/fhir/us/core/StructureDefinition/us-core-race",
        "extension": [ {
          "url": "ombCategory",
          "valueCoding": {
            "system": "urn:oid:2.16.840.1.113883.6.238",
            "code": "2028-9",
            "display": "Asian"
          }
        }, {
          "url": "text",
          "valueString": "Asian"
        } ]
      }, {
        "url": "http://hl7.org/fhir/us/core/StructureDefinition/us-core-ethnicity",
        "extension": [ {
          "url": "ombCategory",
          "valueCoding": {
            "system": "urn:oid:2.16.840.1.113883.6.238",
            "code": "2135-2",
            "display": "Hispanic or Latino"
          }
        }, {
          "url": "text",
          "valueString": "Hispanic or Latino"
        } ]
      } ],
      "identifier": [ {
        "system": "http://hospital.smarthealthit.org",
        "value": "999999995"
      } ],
      "name": [ {
        "family": "Bertha",
        "given": [ "Betty" ]
      } ],
      "gender": "female",
      "birthDate": "2024-01-01"
    },
    "request": {
      "method": "PUT",
      "url": "Patient/b5f9f533-30c2-4fbe-b06e-3f8dccc8792c"
    }
  }, {
    "fullUrl": "https://madie.cms.gov/Encounter/7ea3043b-7806-460b-bd01-da8e8e057ca4",
    "resource": {
      "resourceType": "Encounter",
      "id": "7ea3043b-7806-460b-bd01-da8e8e057ca4",
      "meta": {
        "profile": [ "http://hl7.org/fhir/us/qicore/StructureDefinition/qicore-encounter" ]
      },
      "status": "finished",
      "class": {
        "system": "http://terminology.hl7.org/CodeSystem/v3-ActCode",
        "code": "AMB",
        "display": "ambulatory"
      },
      "type": [ {
        "coding": [ {
          "system": "http://snomed.info/sct",
          "code": "185317003",
          "display": "Telephone encounter (procedure)"
        } ]
      } ],
      "subject": {
        "reference": "Patient/b5f9f533-30c2-4fbe-b06e-3f8dccc8792c"
      },
      "period": {
        "start": "2026-01-01T01:00:00.000+00:00",
        "end": "2026-01-01T01:15:00.000+00:00"
      }
    },
    "request": {
      "method": "PUT",
      "url": "Encounter/7ea3043b-7806-460b-bd01-da8e8e057ca4"
    }
  }, {
    "fullUrl": "https://madie.cms.gov/Observation/c44722df-b060-4f8f-9084-4c26b6a755ea",
    "resource": {
      "resourceType": "Observation",
      "id": "c44722df-b060-4f8f-9084-4c26b6a755ea",
      "meta": {
        "profile": [ "http://hl7.org/fhir/us/qicore/StructureDefinition/qicore-observation-screening-assessment" ]
      },
      "status": "final",
      "category": [ {
        "coding": [ {
          "system": "http://terminology.hl7.org/CodeSystem/observation-category",
          "code": "survey"
        } ]
      } ],
      "code": {
        "coding": [ {
          "system": "http://loinc.org",
          "code": "45755-6",
          "display": "Hospice care [Minimum Data Set]"
        } ]
      },
      "subject": {
        "reference": "Patient/b5f9f533-30c2-4fbe-b06e-3f8dccc8792c"
      },
      "effectivePeriod": {
        "start": "2025-12-31T00:00:00.000+00:00",
        "end": "2026-01-01T00:00:00.000+00:00"
      },
      "valueCodeableConcept": {
        "coding": [ {
          "system": "http://snomed.info/sct",
          "code": "373066001",
          "display": "Yes (qualifier value)"
        } ]
      }
    },
    "request": {
      "method": "PUT",
      "url": "Observation/c44722df-b060-4f8f-9084-4c26b6a755ea"
    }
  }, {
    "fullUrl": "https://madie.cms.gov/MeasureReport/ae0c81d0-abe5-4ac2-aa64-8f7ef7ffb0b5",
    "resource": {
      "resourceType": "MeasureReport",
      "id": "ae0c81d0-abe5-4ac2-aa64-8f7ef7ffb0b5",
      "meta": {
        "profile": [ "http://hl7.org/fhir/us/cqfmeasures/StructureDefinition/test-case-cqfm" ]
      },
      "contained": [ {
        "resourceType": "Parameters",
        "id": "750d70da-8312-4e44-863c-086880ce2d43-parameters",
        "parameter": [ {
          "name": "subject",
          "valueString": "b5f9f533-30c2-4fbe-b06e-3f8dccc8792c"
        } ]
      } ],
      "extension": [ {
        "url": "http://hl7.org/fhir/StructureDefinition/cqf-inputParameters",
        "valueReference": {
          "reference": "#750d70da-8312-4e44-863c-086880ce2d43-parameters"
        }
      }, {
        "url": "http://hl7.org/fhir/us/cqfmeasures/StructureDefinition/cqfm-testCaseDescription",
        "valueMarkdown": "Patient has hospice assessment where result is yes"
      } ],
      "modifierExtension": [ {
        "url": "http://hl7.org/fhir/us/cqfmeasures/StructureDefinition/cqfm-isTestCase",
        "valueBoolean": true
      } ],
      "status": "complete",
      "type": "individual",
      "measure": "https://madie.cms.gov/Measure/ChildhoodImmunizationStatusFHIR",
      "period": {
        "start": "2026-01-01",
        "end": "2026-12-31"
      },
      "group": [ {
        "id": "Group_1",
        "population": [ {
          "id": "InitialPopulation_1",
          "code": {
            "coding": [ {
              "system": "http://terminology.hl7.org/CodeSystem/measure-population",
              "code": "initial-population",
              "display": "Initial Population"
            } ]
          },
          "count": 1
        }, {
          "id": "Denominator_1",
          "code": {
            "coding": [ {
              "system": "http://terminology.hl7.org/CodeSystem/measure-population",
              "code": "denominator",
              "display": "Denominator"
            } ]
          },
          "count": 1
        }, {
          "id": "DenominatorExclusion_1",
          "code": {
            "coding": [ {
              "system": "http://terminology.hl7.org/CodeSystem/measure-population",
              "code": "denominator-exclusion",
              "display": "Denominator Exclusion"
            } ]
          },
          "count": 1
        }, {
          "id": "Numerator_1",
          "code": {
            "coding": [ {
              "system": "http://terminology.hl7.org/CodeSystem/measure-population",
              "code": "numerator",
              "display": "Numerator"
            } ]
          },
          "count": 0
        } ],
        "measureScore": {
          "value": 1.0
        }
      } ],
      "evaluatedResource": [ {
        "reference": "Patient/b5f9f533-30c2-4fbe-b06e-3f8dccc8792c"
      }, {
        "reference": "Encounter/7ea3043b-7806-460b-bd01-da8e8e057ca4"
      }, {
        "reference": "Observation/c44722df-b060-4f8f-9084-4c26b6a755ea"
      } ]
    },
    "request": {
      "method": "PUT",
      "url": "MeasureReport/ae0c81d0-abe5-4ac2-aa64-8f7ef7ffb0b5"
    }
  }, {
    "fullUrl": "https://madie.cms.gov/MeasureReport/29cfa3eb-f8f3-44d9-b70e-2a5cc5432fdb",
    "resource": {
      "resourceType": "MeasureReport",
      "id": "29cfa3eb-f8f3-44d9-b70e-2a5cc5432fdb",
      "meta": {
        "profile": [ "http://hl7.org/fhir/us/cqfmeasures/StructureDefinition/test-case-cqfm" ]
      },
      "contained": [ {
        "resourceType": "Parameters",
        "id": "af1e748a-6bcc-4dad-83cc-24dd0b11c6d1-parameters",
        "parameter": [ {
          "name": "subject",
          "valueString": "b5f9f533-30c2-4fbe-b06e-3f8dccc8792c"
        } ]
      } ],
      "extension": [ {
        "url": "http://hl7.org/fhir/StructureDefinition/cqf-inputParameters",
        "valueReference": {
          "reference": "#af1e748a-6bcc-4dad-83cc-24dd0b11c6d1-parameters"
        }
      }, {
        "url": "http://hl7.org/fhir/us/cqfmeasures/StructureDefinition/cqfm-testCaseDescription",
        "valueMarkdown": "Patient has hospice assessment where result is yes"
      } ],
      "modifierExtension": [ {
        "url": "http://hl7.org/fhir/us/cqfmeasures/StructureDefinition/cqfm-isTestCase",
        "valueBoolean": true
      } ],
      "status": "complete",
      "type": "individual",
      "measure": "https://madie.cms.gov/Measure/CMS117FHIRChildImmunStatus",
      "period": {
        "start": "2026-01-01",
        "end": "2026-12-31"
      },
      "group": [ {
        "id": "Group_1",
        "population": [ {
          "id": "InitialPopulation_1",
          "code": {
            "coding": [ {
              "system": "http://terminology.hl7.org/CodeSystem/measure-population",
              "code": "initial-population",
              "display": "Initial Population"
            } ]
          },
          "count": 1
        }, {
          "id": "Denominator_1",
          "code": {
            "coding": [ {
              "system": "http://terminology.hl7.org/CodeSystem/measure-population",
              "code": "denominator",
              "display": "Denominator"
            } ]
          },
          "count": 1
        }, {
          "id": "DenominatorExclusion_1",
          "code": {
            "coding": [ {
              "system": "http://terminology.hl7.org/CodeSystem/measure-population",
              "code": "denominator-exclusion",
              "display": "Denominator Exclusion"
            } ]
          },
          "count": 1
        }, {
          "id": "Numerator_1",
          "code": {
            "coding": [ {
              "system": "http://terminology.hl7.org/CodeSystem/measure-population",
              "code": "numerator",
              "display": "Numerator"
            } ]
          },
          "count": 0
        } ],
        "measureScore": {
          "value": 1.0
        }
      } ],
      "evaluatedResource": [ {
        "reference": "Patient/b5f9f533-30c2-4fbe-b06e-3f8dccc8792c"
      }, {
        "reference": "Encounter/7ea3043b-7806-460b-bd01-da8e8e057ca4"
      }, {
        "reference": "Observation/c44722df-b060-4f8f-9084-4c26b6a755ea"
      }, {
        "reference": "MeasureReport/ae0c81d0-abe5-4ac2-aa64-8f7ef7ffb0b5"
      } ]
    },
    "request": {
      "method": "PUT",
      "url": "MeasureReport/29cfa3eb-f8f3-44d9-b70e-2a5cc5432fdb"
    }
  } ]
}