{
  "resourceType": "Bundle",
  "id": "NUMERPass-DTapPolioSameCodeCondEncDx",
  "type": "transaction",
  "entry": [ {
    "fullUrl": "https://madie.cms.gov/Patient/0f30094a-ce13-4640-a481-919f9ff6bff1",
    "resource": {
      "resourceType": "Patient",
      "id": "0f30094a-ce13-4640-a481-919f9ff6bff1",
      "meta": {
        "profile": [ "http://hl7.org/fhir/us/qicore/StructureDefinition/qicore-patient" ]
      },
      "extension": [ {
        "url": "http://hl7.org/fhir/us/core/StructureDefinition/us-core-race",
        "extension": [ {
          "url": "ombCategory",
          "valueCoding": {
            "system": "urn:oid:2.16.840.1.113883.6.238",
            "code": "2028-9",
            "display": "Asian"
          }
        }, {
          "url": "text",
          "valueString": "Asian"
        } ]
      }, {
        "url": "http://hl7.org/fhir/us/core/StructureDefinition/us-core-ethnicity",
        "extension": [ {
          "url": "ombCategory",
          "valueCoding": {
            "system": "urn:oid:2.16.840.1.113883.6.238",
            "code": "2135-2",
            "display": "Hispanic or Latino"
          }
        }, {
          "url": "text",
          "valueString": "Hispanic or Latino"
        } ]
      } ],
      "identifier": [ {
        "system": "http://hospital.smarthealthit.org",
        "value": "999999995"
      } ],
      "name": [ {
        "family": "Bertha",
        "given": [ "Betty" ]
      } ],
      "gender": "female",
      "birthDate": "2024-01-01"
    },
    "request": {
      "method": "PUT",
      "url": "Patient/0f30094a-ce13-4640-a481-919f9ff6bff1"
    }
  }, {
    "fullUrl": "https://madie.cms.gov/Encounter/144fd280-4265-4f6f-9add-0ac1955f29d9",
    "resource": {
      "resourceType": "Encounter",
      "id": "144fd280-4265-4f6f-9add-0ac1955f29d9",
      "meta": {
        "profile": [ "http://hl7.org/fhir/us/qicore/StructureDefinition/qicore-encounter" ]
      },
      "status": "finished",
      "class": {
        "system": "http://terminology.hl7.org/CodeSystem/v3-ActCode",
        "code": "AMB",
        "display": "ambulatory"
      },
      "type": [ {
        "coding": [ {
          "system": "http://snomed.info/sct",
          "code": "185317003",
          "display": "Telephone encounter (procedure)"
        } ]
      } ],
      "subject": {
        "reference": "Patient/0f30094a-ce13-4640-a481-919f9ff6bff1"
      },
      "period": {
        "start": "2026-01-01T01:00:00.000+00:00",
        "end": "2026-01-01T01:15:00.000+00:00"
      }
    },
    "request": {
      "method": "PUT",
      "url": "Encounter/144fd280-4265-4f6f-9add-0ac1955f29d9"
    }
  }, {
    "fullUrl": "https://madie.cms.gov/Immunization/fd84e7fa-141b-4fac-a020-b54580aa382f",
    "resource": {
      "resourceType": "Immunization",
      "id": "fd84e7fa-141b-4fac-a020-b54580aa382f",
      "meta": {
        "profile": [ "http://hl7.org/fhir/us/qicore/StructureDefinition/qicore-immunization" ]
      },
      "status": "completed",
      "vaccineCode": {
        "coding": [ {
          "system": "http://hl7.org/fhir/sid/cvx",
          "code": "146",
          "display": "DTaP,IPV,Hib,HepB"
        } ]
      },
      "patient": {
        "reference": "Patient/0f30094a-ce13-4640-a481-919f9ff6bff1"
      },
      "occurrenceDateTime": "2025-01-02T00:00:00.000+00:00",
      "recorded": "2025-01-02T00:00:00.000+00:00",
      "primarySource": true
    },
    "request": {
      "method": "PUT",
      "url": "Immunization/fd84e7fa-141b-4fac-a020-b54580aa382f"
    }
  }, {
    "fullUrl": "https://madie.cms.gov/Immunization/35fdee7e-3ac4-4556-9bb1-0bcd20dbc09b",
    "resource": {
      "resourceType": "Immunization",
      "id": "35fdee7e-3ac4-4556-9bb1-0bcd20dbc09b",
      "meta": {
        "profile": [ "http://hl7.org/fhir/us/qicore/StructureDefinition/qicore-immunization" ]
      },
      "status": "completed",
      "vaccineCode": {
        "coding": [ {
          "system": "http://hl7.org/fhir/sid/cvx",
          "code": "146",
          "display": "DTaP,IPV,Hib,HepB"
        } ]
      },
      "patient": {
        "reference": "Patient/0f30094a-ce13-4640-a481-919f9ff6bff1"
      },
      "occurrenceDateTime": "2025-01-02T00:00:00.000+00:00",
      "recorded": "2025-01-02T00:00:00.000+00:00",
      "primarySource": true
    },
    "request": {
      "method": "PUT",
      "url": "Immunization/35fdee7e-3ac4-4556-9bb1-0bcd20dbc09b"
    }
  }, {
    "fullUrl": "https://madie.cms.gov/Immunization/70703950-b77e-4042-b129-1f71a21a5eda",
    "resource": {
      "resourceType": "Immunization",
      "id": "70703950-b77e-4042-b129-1f71a21a5eda",
      "meta": {
        "profile": [ "http://hl7.org/fhir/us/qicore/StructureDefinition/qicore-immunization" ]
      },
      "status": "completed",
      "vaccineCode": {
        "coding": [ {
          "system": "http://hl7.org/fhir/sid/cvx",
          "code": "146",
          "display": "DTaP,IPV,Hib,HepB"
        } ]
      },
      "patient": {
        "reference": "Patient/0f30094a-ce13-4640-a481-919f9ff6bff1"
      },
      "occurrenceDateTime": "2025-01-07T00:00:00.000+00:00",
      "recorded": "2025-01-02T00:00:00.000+00:00",
      "primarySource": true
    },
    "request": {
      "method": "PUT",
      "url": "Immunization/70703950-b77e-4042-b129-1f71a21a5eda"
    }
  }, {
    "fullUrl": "https://madie.cms.gov/Immunization/e07ec215-2c40-44b8-b14c-84fe187cee02",
    "resource": {
      "resourceType": "Immunization",
      "id": "e07ec215-2c40-44b8-b14c-84fe187cee02",
      "meta": {
        "profile": [ "http://hl7.org/fhir/us/qicore/StructureDefinition/qicore-immunization" ]
      },
      "status": "completed",
      "vaccineCode": {
        "coding": [ {
          "system": "http://hl7.org/fhir/sid/cvx",
          "code": "146",
          "display": "DTaP,IPV,Hib,HepB"
        } ]
      },
      "patient": {
        "reference": "Patient/0f30094a-ce13-4640-a481-919f9ff6bff1"
      },
      "occurrenceDateTime": "2025-01-10T00:00:00.000+00:00",
      "recorded": "2025-01-02T00:00:00.000+00:00",
      "primarySource": true
    },
    "request": {
      "method": "PUT",
      "url": "Immunization/e07ec215-2c40-44b8-b14c-84fe187cee02"
    }
  }, {
    "fullUrl": "https://madie.cms.gov/Immunization/957488ac-ddb4-4248-ae8c-1aedcba01d33",
    "resource": {
      "resourceType": "Immunization",
      "id": "957488ac-ddb4-4248-ae8c-1aedcba01d33",
      "meta": {
        "profile": [ "http://hl7.org/fhir/us/qicore/StructureDefinition/qicore-immunization" ]
      },
      "status": "completed",
      "vaccineCode": {
        "coding": [ {
          "system": "http://hl7.org/fhir/sid/cvx",
          "code": "146",
          "display": "DTaP,IPV,Hib,HepB"
        } ]
      },
      "patient": {
        "reference": "Patient/0f30094a-ce13-4640-a481-919f9ff6bff1"
      },
      "occurrenceDateTime": "2025-01-02T00:00:00.000+00:00",
      "recorded": "2025-01-02T00:00:00.000+00:00",
      "primarySource": true
    },
    "request": {
      "method": "PUT",
      "url": "Immunization/957488ac-ddb4-4248-ae8c-1aedcba01d33"
    }
  }, {
    "fullUrl": "https://madie.cms.gov/Immunization/4798b825-a0c8-421d-8490-e77029f0d9ea",
    "resource": {
      "resourceType": "Immunization",
      "id": "4798b825-a0c8-421d-8490-e77029f0d9ea",
      "meta": {
        "profile": [ "http://hl7.org/fhir/us/qicore/StructureDefinition/qicore-immunization" ]
      },
      "status": "completed",
      "vaccineCode": {
        "coding": [ {
          "system": "http://hl7.org/fhir/sid/cvx",
          "code": "146",
          "display": "DTaP,IPV,Hib,HepB"
        } ]
      },
      "patient": {
        "reference": "Patient/0f30094a-ce13-4640-a481-919f9ff6bff1"
      },
      "occurrenceDateTime": "2025-01-06T00:00:00.000+00:00",
      "recorded": "2025-01-02T00:00:00.000+00:00",
      "primarySource": true
    },
    "request": {
      "method": "PUT",
      "url": "Immunization/4798b825-a0c8-421d-8490-e77029f0d9ea"
    }
  }, {
    "fullUrl": "https://madie.cms.gov/Immunization/6af0cbbb-ed95-467c-b740-4267cf902dca",
    "resource": {
      "resourceType": "Immunization",
      "id": "6af0cbbb-ed95-467c-b740-4267cf902dca",
      "meta": {
        "profile": [ "http://hl7.org/fhir/us/qicore/StructureDefinition/qicore-immunization" ]
      },
      "status": "completed",
      "vaccineCode": {
        "coding": [ {
          "system": "http://hl7.org/fhir/sid/cvx",
          "code": "146",
          "display": "DTaP,IPV,Hib,HepB"
        } ]
      },
      "patient": {
        "reference": "Patient/0f30094a-ce13-4640-a481-919f9ff6bff1"
      },
      "occurrenceDateTime": "2025-01-09T00:00:00.000+00:00",
      "recorded": "2025-01-02T00:00:00.000+00:00",
      "primarySource": true
    },
    "request": {
      "method": "PUT",
      "url": "Immunization/6af0cbbb-ed95-467c-b740-4267cf902dca"
    }
  }, {
    "fullUrl": "https://madie.cms.gov/Immunization/bed18cf8-bfe3-419a-8884-bf2bd026865d",
    "resource": {
      "resourceType": "Immunization",
      "id": "bed18cf8-bfe3-419a-8884-bf2bd026865d",
      "meta": {
        "profile": [ "http://hl7.org/fhir/us/qicore/StructureDefinition/qicore-immunization" ]
      },
      "status": "completed",
      "vaccineCode": {
        "coding": [ {
          "system": "http://hl7.org/fhir/sid/cvx",
          "code": "94",
          "display": "measles, mumps, rubella, and varicella virus vaccine"
        } ]
      },
      "patient": {
        "reference": "Patient/0f30094a-ce13-4640-a481-919f9ff6bff1"
      },
      "occurrenceDateTime": "2025-01-02T00:00:00.000+00:00",
      "recorded": "2025-01-02T00:00:00.000+00:00",
      "primarySource": true
    },
    "request": {
      "method": "PUT",
      "url": "Immunization/bed18cf8-bfe3-419a-8884-bf2bd026865d"
    }
  }, {
    "fullUrl": "https://madie.cms.gov/Immunization/e7068245-2145-4040-8044-6120004e83f5",
    "resource": {
      "resourceType": "Immunization",
      "id": "e7068245-2145-4040-8044-6120004e83f5",
      "meta": {
        "profile": [ "http://hl7.org/fhir/us/qicore/StructureDefinition/qicore-immunization" ]
      },
      "status": "completed",
      "vaccineCode": {
        "coding": [ {
          "system": "http://hl7.org/fhir/sid/cvx",
          "code": "49",
          "display": "Haemophilus influenzae type b vaccine, PRP-OMP conjugate"
        } ]
      },
      "patient": {
        "reference": "Patient/0f30094a-ce13-4640-a481-919f9ff6bff1"
      },
      "occurrenceDateTime": "2025-01-02T00:00:00.000+00:00",
      "recorded": "2025-01-02T00:00:00.000+00:00",
      "primarySource": true
    },
    "request": {
      "method": "PUT",
      "url": "Immunization/e7068245-2145-4040-8044-6120004e83f5"
    }
  }, {
    "fullUrl": "https://madie.cms.gov/Immunization/145fd683-2366-4ede-8d6f-e6bebf30e8c6",
    "resource": {
      "resourceType": "Immunization",
      "id": "145fd683-2366-4ede-8d6f-e6bebf30e8c6",
      "meta": {
        "profile": [ "http://hl7.org/fhir/us/qicore/StructureDefinition/qicore-immunization" ]
      },
      "status": "completed",
      "vaccineCode": {
        "coding": [ {
          "system": "http://hl7.org/fhir/sid/cvx",
          "code": "49",
          "display": "Haemophilus influenzae type b vaccine, PRP-OMP conjugate"
        } ]
      },
      "patient": {
        "reference": "Patient/0f30094a-ce13-4640-a481-919f9ff6bff1"
      },
      "occurrenceDateTime": "2025-01-02T00:00:00.000+00:00",
      "recorded": "2025-01-02T00:00:00.000+00:00",
      "primarySource": true
    },
    "request": {
      "method": "PUT",
      "url": "Immunization/145fd683-2366-4ede-8d6f-e6bebf30e8c6"
    }
  }, {
    "fullUrl": "https://madie.cms.gov/Immunization/a93fc87c-b659-47a6-9ddd-529386b271b6",
    "resource": {
      "resourceType": "Immunization",
      "id": "a93fc87c-b659-47a6-9ddd-529386b271b6",
      "meta": {
        "profile": [ "http://hl7.org/fhir/us/qicore/StructureDefinition/qicore-immunization" ]
      },
      "status": "completed",
      "vaccineCode": {
        "coding": [ {
          "system": "http://hl7.org/fhir/sid/cvx",
          "code": "49",
          "display": "Haemophilus influenzae type b vaccine, PRP-OMP conjugate"
        } ]
      },
      "patient": {
        "reference": "Patient/0f30094a-ce13-4640-a481-919f9ff6bff1"
      },
      "occurrenceDateTime": "2025-01-02T00:00:00.000+00:00",
      "recorded": "2025-01-02T00:00:00.000+00:00",
      "primarySource": true
    },
    "request": {
      "method": "PUT",
      "url": "Immunization/a93fc87c-b659-47a6-9ddd-529386b271b6"
    }
  }, {
    "fullUrl": "https://madie.cms.gov/Immunization/883e9ddf-681d-49cd-a7dc-2b721d8ac627",
    "resource": {
      "resourceType": "Immunization",
      "id": "883e9ddf-681d-49cd-a7dc-2b721d8ac627",
      "meta": {
        "profile": [ "http://hl7.org/fhir/us/qicore/StructureDefinition/qicore-immunization" ]
      },
      "status": "completed",
      "vaccineCode": {
        "coding": [ {
          "system": "http://hl7.org/fhir/sid/cvx",
          "code": "51",
          "display": "Haemophilus influenzae type b conjugate and Hepatitis B vaccine"
        } ]
      },
      "patient": {
        "reference": "Patient/0f30094a-ce13-4640-a481-919f9ff6bff1"
      },
      "occurrenceDateTime": "2025-01-02T00:00:00.000+00:00",
      "recorded": "2025-01-02T00:00:00.000+00:00",
      "primarySource": true
    },
    "request": {
      "method": "PUT",
      "url": "Immunization/883e9ddf-681d-49cd-a7dc-2b721d8ac627"
    }
  }, {
    "fullUrl": "https://madie.cms.gov/Immunization/8216d22e-9053-4779-b390-28d39d080a7f",
    "resource": {
      "resourceType": "Immunization",
      "id": "8216d22e-9053-4779-b390-28d39d080a7f",
      "meta": {
        "profile": [ "http://hl7.org/fhir/us/qicore/StructureDefinition/qicore-immunization" ]
      },
      "status": "completed",
      "vaccineCode": {
        "coding": [ {
          "system": "http://hl7.org/fhir/sid/cvx",
          "code": "51",
          "display": "Haemophilus influenzae type b conjugate and Hepatitis B vaccine"
        } ]
      },
      "patient": {
        "reference": "Patient/0f30094a-ce13-4640-a481-919f9ff6bff1"
      },
      "occurrenceDateTime": "2025-01-10T00:00:00.000+00:00",
      "recorded": "2025-01-02T00:00:00.000+00:00",
      "primarySource": true
    },
    "request": {
      "method": "PUT",
      "url": "Immunization/8216d22e-9053-4779-b390-28d39d080a7f"
    }
  }, {
    "fullUrl": "https://madie.cms.gov/Immunization/1939426c-3cee-451f-8a34-5ac962658ebb",
    "resource": {
      "resourceType": "Immunization",
      "id": "1939426c-3cee-451f-8a34-5ac962658ebb",
      "meta": {
        "profile": [ "http://hl7.org/fhir/us/qicore/StructureDefinition/qicore-immunization" ]
      },
      "status": "completed",
      "vaccineCode": {
        "coding": [ {
          "system": "http://hl7.org/fhir/sid/cvx",
          "code": "51",
          "display": "Haemophilus influenzae type b conjugate and Hepatitis B vaccine"
        } ]
      },
      "patient": {
        "reference": "Patient/0f30094a-ce13-4640-a481-919f9ff6bff1"
      },
      "occurrenceDateTime": "2025-01-12T00:00:00.000+00:00",
      "recorded": "2025-01-02T00:00:00.000+00:00",
      "primarySource": true
    },
    "request": {
      "method": "PUT",
      "url": "Immunization/1939426c-3cee-451f-8a34-5ac962658ebb"
    }
  }, {
    "fullUrl": "https://madie.cms.gov/Immunization/87976137-1731-44e9-bf06-01ef46c7b3b5",
    "resource": {
      "resourceType": "Immunization",
      "id": "87976137-1731-44e9-bf06-01ef46c7b3b5",
      "meta": {
        "profile": [ "http://hl7.org/fhir/us/qicore/StructureDefinition/qicore-immunization" ]
      },
      "status": "completed",
      "vaccineCode": {
        "coding": [ {
          "system": "http://hl7.org/fhir/sid/cvx",
          "code": "94",
          "display": "measles, mumps, rubella, and varicella virus vaccine"
        } ]
      },
      "patient": {
        "reference": "Patient/0f30094a-ce13-4640-a481-919f9ff6bff1"
      },
      "occurrenceDateTime": "2025-01-02T00:00:00.000+00:00",
      "recorded": "2025-01-02T00:00:00.000+00:00",
      "primarySource": true
    },
    "request": {
      "method": "PUT",
      "url": "Immunization/87976137-1731-44e9-bf06-01ef46c7b3b5"
    }
  }, {
    "fullUrl": "https://madie.cms.gov/Immunization/9f6bb255-e1fd-4138-a372-d7176d6878d2",
    "resource": {
      "resourceType": "Immunization",
      "id": "9f6bb255-e1fd-4138-a372-d7176d6878d2",
      "meta": {
        "profile": [ "http://hl7.org/fhir/us/qicore/StructureDefinition/qicore-immunization" ]
      },
      "status": "completed",
      "vaccineCode": {
        "coding": [ {
          "system": "http://hl7.org/fhir/sid/cvx",
          "code": "215",
          "display": "Pneumococcal conjugate vaccine 15-valent (PCV15), polysaccharide CRM197 conjugate, adjuvant, preservative free"
        } ]
      },
      "patient": {
        "reference": "Patient/0f30094a-ce13-4640-a481-919f9ff6bff1"
      },
      "occurrenceDateTime": "2025-01-12T00:00:00.000+00:00",
      "recorded": "2025-01-02T00:00:00.000+00:00",
      "primarySource": true
    },
    "request": {
      "method": "PUT",
      "url": "Immunization/9f6bb255-e1fd-4138-a372-d7176d6878d2"
    }
  }, {
    "fullUrl": "https://madie.cms.gov/Immunization/782fab18-6855-4812-b9bb-5fb66ccb85a3",
    "resource": {
      "resourceType": "Immunization",
      "id": "782fab18-6855-4812-b9bb-5fb66ccb85a3",
      "meta": {
        "profile": [ "http://hl7.org/fhir/us/qicore/StructureDefinition/qicore-immunization" ]
      },
      "status": "completed",
      "vaccineCode": {
        "coding": [ {
          "system": "http://hl7.org/fhir/sid/cvx",
          "code": "215",
          "display": "Pneumococcal conjugate vaccine 15-valent (PCV15), polysaccharide CRM197 conjugate, adjuvant, preservative free"
        } ]
      },
      "patient": {
        "reference": "Patient/0f30094a-ce13-4640-a481-919f9ff6bff1"
      },
      "occurrenceDateTime": "2025-01-14T00:00:00.000+00:00",
      "recorded": "2025-01-02T00:00:00.000+00:00",
      "primarySource": true
    },
    "request": {
      "method": "PUT",
      "url": "Immunization/782fab18-6855-4812-b9bb-5fb66ccb85a3"
    }
  }, {
    "fullUrl": "https://madie.cms.gov/Immunization/9f46a81d-614e-465a-b554-f1a91d5c5c7e",
    "resource": {
      "resourceType": "Immunization",
      "id": "9f46a81d-614e-465a-b554-f1a91d5c5c7e",
      "meta": {
        "profile": [ "http://hl7.org/fhir/us/qicore/StructureDefinition/qicore-immunization" ]
      },
      "status": "completed",
      "vaccineCode": {
        "coding": [ {
          "system": "http://hl7.org/fhir/sid/cvx",
          "code": "215",
          "display": "Pneumococcal conjugate vaccine 15-valent (PCV15), polysaccharide CRM197 conjugate, adjuvant, preservative free"
        } ]
      },
      "patient": {
        "reference": "Patient/0f30094a-ce13-4640-a481-919f9ff6bff1"
      },
      "occurrenceDateTime": "2025-01-20T00:00:00.000+00:00",
      "recorded": "2025-01-02T00:00:00.000+00:00",
      "primarySource": true
    },
    "request": {
      "method": "PUT",
      "url": "Immunization/9f46a81d-614e-465a-b554-f1a91d5c5c7e"
    }
  }, {
    "fullUrl": "https://madie.cms.gov/Immunization/c01e7f5f-abed-4ee0-8bdc-1743c20005a6",
    "resource": {
      "resourceType": "Immunization",
      "id": "c01e7f5f-abed-4ee0-8bdc-1743c20005a6",
      "meta": {
        "profile": [ "http://hl7.org/fhir/us/qicore/StructureDefinition/qicore-immunization" ]
      },
      "status": "completed",
      "vaccineCode": {
        "coding": [ {
          "system": "http://hl7.org/fhir/sid/cvx",
          "code": "215",
          "display": "Pneumococcal conjugate vaccine 15-valent (PCV15), polysaccharide CRM197 conjugate, adjuvant, preservative free"
        } ]
      },
      "patient": {
        "reference": "Patient/0f30094a-ce13-4640-a481-919f9ff6bff1"
      },
      "occurrenceDateTime": "2025-01-22T00:00:00.000+00:00",
      "recorded": "2025-01-02T00:00:00.000+00:00",
      "primarySource": true
    },
    "request": {
      "method": "PUT",
      "url": "Immunization/c01e7f5f-abed-4ee0-8bdc-1743c20005a6"
    }
  }, {
    "fullUrl": "https://madie.cms.gov/Immunization/5dd03162-b1ec-4ad3-ae2d-8199fe45ae7c",
    "resource": {
      "resourceType": "Immunization",
      "id": "5dd03162-b1ec-4ad3-ae2d-8199fe45ae7c",
      "meta": {
        "profile": [ "http://hl7.org/fhir/us/qicore/StructureDefinition/qicore-immunization" ]
      },
      "status": "completed",
      "vaccineCode": {
        "coding": [ {
          "system": "http://hl7.org/fhir/sid/cvx",
          "code": "85",
          "display": "hepatitis A vaccine, unspecified formulation"
        } ]
      },
      "patient": {
        "reference": "Patient/0f30094a-ce13-4640-a481-919f9ff6bff1"
      },
      "occurrenceDateTime": "2025-01-02T00:00:00.000+00:00",
      "recorded": "2025-01-02T00:00:00.000+00:00",
      "primarySource": true
    },
    "request": {
      "method": "PUT",
      "url": "Immunization/5dd03162-b1ec-4ad3-ae2d-8199fe45ae7c"
    }
  }, {
    "fullUrl": "https://madie.cms.gov/Immunization/994f26cc-f9bc-4a73-af7e-3dc75a467c47",
    "resource": {
      "resourceType": "Immunization",
      "id": "994f26cc-f9bc-4a73-af7e-3dc75a467c47",
      "meta": {
        "profile": [ "http://hl7.org/fhir/us/qicore/StructureDefinition/qicore-immunization" ]
      },
      "status": "completed",
      "vaccineCode": {
        "coding": [ {
          "system": "http://hl7.org/fhir/sid/cvx",
          "code": "119",
          "display": "rotavirus, live, monovalent vaccine"
        } ]
      },
      "patient": {
        "reference": "Patient/0f30094a-ce13-4640-a481-919f9ff6bff1"
      },
      "occurrenceDateTime": "2025-01-02T00:00:00.000+00:00",
      "recorded": "2025-01-02T00:00:00.000+00:00",
      "primarySource": true
    },
    "request": {
      "method": "PUT",
      "url": "Immunization/994f26cc-f9bc-4a73-af7e-3dc75a467c47"
    }
  }, {
    "fullUrl": "https://madie.cms.gov/Immunization/0b304ad8-d9ea-42e7-90dd-a235c5c194ee",
    "resource": {
      "resourceType": "Immunization",
      "id": "0b304ad8-d9ea-42e7-90dd-a235c5c194ee",
      "meta": {
        "profile": [ "http://hl7.org/fhir/us/qicore/StructureDefinition/qicore-immunization" ]
      },
      "status": "completed",
      "vaccineCode": {
        "coding": [ {
          "system": "http://hl7.org/fhir/sid/cvx",
          "code": "119",
          "display": "rotavirus, live, monovalent vaccine"
        } ]
      },
      "patient": {
        "reference": "Patient/0f30094a-ce13-4640-a481-919f9ff6bff1"
      },
      "occurrenceDateTime": "2025-01-07T00:00:00.000+00:00",
      "recorded": "2025-01-02T00:00:00.000+00:00",
      "primarySource": true
    },
    "request": {
      "method": "PUT",
      "url": "Immunization/0b304ad8-d9ea-42e7-90dd-a235c5c194ee"
    }
  }, {
    "fullUrl": "https://madie.cms.gov/Immunization/30f200cf-45c5-46f4-b1a7-7abc5268e929",
    "resource": {
      "resourceType": "Immunization",
      "id": "30f200cf-45c5-46f4-b1a7-7abc5268e929",
      "meta": {
        "profile": [ "http://hl7.org/fhir/us/qicore/StructureDefinition/qicore-immunization" ]
      },
      "status": "completed",
      "vaccineCode": {
        "coding": [ {
          "system": "http://hl7.org/fhir/sid/cvx",
          "code": "153",
          "display": "Influenza, injectable, MDCK, preservative free"
        } ]
      },
      "patient": {
        "reference": "Patient/0f30094a-ce13-4640-a481-919f9ff6bff1"
      },
      "occurrenceDateTime": "2025-01-02T00:00:00.000+00:00",
      "recorded": "2025-01-02T00:00:00.000+00:00",
      "primarySource": true
    },
    "request": {
      "method": "PUT",
      "url": "Immunization/30f200cf-45c5-46f4-b1a7-7abc5268e929"
    }
  }, {
    "fullUrl": "https://madie.cms.gov/Immunization/c8b39c58-e753-4080-996f-790da04c5bc1",
    "resource": {
      "resourceType": "Immunization",
      "id": "c8b39c58-e753-4080-996f-790da04c5bc1",
      "meta": {
        "profile": [ "http://hl7.org/fhir/us/qicore/StructureDefinition/qicore-immunization" ]
      },
      "status": "completed",
      "vaccineCode": {
        "coding": [ {
          "system": "http://hl7.org/fhir/sid/cvx",
          "code": "153",
          "display": "Influenza, injectable, MDCK, preservative free"
        } ]
      },
      "patient": {
        "reference": "Patient/0f30094a-ce13-4640-a481-919f9ff6bff1"
      },
      "occurrenceDateTime": "2025-01-10T00:00:00.000+00:00",
      "recorded": "2025-01-02T00:00:00.000+00:00",
      "primarySource": true
    },
    "request": {
      "method": "PUT",
      "url": "Immunization/c8b39c58-e753-4080-996f-790da04c5bc1"
    }
  }, {
    "fullUrl": "https://madie.cms.gov/MeasureReport/dec78003-6dbf-4014-94ae-c169f70b2063",
    "resource": {
      "resourceType": "MeasureReport",
      "id": "dec78003-6dbf-4014-94ae-c169f70b2063",
      "meta": {
        "profile": [ "http://hl7.org/fhir/us/cqfmeasures/StructureDefinition/test-case-cqfm" ]
      },
      "contained": [ {
        "resourceType": "Parameters",
        "id": "0ed8900e-0b82-4fe6-8bc4-dba0aa1e2ea7-parameters",
        "parameter": [ {
          "name": "subject",
          "valueString": "0f30094a-ce13-4640-a481-919f9ff6bff1"
        } ]
      } ],
      "extension": [ {
        "url": "http://hl7.org/fhir/StructureDefinition/cqf-inputParameters",
        "valueReference": {
          "reference": "#0ed8900e-0b82-4fe6-8bc4-dba0aa1e2ea7-parameters"
        }
      }, {
        "url": "http://hl7.org/fhir/us/cqfmeasures/StructureDefinition/cqfm-testCaseDescription",
        "valueMarkdown": "CVX 146 meets DTap and other vaccines. Testing condition encounter diagnosis to meet 100% coverage."
      } ],
      "modifierExtension": [ {
        "url": "http://hl7.org/fhir/us/cqfmeasures/StructureDefinition/cqfm-isTestCase",
        "valueBoolean": true
      } ],
      "status": "complete",
      "type": "individual",
      "measure": "https://madie.cms.gov/Measure/CMS117FHIRChildImmunStatus",
      "period": {
        "start": "2026-01-01",
        "end": "2026-12-31"
      },
      "group": [ {
        "id": "Group_1",
        "population": [ {
          "id": "InitialPopulation_1",
          "code": {
            "coding": [ {
              "system": "http://terminology.hl7.org/CodeSystem/measure-population",
              "code": "initial-population",
              "display": "Initial Population"
            } ]
          },
          "count": 1
        }, {
          "id": "Denominator_1",
          "code": {
            "coding": [ {
              "system": "http://terminology.hl7.org/CodeSystem/measure-population",
              "code": "denominator",
              "display": "Denominator"
            } ]
          },
          "count": 1
        }, {
          "id": "DenominatorExclusion_1",
          "code": {
            "coding": [ {
              "system": "http://terminology.hl7.org/CodeSystem/measure-population",
              "code": "denominator-exclusion",
              "display": "Denominator Exclusion"
            } ]
          },
          "count": 0
        }, {
          "id": "Numerator_1",
          "code": {
            "coding": [ {
              "system": "http://terminology.hl7.org/CodeSystem/measure-population",
              "code": "numerator",
              "display": "Numerator"
            } ]
          },
          "count": 1
        } ],
        "measureScore": {
          "value": 1.0
        }
      } ],
      "evaluatedResource": [ {
        "reference": "Patient/0f30094a-ce13-4640-a481-919f9ff6bff1"
      }, {
        "reference": "Encounter/144fd280-4265-4f6f-9add-0ac1955f29d9"
      }, {
        "reference": "Immunization/fd84e7fa-141b-4fac-a020-b54580aa382f"
      }, {
        "reference": "Immunization/35fdee7e-3ac4-4556-9bb1-0bcd20dbc09b"
      }, {
        "reference": "Immunization/70703950-b77e-4042-b129-1f71a21a5eda"
      }, {
        "reference": "Immunization/e07ec215-2c40-44b8-b14c-84fe187cee02"
      }, {
        "reference": "Immunization/957488ac-ddb4-4248-ae8c-1aedcba01d33"
      }, {
        "reference": "Immunization/4798b825-a0c8-421d-8490-e77029f0d9ea"
      }, {
        "reference": "Immunization/6af0cbbb-ed95-467c-b740-4267cf902dca"
      }, {
        "reference": "Immunization/bed18cf8-bfe3-419a-8884-bf2bd026865d"
      }, {
        "reference": "Immunization/e7068245-2145-4040-8044-6120004e83f5"
      }, {
        "reference": "Immunization/145fd683-2366-4ede-8d6f-e6bebf30e8c6"
      }, {
        "reference": "Immunization/a93fc87c-b659-47a6-9ddd-529386b271b6"
      }, {
        "reference": "Immunization/883e9ddf-681d-49cd-a7dc-2b721d8ac627"
      }, {
        "reference": "Immunization/8216d22e-9053-4779-b390-28d39d080a7f"
      }, {
        "reference": "Immunization/1939426c-3cee-451f-8a34-5ac962658ebb"
      }, {
        "reference": "Immunization/87976137-1731-44e9-bf06-01ef46c7b3b5"
      }, {
        "reference": "Immunization/9f6bb255-e1fd-4138-a372-d7176d6878d2"
      }, {
        "reference": "Immunization/782fab18-6855-4812-b9bb-5fb66ccb85a3"
      }, {
        "reference": "Immunization/9f46a81d-614e-465a-b554-f1a91d5c5c7e"
      }, {
        "reference": "Immunization/c01e7f5f-abed-4ee0-8bdc-1743c20005a6"
      }, {
        "reference": "Immunization/5dd03162-b1ec-4ad3-ae2d-8199fe45ae7c"
      }, {
        "reference": "Immunization/994f26cc-f9bc-4a73-af7e-3dc75a467c47"
      }, {
        "reference": "Immunization/0b304ad8-d9ea-42e7-90dd-a235c5c194ee"
      }, {
        "reference": "Immunization/30f200cf-45c5-46f4-b1a7-7abc5268e929"
      }, {
        "reference": "Immunization/c8b39c58-e753-4080-996f-790da04c5bc1"
      } ]
    },
    "request": {
      "method": "PUT",
      "url": "MeasureReport/dec78003-6dbf-4014-94ae-c169f70b2063"
    }
  } ]
}