{
  "resourceType": "Bundle",
  "id": "62f66a8b5efef5272905e715",
  "type": "collection",
  "entry": [ {
    "fullUrl": "https://madie.cms.gov/Patient/be498e62-5ef2-47fa-8127-dfc5a7eb6ac9",
    "resource": {
      "resourceType": "Patient",
      "id": "be498e62-5ef2-47fa-8127-dfc5a7eb6ac9",
      "meta": {
        "profile": [ "http://hl7.org/fhir/us/qicore/StructureDefinition/qicore-patient" ]
      },
      "extension": [ {
        "url": "http://hl7.org/fhir/us/core/StructureDefinition/us-core-race",
        "extension": [ {
          "url": "ombCategory",
          "valueCoding": {
            "system": "urn:oid:2.16.840.1.113883.6.238",
            "code": "1002-5",
            "display": "American Indian or Alaska Native",
            "userSelected": true
          }
        }, {
          "url": "text",
          "valueString": "American Indian or Alaska Native"
        } ]
      }, {
        "url": "http://hl7.org/fhir/us/core/StructureDefinition/us-core-ethnicity",
        "extension": [ {
          "url": "ombCategory",
          "valueCoding": {
            "system": "urn:oid:2.16.840.1.113883.6.238",
            "code": "2135-2",
            "display": "Hispanic or Latino",
            "userSelected": true
          }
        }, {
          "url": "text",
          "valueString": "Hispanic or Latino"
        } ]
      }, {
        "url": "http://hl7.org/fhir/us/core/StructureDefinition/us-core-sex",
        "valueCode": "248153007"
      } ],
      "identifier": [ {
        "type": {
          "coding": [ {
            "system": "http://terminology.hl7.org/CodeSystem/v2-0203",
            "code": "MR"
          } ]
        },
        "system": "https://bonnie-fhir.healthit.gov/",
        "value": "62f66a8b5efef5272905e715"
      } ],
      "name": [ {
        "family": "IPFail",
        "given": [ "11yoDepressionScreening" ]
      } ],
      "gender": "male",
      "birthDate": "2014-01-03"
    }
  }, {
    "fullUrl": "https://madie.cms.gov/Coverage/d196f05f-5847-413a-9ea1-158749bed3cc",
    "resource": {
      "resourceType": "Coverage",
      "id": "d196f05f-5847-413a-9ea1-158749bed3cc",
      "meta": {
        "profile": [ "http://hl7.org/fhir/us/qicore/StructureDefinition/qicore-coverage" ]
      },
      "status": "active",
      "type": {
        "coding": [ {
          "system": "https://nahdo.org/sopt",
          "code": "13",
          "display": "Medicare Hospice",
          "userSelected": true
        } ]
      },
      "subscriberId": "123456789",
      "beneficiary": {
        "reference": "Patient/be498e62-5ef2-47fa-8127-dfc5a7eb6ac9"
      },
      "relationship": {
        "coding": [ {
          "system": "http://terminology.hl7.org/CodeSystem/subscriber-relationship",
          "code": "self",
          "display": "Self",
          "userSelected": true
        } ]
      },
      "period": {
        "start": "2021-08-12T08:00:00.000Z",
        "end": "2026-08-12T08:15:00.000Z"
      },
      "payor": [ {
        "reference": "Organization/a6426063-d115-4684-8bef-d1cb0d822f73"
      } ]
    }
  }, {
    "fullUrl": "https://madie.cms.gov/Encounter/dc77a9cc-cc03-4483-bb97-41eaeeb2f552",
    "resource": {
      "resourceType": "Encounter",
      "id": "dc77a9cc-cc03-4483-bb97-41eaeeb2f552",
      "meta": {
        "profile": [ "http://hl7.org/fhir/us/qicore/StructureDefinition/qicore-encounter" ]
      },
      "status": "finished",
      "class": {
        "system": "http://terminology.hl7.org/CodeSystem/v3-ActCode",
        "code": "AMB",
        "display": "ambulatory"
      },
      "type": [ {
        "coding": [ {
          "system": "http://snomed.info/sct",
          "code": "10197000",
          "display": "Psychiatric interview and evaluation (procedure)",
          "userSelected": true
        } ]
      } ],
      "subject": {
        "reference": "Patient/be498e62-5ef2-47fa-8127-dfc5a7eb6ac9"
      },
      "period": {
        "start": "2026-08-12T08:00:00.000Z",
        "end": "2026-08-12T08:15:00.000Z"
      }
    }
  }, {
    "fullUrl": "https://madie.cms.gov/MeasureReport/e635b1a3-f61c-40ad-80a3-139cec669283",
    "resource": {
      "resourceType": "MeasureReport",
      "id": "e635b1a3-f61c-40ad-80a3-139cec669283",
      "meta": {
        "profile": [ "http://hl7.org/fhir/us/cqfmeasures/StructureDefinition/test-case-cqfm" ]
      },
      "contained": [ {
        "resourceType": "Parameters",
        "id": "ba3ce7a5-3e3a-4c2f-afe2-891fdea456d5-parameters",
        "parameter": [ {
          "name": "subject",
          "valueString": "be498e62-5ef2-47fa-8127-dfc5a7eb6ac9"
        } ]
      } ],
      "extension": [ {
        "url": "http://hl7.org/fhir/StructureDefinition/cqf-inputParameters",
        "valueReference": {
          "reference": "#ba3ce7a5-3e3a-4c2f-afe2-891fdea456d5-parameters"
        }
      }, {
        "url": "http://hl7.org/fhir/us/cqfmeasures/StructureDefinition/cqfm-testCaseDescription",
        "valueMarkdown": "11yoDepressionScreening - 11yr, 11mo, 30days"
      } ],
      "modifierExtension": [ {
        "url": "http://hl7.org/fhir/us/cqfmeasures/StructureDefinition/cqfm-isTestCase",
        "valueBoolean": true
      } ],
      "status": "complete",
      "type": "individual",
      "measure": "https://madie.cms.gov/Measure/CMS2FHIRPCSDepScreenAndFollowUp",
      "period": {
        "start": "2026-01-01",
        "end": "2026-12-31"
      },
      "group": [ {
        "id": "Group_1",
        "population": [ {
          "id": "InitialPopulation_1",
          "code": {
            "coding": [ {
              "system": "http://terminology.hl7.org/CodeSystem/measure-population",
              "code": "initial-population",
              "display": "Initial Population"
            } ]
          },
          "count": 0
        }, {
          "id": "Denominator_1",
          "code": {
            "coding": [ {
              "system": "http://terminology.hl7.org/CodeSystem/measure-population",
              "code": "denominator",
              "display": "Denominator"
            } ]
          },
          "count": 0
        }, {
          "id": "DenominatorExclusion_1",
          "code": {
            "coding": [ {
              "system": "http://terminology.hl7.org/CodeSystem/measure-population",
              "code": "denominator-exclusion",
              "display": "Denominator Exclusion"
            } ]
          },
          "count": 0
        }, {
          "id": "Numerator_1",
          "code": {
            "coding": [ {
              "system": "http://terminology.hl7.org/CodeSystem/measure-population",
              "code": "numerator",
              "display": "Numerator"
            } ]
          },
          "count": 0
        }, {
          "id": "DenominatorException_1",
          "code": {
            "coding": [ {
              "system": "http://terminology.hl7.org/CodeSystem/measure-population",
              "code": "denominator-exception",
              "display": "Denominator Exception"
            } ]
          },
          "count": 0
        } ],
        "measureScore": {
          "value": 1.0
        }
      } ],
      "evaluatedResource": [ {
        "reference": "Patient/be498e62-5ef2-47fa-8127-dfc5a7eb6ac9"
      }, {
        "reference": "Coverage/d196f05f-5847-413a-9ea1-158749bed3cc"
      }, {
        "reference": "Encounter/dc77a9cc-cc03-4483-bb97-41eaeeb2f552"
      } ]
    }
  } ]
}