{
  "resourceType": "Bundle",
  "id": "62fbf0eebf5132f90ee35d42",
  "type": "collection",
  "entry": [ {
    "fullUrl": "https://madie.cms.gov/Patient/405d4940-7ab2-4d26-b55f-3c27e07eba33",
    "resource": {
      "resourceType": "Patient",
      "id": "405d4940-7ab2-4d26-b55f-3c27e07eba33",
      "meta": {
        "profile": [ "http://hl7.org/fhir/us/qicore/StructureDefinition/qicore-patient" ]
      },
      "extension": [ {
        "url": "http://hl7.org/fhir/us/core/StructureDefinition/us-core-race",
        "extension": [ {
          "url": "ombCategory",
          "valueCoding": {
            "system": "urn:oid:2.16.840.1.113883.6.238",
            "code": "2106-3",
            "display": "White",
            "userSelected": true
          }
        }, {
          "url": "text",
          "valueString": "White"
        } ]
      }, {
        "url": "http://hl7.org/fhir/us/core/StructureDefinition/us-core-ethnicity",
        "extension": [ {
          "url": "ombCategory",
          "valueCoding": {
            "system": "urn:oid:2.16.840.1.113883.6.238",
            "code": "2186-5",
            "display": "Not Hispanic or Latino",
            "userSelected": true
          }
        }, {
          "url": "text",
          "valueString": "Not Hispanic or Latino"
        } ]
      } ],
      "identifier": [ {
        "type": {
          "coding": [ {
            "system": "http://terminology.hl7.org/CodeSystem/v2-0203",
            "code": "MR"
          } ]
        },
        "system": "https://bonnie-fhir.healthit.gov/",
        "value": "62fbf0eebf5132f90ee35d42"
      } ],
      "name": [ {
        "family": "NUMERFail",
        "given": [ "LowBMIAndConditionEndsBeforeInterventionPerformed (1)" ]
      } ],
      "gender": "unknown",
      "birthDate": "1957-11-07"
    }
  }, {
    "fullUrl": "https://madie.cms.gov/Encounter/e7ee7a78-fcfd-4b3f-a2bf-3cab9586aa5c",
    "resource": {
      "resourceType": "Encounter",
      "id": "e7ee7a78-fcfd-4b3f-a2bf-3cab9586aa5c",
      "meta": {
        "profile": [ "http://hl7.org/fhir/us/qicore/StructureDefinition/qicore-encounter" ]
      },
      "status": "finished",
      "class": {
        "system": "http://terminology.hl7.org/CodeSystem/v3-ActCode",
        "code": "AMB",
        "display": "ambulatory"
      },
      "type": [ {
        "coding": [ {
          "system": "http://snomed.info/sct",
          "code": "10197000",
          "display": "Psychiatric interview and evaluation (procedure)",
          "userSelected": true
        } ]
      } ],
      "subject": {
        "reference": "Patient/405d4940-7ab2-4d26-b55f-3c27e07eba33"
      },
      "period": {
        "start": "2026-12-31T23:30:00.000+00:00",
        "end": "2026-12-31T23:59:00.000+00:00"
      }
    }
  }, {
    "fullUrl": "https://madie.cms.gov/Observation/93875fa9-a57d-4cee-967f-fe50da4e30ca",
    "resource": {
      "resourceType": "Observation",
      "id": "93875fa9-a57d-4cee-967f-fe50da4e30ca",
      "meta": {
        "profile": [ "http://hl7.org/fhir/us/core/StructureDefinition/us-core-bmi" ]
      },
      "status": "final",
      "category": [ {
        "coding": [ {
          "system": "http://terminology.hl7.org/CodeSystem/observation-category",
          "code": "vital-signs",
          "display": "Vital Signs"
        } ]
      } ],
      "code": {
        "coding": [ {
          "system": "http://loinc.org",
          "code": "39156-5",
          "display": "Body mass index (BMI) [Ratio]",
          "userSelected": true
        } ]
      },
      "subject": {
        "reference": "Patient/405d4940-7ab2-4d26-b55f-3c27e07eba33"
      },
      "effectiveDateTime": "2026-12-31T08:05:00.000+00:00",
      "valueQuantity": {
        "value": 15.0,
        "unit": "kg/m2",
        "system": "http://unitsofmeasure.org",
        "code": "kg/m2"
      }
    }
  }, {
    "fullUrl": "https://madie.cms.gov/Procedure/dfc16cbb-46d0-4e88-b1c6-42aadfee81fb",
    "resource": {
      "resourceType": "Procedure",
      "id": "dfc16cbb-46d0-4e88-b1c6-42aadfee81fb",
      "meta": {
        "profile": [ "http://hl7.org/fhir/us/qicore/StructureDefinition/qicore-procedure" ]
      },
      "extension": [ {
        "url": "http://hl7.org/fhir/us/qicore/StructureDefinition/qicore-recorded",
        "valueDateTime": "2026-12-31T23:59:00.000+00:00"
      } ],
      "status": "completed",
      "code": {
        "coding": [ {
          "system": "http://snomed.info/sct",
          "code": "182922004",
          "display": "Dietary regime (regime/therapy)",
          "userSelected": true
        } ]
      },
      "subject": {
        "reference": "Patient/405d4940-7ab2-4d26-b55f-3c27e07eba33"
      },
      "performedDateTime": "2026-12-31T23:59:00.000+00:00"
    }
  }, {
    "fullUrl": "https://madie.cms.gov/Condition/3b2e9f82-d939-4e56-92fa-6fcfcda9d1dd",
    "resource": {
      "resourceType": "Condition",
      "id": "3b2e9f82-d939-4e56-92fa-6fcfcda9d1dd",
      "clinicalStatus": {
        "coding": [ {
          "system": "http://terminology.hl7.org/CodeSystem/condition-clinical",
          "code": "inactive",
          "display": "inActive",
          "userSelected": true
        } ]
      },
      "code": {
        "coding": [ {
          "system": "http://snomed.info/sct",
          "code": "248342006",
          "display": "Underweight (finding)",
          "userSelected": true
        } ]
      },
      "subject": {
        "reference": "Patient/405d4940-7ab2-4d26-b55f-3c27e07eba33"
      },
      "abatementPeriod": {
        "start": "2024-01-01T08:00:00.000+00:00",
        "end": "2026-08-15T23:59:00.000+00:00"
      }
    }
  }, {
    "fullUrl": "https://madie.cms.gov/Coverage/351b592b-72ae-4404-9b4e-c03771bd9c4a",
    "resource": {
      "resourceType": "Coverage",
      "id": "351b592b-72ae-4404-9b4e-c03771bd9c4a",
      "meta": {
        "profile": [ "http://hl7.org/fhir/us/qicore/StructureDefinition/qicore-coverage" ]
      },
      "status": "active",
      "subscriberId": "123456",
      "beneficiary": {
        "reference": "Patient/405d4940-7ab2-4d26-b55f-3c27e07eba33"
      },
      "relationship": {
        "coding": [ {
          "system": "http://terminology.hl7.org/CodeSystem/subscriber-relationship",
          "code": "self",
          "display": "Self",
          "userSelected": true
        } ]
      },
      "payor": [ {
        "reference": "Organization/f69036a0-3725-4e2d-9eec-4d4b7efe3a1a"
      } ]
    }
  }, {
    "fullUrl": "https://madie.cms.gov/Organization/f69036a0-3725-4e2d-9eec-4d4b7efe3a1a",
    "resource": {
      "resourceType": "Organization",
      "id": "f69036a0-3725-4e2d-9eec-4d4b7efe3a1a",
      "meta": {
        "profile": [ "http://hl7.org/fhir/us/qicore/StructureDefinition/qicore-organization" ]
      },
      "identifier": [ {
        "use": "temp",
        "system": "urn:oid:2.16.840.1.113883.4.4",
        "value": "21-3259825"
      } ],
      "active": true,
      "type": [ {
        "coding": [ {
          "system": "http://terminology.hl7.org/CodeSystem/organization-type",
          "code": "pay",
          "display": "Payer"
        } ]
      } ],
      "name": "Blue Cross Blue Shield of Texas",
      "telecom": [ {
        "system": "phone",
        "value": "(+1) 972-766-6900"
      } ],
      "address": [ {
        "use": "billing",
        "type": "postal",
        "line": [ "P.O. Box 660044" ],
        "city": "Dallas",
        "state": "TX",
        "postalCode": "75266-0044",
        "country": "USA"
      } ]
    }
  }, {
    "fullUrl": "https://madie.cms.gov/MeasureReport/734faae4-3bf4-4920-8d05-32f48d94061f",
    "resource": {
      "resourceType": "MeasureReport",
      "id": "734faae4-3bf4-4920-8d05-32f48d94061f",
      "meta": {
        "profile": [ "http://hl7.org/fhir/us/cqfmeasures/StructureDefinition/test-case-cqfm" ]
      },
      "contained": [ {
        "resourceType": "Parameters",
        "id": "c04b737e-c1b2-4ea4-ac80-1f99531dade4-parameters",
        "parameter": [ {
          "name": "subject",
          "valueString": "405d4940-7ab2-4d26-b55f-3c27e07eba33"
        } ]
      } ],
      "extension": [ {
        "url": "http://hl7.org/fhir/StructureDefinition/cqf-inputParameters",
        "valueReference": {
          "reference": "#c04b737e-c1b2-4ea4-ac80-1f99531dade4-parameters"
        }
      }, {
        "url": "http://hl7.org/fhir/us/cqfmeasures/StructureDefinition/cqfm-testCaseDescription",
        "valueMarkdown": "Low BMI with intervention performed using condition but condition prevalence period ends before the intervention is performed. "
      } ],
      "modifierExtension": [ {
        "url": "http://hl7.org/fhir/us/cqfmeasures/StructureDefinition/cqfm-isTestCase",
        "valueBoolean": true
      } ],
      "status": "complete",
      "type": "individual",
      "measure": "https://madie.cms.gov/Measure/CMS69FHIRPCSBMIScreenAndFollowUp",
      "period": {
        "start": "2026-01-01",
        "end": "2026-12-31"
      },
      "group": [ {
        "id": "Group_1",
        "population": [ {
          "id": "InitialPopulation_1",
          "code": {
            "coding": [ {
              "system": "http://terminology.hl7.org/CodeSystem/measure-population",
              "code": "initial-population",
              "display": "Initial Population"
            } ]
          },
          "count": 1
        }, {
          "id": "Denominator_1",
          "code": {
            "coding": [ {
              "system": "http://terminology.hl7.org/CodeSystem/measure-population",
              "code": "denominator",
              "display": "Denominator"
            } ]
          },
          "count": 1
        }, {
          "id": "DenominatorExclusion_1",
          "code": {
            "coding": [ {
              "system": "http://terminology.hl7.org/CodeSystem/measure-population",
              "code": "denominator-exclusion",
              "display": "Denominator Exclusion"
            } ]
          },
          "count": 0
        }, {
          "id": "Numerator_1",
          "code": {
            "coding": [ {
              "system": "http://terminology.hl7.org/CodeSystem/measure-population",
              "code": "numerator",
              "display": "Numerator"
            } ]
          },
          "count": 0
        }, {
          "id": "DenominatorException_1",
          "code": {
            "coding": [ {
              "system": "http://terminology.hl7.org/CodeSystem/measure-population",
              "code": "denominator-exception",
              "display": "Denominator Exception"
            } ]
          },
          "count": 0
        } ],
        "measureScore": {
          "value": 1.0
        }
      } ],
      "evaluatedResource": [ {
        "reference": "Patient/405d4940-7ab2-4d26-b55f-3c27e07eba33"
      }, {
        "reference": "Encounter/e7ee7a78-fcfd-4b3f-a2bf-3cab9586aa5c"
      }, {
        "reference": "Observation/93875fa9-a57d-4cee-967f-fe50da4e30ca"
      }, {
        "reference": "Procedure/dfc16cbb-46d0-4e88-b1c6-42aadfee81fb"
      }, {
        "reference": "Condition/3b2e9f82-d939-4e56-92fa-6fcfcda9d1dd"
      }, {
        "reference": "Coverage/351b592b-72ae-4404-9b4e-c03771bd9c4a"
      }, {
        "reference": "Organization/f69036a0-3725-4e2d-9eec-4d4b7efe3a1a"
      } ]
    }
  } ]
}