{
  "resourceType": "Bundle",
  "id": "63ec09a5ccb3770120feaa17",
  "type": "transaction",
  "entry": [ {
    "fullUrl": "https://madie.cms.gov/Patient/afd5733f-e9eb-4a17-9be7-783850a132fc",
    "resource": {
      "resourceType": "Patient",
      "id": "afd5733f-e9eb-4a17-9be7-783850a132fc",
      "meta": {
        "profile": [ "http://hl7.org/fhir/us/qicore/StructureDefinition/qicore-patient" ]
      },
      "text": {
        "status": "generated",
        "div": "<div xmlns=\"http://www.w3.org/1999/xhtml\"><div class=\"hapiHeaderText\">GT24beforeButLT24after <b>WEIGHTPASS </b></div><table class=\"hapiPropertyTable\"><tbody><tr><td>Identifier</td><td>af4f1b60304c2dfd571a63f06371ced6a910caaabd39580cdcebe7683e429596</td></tr><tr><td>Date of birth</td><td><span>21 June 1947</span></td></tr></tbody></table></div>"
      },
      "extension": [ {
        "url": "http://hl7.org/fhir/us/core/StructureDefinition/us-core-race",
        "extension": [ {
          "url": "ombCategory",
          "valueCoding": {
            "system": "urn:oid:2.16.840.1.113883.6.238",
            "code": "1002-5",
            "display": "American Indian or Alaska Native",
            "userSelected": true
          }
        }, {
          "url": "text",
          "valueString": "American Indian or Alaska Native"
        } ]
      }, {
        "url": "http://hl7.org/fhir/us/core/StructureDefinition/us-core-ethnicity",
        "extension": [ {
          "url": "ombCategory",
          "valueCoding": {
            "system": "urn:oid:2.16.840.1.113883.6.238",
            "code": "2186-5",
            "display": "Not Hispanic or Latino",
            "userSelected": true
          }
        }, {
          "url": "text",
          "valueString": "Not Hispanic or Latino"
        } ]
      } ],
      "identifier": [ {
        "type": {
          "coding": [ {
            "system": "http://terminology.hl7.org/CodeSystem/v2-0203",
            "code": "MR"
          } ]
        },
        "system": "https://bonnie-fhir.healthit.gov/",
        "value": "63ec09a5ccb3770120feaa17"
      } ],
      "active": true,
      "name": [ {
        "use": "usual",
        "family": "WeightPass",
        "given": [ "Weight1MinBeforeand1MinAfterEncounterStart" ]
      } ],
      "gender": "male",
      "birthDate": "1948-06-21"
    },
    "request": {
      "method": "PUT",
      "url": "Patient/afd5733f-e9eb-4a17-9be7-783850a132fc"
    }
  }, {
    "fullUrl": "https://madie.cms.gov/Encounter/95fe0bf0-29a7-4842-9284-c77935278e09",
    "resource": {
      "resourceType": "Encounter",
      "id": "95fe0bf0-29a7-4842-9284-c77935278e09",
      "meta": {
        "profile": [ "http://hl7.org/fhir/us/qicore/StructureDefinition/qicore-encounter" ]
      },
      "status": "finished",
      "class": {
        "system": "http://terminology.hl7.org/CodeSystem/v3-ActCode",
        "code": "IMP",
        "display": "inpatient encounter",
        "userSelected": true
      },
      "type": [ {
        "coding": [ {
          "system": "http://snomed.info/sct",
          "code": "183452005"
        } ]
      } ],
      "subject": {
        "reference": "Patient/afd5733f-e9eb-4a17-9be7-783850a132fc"
      },
      "period": {
        "start": "2026-07-21T08:00:00.000+00:00",
        "end": "2026-08-18T08:15:00.000+00:00"
      }
    },
    "request": {
      "method": "PUT",
      "url": "Encounter/95fe0bf0-29a7-4842-9284-c77935278e09"
    }
  }, {
    "fullUrl": "https://madie.cms.gov/Coverage/88194a98-7f58-45db-873a-8cd20af2a0eb",
    "resource": {
      "resourceType": "Coverage",
      "id": "88194a98-7f58-45db-873a-8cd20af2a0eb",
      "meta": {
        "profile": [ "http://hl7.org/fhir/us/qicore/StructureDefinition/qicore-coverage" ]
      },
      "status": "active",
      "type": {
        "coding": [ {
          "system": "https://nahdo.org/sopt",
          "version": "1.0.1",
          "code": "1",
          "display": "MEDICARE",
          "userSelected": true
        } ]
      },
      "subscriberId": "AB9876",
      "beneficiary": {
        "reference": "Patient/afd5733f-e9eb-4a17-9be7-783850a132fc"
      },
      "relationship": {
        "coding": [ {
          "system": "http://terminology.hl7.org/CodeSystem/subscriber-relationship",
          "code": "self"
        } ]
      },
      "payor": [ {
        "reference": "Organization/e8796e87-f496-4231-987d-0465d1ca6ec8"
      } ]
    },
    "request": {
      "method": "PUT",
      "url": "Coverage/88194a98-7f58-45db-873a-8cd20af2a0eb"
    }
  }, {
    "fullUrl": "https://madie.cms.gov/Observation/68681307-1850-49db-869c-665620437db5",
    "resource": {
      "resourceType": "Observation",
      "id": "68681307-1850-49db-869c-665620437db5",
      "meta": {
        "profile": [ "http://hl7.org/fhir/us/core/StructureDefinition/us-core-body-weight" ]
      },
      "status": "final",
      "category": [ {
        "coding": [ {
          "system": "http://terminology.hl7.org/CodeSystem/observation-category",
          "code": "vital-signs",
          "display": "Vital Signs",
          "userSelected": true
        } ]
      } ],
      "code": {
        "coding": [ {
          "system": "http://loinc.org",
          "code": "29463-7",
          "display": "Body weight"
        } ]
      },
      "subject": {
        "reference": "Patient/afd5733f-e9eb-4a17-9be7-783850a132fc"
      },
      "effectiveDateTime": "2026-07-21T07:59:00.000+00:00",
      "valueQuantity": {
        "value": 170,
        "unit": "[lb_av]",
        "system": "http://unitsofmeasure.org",
        "code": "[lb_av]"
      }
    },
    "request": {
      "method": "PUT",
      "url": "Observation/68681307-1850-49db-869c-665620437db5"
    }
  }, {
    "fullUrl": "https://madie.cms.gov/Organization/e8796e87-f496-4231-987d-0465d1ca6ec8",
    "resource": {
      "resourceType": "Organization",
      "id": "e8796e87-f496-4231-987d-0465d1ca6ec8",
      "meta": {
        "profile": [ "http://hl7.org/fhir/us/qicore/StructureDefinition/qicore-organization" ]
      },
      "identifier": [ {
        "use": "temp",
        "system": "urn:oid:2.16.840.1.113883.4.4",
        "value": "21-3259825"
      } ],
      "active": true,
      "type": [ {
        "coding": [ {
          "system": "http://terminology.hl7.org/CodeSystem/organization-type",
          "code": "pay",
          "display": "Payer"
        } ]
      } ],
      "name": "Blue Cross Blue Shield of Texas",
      "telecom": [ {
        "system": "phone",
        "value": "(+1) 972-766-6900"
      } ],
      "address": [ {
        "use": "billing",
        "type": "postal",
        "line": [ "P.O. Box 660044" ],
        "city": "Dallas",
        "state": "TX",
        "postalCode": "75266-0044",
        "country": "USA"
      } ]
    },
    "request": {
      "method": "PUT",
      "url": "Organization/e8796e87-f496-4231-987d-0465d1ca6ec8"
    }
  }, {
    "fullUrl": "https://madie.cms.gov/Practitioner/85b298ed-d191-40ba-8226-f1fe3db8e5ca",
    "resource": {
      "resourceType": "Practitioner",
      "id": "85b298ed-d191-40ba-8226-f1fe3db8e5ca",
      "meta": {
        "profile": [ "http://hl7.org/fhir/us/qicore/StructureDefinition/qicore-practitioner" ]
      },
      "identifier": [ {
        "system": "http://hl7.org/fhir/sid/us-npi",
        "value": "0723660813"
      } ],
      "name": [ {
        "family": "Evil",
        "prefix": [ "Dr" ]
      } ]
    },
    "request": {
      "method": "PUT",
      "url": "Practitioner/85b298ed-d191-40ba-8226-f1fe3db8e5ca"
    }
  }, {
    "fullUrl": "https://madie.cms.gov/MeasureReport/bdc43d6c-a156-49df-b49f-dd878514bbe9",
    "resource": {
      "resourceType": "MeasureReport",
      "id": "bdc43d6c-a156-49df-b49f-dd878514bbe9",
      "meta": {
        "profile": [ "http://hl7.org/fhir/us/cqfmeasures/StructureDefinition/test-case-cqfm" ]
      },
      "contained": [ {
        "resourceType": "Parameters",
        "id": "ac8313e0-ddde-4fc3-b7b7-647222a83dd3-parameters",
        "parameter": [ {
          "name": "subject",
          "valueString": "afd5733f-e9eb-4a17-9be7-783850a132fc"
        } ]
      } ],
      "extension": [ {
        "url": "http://hl7.org/fhir/StructureDefinition/cqf-inputParameters",
        "valueReference": {
          "reference": "#ac8313e0-ddde-4fc3-b7b7-647222a83dd3-parameters"
        }
      }, {
        "url": "http://hl7.org/fhir/us/cqfmeasures/StructureDefinition/cqfm-testCaseDescription",
        "valueMarkdown": "Weight  1 minute before encounter starts."
      } ],
      "modifierExtension": [ {
        "url": "http://hl7.org/fhir/us/cqfmeasures/StructureDefinition/cqfm-isTestCase",
        "valueBoolean": true
      } ],
      "status": "complete",
      "type": "individual",
      "measure": "https://madie.cms.gov/Measure/CMSFHIR529HybridHospitalWideReadmission",
      "period": {
        "start": "2026-07-01",
        "end": "2027-06-30"
      },
      "group": [ {
        "id": "Group_1",
        "population": [ {
          "id": "InitialPopulation_1",
          "code": {
            "coding": [ {
              "system": "http://terminology.hl7.org/CodeSystem/measure-population",
              "code": "initial-population",
              "display": "Initial Population"
            } ]
          },
          "count": 1
        } ],
        "measureScore": {
          "value": 0.0
        }
      } ],
      "evaluatedResource": [ {
        "reference": "Patient/afd5733f-e9eb-4a17-9be7-783850a132fc"
      }, {
        "reference": "Encounter/95fe0bf0-29a7-4842-9284-c77935278e09"
      }, {
        "reference": "Coverage/88194a98-7f58-45db-873a-8cd20af2a0eb"
      }, {
        "reference": "Observation/68681307-1850-49db-869c-665620437db5"
      }, {
        "reference": "Organization/e8796e87-f496-4231-987d-0465d1ca6ec8"
      }, {
        "reference": "Practitioner/85b298ed-d191-40ba-8226-f1fe3db8e5ca"
      } ]
    },
    "request": {
      "method": "PUT",
      "url": "MeasureReport/bdc43d6c-a156-49df-b49f-dd878514bbe9"
    }
  } ]
}