{
  "resourceType": "Bundle",
  "id": "649b40feb1c9cd33c9f143b4",
  "type": "collection",
  "entry": [ {
    "fullUrl": "https://madie.cms.gov/Patient/0319c116-3664-46a8-94c9-798a6d61ca29",
    "resource": {
      "resourceType": "Patient",
      "id": "0319c116-3664-46a8-94c9-798a6d61ca29",
      "meta": {
        "profile": [ "http://hl7.org/fhir/us/qicore/StructureDefinition/qicore-patient" ]
      },
      "extension": [ {
        "url": "http://hl7.org/fhir/us/core/StructureDefinition/us-core-race",
        "extension": [ {
          "url": "ombCategory",
          "valueCoding": {
            "system": "urn:oid:2.16.840.1.113883.6.238",
            "code": "2054-5",
            "display": "Black or African American",
            "userSelected": true
          }
        }, {
          "url": "text",
          "valueString": "Black or African American"
        } ]
      }, {
        "url": "http://hl7.org/fhir/us/core/StructureDefinition/us-core-ethnicity",
        "extension": [ {
          "url": "ombCategory",
          "valueCoding": {
            "system": "urn:oid:2.16.840.1.113883.6.238",
            "code": "2186-5",
            "display": "Not Hispanic or Latino",
            "userSelected": true
          }
        }, {
          "url": "text",
          "valueString": "Not Hispanic or Latino"
        } ]
      } ],
      "identifier": [ {
        "type": {
          "coding": [ {
            "system": "http://terminology.hl7.org/CodeSystem/v2-0203",
            "code": "MR"
          } ]
        },
        "system": "https://bonnie-fhir.healthit.gov/",
        "value": "649b40feb1c9cd33c9f143b4"
      } ],
      "name": [ {
        "family": "IPFail",
        "given": [ "EncOnJan1AfterMP" ]
      } ],
      "gender": "female",
      "birthDate": "2001-02-04"
    }
  }, {
    "fullUrl": "https://madie.cms.gov/Condition/bb215058-d453-4038-a245-8c49cbc3ce85",
    "resource": {
      "resourceType": "Condition",
      "id": "bb215058-d453-4038-a245-8c49cbc3ce85",
      "meta": {
        "profile": [ "http://hl7.org/fhir/us/qicore/StructureDefinition/qicore-condition-problems-health-concerns" ]
      },
      "category": [ {
        "coding": [ {
          "system": "http://terminology.hl7.org/CodeSystem/condition-category",
          "code": "problem-list-item",
          "display": "Problem List Item"
        } ]
      } ],
      "code": {
        "coding": [ {
          "system": "http://hl7.org/fhir/sid/icd-9-cm",
          "version": "2013",
          "code": "042",
          "display": "Human immunodeficiency virus [HIV] disease",
          "userSelected": true
        }, {
          "system": "http://snomed.info/sct",
          "version": "http://snomed.info/sct/731000124108/version/20250301",
          "code": "165816005",
          "userSelected": true
        } ]
      },
      "subject": {
        "reference": "Patient/0319c116-3664-46a8-94c9-798a6d61ca29"
      },
      "onsetDateTime": "2018-09-28T08:00:00.000+00:00",
      "recordedDate": "2018-09-28T08:00:00.000+00:00"
    }
  }, {
    "fullUrl": "https://madie.cms.gov/Encounter/6af5f71b-d1ac-4059-8e51-72fb3def1f86",
    "resource": {
      "resourceType": "Encounter",
      "id": "6af5f71b-d1ac-4059-8e51-72fb3def1f86",
      "meta": {
        "profile": [ "http://hl7.org/fhir/us/qicore/StructureDefinition/qicore-encounter" ]
      },
      "status": "finished",
      "class": {
        "system": "http://terminology.hl7.org/CodeSystem/v3-ActCode",
        "code": "AMB",
        "display": "ambulatory"
      },
      "type": [ {
        "coding": [ {
          "system": "http://www.ama-assn.org/go/cpt",
          "code": "99429",
          "display": "Unlisted preventive medicine service",
          "userSelected": true
        } ]
      } ],
      "subject": {
        "reference": "Patient/0319c116-3664-46a8-94c9-798a6d61ca29"
      },
      "period": {
        "start": "2027-01-01T08:00:00.000+00:00",
        "end": "2027-01-01T08:30:00.000+00:00"
      }
    }
  }, {
    "fullUrl": "https://madie.cms.gov/Coverage/d4dbff95-72a1-4e1c-a708-d569174b4a07",
    "resource": {
      "resourceType": "Coverage",
      "id": "d4dbff95-72a1-4e1c-a708-d569174b4a07",
      "meta": {
        "profile": [ "http://hl7.org/fhir/us/qicore/StructureDefinition/qicore-coverage" ]
      },
      "status": "active",
      "subscriberId": "123456",
      "beneficiary": {
        "reference": "Patient/0319c116-3664-46a8-94c9-798a6d61ca29"
      },
      "relationship": {
        "coding": [ {
          "system": "http://terminology.hl7.org/CodeSystem/subscriber-relationship",
          "code": "self",
          "display": "Self"
        } ]
      },
      "payor": [ {
        "reference": "Organization/ce276ce2-5d30-4eeb-af8d-52e86aa30c05"
      } ]
    }
  }, {
    "fullUrl": "https://madie.cms.gov/Organization/ce276ce2-5d30-4eeb-af8d-52e86aa30c05",
    "resource": {
      "resourceType": "Organization",
      "id": "ce276ce2-5d30-4eeb-af8d-52e86aa30c05",
      "meta": {
        "profile": [ "http://hl7.org/fhir/us/qicore/StructureDefinition/qicore-organization" ]
      },
      "identifier": [ {
        "use": "temp",
        "system": "urn:oid:2.16.840.1.113883.4.4",
        "value": "21-3259825"
      } ],
      "active": true,
      "type": [ {
        "coding": [ {
          "system": "http://terminology.hl7.org/CodeSystem/organization-type",
          "code": "pay",
          "display": "Payer"
        } ]
      } ],
      "name": "Blue Cross Blue Shield of Texas",
      "telecom": [ {
        "system": "phone",
        "value": "(+1) 972-766-6900"
      } ],
      "address": [ {
        "use": "billing",
        "type": "postal",
        "line": [ "P.O. Box 660044" ],
        "city": "Dallas",
        "state": "TX",
        "postalCode": "75266-0044",
        "country": "USA"
      } ]
    }
  }, {
    "fullUrl": "https://madie.cms.gov/Practitioner/5126f8ef-4ea7-44f1-bb42-0a8e27ef5185",
    "resource": {
      "resourceType": "Practitioner",
      "id": "5126f8ef-4ea7-44f1-bb42-0a8e27ef5185",
      "meta": {
        "profile": [ "http://hl7.org/fhir/us/qicore/StructureDefinition/qicore-practitioner" ]
      },
      "identifier": [ {
        "system": "http://hl7.org/fhir/sid/us-npi",
        "value": "1689411712"
      } ],
      "name": [ {
        "family": "Evil",
        "prefix": [ "Dr" ]
      } ]
    }
  }, {
    "fullUrl": "https://madie.cms.gov/MeasureReport/10a2fe5a-95c6-4d81-b318-903bca1644fc",
    "resource": {
      "resourceType": "MeasureReport",
      "id": "10a2fe5a-95c6-4d81-b318-903bca1644fc",
      "meta": {
        "profile": [ "http://hl7.org/fhir/us/cqfmeasures/StructureDefinition/test-case-cqfm" ]
      },
      "contained": [ {
        "resourceType": "Parameters",
        "id": "28752236-43b8-4ff2-be02-a814155f017c-parameters",
        "parameter": [ {
          "name": "subject",
          "valueString": "0319c116-3664-46a8-94c9-798a6d61ca29"
        } ]
      } ],
      "extension": [ {
        "url": "http://hl7.org/fhir/StructureDefinition/cqf-inputParameters",
        "valueReference": {
          "reference": "#28752236-43b8-4ff2-be02-a814155f017c-parameters"
        }
      }, {
        "url": "http://hl7.org/fhir/us/cqfmeasures/StructureDefinition/cqfm-testCaseDescription",
        "valueMarkdown": "Patient is over 13 years old and has an encounter after the MP"
      } ],
      "modifierExtension": [ {
        "url": "http://hl7.org/fhir/us/cqfmeasures/StructureDefinition/cqfm-isTestCase",
        "valueBoolean": true
      } ],
      "status": "complete",
      "type": "individual",
      "measure": "https://madie.cms.gov/Measure/CMS1188FHIRHIVSTITesting",
      "period": {
        "start": "2026-01-01",
        "end": "2026-12-31"
      },
      "group": [ {
        "id": "Group_1",
        "population": [ {
          "id": "InitialPopulation_1",
          "code": {
            "coding": [ {
              "system": "http://terminology.hl7.org/CodeSystem/measure-population",
              "code": "initial-population",
              "display": "Initial Population"
            } ]
          },
          "count": 0
        }, {
          "id": "Denominator_1",
          "code": {
            "coding": [ {
              "system": "http://terminology.hl7.org/CodeSystem/measure-population",
              "code": "denominator",
              "display": "Denominator"
            } ]
          },
          "count": 0
        }, {
          "id": "Numerator_1",
          "code": {
            "coding": [ {
              "system": "http://terminology.hl7.org/CodeSystem/measure-population",
              "code": "numerator",
              "display": "Numerator"
            } ]
          },
          "count": 0
        } ],
        "measureScore": {
          "value": 1.0
        }
      } ],
      "evaluatedResource": [ {
        "reference": "Patient/0319c116-3664-46a8-94c9-798a6d61ca29"
      }, {
        "reference": "Condition/bb215058-d453-4038-a245-8c49cbc3ce85"
      }, {
        "reference": "Encounter/6af5f71b-d1ac-4059-8e51-72fb3def1f86"
      }, {
        "reference": "Coverage/d4dbff95-72a1-4e1c-a708-d569174b4a07"
      }, {
        "reference": "Organization/ce276ce2-5d30-4eeb-af8d-52e86aa30c05"
      }, {
        "reference": "Practitioner/5126f8ef-4ea7-44f1-bb42-0a8e27ef5185"
      } ]
    }
  } ]
}