{
  "resourceType": "Bundle",
  "id": "633b3f9e0968f80122503cc3",
  "type": "transaction",
  "entry": [ {
    "fullUrl": "https://madie.cms.gov/Patient/7eb80451-01f3-46c8-b5e1-6ed9896948d9",
    "resource": {
      "resourceType": "Patient",
      "id": "7eb80451-01f3-46c8-b5e1-6ed9896948d9",
      "meta": {
        "profile": [ "http://hl7.org/fhir/us/qicore/StructureDefinition/qicore-patient" ]
      },
      "text": {
        "status": "generated",
        "div": "<div xmlns=\"http://www.w3.org/1999/xhtml\"><div class=\"hapiHeaderText\">DelProcStart=EncStart <b>IPPASS </b></div><table class=\"hapiPropertyTable\"><tbody><tr><td>Date of birth</td><td><span>31 January 2004</span></td></tr></tbody></table></div>"
      },
      "extension": [ {
        "url": "http://hl7.org/fhir/us/core/StructureDefinition/us-core-race",
        "extension": [ {
          "url": "ombCategory",
          "valueCoding": {
            "system": "urn:oid:2.16.840.1.113883.6.238",
            "code": "1002-5",
            "display": "American Indian or Alaska Native",
            "userSelected": true
          }
        }, {
          "url": "text",
          "valueString": "American Indian or Alaska Native"
        } ]
      }, {
        "url": "http://hl7.org/fhir/us/core/StructureDefinition/us-core-ethnicity",
        "extension": [ {
          "url": "ombCategory",
          "valueCoding": {
            "system": "urn:oid:2.16.840.1.113883.6.238",
            "code": "2135-2",
            "display": "Hispanic or Latino",
            "userSelected": true
          }
        }, {
          "url": "text",
          "valueString": "Hispanic or Latino"
        } ]
      } ],
      "identifier": [ {
        "type": {
          "coding": [ {
            "system": "http://terminology.hl7.org/CodeSystem/v2-0203",
            "code": "MR"
          } ]
        },
        "system": "https://bonnie-fhir.healthit.gov/",
        "value": "633b3f9e0968f80122503cc3"
      } ],
      "active": true,
      "name": [ {
        "use": "usual",
        "family": "IPPass",
        "given": [ "DelProcStart_EncStart" ]
      } ],
      "gender": "female",
      "birthDate": "2005-01-31"
    },
    "request": {
      "method": "PUT",
      "url": "Patient/7eb80451-01f3-46c8-b5e1-6ed9896948d9"
    }
  }, {
    "fullUrl": "https://madie.cms.gov/Encounter/d3cee7ba-6660-4507-8c26-54605ebe2b92",
    "resource": {
      "resourceType": "Encounter",
      "id": "d3cee7ba-6660-4507-8c26-54605ebe2b92",
      "meta": {
        "profile": [ "http://hl7.org/fhir/us/qicore/StructureDefinition/qicore-encounter" ]
      },
      "status": "finished",
      "class": {
        "system": "http://terminology.hl7.org/CodeSystem/v3-ActCode",
        "code": "IMP",
        "display": "inpatient encounter"
      },
      "type": [ {
        "coding": [ {
          "system": "http://snomed.info/sct",
          "code": "183452005"
        } ]
      } ],
      "subject": {
        "reference": "Patient/7eb80451-01f3-46c8-b5e1-6ed9896948d9"
      },
      "period": {
        "start": "2026-02-01T08:00:00.000+00:00",
        "end": "2026-02-05T08:15:00.000+00:00"
      }
    },
    "request": {
      "method": "PUT",
      "url": "Encounter/d3cee7ba-6660-4507-8c26-54605ebe2b92"
    }
  }, {
    "fullUrl": "https://madie.cms.gov/Procedure/b8ae83c5-35ed-4325-8fa9-9494e7272b0c",
    "resource": {
      "resourceType": "Procedure",
      "id": "b8ae83c5-35ed-4325-8fa9-9494e7272b0c",
      "meta": {
        "profile": [ "http://hl7.org/fhir/us/qicore/StructureDefinition/qicore-procedure" ]
      },
      "extension": [ {
        "url": "http://hl7.org/fhir/us/qicore/StructureDefinition/qicore-recorded",
        "valueDateTime": "2014-04-05T13:35:00.000+00:00"
      } ],
      "status": "completed",
      "code": {
        "coding": [ {
          "system": "http://snomed.info/sct",
          "code": "10745001"
        } ]
      },
      "subject": {
        "reference": "Patient/7eb80451-01f3-46c8-b5e1-6ed9896948d9"
      },
      "performedPeriod": {
        "start": "2026-02-01T08:00:00.000+00:00",
        "end": "2026-02-05T08:15:00.000+00:00"
      }
    },
    "request": {
      "method": "PUT",
      "url": "Procedure/b8ae83c5-35ed-4325-8fa9-9494e7272b0c"
    }
  }, {
    "fullUrl": "https://madie.cms.gov/Coverage/395769f1-579f-45c0-a621-e3e23861db52",
    "resource": {
      "resourceType": "Coverage",
      "id": "395769f1-579f-45c0-a621-e3e23861db52",
      "meta": {
        "profile": [ "http://hl7.org/fhir/us/qicore/StructureDefinition/qicore-coverage" ]
      },
      "status": "active",
      "beneficiary": {
        "reference": "Patient/7eb80451-01f3-46c8-b5e1-6ed9896948d9"
      },
      "payor": [ {
        "reference": "Organization/9842e2f1-9944-457a-8e17-5fba0af89335"
      } ]
    },
    "request": {
      "method": "PUT",
      "url": "Coverage/395769f1-579f-45c0-a621-e3e23861db52"
    }
  }, {
    "fullUrl": "https://madie.cms.gov/Organization/9842e2f1-9944-457a-8e17-5fba0af89335",
    "resource": {
      "resourceType": "Organization",
      "id": "9842e2f1-9944-457a-8e17-5fba0af89335",
      "meta": {
        "profile": [ "http://hl7.org/fhir/us/qicore/StructureDefinition/qicore-organization" ]
      },
      "identifier": [ {
        "use": "temp",
        "system": "urn:oid:2.16.840.1.113883.4.4",
        "value": "21-3259825"
      } ],
      "active": true,
      "type": [ {
        "coding": [ {
          "system": "http://terminology.hl7.org/CodeSystem/organization-type",
          "code": "pay",
          "display": "Payer"
        } ]
      } ],
      "name": "Blue Cross Blue Shield of Texas",
      "telecom": [ {
        "system": "phone",
        "value": "(+1) 972-766-6900"
      } ],
      "address": [ {
        "use": "billing",
        "type": "postal",
        "line": [ "P.O. Box 660044" ],
        "city": "Dallas",
        "state": "TX",
        "postalCode": "75266-0044",
        "country": "USA"
      } ]
    },
    "request": {
      "method": "PUT",
      "url": "Organization/9842e2f1-9944-457a-8e17-5fba0af89335"
    }
  }, {
    "fullUrl": "https://madie.cms.gov/Practitioner/6d3c10da-b8be-4ae8-a990-134e30c797d7",
    "resource": {
      "resourceType": "Practitioner",
      "id": "6d3c10da-b8be-4ae8-a990-134e30c797d7",
      "identifier": [ {
        "system": "http://hl7.org/fhir/sid/us-npi",
        "value": "123456"
      } ],
      "name": [ {
        "family": "Evil",
        "prefix": [ "Dr" ]
      } ]
    },
    "request": {
      "method": "PUT",
      "url": "Practitioner/6d3c10da-b8be-4ae8-a990-134e30c797d7"
    }
  }, {
    "fullUrl": "https://madie.cms.gov/MeasureReport/609d0431-23b6-4025-af2a-a175512e2fb4",
    "resource": {
      "resourceType": "MeasureReport",
      "id": "609d0431-23b6-4025-af2a-a175512e2fb4",
      "meta": {
        "profile": [ "http://hl7.org/fhir/us/cqfmeasures/StructureDefinition/test-case-cqfm" ]
      },
      "contained": [ {
        "resourceType": "Parameters",
        "id": "f067f579-472f-4caa-a155-e40866e1c6a2-parameters",
        "parameter": [ {
          "name": "subject",
          "valueString": "7eb80451-01f3-46c8-b5e1-6ed9896948d9"
        } ]
      } ],
      "extension": [ {
        "url": "http://hl7.org/fhir/StructureDefinition/cqf-inputParameters",
        "valueReference": {
          "reference": "#f067f579-472f-4caa-a155-e40866e1c6a2-parameters"
        }
      }, {
        "url": "http://hl7.org/fhir/us/cqfmeasures/StructureDefinition/cqfm-testCaseDescription",
        "valueMarkdown": "Delivery procedure start equals encounter start\n"
      } ],
      "modifierExtension": [ {
        "url": "http://hl7.org/fhir/us/cqfmeasures/StructureDefinition/cqfm-isTestCase",
        "valueBoolean": true
      } ],
      "status": "complete",
      "type": "individual",
      "measure": "https://madie.cms.gov/Measure/CMS1028FHIRPCSevereOBComps",
      "period": {
        "start": "2026-01-01",
        "end": "2026-12-31"
      },
      "group": [ {
        "id": "Group_1",
        "population": [ {
          "id": "InitialPopulation_1",
          "code": {
            "coding": [ {
              "system": "http://terminology.hl7.org/CodeSystem/measure-population",
              "code": "initial-population",
              "display": "Initial Population"
            } ]
          },
          "count": 1
        }, {
          "id": "Denominator_1",
          "code": {
            "coding": [ {
              "system": "http://terminology.hl7.org/CodeSystem/measure-population",
              "code": "denominator",
              "display": "Denominator"
            } ]
          },
          "count": 0
        }, {
          "id": "Numerator_1",
          "code": {
            "coding": [ {
              "system": "http://terminology.hl7.org/CodeSystem/measure-population",
              "code": "numerator",
              "display": "Numerator"
            } ]
          },
          "count": 0
        }, {
          "id": "NumeratorExclusion_1",
          "code": {
            "coding": [ {
              "system": "http://terminology.hl7.org/CodeSystem/measure-population",
              "code": "numerator-exclusion",
              "display": "Numerator Exclusion"
            } ]
          },
          "count": 0
        } ],
        "measureScore": {
          "value": 0.0
        }
      }, {
        "id": "Group_2",
        "population": [ {
          "id": "InitialPopulation_2",
          "code": {
            "coding": [ {
              "system": "http://terminology.hl7.org/CodeSystem/measure-population",
              "code": "initial-population",
              "display": "Initial Population"
            } ]
          },
          "count": 1
        }, {
          "id": "Denominator_2",
          "code": {
            "coding": [ {
              "system": "http://terminology.hl7.org/CodeSystem/measure-population",
              "code": "denominator",
              "display": "Denominator"
            } ]
          },
          "count": 0
        }, {
          "id": "Numerator_2",
          "code": {
            "coding": [ {
              "system": "http://terminology.hl7.org/CodeSystem/measure-population",
              "code": "numerator",
              "display": "Numerator"
            } ]
          },
          "count": 0
        }, {
          "id": "NumeratorExclusion_2",
          "code": {
            "coding": [ {
              "system": "http://terminology.hl7.org/CodeSystem/measure-population",
              "code": "numerator-exclusion",
              "display": "Numerator Exclusion"
            } ]
          },
          "count": 0
        } ],
        "measureScore": {
          "value": 0.0
        }
      } ],
      "evaluatedResource": [ {
        "reference": "Patient/7eb80451-01f3-46c8-b5e1-6ed9896948d9"
      }, {
        "reference": "Encounter/d3cee7ba-6660-4507-8c26-54605ebe2b92"
      }, {
        "reference": "Procedure/b8ae83c5-35ed-4325-8fa9-9494e7272b0c"
      }, {
        "reference": "Coverage/395769f1-579f-45c0-a621-e3e23861db52"
      }, {
        "reference": "Organization/9842e2f1-9944-457a-8e17-5fba0af89335"
      }, {
        "reference": "Practitioner/6d3c10da-b8be-4ae8-a990-134e30c797d7"
      } ]
    },
    "request": {
      "method": "PUT",
      "url": "MeasureReport/609d0431-23b6-4025-af2a-a175512e2fb4"
    }
  } ]
}