{
  "resourceType": "Bundle",
  "id": "612e6a9802c62a011f2ea828",
  "type": "transaction",
  "entry": [ {
    "fullUrl": "https://madie.cms.gov/Patient/e5a098bd-f673-46ec-961f-1e00d7400af8",
    "resource": {
      "resourceType": "Patient",
      "id": "e5a098bd-f673-46ec-961f-1e00d7400af8",
      "meta": {
        "profile": [ "http://hl7.org/fhir/us/qicore/StructureDefinition/qicore-patient" ]
      },
      "text": {
        "status": "generated",
        "div": "<div xmlns=\"http://www.w3.org/1999/xhtml\"><div class=\"hapiHeaderText\">MedReason_MO_Warf_DO_IPC_IPEnc <b>NUMERPASS </b></div><table class=\"hapiPropertyTable\"><tbody><tr><td>Identifier</td><td>7e62c5832c05e34e66418ee66816965a</td></tr><tr><td>Date of birth</td><td><span>02 January 1974</span></td></tr></tbody></table></div>"
      },
      "extension": [ {
        "url": "http://hl7.org/fhir/us/core/StructureDefinition/us-core-race",
        "extension": [ {
          "url": "ombCategory",
          "valueCoding": {
            "system": "urn:oid:2.16.840.1.113883.6.238",
            "code": "1002-5",
            "display": "American Indian or Alaska Native",
            "userSelected": true
          }
        }, {
          "url": "text",
          "valueString": "American Indian or Alaska Native"
        } ]
      }, {
        "url": "http://hl7.org/fhir/us/core/StructureDefinition/us-core-ethnicity",
        "extension": [ {
          "url": "ombCategory",
          "valueCoding": {
            "system": "urn:oid:2.16.840.1.113883.6.238",
            "code": "2135-2",
            "display": "Hispanic or Latino",
            "userSelected": true
          }
        }, {
          "url": "text",
          "valueString": "Hispanic or Latino"
        } ]
      } ],
      "identifier": [ {
        "type": {
          "coding": [ {
            "system": "http://terminology.hl7.org/CodeSystem/v2-0203",
            "code": "MR"
          } ]
        },
        "system": "https://bonnie-fhir.healthit.gov/",
        "value": "612e6a9802c62a011f2ea828"
      } ],
      "active": true,
      "name": [ {
        "use": "usual",
        "family": "NUMERPass",
        "given": [ "MedReasonMOWarfDOIPCIPEnc" ]
      } ],
      "gender": "male",
      "birthDate": "1975-01-02"
    },
    "request": {
      "method": "PUT",
      "url": "Patient/e5a098bd-f673-46ec-961f-1e00d7400af8"
    }
  }, {
    "fullUrl": "https://madie.cms.gov/Encounter/8ce66e30-996e-4b2f-9dcf-45fa48067035",
    "resource": {
      "resourceType": "Encounter",
      "id": "8ce66e30-996e-4b2f-9dcf-45fa48067035",
      "meta": {
        "profile": [ "http://hl7.org/fhir/us/qicore/StructureDefinition/qicore-encounter" ]
      },
      "status": "finished",
      "class": {
        "system": "http://terminology.hl7.org/CodeSystem/v3-ActCode",
        "code": "IMP",
        "display": "inpatient encounter"
      },
      "type": [ {
        "coding": [ {
          "system": "http://snomed.info/sct",
          "code": "8715000"
        } ]
      } ],
      "subject": {
        "reference": "Patient/e5a098bd-f673-46ec-961f-1e00d7400af8"
      },
      "period": {
        "start": "2026-11-01T08:00:00.000+00:00",
        "end": "2026-11-26T08:15:00.000+00:00"
      },
      "length": {
        "value": 25,
        "unit": "days"
      }
    },
    "request": {
      "method": "PUT",
      "url": "Encounter/8ce66e30-996e-4b2f-9dcf-45fa48067035"
    }
  }, {
    "fullUrl": "https://madie.cms.gov/Coverage/52469688-827f-4ba6-bc31-764137d521d6",
    "resource": {
      "resourceType": "Coverage",
      "id": "52469688-827f-4ba6-bc31-764137d521d6",
      "status": "active",
      "beneficiary": {
        "reference": "Patient/e5a098bd-f673-46ec-961f-1e00d7400af8"
      },
      "period": {
        "start": "1975-01-02T08:00:00.000+00:00"
      },
      "payor": [ {
        "reference": "Organization/a5da79d8-5f36-495c-bbde-1f2795803c58"
      } ]
    },
    "request": {
      "method": "PUT",
      "url": "Coverage/52469688-827f-4ba6-bc31-764137d521d6"
    }
  }, {
    "fullUrl": "https://madie.cms.gov/MedicationRequest/53605bae-f204-434c-a065-106628d815d3",
    "resource": {
      "resourceType": "MedicationRequest",
      "id": "53605bae-f204-434c-a065-106628d815d3",
      "meta": {
        "profile": [ "http://hl7.org/fhir/us/qicore/StructureDefinition/qicore-medicationnotrequested" ]
      },
      "status": "completed",
      "intent": "order",
      "category": [ {
        "coding": [ {
          "system": "http://terminology.hl7.org/CodeSystem/medicationrequest-category",
          "code": "inpatient"
        } ]
      } ],
      "doNotPerform": true,
      "medicationCodeableConcept": {
        "coding": [ {
          "system": "http://www.nlm.nih.gov/research/umls/rxnorm",
          "code": "855288"
        } ]
      },
      "subject": {
        "reference": "Patient/e5a098bd-f673-46ec-961f-1e00d7400af8"
      },
      "authoredOn": "2026-11-02T09:00:00.000+00:00",
      "requester": {
        "reference": "Practitioner/123456"
      },
      "reasonCode": [ {
        "coding": [ {
          "system": "http://snomed.info/sct",
          "code": "183932001",
          "display": "Procedure contraindicated (situation)",
          "userSelected": true
        } ]
      } ]
    },
    "request": {
      "method": "PUT",
      "url": "MedicationRequest/53605bae-f204-434c-a065-106628d815d3"
    }
  }, {
    "fullUrl": "https://madie.cms.gov/ServiceRequest/68f0dbd0-2020-4a89-98a1-cf8257fa85d0",
    "resource": {
      "resourceType": "ServiceRequest",
      "id": "68f0dbd0-2020-4a89-98a1-cf8257fa85d0",
      "meta": {
        "profile": [ "http://hl7.org/fhir/us/qicore/StructureDefinition/qicore-servicenotrequested" ]
      },
      "extension": [ {
        "url": "http://hl7.org/fhir/us/qicore/StructureDefinition/qicore-doNotPerformReason",
        "valueCodeableConcept": {
          "coding": [ {
            "system": "http://snomed.info/sct",
            "code": "183932001",
            "display": "Procedure contraindicated (situation)"
          } ]
        }
      } ],
      "status": "completed",
      "intent": "order",
      "doNotPerform": true,
      "code": {
        "coding": [ {
          "system": "http://snomed.info/sct",
          "version": "2025-03",
          "code": "432441000124100",
          "display": "Intermittent pneumatic compression device (physical object)",
          "userSelected": true
        } ]
      },
      "subject": {
        "reference": "Patient/e5a098bd-f673-46ec-961f-1e00d7400af8"
      },
      "authoredOn": "2026-11-02T10:00:00.000+00:00"
    },
    "request": {
      "method": "PUT",
      "url": "ServiceRequest/68f0dbd0-2020-4a89-98a1-cf8257fa85d0"
    }
  }, {
    "fullUrl": "https://madie.cms.gov/Organization/a5da79d8-5f36-495c-bbde-1f2795803c58",
    "resource": {
      "resourceType": "Organization",
      "id": "a5da79d8-5f36-495c-bbde-1f2795803c58",
      "meta": {
        "profile": [ "http://hl7.org/fhir/us/qicore/StructureDefinition/qicore-organization" ]
      },
      "identifier": [ {
        "use": "temp",
        "system": "urn:oid:2.16.840.1.113883.4.4",
        "value": "21-3259825"
      } ],
      "active": true,
      "type": [ {
        "coding": [ {
          "system": "http://terminology.hl7.org/CodeSystem/organization-type",
          "code": "pay",
          "display": "Payer"
        } ]
      } ],
      "name": "Blue Cross Blue Shield of Texas",
      "telecom": [ {
        "system": "phone",
        "value": "(+1) 972-766-6900"
      } ],
      "address": [ {
        "use": "billing",
        "type": "postal",
        "line": [ "P.O. Box 660044" ],
        "city": "Dallas",
        "state": "TX",
        "postalCode": "75266-0044",
        "country": "USA"
      } ]
    },
    "request": {
      "method": "PUT",
      "url": "Organization/a5da79d8-5f36-495c-bbde-1f2795803c58"
    }
  }, {
    "fullUrl": "https://madie.cms.gov/Practitioner/cb32c2ee-6917-476b-9497-e8ce3283a05c",
    "resource": {
      "resourceType": "Practitioner",
      "id": "cb32c2ee-6917-476b-9497-e8ce3283a05c",
      "identifier": [ {
        "system": "http://hl7.org/fhir/sid/us-npi",
        "value": "123456"
      } ],
      "name": [ {
        "family": "Evil",
        "prefix": [ "Dr" ]
      } ]
    },
    "request": {
      "method": "PUT",
      "url": "Practitioner/cb32c2ee-6917-476b-9497-e8ce3283a05c"
    }
  }, {
    "fullUrl": "https://madie.cms.gov/MeasureReport/ccfc7ed5-d087-48dc-80e9-bc5d56bc3914",
    "resource": {
      "resourceType": "MeasureReport",
      "id": "ccfc7ed5-d087-48dc-80e9-bc5d56bc3914",
      "meta": {
        "profile": [ "http://hl7.org/fhir/us/cqfmeasures/StructureDefinition/test-case-cqfm" ]
      },
      "contained": [ {
        "resourceType": "Parameters",
        "id": "8d272c42-b05c-411c-a99a-75e3ad7f8827-parameters",
        "parameter": [ {
          "name": "subject",
          "valueString": "e5a098bd-f673-46ec-961f-1e00d7400af8"
        } ]
      } ],
      "extension": [ {
        "url": "http://hl7.org/fhir/StructureDefinition/cqf-inputParameters",
        "valueReference": {
          "reference": "#8d272c42-b05c-411c-a99a-75e3ad7f8827-parameters"
        }
      }, {
        "url": "http://hl7.org/fhir/us/cqfmeasures/StructureDefinition/cqfm-testCaseDescription",
        "valueMarkdown": "IPC and warfarin not ordered due to medical reason <= 1 day after start of IP encounter\n"
      } ],
      "modifierExtension": [ {
        "url": "http://hl7.org/fhir/us/cqfmeasures/StructureDefinition/cqfm-isTestCase",
        "valueBoolean": true
      } ],
      "status": "complete",
      "type": "individual",
      "measure": "https://madie.cms.gov/Measure/CMS108FHIRVTEProphylaxis",
      "period": {
        "start": "2026-01-01",
        "end": "2026-12-31"
      },
      "group": [ {
        "id": "Group_1",
        "population": [ {
          "id": "InitialPopulation_1",
          "code": {
            "coding": [ {
              "system": "http://terminology.hl7.org/CodeSystem/measure-population",
              "code": "initial-population",
              "display": "Initial Population"
            } ]
          },
          "count": 1
        }, {
          "id": "Denominator_1",
          "code": {
            "coding": [ {
              "system": "http://terminology.hl7.org/CodeSystem/measure-population",
              "code": "denominator",
              "display": "Denominator"
            } ]
          },
          "count": 1
        }, {
          "id": "DenominatorExclusion_1",
          "code": {
            "coding": [ {
              "system": "http://terminology.hl7.org/CodeSystem/measure-population",
              "code": "denominator-exclusion",
              "display": "Denominator Exclusion"
            } ]
          },
          "count": 0
        }, {
          "id": "Numerator_1",
          "code": {
            "coding": [ {
              "system": "http://terminology.hl7.org/CodeSystem/measure-population",
              "code": "numerator",
              "display": "Numerator"
            } ]
          },
          "count": 1
        } ],
        "measureScore": {
          "value": 0.0
        }
      } ],
      "evaluatedResource": [ {
        "reference": "Patient/e5a098bd-f673-46ec-961f-1e00d7400af8"
      }, {
        "reference": "Encounter/8ce66e30-996e-4b2f-9dcf-45fa48067035"
      }, {
        "reference": "Coverage/52469688-827f-4ba6-bc31-764137d521d6"
      }, {
        "reference": "MedicationRequest/53605bae-f204-434c-a065-106628d815d3"
      }, {
        "reference": "ServiceRequest/68f0dbd0-2020-4a89-98a1-cf8257fa85d0"
      }, {
        "reference": "Organization/a5da79d8-5f36-495c-bbde-1f2795803c58"
      }, {
        "reference": "Practitioner/cb32c2ee-6917-476b-9497-e8ce3283a05c"
      } ]
    },
    "request": {
      "method": "PUT",
      "url": "MeasureReport/ccfc7ed5-d087-48dc-80e9-bc5d56bc3914"
    }
  } ]
}