{
  "resourceType": "Bundle",
  "id": "Patient-9-DENEXPass-FrailtyDeviceRequestNoPerformedModExt",
  "type": "transaction",
  "entry": [ {
    "fullUrl": "https://madie.cms.gov/Patient/7e69124d-ff34-4daf-b626-08d1283f71ba",
    "resource": {
      "resourceType": "Patient",
      "id": "7e69124d-ff34-4daf-b626-08d1283f71ba",
      "meta": {
        "profile": [ "http://hl7.org/fhir/us/qicore/StructureDefinition/qicore-patient" ]
      },
      "extension": [ {
        "url": "http://hl7.org/fhir/us/core/StructureDefinition/us-core-race",
        "extension": [ {
          "url": "ombCategory",
          "valueCoding": {
            "system": "urn:oid:2.16.840.1.113883.6.238",
            "code": "2028-9",
            "display": "Asian"
          }
        }, {
          "url": "text",
          "valueString": "Asian"
        } ]
      }, {
        "url": "http://hl7.org/fhir/us/core/StructureDefinition/us-core-ethnicity",
        "extension": [ {
          "url": "ombCategory",
          "valueCoding": {
            "system": "urn:oid:2.16.840.1.113883.6.238",
            "code": "2135-2",
            "display": "Hispanic or Latino"
          }
        }, {
          "url": "text",
          "valueString": "Hispanic or Latino"
        } ]
      } ],
      "identifier": [ {
        "system": "http://hospital.smarthealthit.org",
        "value": "999999995"
      } ],
      "name": [ {
        "family": "Bertha",
        "given": [ "Betty" ]
      } ],
      "gender": "female",
      "birthDate": "1958-12-31"
    },
    "request": {
      "method": "PUT",
      "url": "Patient/7e69124d-ff34-4daf-b626-08d1283f71ba"
    }
  }, {
    "fullUrl": "https://madie.cms.gov/Encounter/7e9cd467-9286-41fd-bffd-308d8653d691",
    "resource": {
      "resourceType": "Encounter",
      "id": "7e9cd467-9286-41fd-bffd-308d8653d691",
      "meta": {
        "profile": [ "http://hl7.org/fhir/us/qicore/StructureDefinition/qicore-encounter" ]
      },
      "status": "finished",
      "class": {
        "system": "http://terminology.hl7.org/CodeSystem/v3-ActCode",
        "code": "AMB",
        "display": "ambulatory"
      },
      "type": [ {
        "coding": [ {
          "system": "http://snomed.info/sct",
          "code": "185460008",
          "display": "Home visit request by patient (procedure)"
        } ]
      } ],
      "subject": {
        "reference": "Patient/7e69124d-ff34-4daf-b626-08d1283f71ba"
      },
      "period": {
        "start": "2026-01-01T00:00:00.000+00:00",
        "end": "2026-01-01T00:15:00.000+00:00"
      }
    },
    "request": {
      "method": "PUT",
      "url": "Encounter/7e9cd467-9286-41fd-bffd-308d8653d691"
    }
  }, {
    "fullUrl": "https://madie.cms.gov/Condition/beeaa13d-0ed3-4ba4-b666-48accc9a8ddc",
    "resource": {
      "resourceType": "Condition",
      "id": "beeaa13d-0ed3-4ba4-b666-48accc9a8ddc",
      "meta": {
        "profile": [ "http://hl7.org/fhir/us/qicore/StructureDefinition/qicore-condition-encounter-diagnosis" ]
      },
      "clinicalStatus": {
        "coding": [ {
          "system": "http://terminology.hl7.org/CodeSystem/condition-clinical",
          "code": "active"
        } ]
      },
      "category": [ {
        "coding": [ {
          "system": "http://terminology.hl7.org/CodeSystem/condition-category",
          "code": "encounter-diagnosis",
          "display": "Encounter Diagnosis"
        } ]
      } ],
      "code": {
        "coding": [ {
          "system": "http://snomed.info/sct",
          "code": "102781000119107",
          "display": "Sensory neuropathy due to type 1 diabetes mellitus (disorder)"
        } ]
      },
      "subject": {
        "reference": "Patient/7e69124d-ff34-4daf-b626-08d1283f71ba"
      },
      "onsetDateTime": "2026-01-01T23:59:00.000+00:00"
    },
    "request": {
      "method": "PUT",
      "url": "Condition/beeaa13d-0ed3-4ba4-b666-48accc9a8ddc"
    }
  }, {
    "fullUrl": "https://madie.cms.gov/Condition/45f4e2a0-87f5-4871-98ee-56c57e5136e1",
    "resource": {
      "resourceType": "Condition",
      "id": "45f4e2a0-87f5-4871-98ee-56c57e5136e1",
      "meta": {
        "profile": [ "http://hl7.org/fhir/us/qicore/StructureDefinition/qicore-condition-encounter-diagnosis" ]
      },
      "clinicalStatus": {
        "coding": [ {
          "system": "http://terminology.hl7.org/CodeSystem/condition-clinical",
          "code": "active"
        } ]
      },
      "category": [ {
        "coding": [ {
          "system": "http://terminology.hl7.org/CodeSystem/condition-category",
          "code": "encounter-diagnosis",
          "display": "Encounter Diagnosis"
        } ]
      } ],
      "code": {
        "coding": [ {
          "system": "http://snomed.info/sct",
          "code": "101421000119107",
          "display": "Dementia due to Parkinson's disease (disorder)"
        } ]
      },
      "subject": {
        "reference": "Patient/7e69124d-ff34-4daf-b626-08d1283f71ba"
      },
      "onsetDateTime": "2025-12-31T23:59:00.000+00:00"
    },
    "request": {
      "method": "PUT",
      "url": "Condition/45f4e2a0-87f5-4871-98ee-56c57e5136e1"
    }
  }, {
    "fullUrl": "https://madie.cms.gov/Encounter/5b0b7fbf-9b13-4165-b0f2-4aee091d624d",
    "resource": {
      "resourceType": "Encounter",
      "id": "5b0b7fbf-9b13-4165-b0f2-4aee091d624d",
      "meta": {
        "profile": [ "http://hl7.org/fhir/us/qicore/StructureDefinition/qicore-encounter" ]
      },
      "status": "finished",
      "class": {
        "system": "http://terminology.hl7.org/CodeSystem/v3-ActCode",
        "code": "AMB",
        "display": "ambulatory"
      },
      "type": [ {
        "coding": [ {
          "system": "http://snomed.info/sct",
          "code": "4525004",
          "display": "Emergency department patient visit (procedure)"
        } ]
      } ],
      "subject": {
        "reference": "Patient/7e69124d-ff34-4daf-b626-08d1283f71ba"
      },
      "period": {
        "start": "2025-12-31T00:00:00.000+00:00",
        "end": "2026-01-01T01:00:00.000+00:00"
      },
      "diagnosis": [ {
        "condition": {
          "reference": "Condition/45f4e2a0-87f5-4871-98ee-56c57e5136e1"
        }
      } ]
    },
    "request": {
      "method": "PUT",
      "url": "Encounter/5b0b7fbf-9b13-4165-b0f2-4aee091d624d"
    }
  }, {
    "fullUrl": "https://madie.cms.gov/Encounter/97a5eac2-a2cb-41d5-8f44-f95401972397",
    "resource": {
      "resourceType": "Encounter",
      "id": "97a5eac2-a2cb-41d5-8f44-f95401972397",
      "meta": {
        "profile": [ "http://hl7.org/fhir/us/qicore/StructureDefinition/qicore-encounter" ]
      },
      "status": "finished",
      "class": {
        "system": "http://terminology.hl7.org/CodeSystem/v3-ActCode",
        "code": "AMB",
        "display": "ambulatory"
      },
      "type": [ {
        "coding": [ {
          "system": "http://snomed.info/sct",
          "code": "4525004",
          "display": "Emergency department patient visit (procedure)"
        } ]
      } ],
      "subject": {
        "reference": "Patient/7e69124d-ff34-4daf-b626-08d1283f71ba"
      },
      "period": {
        "start": "2026-05-01T00:00:00.000+00:00",
        "end": "2026-05-01T01:00:00.000+00:00"
      },
      "diagnosis": [ {
        "condition": {
          "reference": "Condition/45f4e2a0-87f5-4871-98ee-56c57e5136e1"
        }
      } ]
    },
    "request": {
      "method": "PUT",
      "url": "Encounter/97a5eac2-a2cb-41d5-8f44-f95401972397"
    }
  }, {
    "fullUrl": "https://madie.cms.gov/DeviceRequest/9337f967-d3cf-46a7-a591-7811df569206",
    "resource": {
      "resourceType": "DeviceRequest",
      "id": "9337f967-d3cf-46a7-a591-7811df569206",
      "meta": {
        "profile": [ "http://hl7.org/fhir/us/qicore/StructureDefinition/qicore-devicerequest" ]
      },
      "status": "completed",
      "intent": "order",
      "codeCodeableConcept": {
        "coding": [ {
          "system": "http://snomed.info/sct",
          "code": "183240000",
          "display": "Self-propelled wheelchair (physical object)"
        } ]
      },
      "subject": {
        "reference": "Patient/7e69124d-ff34-4daf-b626-08d1283f71ba"
      },
      "authoredOn": "2026-11-01T23:59:00.000+00:00"
    },
    "request": {
      "method": "PUT",
      "url": "DeviceRequest/9337f967-d3cf-46a7-a591-7811df569206"
    }
  }, {
    "fullUrl": "https://madie.cms.gov/MeasureReport/e0f91cb5-1173-45da-9018-e38fe9e12c5f",
    "resource": {
      "resourceType": "MeasureReport",
      "id": "e0f91cb5-1173-45da-9018-e38fe9e12c5f",
      "meta": {
        "profile": [ "http://hl7.org/fhir/us/cqfmeasures/StructureDefinition/test-case-cqfm" ]
      },
      "contained": [ {
        "resourceType": "Parameters",
        "id": "68c0b541-0e44-4381-9198-b4a38e218925-parameters",
        "parameter": [ {
          "name": "subject",
          "valueString": "7e69124d-ff34-4daf-b626-08d1283f71ba"
        } ]
      } ],
      "extension": [ {
        "url": "http://hl7.org/fhir/StructureDefinition/cqf-inputParameters",
        "valueReference": {
          "reference": "#68c0b541-0e44-4381-9198-b4a38e218925-parameters"
        }
      }, {
        "url": "http://hl7.org/fhir/us/cqfmeasures/StructureDefinition/cqfm-testCaseDescription",
        "valueMarkdown": "Frailty device request and mod ext not performed"
      } ],
      "modifierExtension": [ {
        "url": "http://hl7.org/fhir/us/cqfmeasures/StructureDefinition/cqfm-isTestCase",
        "valueBoolean": true
      } ],
      "status": "complete",
      "type": "individual",
      "measure": "https://madie.cms.gov/Measure/CMS122FHIRDiabetesAssessGT9Pct",
      "period": {
        "start": "2026-01-01",
        "end": "2026-12-31"
      },
      "group": [ {
        "id": "Group_1",
        "population": [ {
          "id": "InitialPopulation_1",
          "code": {
            "coding": [ {
              "system": "http://terminology.hl7.org/CodeSystem/measure-population",
              "code": "initial-population",
              "display": "Initial Population"
            } ]
          },
          "count": 1
        }, {
          "id": "Denominator_1",
          "code": {
            "coding": [ {
              "system": "http://terminology.hl7.org/CodeSystem/measure-population",
              "code": "denominator",
              "display": "Denominator"
            } ]
          },
          "count": 1
        }, {
          "id": "DenominatorExclusion_1",
          "code": {
            "coding": [ {
              "system": "http://terminology.hl7.org/CodeSystem/measure-population",
              "code": "denominator-exclusion",
              "display": "Denominator Exclusion"
            } ]
          },
          "count": 1
        }, {
          "id": "Numerator_1",
          "code": {
            "coding": [ {
              "system": "http://terminology.hl7.org/CodeSystem/measure-population",
              "code": "numerator",
              "display": "Numerator"
            } ]
          },
          "count": 0
        } ],
        "measureScore": {
          "value": 1.0
        }
      } ],
      "evaluatedResource": [ {
        "reference": "Patient/7e69124d-ff34-4daf-b626-08d1283f71ba"
      }, {
        "reference": "Encounter/7e9cd467-9286-41fd-bffd-308d8653d691"
      }, {
        "reference": "Condition/beeaa13d-0ed3-4ba4-b666-48accc9a8ddc"
      }, {
        "reference": "Condition/45f4e2a0-87f5-4871-98ee-56c57e5136e1"
      }, {
        "reference": "Encounter/5b0b7fbf-9b13-4165-b0f2-4aee091d624d"
      }, {
        "reference": "Encounter/97a5eac2-a2cb-41d5-8f44-f95401972397"
      }, {
        "reference": "DeviceRequest/9337f967-d3cf-46a7-a591-7811df569206"
      } ]
    },
    "request": {
      "method": "PUT",
      "url": "MeasureReport/e0f91cb5-1173-45da-9018-e38fe9e12c5f"
    }
  } ]
}