{
  "resourceType": "Bundle",
  "id": "60f82c2e98086b570510e28d",
  "type": "transaction",
  "entry": [ {
    "fullUrl": "https://madie.cms.gov/Patient/7e3bf20a-7a5b-4d50-aa34-267ab19da7b2",
    "resource": {
      "resourceType": "Patient",
      "id": "7e3bf20a-7a5b-4d50-aa34-267ab19da7b2",
      "meta": {
        "profile": [ "http://hl7.org/fhir/us/qicore/StructureDefinition/qicore-patient" ]
      },
      "text": {
        "status": "generated",
        "div": "<div xmlns=\"http://www.w3.org/1999/xhtml\"><div class=\"hapiHeaderText\">MedAntithromboticStart_eq1dayDuringEncIPwEd <b>NUMERPASS </b></div><table class=\"hapiPropertyTable\"><tbody><tr><td>Identifier</td><td>31f584b75330393256fa59b34c307941</td></tr><tr><td>Date of birth</td><td><span>26 September 1975</span></td></tr></tbody></table></div>"
      },
      "extension": [ {
        "url": "http://hl7.org/fhir/us/core/StructureDefinition/us-core-race",
        "extension": [ {
          "url": "ombCategory",
          "valueCoding": {
            "system": "urn:oid:2.16.840.1.113883.6.238",
            "code": "2054-5",
            "display": "Black or African American",
            "userSelected": true
          }
        }, {
          "url": "text",
          "valueString": "Black or African American"
        } ]
      }, {
        "url": "http://hl7.org/fhir/us/core/StructureDefinition/us-core-ethnicity",
        "extension": [ {
          "url": "ombCategory",
          "valueCoding": {
            "system": "urn:oid:2.16.840.1.113883.6.238",
            "code": "2186-5",
            "display": "Not Hispanic or Latino",
            "userSelected": true
          }
        }, {
          "url": "text",
          "valueString": "Not Hispanic or Latino"
        } ]
      }, {
        "url": "http://hl7.org/fhir/us/core/StructureDefinition/us-core-sex",
        "valueCode": "248153007"
      } ],
      "identifier": [ {
        "type": {
          "coding": [ {
            "system": "http://terminology.hl7.org/CodeSystem/v2-0203",
            "code": "MR"
          } ]
        },
        "system": "https://bonnie-fhir.healthit.gov/",
        "value": "60f82c2e98086b570510e28d"
      } ],
      "active": true,
      "name": [ {
        "use": "usual",
        "family": "NUMERPass",
        "given": [ "MedAntithromboticStarteq1dayDuringEncIPwEd" ]
      } ],
      "gender": "male",
      "birthDate": "1976-09-26"
    },
    "request": {
      "method": "PUT",
      "url": "Patient/7e3bf20a-7a5b-4d50-aa34-267ab19da7b2"
    }
  }, {
    "fullUrl": "https://madie.cms.gov/Encounter/4e4d177a-e7e2-4841-9055-9594a94e284d",
    "resource": {
      "resourceType": "Encounter",
      "id": "4e4d177a-e7e2-4841-9055-9594a94e284d",
      "meta": {
        "profile": [ "http://hl7.org/fhir/us/qicore/StructureDefinition/qicore-encounter" ]
      },
      "status": "finished",
      "class": {
        "system": "http://terminology.hl7.org/CodeSystem/v3-ActCode",
        "code": "EMER",
        "display": "emergency"
      },
      "type": [ {
        "coding": [ {
          "system": "http://snomed.info/sct",
          "code": "4525004"
        } ]
      } ],
      "subject": {
        "reference": "Patient/7e3bf20a-7a5b-4d50-aa34-267ab19da7b2"
      },
      "period": {
        "start": "2026-10-10T06:00:00.000+00:00",
        "end": "2026-10-10T08:30:00.000+00:00"
      },
      "length": {
        "value": 0,
        "unit": "days"
      }
    },
    "request": {
      "method": "PUT",
      "url": "Encounter/4e4d177a-e7e2-4841-9055-9594a94e284d"
    }
  }, {
    "fullUrl": "https://madie.cms.gov/Encounter/18fb344f-0669-43c5-bf93-4028083f8404",
    "resource": {
      "resourceType": "Encounter",
      "id": "18fb344f-0669-43c5-bf93-4028083f8404",
      "meta": {
        "profile": [ "http://hl7.org/fhir/us/qicore/StructureDefinition/qicore-encounter" ]
      },
      "status": "finished",
      "class": {
        "system": "http://terminology.hl7.org/CodeSystem/v3-ActCode",
        "code": "IMP",
        "display": "inpatient encounter"
      },
      "type": [ {
        "coding": [ {
          "system": "http://snomed.info/sct",
          "code": "32485007"
        } ]
      } ],
      "subject": {
        "reference": "Patient/7e3bf20a-7a5b-4d50-aa34-267ab19da7b2"
      },
      "period": {
        "start": "2026-10-10T09:00:00.000+00:00",
        "end": "2026-10-12T11:30:00.000+00:00"
      },
      "length": {
        "value": 2,
        "unit": "days"
      },
      "reasonReference": [ {
        "reference": "Condition/bce46320-596b-419a-a3a7-a5765a63edac"
      } ]
    },
    "request": {
      "method": "PUT",
      "url": "Encounter/18fb344f-0669-43c5-bf93-4028083f8404"
    }
  }, {
    "fullUrl": "https://madie.cms.gov/claim/5ca62962b8484628b8de1ec5",
    "resource": {
      "resourceType": "Claim",
      "id": "5ca62962b8484628b8de1ec5",
      "meta": {
        "profile": [ "http://hl7.org/fhir/us/qicore/StructureDefinition/qicore-claim" ]
      },
      "status": "active",
      "type": {
        "coding": [ {
          "system": "http://terminology.hl7.org/CodeSystem/claim-type",
          "code": "institutional"
        } ]
      },
      "use": "claim",
      "patient": {
        "reference": "Patient/d170a0a8-b5ad-4303-b6df-e304dd5f92ad"
      },
      "created": "2026-12-01",
      "provider": {
        "reference": "Practitioner/97f5aa8b-fb19-45f4-a3ab-8fd335f2a1e1"
      },
      "priority": {
        "coding": [ {
          "system": "http://terminology.hl7.org/CodeSystem/processpriority",
          "code": "normal"
        } ]
      },
      "diagnosis": [ {
        "sequence": 1,
        "diagnosisCodeableConcept": {
          "coding": [ {
            "system": "http://hl7.org/fhir/sid/icd-10-cm",
            "code": "I63.00"
          } ]
        },
        "type": [ {
          "coding": [ {
            "system": "http://terminology.hl7.org/CodeSystem/ex-diagnosistype",
            "code": "principal"
          } ]
        } ]
      } ],
      "insurance": [ {
        "sequence": 1,
        "focal": true,
        "coverage": {
          "reference": "Coverage/5fa041661c76ba66d9959367"
        }
      } ],
      "item": [ {
        "sequence": 1,
        "diagnosisSequence": [ 1 ],
        "productOrService": {
          "coding": [ {
            "system": "http://terminology.hl7.org/CodeSystem/ex-USCLS",
            "code": "99555"
          } ]
        },
        "encounter": [ {
          "reference": "Encounter/18fb344f-0669-43c5-bf93-4028083f8404"
        } ]
      } ]
    },
    "request": {
      "method": "PUT",
      "url": "Claim/5ca62962b8484628b8de1ec5"
    }
  }, {
    "fullUrl": "https://madie.cms.gov/MedicationAdministration/25995d10-9a7a-4e69-85b7-cdb3a7ff2b16",
    "resource": {
      "resourceType": "MedicationAdministration",
      "id": "25995d10-9a7a-4e69-85b7-cdb3a7ff2b16",
      "meta": {
        "profile": [ "http://hl7.org/fhir/us/qicore/StructureDefinition/qicore-medicationadministration" ]
      },
      "status": "completed",
      "medicationCodeableConcept": {
        "coding": [ {
          "system": "http://www.nlm.nih.gov/research/umls/rxnorm",
          "code": "1037045"
        } ]
      },
      "subject": {
        "reference": "Patient/7e3bf20a-7a5b-4d50-aa34-267ab19da7b2"
      },
      "effectivePeriod": {
        "start": "2026-10-11T07:00:00.000+00:00",
        "end": "2026-10-11T08:20:00.000+00:00"
      }
    },
    "request": {
      "method": "PUT",
      "url": "MedicationAdministration/25995d10-9a7a-4e69-85b7-cdb3a7ff2b16"
    }
  }, {
    "fullUrl": "https://madie.cms.gov/Coverage/b182aea2-d464-4744-b95f-bb0cc3eff401",
    "resource": {
      "resourceType": "Coverage",
      "id": "b182aea2-d464-4744-b95f-bb0cc3eff401",
      "status": "active",
      "subscriberId": "523435",
      "beneficiary": {
        "reference": "Patient/7e3bf20a-7a5b-4d50-aa34-267ab19da7b2"
      },
      "relationship": {
        "coding": [ {
          "system": "http://terminology.hl7.org/CodeSystem/subscriber-relationship",
          "code": "self"
        } ]
      },
      "period": {
        "start": "1976-09-26T08:00:00.000+00:00"
      },
      "payor": [ {
        "reference": "Organization/c9e679e6-6c17-4ada-a43a-cf4ff7172b4d"
      } ]
    },
    "request": {
      "method": "PUT",
      "url": "Coverage/b182aea2-d464-4744-b95f-bb0cc3eff401"
    }
  }, {
    "fullUrl": "https://madie.cms.gov/Condition/bce46320-596b-419a-a3a7-a5765a63edac",
    "resource": {
      "resourceType": "Condition",
      "id": "bce46320-596b-419a-a3a7-a5765a63edac",
      "meta": {
        "profile": [ "http://hl7.org/fhir/us/qicore/StructureDefinition/qicore-condition-problems-health-concerns" ]
      },
      "clinicalStatus": {
        "coding": [ {
          "system": "http://terminology.hl7.org/CodeSystem/condition-clinical",
          "code": "active"
        } ]
      },
      "verificationStatus": {
        "coding": [ {
          "system": "http://terminology.hl7.org/CodeSystem/condition-ver-status",
          "code": "confirmed"
        } ]
      },
      "category": [ {
        "coding": [ {
          "system": "http://terminology.hl7.org/CodeSystem/condition-category",
          "code": "encounter-diagnosis",
          "display": "Encounter Diagnosis"
        } ]
      } ],
      "code": {
        "coding": [ {
          "system": "http://snomed.info/sct",
          "version": "2020-09",
          "code": "111297002",
          "display": "Nonparalytic stroke (disorder)",
          "userSelected": true
        } ]
      },
      "subject": {
        "reference": "Patient/7e3bf20a-7a5b-4d50-aa34-267ab19da7b2"
      },
      "recordedDate": "2026-08-16T08:00:00.000+00:00"
    },
    "request": {
      "method": "PUT",
      "url": "Condition/bce46320-596b-419a-a3a7-a5765a63edac"
    }
  }, {
    "fullUrl": "https://madie.cms.gov/Organization/c9e679e6-6c17-4ada-a43a-cf4ff7172b4d",
    "resource": {
      "resourceType": "Organization",
      "id": "c9e679e6-6c17-4ada-a43a-cf4ff7172b4d",
      "meta": {
        "profile": [ "http://hl7.org/fhir/us/qicore/StructureDefinition/qicore-organization" ]
      },
      "identifier": [ {
        "use": "temp",
        "system": "urn:oid:2.16.840.1.113883.4.4",
        "value": "21-3259825"
      } ],
      "active": true,
      "type": [ {
        "coding": [ {
          "system": "http://terminology.hl7.org/CodeSystem/organization-type",
          "code": "pay",
          "display": "Payer"
        } ]
      } ],
      "name": "Blue Cross Blue Shield of Texas",
      "telecom": [ {
        "system": "phone",
        "value": "(+1) 972-766-6900"
      } ],
      "address": [ {
        "use": "billing",
        "type": "postal",
        "line": [ "P.O. Box 660044" ],
        "city": "Dallas",
        "state": "TX",
        "postalCode": "75266-0044",
        "country": "USA"
      } ]
    },
    "request": {
      "method": "PUT",
      "url": "Organization/c9e679e6-6c17-4ada-a43a-cf4ff7172b4d"
    }
  }, {
    "fullUrl": "https://madie.cms.gov/Practitioner/97f5aa8b-fb19-45f4-a3ab-8fd335f2a1e1",
    "resource": {
      "resourceType": "Practitioner",
      "id": "97f5aa8b-fb19-45f4-a3ab-8fd335f2a1e1",
      "meta": {
        "profile": [ "http://hl7.org/fhir/us/qicore/StructureDefinition/qicore-practitioner" ]
      },
      "identifier": [ {
        "system": "http://hl7.org/fhir/sid/us-npi",
        "value": "9999999896"
      } ],
      "name": [ {
        "family": "Evil",
        "prefix": [ "Dr" ]
      } ]
    },
    "request": {
      "method": "PUT",
      "url": "Practitioner/97f5aa8b-fb19-45f4-a3ab-8fd335f2a1e1"
    }
  }, {
    "fullUrl": "https://madie.cms.gov/MeasureReport/28466ace-0f26-44f6-ae95-48203af912e6",
    "resource": {
      "resourceType": "MeasureReport",
      "id": "28466ace-0f26-44f6-ae95-48203af912e6",
      "meta": {
        "profile": [ "http://hl7.org/fhir/us/cqfmeasures/StructureDefinition/test-case-cqfm" ]
      },
      "contained": [ {
        "resourceType": "Parameters",
        "id": "a8b06b1d-4760-4c70-9df6-0038a55c7b6d-parameters",
        "parameter": [ {
          "name": "subject",
          "valueString": "7e3bf20a-7a5b-4d50-aa34-267ab19da7b2"
        } ]
      } ],
      "extension": [ {
        "url": "http://hl7.org/fhir/StructureDefinition/cqf-inputParameters",
        "valueReference": {
          "reference": "#a8b06b1d-4760-4c70-9df6-0038a55c7b6d-parameters"
        }
      }, {
        "url": "http://hl7.org/fhir/us/cqfmeasures/StructureDefinition/cqfm-testCaseDescription",
        "valueMarkdown": "\"Patient receives antithrombotic in the ED. MedAntithromboticStart EQ 1day \nglobal.\"\"Hospitalization\"\" =(Ed+IP)\"\n"
      } ],
      "modifierExtension": [ {
        "url": "http://hl7.org/fhir/us/cqfmeasures/StructureDefinition/cqfm-isTestCase",
        "valueBoolean": true
      } ],
      "status": "complete",
      "type": "individual",
      "measure": "https://madie.cms.gov/Measure/CMS72FHIRSTKAntithromboticDay2",
      "period": {
        "start": "2026-01-01",
        "end": "2026-12-31"
      },
      "group": [ {
        "id": "Group_1",
        "population": [ {
          "id": "InitialPopulation_1",
          "code": {
            "coding": [ {
              "system": "http://terminology.hl7.org/CodeSystem/measure-population",
              "code": "initial-population",
              "display": "Initial Population"
            } ]
          },
          "count": 1
        }, {
          "id": "Denominator_1",
          "code": {
            "coding": [ {
              "system": "http://terminology.hl7.org/CodeSystem/measure-population",
              "code": "denominator",
              "display": "Denominator"
            } ]
          },
          "count": 1
        }, {
          "id": "DenominatorExclusion_1",
          "code": {
            "coding": [ {
              "system": "http://terminology.hl7.org/CodeSystem/measure-population",
              "code": "denominator-exclusion",
              "display": "Denominator Exclusion"
            } ]
          },
          "count": 0
        }, {
          "id": "Numerator_1",
          "code": {
            "coding": [ {
              "system": "http://terminology.hl7.org/CodeSystem/measure-population",
              "code": "numerator",
              "display": "Numerator"
            } ]
          },
          "count": 1
        }, {
          "id": "DenominatorException_1",
          "code": {
            "coding": [ {
              "system": "http://terminology.hl7.org/CodeSystem/measure-population",
              "code": "denominator-exception",
              "display": "Denominator Exception"
            } ]
          },
          "count": 0
        } ],
        "measureScore": {
          "value": 0.0
        }
      } ],
      "evaluatedResource": [ {
        "reference": "Patient/7e3bf20a-7a5b-4d50-aa34-267ab19da7b2"
      }, {
        "reference": "Encounter/4e4d177a-e7e2-4841-9055-9594a94e284d"
      }, {
        "reference": "Encounter/18fb344f-0669-43c5-bf93-4028083f8404"
      }, {
        "reference": "Claim/5ca62962b8484628b8de1ec5"
      }, {
        "reference": "MedicationAdministration/25995d10-9a7a-4e69-85b7-cdb3a7ff2b16"
      }, {
        "reference": "Coverage/b182aea2-d464-4744-b95f-bb0cc3eff401"
      }, {
        "reference": "Condition/bce46320-596b-419a-a3a7-a5765a63edac"
      }, {
        "reference": "Organization/c9e679e6-6c17-4ada-a43a-cf4ff7172b4d"
      }, {
        "reference": "Practitioner/97f5aa8b-fb19-45f4-a3ab-8fd335f2a1e1"
      } ]
    },
    "request": {
      "method": "PUT",
      "url": "MeasureReport/28466ace-0f26-44f6-ae95-48203af912e6"
    }
  } ]
}