{
  "resourceType": "Bundle",
  "id": "657cbdc9b4f1f0343662347a",
  "type": "transaction",
  "entry": [ {
    "fullUrl": "https://madie.cms.gov/Patient/0b97cf11-42c5-4f2d-b80d-be2f0e3d2501",
    "resource": {
      "resourceType": "Patient",
      "id": "0b97cf11-42c5-4f2d-b80d-be2f0e3d2501",
      "meta": {
        "profile": [ "http://hl7.org/fhir/us/qicore/StructureDefinition/qicore-patient" ]
      },
      "extension": [ {
        "url": "http://hl7.org/fhir/us/core/StructureDefinition/us-core-race",
        "extension": [ {
          "url": "ombCategory",
          "valueCoding": {
            "system": "urn:oid:2.16.840.1.113883.6.238",
            "code": "2106-3",
            "display": "White",
            "userSelected": true
          }
        }, {
          "url": "text",
          "valueString": "White"
        } ]
      }, {
        "url": "http://hl7.org/fhir/us/core/StructureDefinition/us-core-ethnicity",
        "extension": [ {
          "url": "ombCategory",
          "valueCoding": {
            "system": "urn:oid:2.16.840.1.113883.6.238",
            "code": "2186-5",
            "display": "Not Hispanic or Latino",
            "userSelected": true
          }
        }, {
          "url": "text",
          "valueString": "Not Hispanic or Latino"
        } ]
      } ],
      "identifier": [ {
        "type": {
          "coding": [ {
            "system": "http://terminology.hl7.org/CodeSystem/v2-0203",
            "code": "MR"
          } ]
        },
        "system": "https://bonnie-fhir.healthit.gov/",
        "value": "657cbdc9b4f1f0343662347a"
      } ],
      "name": [ {
        "family": "IPOPPass",
        "given": [ "InptEncEncClassInptNonAcute" ]
      } ],
      "gender": "female",
      "birthDate": "2008-01-01"
    },
    "request": {
      "method": "PUT",
      "url": "Patient/0b97cf11-42c5-4f2d-b80d-be2f0e3d2501"
    }
  }, {
    "fullUrl": "https://madie.cms.gov/Encounter/b3e65510-9b81-40f2-b3b3-ca52e2f35fc8",
    "resource": {
      "resourceType": "Encounter",
      "id": "b3e65510-9b81-40f2-b3b3-ca52e2f35fc8",
      "meta": {
        "profile": [ "http://hl7.org/fhir/us/qicore/StructureDefinition/qicore-encounter" ]
      },
      "status": "entered-in-error",
      "class": {
        "system": "http://terminology.hl7.org/CodeSystem/v3-ActCode",
        "code": "NONAC",
        "display": "inpatient non-acute"
      },
      "type": [ {
        "coding": [ {
          "system": "http://snomed.info/sct",
          "version": "2024",
          "code": "32485007",
          "display": "Hospital admission (procedure)",
          "userSelected": true
        } ]
      } ],
      "subject": {
        "reference": "Patient/0b97cf11-42c5-4f2d-b80d-be2f0e3d2501"
      },
      "period": {
        "start": "2026-01-01T08:00:00.000Z",
        "end": "2026-01-02T09:15:00.000Z"
      },
      "location": [ {
        "location": {
          "reference": "Location/e8b8b125-ae89-4a79-b936-a57ff89c0831"
        },
        "period": {
          "start": "2026-01-01T00:00:00.000Z",
          "end": "2026-01-01T10:01:00.000Z"
        }
      } ]
    },
    "request": {
      "method": "PUT",
      "url": "Encounter/b3e65510-9b81-40f2-b3b3-ca52e2f35fc8"
    }
  }, {
    "fullUrl": "https://madie.cms.gov/Location/e8b8b125-ae89-4a79-b936-a57ff89c0831",
    "resource": {
      "resourceType": "Location",
      "id": "e8b8b125-ae89-4a79-b936-a57ff89c0831",
      "meta": {
        "profile": [ "http://hl7.org/fhir/us/qicore/StructureDefinition/qicore-location" ]
      },
      "identifier": [ {
        "use": "usual",
        "system": "http://exampleoflocation.com",
        "value": "B1-S.F2"
      } ],
      "name": "Medical Surgical East, first floor",
      "type": [ {
        "coding": [ {
          "system": "https://www.cdc.gov/nhsn/cdaportal/terminology/codesystem/hsloc.html",
          "code": "1025-6",
          "display": "Trauma Critical Care",
          "userSelected": true
        } ]
      } ]
    },
    "request": {
      "method": "PUT",
      "url": "Location/e8b8b125-ae89-4a79-b936-a57ff89c0831"
    }
  }, {
    "fullUrl": "https://madie.cms.gov/MedicationAdministration/c5659f48-d74f-4054-b68e-51535c9c2fb2",
    "resource": {
      "resourceType": "MedicationAdministration",
      "id": "c5659f48-d74f-4054-b68e-51535c9c2fb2",
      "meta": {
        "profile": [ "http://hl7.org/fhir/us/qicore/StructureDefinition/qicore-medicationadministration" ]
      },
      "status": "completed",
      "medicationCodeableConcept": {
        "coding": [ {
          "system": "http://www.nlm.nih.gov/research/umls/rxnorm",
          "code": "1007184",
          "display": "insulin aspart protamine, human / insulin aspart, human"
        } ]
      },
      "subject": {
        "reference": "Patient/0b97cf11-42c5-4f2d-b80d-be2f0e3d2501"
      },
      "effectivePeriod": {
        "start": "2026-01-01T08:00:00.000Z",
        "end": "2026-01-01T08:15:00.000Z"
      }
    },
    "request": {
      "method": "PUT",
      "url": "MedicationAdministration/c5659f48-d74f-4054-b68e-51535c9c2fb2"
    }
  }, {
    "fullUrl": "https://madie.cms.gov/Coverage/cb9d43d0-7f1d-463a-ab79-34d4c37bc537",
    "resource": {
      "resourceType": "Coverage",
      "id": "cb9d43d0-7f1d-463a-ab79-34d4c37bc537",
      "meta": {
        "profile": [ "http://hl7.org/fhir/us/qicore/StructureDefinition/qicore-coverage" ]
      },
      "identifier": [ {
        "system": "http://benefitsinc.com/certificate",
        "value": "12345"
      } ],
      "status": "active",
      "type": {
        "coding": [ {
          "system": "https://nahdo.org/sopt",
          "version": "1.0.1",
          "code": "1",
          "display": "MEDICARE",
          "userSelected": true
        } ]
      },
      "subscriberId": "AB9876",
      "beneficiary": {
        "reference": "Patient/0b97cf11-42c5-4f2d-b80d-be2f0e3d2501"
      },
      "relationship": {
        "coding": [ {
          "system": "http://terminology.hl7.org/CodeSystem/subscriber-relationship",
          "code": "self"
        } ]
      },
      "payor": [ {
        "reference": "Organization/1278519e-658b-4d81-9f88-8114fffd67e2"
      } ]
    },
    "request": {
      "method": "PUT",
      "url": "Coverage/cb9d43d0-7f1d-463a-ab79-34d4c37bc537"
    }
  }, {
    "fullUrl": "https://madie.cms.gov/Organization/1278519e-658b-4d81-9f88-8114fffd67e2",
    "resource": {
      "resourceType": "Organization",
      "id": "1278519e-658b-4d81-9f88-8114fffd67e2",
      "meta": {
        "profile": [ "http://hl7.org/fhir/us/qicore/StructureDefinition/qicore-organization" ]
      },
      "identifier": [ {
        "use": "temp",
        "system": "urn:oid:2.16.840.1.113883.4.4",
        "value": "21-3259825"
      } ],
      "active": true,
      "type": [ {
        "coding": [ {
          "system": "http://terminology.hl7.org/CodeSystem/organization-type",
          "code": "pay",
          "display": "Payer"
        } ]
      } ],
      "name": "Blue Cross Blue Shield of Texas",
      "telecom": [ {
        "system": "phone",
        "value": "(+1) 972-766-6900"
      } ],
      "address": [ {
        "use": "billing",
        "type": "postal",
        "line": [ "P.O. Box 660044" ],
        "city": "Dallas",
        "state": "TX",
        "postalCode": "75266-0044",
        "country": "USA"
      } ]
    },
    "request": {
      "method": "PUT",
      "url": "Organization/1278519e-658b-4d81-9f88-8114fffd67e2"
    }
  }, {
    "fullUrl": "https://madie.cms.gov/Practitioner/97f43d9b-7b65-4841-ba41-370e78d403ce",
    "resource": {
      "resourceType": "Practitioner",
      "id": "97f43d9b-7b65-4841-ba41-370e78d403ce",
      "meta": {
        "profile": [ "http://hl7.org/fhir/us/qicore/StructureDefinition/qicore-practitioner" ]
      },
      "identifier": [ {
        "system": "http://hl7.org/fhir/sid/us-npi",
        "value": "0723660813"
      } ],
      "name": [ {
        "family": "Evil",
        "prefix": [ "Dr" ]
      } ]
    },
    "request": {
      "method": "PUT",
      "url": "Practitioner/97f43d9b-7b65-4841-ba41-370e78d403ce"
    }
  }, {
    "fullUrl": "https://madie.cms.gov/MeasureReport/b83f4b61-c9f8-495e-854c-57fe05f2bcbe",
    "resource": {
      "resourceType": "MeasureReport",
      "id": "b83f4b61-c9f8-495e-854c-57fe05f2bcbe",
      "meta": {
        "profile": [ "http://hl7.org/fhir/us/cqfmeasures/StructureDefinition/test-case-cqfm" ]
      },
      "contained": [ {
        "resourceType": "Parameters",
        "id": "17ceb21c-f9fe-447e-bb95-e7d152c28d25-parameters",
        "parameter": [ {
          "name": "subject",
          "valueString": "0b97cf11-42c5-4f2d-b80d-be2f0e3d2501"
        } ]
      } ],
      "extension": [ {
        "url": "http://hl7.org/fhir/StructureDefinition/cqf-inputParameters",
        "valueReference": {
          "reference": "#17ceb21c-f9fe-447e-bb95-e7d152c28d25-parameters"
        }
      }, {
        "url": "http://hl7.org/fhir/us/cqfmeasures/StructureDefinition/cqfm-testCaseDescription",
        "valueMarkdown": "Inpatient encounter with diabetic medication administration - encounter class inpatient non-acute"
      } ],
      "modifierExtension": [ {
        "url": "http://hl7.org/fhir/us/cqfmeasures/StructureDefinition/cqfm-isTestCase",
        "valueBoolean": true
      } ],
      "status": "complete",
      "type": "individual",
      "measure": "https://madie.cms.gov/Measure/NHSNGlycemicControlHypoglycemiaInitialPopulation",
      "period": {
        "start": "2026-01-01",
        "end": "2026-12-31"
      },
      "group": [ {
        "id": "Group_1",
        "population": [ {
          "id": "InitialPopulation_1",
          "code": {
            "coding": [ {
              "system": "http://terminology.hl7.org/CodeSystem/measure-population",
              "code": "initial-population",
              "display": "Initial Population"
            } ]
          },
          "count": 1
        } ],
        "measureScore": {
          "value": 0.0
        }
      } ],
      "evaluatedResource": [ {
        "reference": "Patient/0b97cf11-42c5-4f2d-b80d-be2f0e3d2501"
      }, {
        "reference": "Encounter/b3e65510-9b81-40f2-b3b3-ca52e2f35fc8"
      }, {
        "reference": "Location/e8b8b125-ae89-4a79-b936-a57ff89c0831"
      }, {
        "reference": "MedicationAdministration/c5659f48-d74f-4054-b68e-51535c9c2fb2"
      }, {
        "reference": "Coverage/cb9d43d0-7f1d-463a-ab79-34d4c37bc537"
      }, {
        "reference": "Organization/1278519e-658b-4d81-9f88-8114fffd67e2"
      }, {
        "reference": "Practitioner/97f43d9b-7b65-4841-ba41-370e78d403ce"
      } ]
    },
    "request": {
      "method": "PUT",
      "url": "MeasureReport/b83f4b61-c9f8-495e-854c-57fe05f2bcbe"
    }
  } ]
}