{
  "resourceType": "Bundle",
  "id": "612e6b0e02c62a011f2ec40a",
  "type": "transaction",
  "entry": [ {
    "fullUrl": "https://madie.cms.gov/Patient/9696b1d1-693b-42f8-96a2-95f379e245a4",
    "resource": {
      "resourceType": "Patient",
      "id": "9696b1d1-693b-42f8-96a2-95f379e245a4",
      "meta": {
        "profile": [ "http://hl7.org/fhir/us/qicore/StructureDefinition/qicore-patient" ]
      },
      "text": {
        "status": "generated",
        "div": "<div xmlns=\"http://www.w3.org/1999/xhtml\"><div class=\"hapiHeaderText\">MA_RixDuringED <b>NUMERPASS </b></div><table class=\"hapiPropertyTable\"><tbody><tr><td>Identifier</td><td>9ac41bff10ef3353d0742df1f73dc984</td></tr><tr><td>Date of birth</td><td><span>02 January 1974</span></td></tr></tbody></table></div>"
      },
      "extension": [ {
        "url": "http://hl7.org/fhir/us/core/StructureDefinition/us-core-race",
        "extension": [ {
          "url": "ombCategory",
          "valueCoding": {
            "system": "urn:oid:2.16.840.1.113883.6.238",
            "code": "1002-5",
            "display": "American Indian or Alaska Native",
            "userSelected": true
          }
        }, {
          "url": "text",
          "valueString": "American Indian or Alaska Native"
        } ]
      }, {
        "url": "http://hl7.org/fhir/us/core/StructureDefinition/us-core-ethnicity",
        "extension": [ {
          "url": "ombCategory",
          "valueCoding": {
            "system": "urn:oid:2.16.840.1.113883.6.238",
            "code": "2135-2",
            "display": "Hispanic or Latino",
            "userSelected": true
          }
        }, {
          "url": "text",
          "valueString": "Hispanic or Latino"
        } ]
      } ],
      "identifier": [ {
        "type": {
          "coding": [ {
            "system": "http://terminology.hl7.org/CodeSystem/v2-0203",
            "code": "MR"
          } ]
        },
        "system": "https://bonnie-fhir.healthit.gov/",
        "value": "612e6b0e02c62a011f2ec40a"
      } ],
      "active": true,
      "name": [ {
        "use": "usual",
        "family": "NUMERPass",
        "given": [ "MARixDuringED" ]
      } ],
      "gender": "male",
      "birthDate": "1975-01-02"
    },
    "request": {
      "method": "PUT",
      "url": "Patient/9696b1d1-693b-42f8-96a2-95f379e245a4"
    }
  }, {
    "fullUrl": "https://madie.cms.gov/Encounter/ab0bdd6e-57bb-4832-b722-4964a57aa7da",
    "resource": {
      "resourceType": "Encounter",
      "id": "ab0bdd6e-57bb-4832-b722-4964a57aa7da",
      "meta": {
        "profile": [ "http://hl7.org/fhir/us/qicore/StructureDefinition/qicore-encounter" ]
      },
      "status": "finished",
      "class": {
        "system": "http://terminology.hl7.org/CodeSystem/v3-ActCode",
        "code": "IMP",
        "display": "inpatient encounter"
      },
      "type": [ {
        "coding": [ {
          "system": "http://snomed.info/sct",
          "code": "8715000"
        } ]
      } ],
      "subject": {
        "reference": "Patient/9696b1d1-693b-42f8-96a2-95f379e245a4"
      },
      "period": {
        "start": "2026-11-01T08:00:00.000+00:00",
        "end": "2026-11-26T08:15:00.000+00:00"
      },
      "length": {
        "value": 25,
        "unit": "days"
      }
    },
    "request": {
      "method": "PUT",
      "url": "Encounter/ab0bdd6e-57bb-4832-b722-4964a57aa7da"
    }
  }, {
    "fullUrl": "https://madie.cms.gov/Encounter/32b42202-e13f-46f9-9e3e-493b21dd9055",
    "resource": {
      "resourceType": "Encounter",
      "id": "32b42202-e13f-46f9-9e3e-493b21dd9055",
      "meta": {
        "profile": [ "http://hl7.org/fhir/us/qicore/StructureDefinition/qicore-encounter" ]
      },
      "status": "finished",
      "class": {
        "system": "http://terminology.hl7.org/CodeSystem/v3-ActCode",
        "code": "EMER",
        "display": "emergency"
      },
      "type": [ {
        "coding": [ {
          "system": "http://snomed.info/sct",
          "code": "4525004"
        } ]
      } ],
      "subject": {
        "reference": "Patient/9696b1d1-693b-42f8-96a2-95f379e245a4"
      },
      "period": {
        "start": "2026-10-31T20:00:00.000+00:00",
        "end": "2026-11-01T07:00:00.000+00:00"
      }
    },
    "request": {
      "method": "PUT",
      "url": "Encounter/32b42202-e13f-46f9-9e3e-493b21dd9055"
    }
  }, {
    "fullUrl": "https://madie.cms.gov/Coverage/14d2a60e-06e8-4acd-a092-bb53ffa9b9ca",
    "resource": {
      "resourceType": "Coverage",
      "id": "14d2a60e-06e8-4acd-a092-bb53ffa9b9ca",
      "status": "active",
      "beneficiary": {
        "reference": "Patient/9696b1d1-693b-42f8-96a2-95f379e245a4"
      },
      "period": {
        "start": "1975-01-02T08:00:00.000+00:00"
      },
      "payor": [ {
        "reference": "Organization/e9b0af93-e083-4a1b-aefe-9b18977bdbf6"
      } ]
    },
    "request": {
      "method": "PUT",
      "url": "Coverage/14d2a60e-06e8-4acd-a092-bb53ffa9b9ca"
    }
  }, {
    "fullUrl": "https://madie.cms.gov/MedicationAdministration/7888c4d4-cc28-4517-a6b5-b2818e6a8d9e",
    "resource": {
      "resourceType": "MedicationAdministration",
      "id": "7888c4d4-cc28-4517-a6b5-b2818e6a8d9e",
      "meta": {
        "profile": [ "http://hl7.org/fhir/us/qicore/StructureDefinition/qicore-medicationadministration" ]
      },
      "status": "completed",
      "medicationCodeableConcept": {
        "coding": [ {
          "system": "http://www.nlm.nih.gov/research/umls/rxnorm",
          "code": "1114198"
        } ]
      },
      "subject": {
        "reference": "Patient/9696b1d1-693b-42f8-96a2-95f379e245a4"
      },
      "effectivePeriod": {
        "start": "2026-10-31T09:00:00.000+00:00",
        "end": "2026-10-31T09:15:00.000+00:00"
      }
    },
    "request": {
      "method": "PUT",
      "url": "MedicationAdministration/7888c4d4-cc28-4517-a6b5-b2818e6a8d9e"
    }
  }, {
    "fullUrl": "https://madie.cms.gov/Organization/e9b0af93-e083-4a1b-aefe-9b18977bdbf6",
    "resource": {
      "resourceType": "Organization",
      "id": "e9b0af93-e083-4a1b-aefe-9b18977bdbf6",
      "meta": {
        "profile": [ "http://hl7.org/fhir/us/qicore/StructureDefinition/qicore-organization" ]
      },
      "identifier": [ {
        "use": "temp",
        "system": "urn:oid:2.16.840.1.113883.4.4",
        "value": "21-3259825"
      } ],
      "active": true,
      "type": [ {
        "coding": [ {
          "system": "http://terminology.hl7.org/CodeSystem/organization-type",
          "code": "pay",
          "display": "Payer"
        } ]
      } ],
      "name": "Blue Cross Blue Shield of Texas",
      "telecom": [ {
        "system": "phone",
        "value": "(+1) 972-766-6900"
      } ],
      "address": [ {
        "use": "billing",
        "type": "postal",
        "line": [ "P.O. Box 660044" ],
        "city": "Dallas",
        "state": "TX",
        "postalCode": "75266-0044",
        "country": "USA"
      } ]
    },
    "request": {
      "method": "PUT",
      "url": "Organization/e9b0af93-e083-4a1b-aefe-9b18977bdbf6"
    }
  }, {
    "fullUrl": "https://madie.cms.gov/MeasureReport/61b461d1-a0e3-41c2-9422-a596476eb63b",
    "resource": {
      "resourceType": "MeasureReport",
      "id": "61b461d1-a0e3-41c2-9422-a596476eb63b",
      "meta": {
        "profile": [ "http://hl7.org/fhir/us/cqfmeasures/StructureDefinition/test-case-cqfm" ]
      },
      "contained": [ {
        "resourceType": "Parameters",
        "id": "bf955874-15e1-4da6-846c-a16c5c2b5d15-parameters",
        "parameter": [ {
          "name": "subject",
          "valueString": "9696b1d1-693b-42f8-96a2-95f379e245a4"
        } ]
      } ],
      "extension": [ {
        "url": "http://hl7.org/fhir/StructureDefinition/cqf-inputParameters",
        "valueReference": {
          "reference": "#bf955874-15e1-4da6-846c-a16c5c2b5d15-parameters"
        }
      }, {
        "url": "http://hl7.org/fhir/us/cqfmeasures/StructureDefinition/cqfm-testCaseDescription",
        "valueMarkdown": "Rivaroxaban for VTE Prophylaxis Med Administered during ED which ED = 1 hr ends Adm\n"
      } ],
      "modifierExtension": [ {
        "url": "http://hl7.org/fhir/us/cqfmeasures/StructureDefinition/cqfm-isTestCase",
        "valueBoolean": true
      } ],
      "status": "complete",
      "type": "individual",
      "measure": "https://madie.cms.gov/Measure/CMS108FHIRVTEProphylaxis",
      "period": {
        "start": "2026-01-01",
        "end": "2026-12-31"
      },
      "group": [ {
        "id": "Group_1",
        "population": [ {
          "id": "InitialPopulation_1",
          "code": {
            "coding": [ {
              "system": "http://terminology.hl7.org/CodeSystem/measure-population",
              "code": "initial-population",
              "display": "Initial Population"
            } ]
          },
          "count": 1
        }, {
          "id": "Denominator_1",
          "code": {
            "coding": [ {
              "system": "http://terminology.hl7.org/CodeSystem/measure-population",
              "code": "denominator",
              "display": "Denominator"
            } ]
          },
          "count": 1
        }, {
          "id": "DenominatorExclusion_1",
          "code": {
            "coding": [ {
              "system": "http://terminology.hl7.org/CodeSystem/measure-population",
              "code": "denominator-exclusion",
              "display": "Denominator Exclusion"
            } ]
          },
          "count": 0
        }, {
          "id": "Numerator_1",
          "code": {
            "coding": [ {
              "system": "http://terminology.hl7.org/CodeSystem/measure-population",
              "code": "numerator",
              "display": "Numerator"
            } ]
          },
          "count": 1
        } ],
        "measureScore": {
          "value": 0.0
        }
      } ],
      "evaluatedResource": [ {
        "reference": "Patient/9696b1d1-693b-42f8-96a2-95f379e245a4"
      }, {
        "reference": "Encounter/ab0bdd6e-57bb-4832-b722-4964a57aa7da"
      }, {
        "reference": "Encounter/32b42202-e13f-46f9-9e3e-493b21dd9055"
      }, {
        "reference": "Coverage/14d2a60e-06e8-4acd-a092-bb53ffa9b9ca"
      }, {
        "reference": "MedicationAdministration/7888c4d4-cc28-4517-a6b5-b2818e6a8d9e"
      }, {
        "reference": "Organization/e9b0af93-e083-4a1b-aefe-9b18977bdbf6"
      } ]
    },
    "request": {
      "method": "PUT",
      "url": "MeasureReport/61b461d1-a0e3-41c2-9422-a596476eb63b"
    }
  } ]
}