{
  "resourceType": "Bundle",
  "id": "IPPass-PreventiveCareInitialVisit18Up",
  "type": "transaction",
  "entry": [ {
    "fullUrl": "https://madie.cms.gov/Patient/40ed567d-9ecf-4bf8-b552-be9b87a6834d",
    "resource": {
      "resourceType": "Patient",
      "id": "40ed567d-9ecf-4bf8-b552-be9b87a6834d",
      "meta": {
        "profile": [ "http://hl7.org/fhir/us/qicore/StructureDefinition/qicore-patient" ]
      },
      "extension": [ {
        "url": "http://hl7.org/fhir/us/core/StructureDefinition/us-core-race",
        "extension": [ {
          "url": "ombCategory",
          "valueCoding": {
            "system": "urn:oid:2.16.840.1.113883.6.238",
            "code": "2028-9",
            "display": "Asian",
            "userSelected": true
          }
        }, {
          "url": "text",
          "valueString": "Asian"
        } ]
      }, {
        "url": "http://hl7.org/fhir/us/core/StructureDefinition/us-core-ethnicity",
        "extension": [ {
          "url": "ombCategory",
          "valueCoding": {
            "system": "urn:oid:2.16.840.1.113883.6.238",
            "code": "2135-2",
            "display": "Hispanic or Latino",
            "userSelected": true
          }
        }, {
          "url": "text",
          "valueString": "Hispanic or Latino"
        } ]
      } ],
      "identifier": [ {
        "type": {
          "coding": [ {
            "system": "http://terminology.hl7.org/CodeSystem/v2-0203",
            "code": "MR"
          } ]
        },
        "system": "http://hospital.smarthealthit.org",
        "value": "999999995"
      } ],
      "name": [ {
        "family": "Bertha",
        "given": [ "Betty" ]
      } ],
      "gender": "male",
      "birthDate": "2007-01-01"
    },
    "request": {
      "method": "PUT",
      "url": "Patient/40ed567d-9ecf-4bf8-b552-be9b87a6834d"
    }
  }, {
    "fullUrl": "https://madie.cms.gov/Encounter/31cacc40-17fd-491c-b7b7-1e7b867346e8",
    "resource": {
      "resourceType": "Encounter",
      "id": "31cacc40-17fd-491c-b7b7-1e7b867346e8",
      "meta": {
        "profile": [ "http://hl7.org/fhir/us/qicore/StructureDefinition/qicore-encounter" ]
      },
      "status": "finished",
      "class": {
        "system": "http://terminology.hl7.org/CodeSystem/v3-ActCode",
        "code": "AMB",
        "display": "ambulatory"
      },
      "type": [ {
        "coding": [ {
          "system": "http://www.ama-assn.org/go/cpt",
          "code": "99385",
          "display": "Initial comprehensive preventive medicine evaluation and management of an individual including an age and gender appropriate history, examination, counseling/anticipatory guidance/risk factor reduction interventions, and the ordering of laboratory/diagnostic procedures, new patient; 18-39 years"
        } ]
      } ],
      "subject": {
        "reference": "Patient/40ed567d-9ecf-4bf8-b552-be9b87a6834d"
      },
      "period": {
        "start": "2026-01-01T00:00:00.000+00:00",
        "end": "2026-01-01T01:00:00.000+00:00"
      }
    },
    "request": {
      "method": "PUT",
      "url": "Encounter/31cacc40-17fd-491c-b7b7-1e7b867346e8"
    }
  }, {
    "fullUrl": "https://madie.cms.gov/MedicationDispense/b6560c2c-5cb5-43f5-9b3f-105586488511",
    "resource": {
      "resourceType": "MedicationDispense",
      "id": "b6560c2c-5cb5-43f5-9b3f-105586488511",
      "meta": {
        "profile": [ "http://hl7.org/fhir/us/qicore/StructureDefinition/qicore-medicationdispense" ]
      },
      "status": "completed",
      "medicationCodeableConcept": {
        "coding": [ {
          "system": "http://www.nlm.nih.gov/research/umls/rxnorm",
          "code": "1099316",
          "display": "desipramine hydrochloride 75 MG Oral Tablet"
        } ]
      },
      "subject": {
        "reference": "Patient/40ed567d-9ecf-4bf8-b552-be9b87a6834d"
      },
      "daysSupply": {
        "value": 10,
        "system": "http://unitsofmeasure.org",
        "code": "d"
      },
      "whenHandedOver": "2026-01-01T01:00:00.000+00:00"
    },
    "request": {
      "method": "PUT",
      "url": "MedicationDispense/b6560c2c-5cb5-43f5-9b3f-105586488511"
    }
  }, {
    "fullUrl": "https://madie.cms.gov/MedicationDispense/935b33ee-243e-4b36-b5d5-1a03c5ecc287",
    "resource": {
      "resourceType": "MedicationDispense",
      "id": "935b33ee-243e-4b36-b5d5-1a03c5ecc287",
      "meta": {
        "profile": [ "http://hl7.org/fhir/us/qicore/StructureDefinition/qicore-medicationdispense" ]
      },
      "status": "completed",
      "medicationCodeableConcept": {
        "coding": [ {
          "system": "http://www.nlm.nih.gov/research/umls/rxnorm",
          "code": "1099316",
          "display": "desipramine hydrochloride 75 MG Oral Tablet"
        } ]
      },
      "subject": {
        "reference": "Patient/40ed567d-9ecf-4bf8-b552-be9b87a6834d"
      },
      "daysSupply": {
        "value": 10,
        "system": "http://unitsofmeasure.org",
        "code": "d"
      },
      "whenHandedOver": "2026-03-01T01:00:00.000+00:00"
    },
    "request": {
      "method": "PUT",
      "url": "MedicationDispense/935b33ee-243e-4b36-b5d5-1a03c5ecc287"
    }
  }, {
    "fullUrl": "https://madie.cms.gov/Condition/871da9f2-68a6-4aa3-b092-af419fbeba46",
    "resource": {
      "resourceType": "Condition",
      "id": "871da9f2-68a6-4aa3-b092-af419fbeba46",
      "meta": {
        "profile": [ "http://hl7.org/fhir/us/qicore/StructureDefinition/qicore-condition-encounter-diagnosis" ]
      },
      "clinicalStatus": {
        "coding": [ {
          "system": "http://terminology.hl7.org/CodeSystem/condition-clinical",
          "code": "active"
        } ]
      },
      "category": [ {
        "coding": [ {
          "system": "http://terminology.hl7.org/CodeSystem/condition-category",
          "code": "encounter-diagnosis",
          "display": "Encounter Diagnosis"
        } ]
      } ],
      "code": {
        "coding": [ {
          "system": "http://snomed.info/sct",
          "code": "15193003",
          "display": "Severe recurrent major depression with psychotic features, mood-incongruent (disorder)"
        } ]
      },
      "subject": {
        "reference": "Patient/40ed567d-9ecf-4bf8-b552-be9b87a6834d"
      },
      "onsetDateTime": "2026-01-01T01:00:00.000+00:00"
    },
    "request": {
      "method": "PUT",
      "url": "Condition/871da9f2-68a6-4aa3-b092-af419fbeba46"
    }
  }, {
    "fullUrl": "https://madie.cms.gov/MeasureReport/e43bfd14-34af-419a-937e-7b240d9d8bf7",
    "resource": {
      "resourceType": "MeasureReport",
      "id": "e43bfd14-34af-419a-937e-7b240d9d8bf7",
      "meta": {
        "profile": [ "http://hl7.org/fhir/us/cqfmeasures/StructureDefinition/test-case-cqfm" ]
      },
      "contained": [ {
        "resourceType": "Parameters",
        "id": "af310639-0ce0-4339-817f-4cc4c2059bdb-parameters",
        "parameter": [ {
          "name": "subject",
          "valueString": "40ed567d-9ecf-4bf8-b552-be9b87a6834d"
        } ]
      } ],
      "extension": [ {
        "url": "http://hl7.org/fhir/StructureDefinition/cqf-inputParameters",
        "valueReference": {
          "reference": "#af310639-0ce0-4339-817f-4cc4c2059bdb-parameters"
        }
      }, {
        "url": "http://hl7.org/fhir/us/cqfmeasures/StructureDefinition/cqfm-testCaseDescription",
        "valueMarkdown": "Qualifying encounter is Preventive Care Services Initial Office Visit, 18 and Up"
      } ],
      "modifierExtension": [ {
        "url": "http://hl7.org/fhir/us/cqfmeasures/StructureDefinition/cqfm-isTestCase",
        "valueBoolean": true
      } ],
      "status": "complete",
      "type": "individual",
      "measure": "https://madie.cms.gov/Measure/CMS128FHIRAntidepressantMgmt",
      "period": {
        "start": "2026-01-01",
        "end": "2026-12-31"
      },
      "group": [ {
        "id": "Group_1",
        "population": [ {
          "id": "InitialPopulation_1",
          "code": {
            "coding": [ {
              "system": "http://terminology.hl7.org/CodeSystem/measure-population",
              "code": "initial-population",
              "display": "Initial Population"
            } ]
          },
          "count": 1
        }, {
          "id": "Denominator_1",
          "code": {
            "coding": [ {
              "system": "http://terminology.hl7.org/CodeSystem/measure-population",
              "code": "denominator",
              "display": "Denominator"
            } ]
          },
          "count": 1
        }, {
          "id": "DenominatorExclusion_1",
          "code": {
            "coding": [ {
              "system": "http://terminology.hl7.org/CodeSystem/measure-population",
              "code": "denominator-exclusion",
              "display": "Denominator Exclusion"
            } ]
          },
          "count": 0
        }, {
          "id": "Numerator_1",
          "code": {
            "coding": [ {
              "system": "http://terminology.hl7.org/CodeSystem/measure-population",
              "code": "numerator",
              "display": "Numerator"
            } ]
          },
          "count": 0
        } ],
        "measureScore": {
          "value": 1.0
        }
      }, {
        "id": "Group_2",
        "population": [ {
          "id": "InitialPopulation_2",
          "code": {
            "coding": [ {
              "system": "http://terminology.hl7.org/CodeSystem/measure-population",
              "code": "initial-population",
              "display": "Initial Population"
            } ]
          },
          "count": 1
        }, {
          "id": "Denominator_2",
          "code": {
            "coding": [ {
              "system": "http://terminology.hl7.org/CodeSystem/measure-population",
              "code": "denominator",
              "display": "Denominator"
            } ]
          },
          "count": 1
        }, {
          "id": "DenominatorExclusion_2",
          "code": {
            "coding": [ {
              "system": "http://terminology.hl7.org/CodeSystem/measure-population",
              "code": "denominator-exclusion",
              "display": "Denominator Exclusion"
            } ]
          },
          "count": 0
        }, {
          "id": "Numerator_2",
          "code": {
            "coding": [ {
              "system": "http://terminology.hl7.org/CodeSystem/measure-population",
              "code": "numerator",
              "display": "Numerator"
            } ]
          },
          "count": 0
        } ],
        "measureScore": {
          "value": 1.0
        }
      } ],
      "evaluatedResource": [ {
        "reference": "Patient/40ed567d-9ecf-4bf8-b552-be9b87a6834d"
      }, {
        "reference": "Encounter/31cacc40-17fd-491c-b7b7-1e7b867346e8"
      }, {
        "reference": "MedicationDispense/b6560c2c-5cb5-43f5-9b3f-105586488511"
      }, {
        "reference": "MedicationDispense/935b33ee-243e-4b36-b5d5-1a03c5ecc287"
      }, {
        "reference": "Condition/871da9f2-68a6-4aa3-b092-af419fbeba46"
      } ]
    },
    "request": {
      "method": "PUT",
      "url": "MeasureReport/e43bfd14-34af-419a-937e-7b240d9d8bf7"
    }
  } ]
}