{
  "resourceType": "Bundle",
  "id": "657cbdc9b4f1f0343662347a",
  "type": "transaction",
  "entry": [ {
    "fullUrl": "https://madie.cms.gov/Patient/de3b49e7-ffd3-4f5a-aa3a-249aefd1f0d0",
    "resource": {
      "resourceType": "Patient",
      "id": "de3b49e7-ffd3-4f5a-aa3a-249aefd1f0d0",
      "meta": {
        "profile": [ "http://hl7.org/fhir/us/qicore/StructureDefinition/qicore-patient" ]
      },
      "extension": [ {
        "url": "http://hl7.org/fhir/us/core/StructureDefinition/us-core-race",
        "extension": [ {
          "url": "ombCategory",
          "valueCoding": {
            "system": "urn:oid:2.16.840.1.113883.6.238",
            "code": "2106-3",
            "display": "White",
            "userSelected": true
          }
        }, {
          "url": "text",
          "valueString": "White"
        } ]
      }, {
        "url": "http://hl7.org/fhir/us/core/StructureDefinition/us-core-ethnicity",
        "extension": [ {
          "url": "ombCategory",
          "valueCoding": {
            "system": "urn:oid:2.16.840.1.113883.6.238",
            "code": "2186-5",
            "display": "Not Hispanic or Latino",
            "userSelected": true
          }
        }, {
          "url": "text",
          "valueString": "Not Hispanic or Latino"
        } ]
      } ],
      "identifier": [ {
        "type": {
          "coding": [ {
            "system": "http://terminology.hl7.org/CodeSystem/v2-0203",
            "code": "MR"
          } ]
        },
        "system": "https://bonnie-fhir.healthit.gov/",
        "value": "657cbdc9b4f1f0343662347a"
      } ],
      "name": [ {
        "family": "IPOPPass",
        "given": [ "InptEncStatusEnteredInErrorLocation" ]
      } ],
      "gender": "female",
      "birthDate": "2008-01-01"
    },
    "request": {
      "method": "PUT",
      "url": "Patient/de3b49e7-ffd3-4f5a-aa3a-249aefd1f0d0"
    }
  }, {
    "fullUrl": "https://madie.cms.gov/Encounter/b3afee74-7363-4071-bfda-efec95d3fbbe",
    "resource": {
      "resourceType": "Encounter",
      "id": "b3afee74-7363-4071-bfda-efec95d3fbbe",
      "meta": {
        "profile": [ "http://hl7.org/fhir/us/qicore/StructureDefinition/qicore-encounter" ]
      },
      "status": "entered-in-error",
      "class": {
        "system": "http://terminology.hl7.org/CodeSystem/v3-ActCode",
        "code": "ACUTE",
        "display": "inpatient acute"
      },
      "type": [ {
        "coding": [ {
          "system": "http://snomed.info/sct",
          "version": "2024",
          "code": "32485007",
          "display": "Hospital admission (procedure)",
          "userSelected": true
        } ]
      } ],
      "subject": {
        "reference": "Patient/de3b49e7-ffd3-4f5a-aa3a-249aefd1f0d0"
      },
      "period": {
        "start": "2026-01-01T08:00:00.000Z",
        "end": "2026-01-02T09:15:00.000Z"
      },
      "location": [ {
        "location": {
          "reference": "Location/0e40f043-8871-49ba-aaed-896cc96d5c46"
        },
        "period": {
          "start": "2026-01-01T00:00:00.000Z",
          "end": "2026-01-01T10:01:00.000Z"
        }
      } ]
    },
    "request": {
      "method": "PUT",
      "url": "Encounter/b3afee74-7363-4071-bfda-efec95d3fbbe"
    }
  }, {
    "fullUrl": "https://madie.cms.gov/Location/0e40f043-8871-49ba-aaed-896cc96d5c46",
    "resource": {
      "resourceType": "Location",
      "id": "0e40f043-8871-49ba-aaed-896cc96d5c46",
      "meta": {
        "profile": [ "http://hl7.org/fhir/us/qicore/StructureDefinition/qicore-location" ]
      },
      "identifier": [ {
        "use": "usual",
        "system": "http://exampleoflocation.com",
        "value": "B1-S.F2"
      } ],
      "name": "Medical Surgical East, first floor",
      "type": [ {
        "coding": [ {
          "system": "https://www.cdc.gov/nhsn/cdaportal/terminology/codesystem/hsloc.html",
          "code": "1025-6",
          "display": "Trauma Critical Care",
          "userSelected": true
        } ]
      } ]
    },
    "request": {
      "method": "PUT",
      "url": "Location/0e40f043-8871-49ba-aaed-896cc96d5c46"
    }
  }, {
    "fullUrl": "https://madie.cms.gov/MedicationAdministration/27cbeff0-c09f-448b-be87-bef5630a883c",
    "resource": {
      "resourceType": "MedicationAdministration",
      "id": "27cbeff0-c09f-448b-be87-bef5630a883c",
      "meta": {
        "profile": [ "http://hl7.org/fhir/us/qicore/StructureDefinition/qicore-medicationadministration" ]
      },
      "status": "completed",
      "medicationCodeableConcept": {
        "coding": [ {
          "system": "http://www.nlm.nih.gov/research/umls/rxnorm",
          "code": "1007184",
          "display": "insulin aspart protamine, human / insulin aspart, human"
        } ]
      },
      "subject": {
        "reference": "Patient/de3b49e7-ffd3-4f5a-aa3a-249aefd1f0d0"
      },
      "effectivePeriod": {
        "start": "2026-01-01T08:00:00.000Z",
        "end": "2026-01-01T08:15:00.000Z"
      }
    },
    "request": {
      "method": "PUT",
      "url": "MedicationAdministration/27cbeff0-c09f-448b-be87-bef5630a883c"
    }
  }, {
    "fullUrl": "https://madie.cms.gov/Coverage/36e5ac97-7d68-45c6-9c3d-941c94b06de3",
    "resource": {
      "resourceType": "Coverage",
      "id": "36e5ac97-7d68-45c6-9c3d-941c94b06de3",
      "meta": {
        "profile": [ "http://hl7.org/fhir/us/qicore/StructureDefinition/qicore-coverage" ]
      },
      "identifier": [ {
        "system": "http://benefitsinc.com/certificate",
        "value": "12345"
      } ],
      "status": "active",
      "type": {
        "coding": [ {
          "system": "https://nahdo.org/sopt",
          "version": "1.0.1",
          "code": "1",
          "display": "MEDICARE",
          "userSelected": true
        } ]
      },
      "subscriberId": "AB9876",
      "beneficiary": {
        "reference": "Patient/de3b49e7-ffd3-4f5a-aa3a-249aefd1f0d0"
      },
      "relationship": {
        "coding": [ {
          "system": "http://terminology.hl7.org/CodeSystem/subscriber-relationship",
          "code": "self"
        } ]
      },
      "payor": [ {
        "reference": "Organization/5ba48cd6-7515-4930-b1b3-9b37b7e4e7fb"
      } ]
    },
    "request": {
      "method": "PUT",
      "url": "Coverage/36e5ac97-7d68-45c6-9c3d-941c94b06de3"
    }
  }, {
    "fullUrl": "https://madie.cms.gov/Organization/5ba48cd6-7515-4930-b1b3-9b37b7e4e7fb",
    "resource": {
      "resourceType": "Organization",
      "id": "5ba48cd6-7515-4930-b1b3-9b37b7e4e7fb",
      "meta": {
        "profile": [ "http://hl7.org/fhir/us/qicore/StructureDefinition/qicore-organization" ]
      },
      "identifier": [ {
        "use": "temp",
        "system": "urn:oid:2.16.840.1.113883.4.4",
        "value": "21-3259825"
      } ],
      "active": true,
      "type": [ {
        "coding": [ {
          "system": "http://terminology.hl7.org/CodeSystem/organization-type",
          "code": "pay",
          "display": "Payer"
        } ]
      } ],
      "name": "Blue Cross Blue Shield of Texas",
      "telecom": [ {
        "system": "phone",
        "value": "(+1) 972-766-6900"
      } ],
      "address": [ {
        "use": "billing",
        "type": "postal",
        "line": [ "P.O. Box 660044" ],
        "city": "Dallas",
        "state": "TX",
        "postalCode": "75266-0044",
        "country": "USA"
      } ]
    },
    "request": {
      "method": "PUT",
      "url": "Organization/5ba48cd6-7515-4930-b1b3-9b37b7e4e7fb"
    }
  }, {
    "fullUrl": "https://madie.cms.gov/Practitioner/571251ef-7324-4509-a4f8-43dc89e186c5",
    "resource": {
      "resourceType": "Practitioner",
      "id": "571251ef-7324-4509-a4f8-43dc89e186c5",
      "meta": {
        "profile": [ "http://hl7.org/fhir/us/qicore/StructureDefinition/qicore-practitioner" ]
      },
      "identifier": [ {
        "system": "http://hl7.org/fhir/sid/us-npi",
        "value": "0723660813"
      } ],
      "name": [ {
        "family": "Evil",
        "prefix": [ "Dr" ]
      } ]
    },
    "request": {
      "method": "PUT",
      "url": "Practitioner/571251ef-7324-4509-a4f8-43dc89e186c5"
    }
  }, {
    "fullUrl": "https://madie.cms.gov/MeasureReport/3c95c919-ea24-4e79-a66e-73b2d249b671",
    "resource": {
      "resourceType": "MeasureReport",
      "id": "3c95c919-ea24-4e79-a66e-73b2d249b671",
      "meta": {
        "profile": [ "http://hl7.org/fhir/us/cqfmeasures/StructureDefinition/test-case-cqfm" ]
      },
      "contained": [ {
        "resourceType": "Parameters",
        "id": "39f6b16d-425d-4561-b53e-9d06cc2d7d5a-parameters",
        "parameter": [ {
          "name": "subject",
          "valueString": "de3b49e7-ffd3-4f5a-aa3a-249aefd1f0d0"
        } ]
      } ],
      "extension": [ {
        "url": "http://hl7.org/fhir/StructureDefinition/cqf-inputParameters",
        "valueReference": {
          "reference": "#39f6b16d-425d-4561-b53e-9d06cc2d7d5a-parameters"
        }
      }, {
        "url": "http://hl7.org/fhir/us/cqfmeasures/StructureDefinition/cqfm-testCaseDescription",
        "valueMarkdown": "Inpatient encounter with diabetic medication administration with location- entered in error, class = inpatient acute"
      } ],
      "modifierExtension": [ {
        "url": "http://hl7.org/fhir/us/cqfmeasures/StructureDefinition/cqfm-isTestCase",
        "valueBoolean": true
      } ],
      "status": "complete",
      "type": "individual",
      "measure": "https://madie.cms.gov/Measure/NHSNGlycemicControlHypoglycemiaInitialPopulation",
      "period": {
        "start": "2026-01-01",
        "end": "2026-12-31"
      },
      "group": [ {
        "id": "Group_1",
        "population": [ {
          "id": "InitialPopulation_1",
          "code": {
            "coding": [ {
              "system": "http://terminology.hl7.org/CodeSystem/measure-population",
              "code": "initial-population",
              "display": "Initial Population"
            } ]
          },
          "count": 1
        } ],
        "measureScore": {
          "value": 0.0
        }
      } ],
      "evaluatedResource": [ {
        "reference": "Patient/de3b49e7-ffd3-4f5a-aa3a-249aefd1f0d0"
      }, {
        "reference": "Encounter/b3afee74-7363-4071-bfda-efec95d3fbbe"
      }, {
        "reference": "Location/0e40f043-8871-49ba-aaed-896cc96d5c46"
      }, {
        "reference": "MedicationAdministration/27cbeff0-c09f-448b-be87-bef5630a883c"
      }, {
        "reference": "Coverage/36e5ac97-7d68-45c6-9c3d-941c94b06de3"
      }, {
        "reference": "Organization/5ba48cd6-7515-4930-b1b3-9b37b7e4e7fb"
      }, {
        "reference": "Practitioner/571251ef-7324-4509-a4f8-43dc89e186c5"
      } ]
    },
    "request": {
      "method": "PUT",
      "url": "MeasureReport/3c95c919-ea24-4e79-a66e-73b2d249b671"
    }
  } ]
}