{
  "resourceType": "Bundle",
  "id": "63233443414ba67d4e1d1c31",
  "type": "transaction",
  "entry": [ {
    "fullUrl": "https://madie.cms.gov/Patient/f049e76a-aef1-4e8f-a8bd-dfdb419de551",
    "resource": {
      "resourceType": "Patient",
      "id": "f049e76a-aef1-4e8f-a8bd-dfdb419de551",
      "meta": {
        "profile": [ "http://hl7.org/fhir/us/qicore/StructureDefinition/qicore-patient" ]
      },
      "extension": [ {
        "url": "http://hl7.org/fhir/us/core/StructureDefinition/us-core-race",
        "extension": [ {
          "url": "ombCategory",
          "valueCoding": {
            "system": "urn:oid:2.16.840.1.113883.6.238",
            "code": "2054-5",
            "display": "Black or African American",
            "userSelected": true
          }
        }, {
          "url": "text",
          "valueString": "Black or African American"
        } ]
      }, {
        "url": "http://hl7.org/fhir/us/core/StructureDefinition/us-core-ethnicity",
        "extension": [ {
          "url": "ombCategory",
          "valueCoding": {
            "system": "urn:oid:2.16.840.1.113883.6.238",
            "code": "2186-5",
            "display": "Not Hispanic or Latino",
            "userSelected": true
          }
        }, {
          "url": "text",
          "valueString": "Not Hispanic or Latino"
        } ]
      } ],
      "identifier": [ {
        "system": "http://hospital.smarthealthit.org",
        "value": "999999999"
      } ],
      "name": [ {
        "family": "DENEXPass",
        "given": [ "DischargeToAcuteCare" ]
      } ],
      "gender": "male",
      "birthDate": "2006-12-28"
    },
    "request": {
      "method": "PUT",
      "url": "Patient/f049e76a-aef1-4e8f-a8bd-dfdb419de551"
    }
  }, {
    "fullUrl": "https://madie.cms.gov/Encounter/2300d35f-5d87-4c94-9fe2-760de209a54d",
    "resource": {
      "resourceType": "Encounter",
      "id": "2300d35f-5d87-4c94-9fe2-760de209a54d",
      "meta": {
        "profile": [ "http://hl7.org/fhir/us/qicore/StructureDefinition/qicore-encounter" ]
      },
      "status": "finished",
      "class": {
        "system": "http://terminology.hl7.org/CodeSystem/v3-ActCode",
        "code": "IMP",
        "display": "inpatient encounter"
      },
      "type": [ {
        "coding": [ {
          "system": "http://snomed.info/sct",
          "code": "183452005",
          "display": "Emergency hospital admission (procedure)",
          "userSelected": true
        } ]
      } ],
      "subject": {
        "reference": "Patient/f049e76a-aef1-4e8f-a8bd-dfdb419de551"
      },
      "period": {
        "start": "2026-12-29T12:00:00.000+00:00",
        "end": "2026-12-31T12:15:00.000+00:00"
      },
      "hospitalization": {
        "dischargeDisposition": {
          "coding": [ {
            "system": "http://snomed.info/sct",
            "code": "306701001",
            "display": "Discharge to community hospital (procedure)",
            "userSelected": true
          } ]
        }
      }
    },
    "request": {
      "method": "PUT",
      "url": "Encounter/2300d35f-5d87-4c94-9fe2-760de209a54d"
    }
  }, {
    "fullUrl": "https://madie.cms.gov/MedicationRequest/df882023-0d82-4a99-845a-1ea2746dba14",
    "resource": {
      "resourceType": "MedicationRequest",
      "id": "df882023-0d82-4a99-845a-1ea2746dba14",
      "meta": {
        "profile": [ "http://hl7.org/fhir/us/qicore/StructureDefinition/qicore-medicationrequest" ]
      },
      "status": "active",
      "intent": "order",
      "category": [ {
        "coding": [ {
          "system": "http://terminology.hl7.org/CodeSystem/medicationrequest-category",
          "code": "discharge",
          "display": "Discharge",
          "userSelected": true
        } ]
      } ],
      "doNotPerform": false,
      "medicationCodeableConcept": {
        "coding": [ {
          "system": "http://www.nlm.nih.gov/research/umls/rxnorm",
          "code": "1049604",
          "display": "oxycodone hydrochloride 1 MG/ML Oral Solution",
          "userSelected": true
        } ]
      },
      "subject": {
        "reference": "Patient/f049e76a-aef1-4e8f-a8bd-dfdb419de551"
      },
      "authoredOn": "2026-12-31T12:10:00.000+00:00",
      "requester": {
        "reference": "Practitioner/72d3fec6-dc61-4a56-aa01-20ca312970aa"
      }
    },
    "request": {
      "method": "PUT",
      "url": "MedicationRequest/df882023-0d82-4a99-845a-1ea2746dba14"
    }
  }, {
    "fullUrl": "https://madie.cms.gov/Practitioner/72d3fec6-dc61-4a56-aa01-20ca312970aa",
    "resource": {
      "resourceType": "Practitioner",
      "id": "72d3fec6-dc61-4a56-aa01-20ca312970aa",
      "meta": {
        "profile": [ "http://hl7.org/fhir/us/qicore/StructureDefinition/qicore-practitioner" ]
      },
      "identifier": [ {
        "system": "http://hl7.org/fhir/sid/us-npi",
        "value": "9999999896"
      } ],
      "active": true,
      "name": [ {
        "family": "Ramires",
        "given": [ "Alma" ],
        "prefix": [ "Dr" ]
      } ],
      "address": [ {
        "use": "home",
        "line": [ "534 Erewhon St" ],
        "city": "Netherville",
        "state": "IN",
        "postalCode": "46131"
      } ],
      "qualification": [ {
        "identifier": [ {
          "system": "http://goodhealth.org/prIdentifier",
          "value": "12345"
        } ],
        "code": {
          "coding": [ {
            "system": "http://terminology.hl7.org/CodeSystem/v2-0360|2.7",
            "code": "BS",
            "display": "Bachelor of Science"
          } ],
          "text": "Bachelor of Science"
        },
        "period": {
          "start": "1995"
        },
        "issuer": {
          "display": "Example University"
        }
      } ]
    },
    "request": {
      "method": "PUT",
      "url": "Practitioner/72d3fec6-dc61-4a56-aa01-20ca312970aa"
    }
  }, {
    "fullUrl": "https://madie.cms.gov/Coverage/09d3d6a4-8374-43ca-9219-920c782096a8",
    "resource": {
      "resourceType": "Coverage",
      "id": "09d3d6a4-8374-43ca-9219-920c782096a8",
      "meta": {
        "profile": [ "http://hl7.org/fhir/us/qicore/StructureDefinition/qicore-coverage" ]
      },
      "status": "active",
      "subscriberId": "523435",
      "beneficiary": {
        "reference": "Patient/f049e76a-aef1-4e8f-a8bd-dfdb419de551"
      },
      "relationship": {
        "coding": [ {
          "system": "http://terminology.hl7.org/CodeSystem/subscriber-relationship",
          "code": "self"
        } ]
      },
      "payor": [ {
        "reference": "Organization/aa6d335e-c5b4-4a93-a1c9-4d203d094c08"
      } ]
    },
    "request": {
      "method": "PUT",
      "url": "Coverage/09d3d6a4-8374-43ca-9219-920c782096a8"
    }
  }, {
    "fullUrl": "https://madie.cms.gov/Organization/aa6d335e-c5b4-4a93-a1c9-4d203d094c08",
    "resource": {
      "resourceType": "Organization",
      "id": "aa6d335e-c5b4-4a93-a1c9-4d203d094c08",
      "meta": {
        "profile": [ "http://hl7.org/fhir/us/qicore/StructureDefinition/qicore-organization" ]
      },
      "identifier": [ {
        "use": "temp",
        "system": "urn:oid:2.16.840.1.113883.4.4",
        "value": "21-3259825"
      } ],
      "active": true,
      "type": [ {
        "coding": [ {
          "system": "http://terminology.hl7.org/CodeSystem/organization-type",
          "code": "pay",
          "display": "Payer"
        } ]
      } ],
      "name": "Blue Cross Blue Shield of Texas",
      "telecom": [ {
        "system": "phone",
        "value": "(+1) 972-766-6900"
      } ],
      "address": [ {
        "use": "billing",
        "type": "postal",
        "line": [ "P.O. Box 660044" ],
        "city": "Dallas",
        "state": "TX",
        "postalCode": "75266-0044",
        "country": "USA"
      } ]
    },
    "request": {
      "method": "PUT",
      "url": "Organization/aa6d335e-c5b4-4a93-a1c9-4d203d094c08"
    }
  }, {
    "fullUrl": "https://madie.cms.gov/MeasureReport/00d9e599-cd43-497e-aad3-8b95fe47e032",
    "resource": {
      "resourceType": "MeasureReport",
      "id": "00d9e599-cd43-497e-aad3-8b95fe47e032",
      "meta": {
        "profile": [ "http://hl7.org/fhir/us/cqfmeasures/StructureDefinition/test-case-cqfm" ]
      },
      "contained": [ {
        "resourceType": "Parameters",
        "id": "95783503-af9d-4e28-82da-c6bd90fb5f44-parameters",
        "parameter": [ {
          "name": "subject",
          "valueString": "f049e76a-aef1-4e8f-a8bd-dfdb419de551"
        } ]
      } ],
      "extension": [ {
        "url": "http://hl7.org/fhir/StructureDefinition/cqf-inputParameters",
        "valueReference": {
          "reference": "#95783503-af9d-4e28-82da-c6bd90fb5f44-parameters"
        }
      }, {
        "url": "http://hl7.org/fhir/us/cqfmeasures/StructureDefinition/cqfm-testCaseDescription",
        "valueMarkdown": "Encounter 12/29 12/31, age 18 day before encounter, has opioid, discharged to acute care (dischargeDisposition)"
      } ],
      "modifierExtension": [ {
        "url": "http://hl7.org/fhir/us/cqfmeasures/StructureDefinition/cqfm-isTestCase",
        "valueBoolean": true
      } ],
      "status": "complete",
      "type": "individual",
      "measure": "https://madie.cms.gov/Measure/CMS506FHIRSafeUseofOpioids",
      "period": {
        "start": "2026-01-01",
        "end": "2026-12-31"
      },
      "group": [ {
        "id": "Group_1",
        "population": [ {
          "id": "InitialPopulation_1",
          "code": {
            "coding": [ {
              "system": "http://terminology.hl7.org/CodeSystem/measure-population",
              "code": "initial-population",
              "display": "Initial Population"
            } ]
          },
          "count": 1
        }, {
          "id": "Denominator_1",
          "code": {
            "coding": [ {
              "system": "http://terminology.hl7.org/CodeSystem/measure-population",
              "code": "denominator",
              "display": "Denominator"
            } ]
          },
          "count": 1
        }, {
          "id": "DenominatorExclusion_1",
          "code": {
            "coding": [ {
              "system": "http://terminology.hl7.org/CodeSystem/measure-population",
              "code": "denominator-exclusion",
              "display": "Denominator Exclusion"
            } ]
          },
          "count": 1
        }, {
          "id": "Numerator_1",
          "code": {
            "coding": [ {
              "system": "http://terminology.hl7.org/CodeSystem/measure-population",
              "code": "numerator",
              "display": "Numerator"
            } ]
          },
          "count": 0
        } ],
        "measureScore": {
          "value": 0.0
        }
      } ],
      "evaluatedResource": [ {
        "reference": "Patient/f049e76a-aef1-4e8f-a8bd-dfdb419de551"
      }, {
        "reference": "Encounter/2300d35f-5d87-4c94-9fe2-760de209a54d"
      }, {
        "reference": "MedicationRequest/df882023-0d82-4a99-845a-1ea2746dba14"
      }, {
        "reference": "Practitioner/72d3fec6-dc61-4a56-aa01-20ca312970aa"
      }, {
        "reference": "Coverage/09d3d6a4-8374-43ca-9219-920c782096a8"
      }, {
        "reference": "Organization/aa6d335e-c5b4-4a93-a1c9-4d203d094c08"
      } ]
    },
    "request": {
      "method": "PUT",
      "url": "MeasureReport/00d9e599-cd43-497e-aad3-8b95fe47e032"
    }
  } ]
}