{
  "resourceType": "Bundle",
  "id": "633c9d040968f8012250fca0",
  "type": "transaction",
  "entry": [ {
    "fullUrl": "https://madie.cms.gov/Patient/541c6790-5a21-41ca-8e4e-49da54a28b9b",
    "resource": {
      "resourceType": "Patient",
      "id": "541c6790-5a21-41ca-8e4e-49da54a28b9b",
      "meta": {
        "profile": [ "http://hl7.org/fhir/us/qicore/StructureDefinition/qicore-patient" ]
      },
      "text": {
        "status": "generated",
        "div": "<div xmlns=\"http://www.w3.org/1999/xhtml\"><div class=\"hapiHeaderText\">CMOdurEnc_NoEDObs&lt;1hrBFEnc <b>DENEXPASS </b></div><table class=\"hapiPropertyTable\"><tbody><tr><td>Identifier</td><td>02b0ef2e973beaec0a8b1e55c0dadc67beed7a4482dce2ae4bf0963095b983fa</td></tr><tr><td>Date of birth</td><td><span>18 September 1985</span></td></tr></tbody></table></div>"
      },
      "extension": [ {
        "url": "http://hl7.org/fhir/us/core/StructureDefinition/us-core-race",
        "extension": [ {
          "url": "ombCategory",
          "valueCoding": {
            "system": "urn:oid:2.16.840.1.113883.6.238",
            "code": "1002-5",
            "display": "American Indian or Alaska Native",
            "userSelected": true
          }
        }, {
          "url": "text",
          "valueString": "American Indian or Alaska Native"
        } ]
      }, {
        "url": "http://hl7.org/fhir/us/core/StructureDefinition/us-core-ethnicity",
        "extension": [ {
          "url": "ombCategory",
          "valueCoding": {
            "system": "urn:oid:2.16.840.1.113883.6.238",
            "code": "2135-2",
            "display": "Hispanic or Latino",
            "userSelected": true
          }
        }, {
          "url": "text",
          "valueString": "Hispanic or Latino"
        } ]
      } ],
      "identifier": [ {
        "type": {
          "coding": [ {
            "system": "http://terminology.hl7.org/CodeSystem/v2-0203",
            "code": "MR"
          } ]
        },
        "system": "https://bonnie-fhir.healthit.gov/",
        "value": "633c9d040968f8012250fca0"
      } ],
      "active": true,
      "name": [ {
        "use": "usual",
        "family": "DENEXPass",
        "given": [ "CMOdurEncNoEDObsLT1hrBFEnc" ]
      } ],
      "gender": "female",
      "birthDate": "1986-09-18"
    },
    "request": {
      "method": "PUT",
      "url": "Patient/541c6790-5a21-41ca-8e4e-49da54a28b9b"
    }
  }, {
    "fullUrl": "https://madie.cms.gov/Condition/0909ca82-f76d-4be5-b19a-c2226c2217aa",
    "resource": {
      "resourceType": "Condition",
      "id": "0909ca82-f76d-4be5-b19a-c2226c2217aa",
      "meta": {
        "profile": [ "http://hl7.org/fhir/us/qicore/StructureDefinition/qicore-condition-problems-health-concerns" ]
      },
      "clinicalStatus": {
        "coding": [ {
          "system": "http://terminology.hl7.org/CodeSystem/condition-clinical",
          "code": "inactive"
        } ]
      },
      "verificationStatus": {
        "coding": [ {
          "system": "http://terminology.hl7.org/CodeSystem/condition-ver-status",
          "code": "confirmed"
        } ]
      },
      "category": [ {
        "coding": [ {
          "system": "http://terminology.hl7.org/CodeSystem/condition-category",
          "code": "encounter-diagnosis",
          "display": "Encounter Diagnosis"
        } ]
      } ],
      "code": {
        "coding": [ {
          "system": "http://hl7.org/fhir/sid/icd-10-cm",
          "code": "I48.20"
        }, {
          "system": "http://hl7.org/fhir/sid/icd-10-cm",
          "code": "I48.0"
        }, {
          "system": "http://snomed.info/sct",
          "code": "5370000"
        } ]
      },
      "subject": {
        "reference": "Patient/541c6790-5a21-41ca-8e4e-49da54a28b9b"
      },
      "onsetDateTime": "2026-02-11T08:00:00.000+00:00",
      "abatementDateTime": "2026-02-11T08:15:00.000+00:00"
    },
    "request": {
      "method": "PUT",
      "url": "Condition/0909ca82-f76d-4be5-b19a-c2226c2217aa"
    }
  }, {
    "fullUrl": "https://madie.cms.gov/Condition/1c5be5fc-16e3-4fb2-a398-050c3a3d9f46",
    "resource": {
      "resourceType": "Condition",
      "id": "1c5be5fc-16e3-4fb2-a398-050c3a3d9f46",
      "meta": {
        "profile": [ "http://hl7.org/fhir/us/qicore/StructureDefinition/qicore-condition-problems-health-concerns" ]
      },
      "clinicalStatus": {
        "coding": [ {
          "system": "http://terminology.hl7.org/CodeSystem/condition-clinical",
          "code": "inactive"
        } ]
      },
      "verificationStatus": {
        "coding": [ {
          "system": "http://terminology.hl7.org/CodeSystem/condition-ver-status",
          "code": "confirmed"
        } ]
      },
      "category": [ {
        "coding": [ {
          "system": "http://terminology.hl7.org/CodeSystem/condition-category",
          "code": "encounter-diagnosis",
          "display": "Encounter Diagnosis"
        } ]
      } ],
      "code": {
        "coding": [ {
          "system": "http://hl7.org/fhir/sid/icd-10-cm",
          "code": "I48.20"
        }, {
          "system": "http://hl7.org/fhir/sid/icd-10-cm",
          "code": "I48.0"
        }, {
          "system": "http://snomed.info/sct",
          "code": "5370000"
        } ]
      },
      "subject": {
        "reference": "Patient/541c6790-5a21-41ca-8e4e-49da54a28b9b"
      },
      "onsetDateTime": "2026-10-01T09:00:00.000+00:00",
      "abatementDateTime": "2026-10-12T08:15:00.000+00:00"
    },
    "request": {
      "method": "PUT",
      "url": "Condition/1c5be5fc-16e3-4fb2-a398-050c3a3d9f46"
    }
  }, {
    "fullUrl": "https://madie.cms.gov/Encounter/2da3a26b-2c85-4700-8c06-3ece6f3c9ee6",
    "resource": {
      "resourceType": "Encounter",
      "id": "2da3a26b-2c85-4700-8c06-3ece6f3c9ee6",
      "meta": {
        "profile": [ "http://hl7.org/fhir/us/qicore/StructureDefinition/qicore-encounter" ]
      },
      "status": "finished",
      "class": {
        "system": "http://terminology.hl7.org/CodeSystem/v3-ActCode",
        "code": "OBSENC",
        "display": "observation encounter"
      },
      "type": [ {
        "coding": [ {
          "system": "http://snomed.info/sct",
          "code": "448851000124103"
        } ]
      } ],
      "subject": {
        "reference": "Patient/541c6790-5a21-41ca-8e4e-49da54a28b9b"
      },
      "period": {
        "start": "2026-10-01T06:00:00.000+00:00",
        "end": "2026-10-01T09:59:00.000+00:00"
      },
      "length": {
        "value": 0,
        "unit": "days"
      }
    },
    "request": {
      "method": "PUT",
      "url": "Encounter/2da3a26b-2c85-4700-8c06-3ece6f3c9ee6"
    }
  }, {
    "fullUrl": "https://madie.cms.gov/Encounter/02112f21-80aa-4a37-b49a-4bf2b166d7c2",
    "resource": {
      "resourceType": "Encounter",
      "id": "02112f21-80aa-4a37-b49a-4bf2b166d7c2",
      "meta": {
        "profile": [ "http://hl7.org/fhir/us/qicore/StructureDefinition/qicore-encounter" ]
      },
      "status": "finished",
      "class": {
        "system": "http://terminology.hl7.org/CodeSystem/v3-ActCode",
        "code": "IMP",
        "display": "inpatient encounter"
      },
      "type": [ {
        "coding": [ {
          "system": "http://snomed.info/sct",
          "code": "32485007"
        } ]
      } ],
      "subject": {
        "reference": "Patient/541c6790-5a21-41ca-8e4e-49da54a28b9b"
      },
      "period": {
        "start": "2026-10-01T10:00:00.000+00:00",
        "end": "2026-10-12T08:15:00.000+00:00"
      },
      "length": {
        "value": 11,
        "unit": "days"
      },
      "reasonReference": [ {
        "reference": "Condition/1c5be5fc-16e3-4fb2-a398-050c3a3d9f46"
      } ]
    },
    "request": {
      "method": "PUT",
      "url": "Encounter/02112f21-80aa-4a37-b49a-4bf2b166d7c2"
    }
  }, {
    "fullUrl": "https://madie.cms.gov/claim/5ca62962b8484628b8de1ec5",
    "resource": {
      "resourceType": "Claim",
      "id": "5ca62962b8484628b8de1ec5",
      "meta": {
        "profile": [ "http://hl7.org/fhir/us/qicore/StructureDefinition/qicore-claim" ]
      },
      "status": "active",
      "type": {
        "coding": [ {
          "system": "http://terminology.hl7.org/CodeSystem/claim-type",
          "code": "institutional"
        } ]
      },
      "use": "claim",
      "patient": {
        "reference": "Patient/d170a0a8-b5ad-4303-b6df-e304dd5f92ad"
      },
      "created": "2026-12-01",
      "provider": {
        "reference": "Practitioner/13b1420d-4cc4-41a0-8c30-7a680351b842"
      },
      "priority": {
        "coding": [ {
          "system": "http://terminology.hl7.org/CodeSystem/processpriority",
          "code": "normal"
        } ]
      },
      "diagnosis": [ {
        "sequence": 1,
        "diagnosisCodeableConcept": {
          "coding": [ {
            "system": "http://hl7.org/fhir/sid/icd-10-cm",
            "code": "I63.00"
          } ]
        },
        "type": [ {
          "coding": [ {
            "system": "http://terminology.hl7.org/CodeSystem/ex-diagnosistype",
            "code": "principal"
          } ]
        } ]
      } ],
      "insurance": [ {
        "sequence": 1,
        "focal": true,
        "coverage": {
          "reference": "Coverage/5fa041661c76ba66d9959367"
        }
      } ],
      "item": [ {
        "sequence": 1,
        "diagnosisSequence": [ 1 ],
        "productOrService": {
          "coding": [ {
            "system": "http://terminology.hl7.org/CodeSystem/ex-USCLS",
            "code": "99555"
          } ]
        },
        "encounter": [ {
          "reference": "Encounter/02112f21-80aa-4a37-b49a-4bf2b166d7c2"
        } ]
      } ]
    },
    "request": {
      "method": "PUT",
      "url": "Claim/5ca62962b8484628b8de1ec5"
    }
  }, {
    "fullUrl": "https://madie.cms.gov/ServiceRequest/f9c6cd7c-085e-47f4-b932-06d5a51fcb82",
    "resource": {
      "resourceType": "ServiceRequest",
      "id": "f9c6cd7c-085e-47f4-b932-06d5a51fcb82",
      "meta": {
        "profile": [ "http://hl7.org/fhir/us/qicore/StructureDefinition/qicore-servicerequest" ]
      },
      "status": "active",
      "intent": "order",
      "code": {
        "coding": [ {
          "system": "http://snomed.info/sct",
          "code": "133918004"
        } ]
      },
      "subject": {
        "reference": "Patient/541c6790-5a21-41ca-8e4e-49da54a28b9b"
      },
      "authoredOn": "2026-10-03T00:00:00.000+00:00"
    },
    "request": {
      "method": "PUT",
      "url": "ServiceRequest/f9c6cd7c-085e-47f4-b932-06d5a51fcb82"
    }
  }, {
    "fullUrl": "https://madie.cms.gov/Coverage/c871e06b-5910-4ad1-8c9b-0c578ce34952",
    "resource": {
      "resourceType": "Coverage",
      "id": "c871e06b-5910-4ad1-8c9b-0c578ce34952",
      "status": "active",
      "subscriberId": "523435",
      "beneficiary": {
        "reference": "Patient/541c6790-5a21-41ca-8e4e-49da54a28b9b"
      },
      "relationship": {
        "coding": [ {
          "system": "http://terminology.hl7.org/CodeSystem/subscriber-relationship",
          "code": "self"
        } ]
      },
      "period": {
        "start": "1986-09-18T08:00:00.000+00:00"
      },
      "payor": [ {
        "reference": "Organization/8f1e2fb2-de2d-4889-8f34-2506780b7150"
      } ]
    },
    "request": {
      "method": "PUT",
      "url": "Coverage/c871e06b-5910-4ad1-8c9b-0c578ce34952"
    }
  }, {
    "fullUrl": "https://madie.cms.gov/Condition/9415ded1-7c01-4aa6-8327-35b1a1e07e61",
    "resource": {
      "resourceType": "Condition",
      "id": "9415ded1-7c01-4aa6-8327-35b1a1e07e61",
      "meta": {
        "profile": [ "http://hl7.org/fhir/us/qicore/StructureDefinition/qicore-condition-problems-health-concerns" ]
      },
      "clinicalStatus": {
        "coding": [ {
          "system": "http://terminology.hl7.org/CodeSystem/condition-clinical",
          "code": "active"
        } ]
      },
      "verificationStatus": {
        "coding": [ {
          "system": "http://terminology.hl7.org/CodeSystem/condition-ver-status",
          "code": "confirmed"
        } ]
      },
      "category": [ {
        "coding": [ {
          "system": "http://terminology.hl7.org/CodeSystem/condition-category",
          "code": "encounter-diagnosis",
          "display": "Encounter Diagnosis"
        } ]
      } ],
      "code": {
        "coding": [ {
          "system": "http://snomed.info/sct",
          "version": "2021-09",
          "code": "111297002",
          "display": "Nonparalytic stroke (disorder)",
          "userSelected": true
        } ]
      },
      "subject": {
        "reference": "Patient/541c6790-5a21-41ca-8e4e-49da54a28b9b"
      },
      "recordedDate": "2026-10-13T08:00:00.000+00:00"
    },
    "request": {
      "method": "PUT",
      "url": "Condition/9415ded1-7c01-4aa6-8327-35b1a1e07e61"
    }
  }, {
    "fullUrl": "https://madie.cms.gov/Organization/8f1e2fb2-de2d-4889-8f34-2506780b7150",
    "resource": {
      "resourceType": "Organization",
      "id": "8f1e2fb2-de2d-4889-8f34-2506780b7150",
      "meta": {
        "profile": [ "http://hl7.org/fhir/us/qicore/StructureDefinition/qicore-organization" ]
      },
      "identifier": [ {
        "use": "temp",
        "system": "urn:oid:2.16.840.1.113883.4.4",
        "value": "21-3259825"
      } ],
      "active": true,
      "type": [ {
        "coding": [ {
          "system": "http://terminology.hl7.org/CodeSystem/organization-type",
          "code": "pay",
          "display": "Payer"
        } ]
      } ],
      "name": "Blue Cross Blue Shield of Texas",
      "telecom": [ {
        "system": "phone",
        "value": "(+1) 972-766-6900"
      } ],
      "address": [ {
        "use": "billing",
        "type": "postal",
        "line": [ "P.O. Box 660044" ],
        "city": "Dallas",
        "state": "TX",
        "postalCode": "75266-0044",
        "country": "USA"
      } ]
    },
    "request": {
      "method": "PUT",
      "url": "Organization/8f1e2fb2-de2d-4889-8f34-2506780b7150"
    }
  }, {
    "fullUrl": "https://madie.cms.gov/Practitioner/13b1420d-4cc4-41a0-8c30-7a680351b842",
    "resource": {
      "resourceType": "Practitioner",
      "id": "13b1420d-4cc4-41a0-8c30-7a680351b842",
      "meta": {
        "profile": [ "http://hl7.org/fhir/us/qicore/StructureDefinition/qicore-practitioner" ]
      },
      "identifier": [ {
        "system": "http://hl7.org/fhir/sid/us-npi",
        "value": "9999999896"
      } ],
      "name": [ {
        "family": "Evil",
        "prefix": [ "Dr" ]
      } ]
    },
    "request": {
      "method": "PUT",
      "url": "Practitioner/13b1420d-4cc4-41a0-8c30-7a680351b842"
    }
  }, {
    "fullUrl": "https://madie.cms.gov/MeasureReport/333fbf4f-888e-4f2a-b90d-f274366bf098",
    "resource": {
      "resourceType": "MeasureReport",
      "id": "333fbf4f-888e-4f2a-b90d-f274366bf098",
      "meta": {
        "profile": [ "http://hl7.org/fhir/us/cqfmeasures/StructureDefinition/test-case-cqfm" ]
      },
      "contained": [ {
        "resourceType": "Parameters",
        "id": "52ef05ef-5040-4a81-a99e-390d0be40286-parameters",
        "parameter": [ {
          "name": "subject",
          "valueString": "541c6790-5a21-41ca-8e4e-49da54a28b9b"
        } ]
      } ],
      "extension": [ {
        "url": "http://hl7.org/fhir/StructureDefinition/cqf-inputParameters",
        "valueReference": {
          "reference": "#52ef05ef-5040-4a81-a99e-390d0be40286-parameters"
        }
      }, {
        "url": "http://hl7.org/fhir/us/cqfmeasures/StructureDefinition/cqfm-testCaseDescription",
        "valueMarkdown": "\"Patient receives CMO order during Observation, ED visit ends 1 min. before Obs, Obs ends 1 min before inpatient start. Testing HospitalizationWithObservation function.\n\n\"\n"
      } ],
      "modifierExtension": [ {
        "url": "http://hl7.org/fhir/us/cqfmeasures/StructureDefinition/cqfm-isTestCase",
        "valueBoolean": true
      } ],
      "status": "complete",
      "type": "individual",
      "measure": "https://madie.cms.gov/Measure/CMS71FHIRSTKAnticoagAFFlutter",
      "period": {
        "start": "2026-01-01",
        "end": "2026-12-31"
      },
      "group": [ {
        "id": "Group_1",
        "population": [ {
          "id": "InitialPopulation_1",
          "code": {
            "coding": [ {
              "system": "http://terminology.hl7.org/CodeSystem/measure-population",
              "code": "initial-population",
              "display": "Initial Population"
            } ]
          },
          "count": 1
        }, {
          "id": "Denominator_1",
          "code": {
            "coding": [ {
              "system": "http://terminology.hl7.org/CodeSystem/measure-population",
              "code": "denominator",
              "display": "Denominator"
            } ]
          },
          "count": 1
        }, {
          "id": "DenominatorExclusion_1",
          "code": {
            "coding": [ {
              "system": "http://terminology.hl7.org/CodeSystem/measure-population",
              "code": "denominator-exclusion",
              "display": "Denominator Exclusion"
            } ]
          },
          "count": 1
        }, {
          "id": "Numerator_1",
          "code": {
            "coding": [ {
              "system": "http://terminology.hl7.org/CodeSystem/measure-population",
              "code": "numerator",
              "display": "Numerator"
            } ]
          },
          "count": 0
        }, {
          "id": "DenominatorException_1",
          "code": {
            "coding": [ {
              "system": "http://terminology.hl7.org/CodeSystem/measure-population",
              "code": "denominator-exception",
              "display": "Denominator Exception"
            } ]
          },
          "count": 0
        } ],
        "measureScore": {
          "value": 0.0
        }
      } ],
      "evaluatedResource": [ {
        "reference": "Patient/541c6790-5a21-41ca-8e4e-49da54a28b9b"
      }, {
        "reference": "Condition/0909ca82-f76d-4be5-b19a-c2226c2217aa"
      }, {
        "reference": "Condition/1c5be5fc-16e3-4fb2-a398-050c3a3d9f46"
      }, {
        "reference": "Encounter/2da3a26b-2c85-4700-8c06-3ece6f3c9ee6"
      }, {
        "reference": "Encounter/02112f21-80aa-4a37-b49a-4bf2b166d7c2"
      }, {
        "reference": "Claim/5ca62962b8484628b8de1ec5"
      }, {
        "reference": "ServiceRequest/f9c6cd7c-085e-47f4-b932-06d5a51fcb82"
      }, {
        "reference": "Coverage/c871e06b-5910-4ad1-8c9b-0c578ce34952"
      }, {
        "reference": "Condition/9415ded1-7c01-4aa6-8327-35b1a1e07e61"
      }, {
        "reference": "Organization/8f1e2fb2-de2d-4889-8f34-2506780b7150"
      }, {
        "reference": "Practitioner/13b1420d-4cc4-41a0-8c30-7a680351b842"
      } ]
    },
    "request": {
      "method": "PUT",
      "url": "MeasureReport/333fbf4f-888e-4f2a-b90d-f274366bf098"
    }
  } ]
}