{
  "resourceType": "Bundle",
  "id": "tests-IPPFail-MedIsNotHypoMedGlucoseLT40-bundle",
  "type": "transaction",
  "entry": [ {
    "fullUrl": "https://madie.cms.gov/Encounter/a0c41e8b-5f3b-4b60-8e2a-569702ecb1e4",
    "resource": {
      "resourceType": "Encounter",
      "id": "a0c41e8b-5f3b-4b60-8e2a-569702ecb1e4",
      "meta": {
        "profile": [ "http://hl7.org/fhir/us/qicore/StructureDefinition/qicore-encounter" ]
      },
      "status": "finished",
      "class": {
        "system": "http://terminology.hl7.org/CodeSystem/v3-ActCode",
        "code": "IMP",
        "display": "Inpatient encounter"
      },
      "type": [ {
        "coding": [ {
          "system": "http://snomed.info/sct",
          "code": "183452005",
          "display": "Inpatient encounter"
        } ]
      } ],
      "period": {
        "start": "2026-07-11T08:00:00.000+00:00",
        "end": "2026-07-14T21:00:00.000+00:00"
      }
    },
    "request": {
      "method": "PUT",
      "url": "Encounter/a0c41e8b-5f3b-4b60-8e2a-569702ecb1e4"
    }
  }, {
    "fullUrl": "https://madie.cms.gov/MedicationAdministration/b8682202-20d4-4a13-8a63-3bad854331ee",
    "resource": {
      "resourceType": "MedicationAdministration",
      "id": "b8682202-20d4-4a13-8a63-3bad854331ee",
      "meta": {
        "profile": [ "http://hl7.org/fhir/us/qicore/StructureDefinition/qicore-medicationadministration" ]
      },
      "status": "completed",
      "medicationCodeableConcept": {
        "coding": [ {
          "system": "http://www.nlm.nih.gov/research/umls/rxnorm",
          "code": "905377",
          "display": "Hypoglycemics Severe Hypoglycemia"
        } ]
      },
      "subject": {
        "reference": "Patient/cf9c230a-adc0-4830-bf04-fed4ab5ff6c8"
      },
      "effectivePeriod": {
        "start": "2026-07-11T08:00:00.000+00:00",
        "end": "2026-07-11T09:00:00.000+00:00"
      }
    },
    "request": {
      "method": "PUT",
      "url": "MedicationAdministration/b8682202-20d4-4a13-8a63-3bad854331ee"
    }
  }, {
    "fullUrl": "https://madie.cms.gov/Observation/cd22567e-b6ad-4bba-9748-1024ae7cd979",
    "resource": {
      "resourceType": "Observation",
      "id": "cd22567e-b6ad-4bba-9748-1024ae7cd979",
      "meta": {
        "profile": [ "http://hl7.org/fhir/us/qicore/StructureDefinition/qicore-observation" ]
      },
      "status": "final",
      "code": {
        "coding": [ {
          "system": "http://loinc.org",
          "code": "1547-9",
          "display": "Glucose Lab Test Mass Per Volume"
        } ]
      },
      "subject": {
        "reference": "Patient/cf9c230a-adc0-4830-bf04-fed4ab5ff6c8"
      },
      "effectivePeriod": {
        "start": "2026-07-11T09:00:00.000+00:00",
        "end": "2026-07-11T09:15:00.000+00:00"
      },
      "issued": "2026-07-11T08:00:00.000+00:00",
      "valueQuantity": {
        "value": 35,
        "unit": "mg/dL"
      }
    },
    "request": {
      "method": "PUT",
      "url": "Observation/cd22567e-b6ad-4bba-9748-1024ae7cd979"
    }
  }, {
    "fullUrl": "https://madie.cms.gov/Patient/cf9c230a-adc0-4830-bf04-fed4ab5ff6c8",
    "resource": {
      "resourceType": "Patient",
      "id": "cf9c230a-adc0-4830-bf04-fed4ab5ff6c8",
      "meta": {
        "profile": [ "http://hl7.org/fhir/us/qicore/StructureDefinition/qicore-patient" ]
      },
      "extension": [ {
        "url": "http://hl7.org/fhir/us/core/StructureDefinition/us-core-race",
        "extension": [ {
          "url": "ombCategory",
          "valueCoding": {
            "system": "urn:oid:2.16.840.1.113883.6.238",
            "code": "2106-3",
            "display": "White"
          }
        }, {
          "url": "text",
          "valueString": "White"
        } ]
      }, {
        "url": "http://hl7.org/fhir/us/core/StructureDefinition/us-core-ethnicity",
        "extension": [ {
          "url": "ombCategory",
          "valueCoding": {
            "system": "urn:oid:2.16.840.1.113883.6.238",
            "code": "2135-2",
            "display": "Hispanic or Latino"
          }
        }, {
          "url": "text",
          "valueString": "Hispanic or Latino"
        } ]
      }, {
        "url": "http://hl7.org/fhir/us/core/StructureDefinition/us-core-sex",
        "valueCode": "248153007"
      } ],
      "identifier": [ {
        "system": "http://hospital.smarthealthit.org",
        "value": "999999999"
      } ],
      "name": [ {
        "family": "Example",
        "given": [ "Patient" ]
      } ],
      "gender": "female",
      "birthDate": "2000-07-11"
    },
    "request": {
      "method": "PUT",
      "url": "Patient/cf9c230a-adc0-4830-bf04-fed4ab5ff6c8"
    }
  }, {
    "fullUrl": "https://madie.cms.gov/MeasureReport/5a2f5fbe-4101-4384-b836-bccb70d6ad20",
    "resource": {
      "resourceType": "MeasureReport",
      "id": "5a2f5fbe-4101-4384-b836-bccb70d6ad20",
      "meta": {
        "profile": [ "http://hl7.org/fhir/us/cqfmeasures/StructureDefinition/test-case-cqfm" ]
      },
      "contained": [ {
        "resourceType": "Parameters",
        "id": "5789de1f-215d-4b92-901d-162fe996b648-parameters",
        "parameter": [ {
          "name": "subject",
          "valueString": "cf9c230a-adc0-4830-bf04-fed4ab5ff6c8"
        } ]
      } ],
      "extension": [ {
        "url": "http://hl7.org/fhir/StructureDefinition/cqf-inputParameters",
        "valueReference": {
          "reference": "#5789de1f-215d-4b92-901d-162fe996b648-parameters"
        }
      }, {
        "url": "http://hl7.org/fhir/us/cqfmeasures/StructureDefinition/cqfm-testCaseDescription",
        "valueMarkdown": "Patient inpatient, but the med administered was not hypoglycemic med. Hypo med must be administered during encounter to meet IPP.  Patient had glucose <40 during encounter, but there was no hypo med administered on or prior to test no Numerator."
      } ],
      "modifierExtension": [ {
        "url": "http://hl7.org/fhir/us/cqfmeasures/StructureDefinition/cqfm-isTestCase",
        "valueBoolean": true
      } ],
      "status": "complete",
      "type": "individual",
      "measure": "https://madie.cms.gov/Measure/CMS816FHIRHHHypo",
      "period": {
        "start": "2026-01-01",
        "end": "2026-12-31"
      },
      "group": [ {
        "id": "Group_1",
        "population": [ {
          "id": "InitialPopulation_1",
          "code": {
            "coding": [ {
              "system": "http://terminology.hl7.org/CodeSystem/measure-population",
              "code": "initial-population",
              "display": "Initial Population"
            } ]
          },
          "count": 0
        }, {
          "id": "Denominator_1",
          "code": {
            "coding": [ {
              "system": "http://terminology.hl7.org/CodeSystem/measure-population",
              "code": "denominator",
              "display": "Denominator"
            } ]
          },
          "count": 0
        }, {
          "id": "Numerator_1",
          "code": {
            "coding": [ {
              "system": "http://terminology.hl7.org/CodeSystem/measure-population",
              "code": "numerator",
              "display": "Numerator"
            } ]
          },
          "count": 0
        } ],
        "measureScore": {
          "value": 0.0
        }
      } ],
      "evaluatedResource": [ {
        "reference": "Encounter/a0c41e8b-5f3b-4b60-8e2a-569702ecb1e4"
      }, {
        "reference": "MedicationAdministration/b8682202-20d4-4a13-8a63-3bad854331ee"
      }, {
        "reference": "Observation/cd22567e-b6ad-4bba-9748-1024ae7cd979"
      }, {
        "reference": "Patient/cf9c230a-adc0-4830-bf04-fed4ab5ff6c8"
      } ]
    },
    "request": {
      "method": "PUT",
      "url": "MeasureReport/5a2f5fbe-4101-4384-b836-bccb70d6ad20"
    }
  } ]
}