{
  "resourceType": "Bundle",
  "id": "63487c2e0968f80122540188",
  "type": "transaction",
  "entry": [ {
    "fullUrl": "https://madie.cms.gov/Patient/f6dafa7e-15a9-4fec-baea-59d43201caf8",
    "resource": {
      "resourceType": "Patient",
      "id": "f6dafa7e-15a9-4fec-baea-59d43201caf8",
      "meta": {
        "profile": [ "http://hl7.org/fhir/us/qicore/StructureDefinition/qicore-patient" ]
      },
      "text": {
        "status": "generated",
        "div": "<div xmlns=\"http://www.w3.org/1999/xhtml\"><div class=\"hapiHeaderText\">AssessPerfAbnPresRelDT1MinAfterEncEnd<b>DENEXFAIL</b></div><table class=\"hapiPropertyTable\"><tbody><tr><td>Identifier</td><td>db09244543fe550232b604cb7d87decbeb851047882e641e3fe736fdce398a0a</td></tr><tr><td>Date of birth</td><td><span>14 February 1985</span></td></tr></tbody></table></div>"
      },
      "extension": [ {
        "url": "http://hl7.org/fhir/us/core/StructureDefinition/us-core-race",
        "extension": [ {
          "url": "ombCategory",
          "valueCoding": {
            "system": "urn:oid:2.16.840.1.113883.6.238",
            "code": "1002-5",
            "display": "American Indian or Alaska Native",
            "userSelected": true
          }
        }, {
          "url": "text",
          "valueString": "American Indian or Alaska Native"
        } ]
      }, {
        "url": "http://hl7.org/fhir/us/core/StructureDefinition/us-core-ethnicity",
        "extension": [ {
          "url": "ombCategory",
          "valueCoding": {
            "system": "urn:oid:2.16.840.1.113883.6.238",
            "code": "2135-2",
            "display": "Hispanic or Latino",
            "userSelected": true
          }
        }, {
          "url": "text",
          "valueString": "Hispanic or Latino"
        } ]
      } ],
      "identifier": [ {
        "type": {
          "coding": [ {
            "system": "http://terminology.hl7.org/CodeSystem/v2-0203",
            "code": "MR"
          } ]
        },
        "system": "https://bonnie-fhir.healthit.gov/",
        "value": "63487c2e0968f80122540188"
      } ],
      "active": true,
      "name": [ {
        "use": "usual",
        "family": "DENEXFail",
        "given": [ "AssessPerfAbnPresRelDT1MinAfterEncEnd" ]
      } ],
      "gender": "female",
      "birthDate": "1998-02-14"
    },
    "request": {
      "method": "PUT",
      "url": "Patient/f6dafa7e-15a9-4fec-baea-59d43201caf8"
    }
  }, {
    "fullUrl": "https://madie.cms.gov/Observation/dff64f96-a73b-4450-9638-79df7b6fd885",
    "resource": {
      "resourceType": "Observation",
      "id": "dff64f96-a73b-4450-9638-79df7b6fd885",
      "meta": {
        "profile": [ "http://hl7.org/fhir/us/qicore/StructureDefinition/qicore-simple-observation" ]
      },
      "status": "final",
      "category": [ {
        "coding": [ {
          "system": "http://terminology.hl7.org/CodeSystem/observation-category",
          "code": "exam",
          "display": "exam",
          "userSelected": true
        } ]
      } ],
      "code": {
        "coding": [ {
          "system": "http://loinc.org",
          "code": "11996-6"
        } ]
      },
      "subject": {
        "reference": "Patient/f6dafa7e-15a9-4fec-baea-59d43201caf8"
      },
      "effectiveDateTime": "2026-06-08T08:00:00.000+00:00",
      "performer": [ {
        "reference": "Organization/example1",
        "display": "Hendricks Country Hospital"
      } ],
      "valueInteger": 1
    },
    "request": {
      "method": "PUT",
      "url": "Observation/dff64f96-a73b-4450-9638-79df7b6fd885"
    }
  }, {
    "fullUrl": "https://madie.cms.gov/Observation/cf43ed2b-d57a-44af-836a-516eabfb72c9",
    "resource": {
      "resourceType": "Observation",
      "id": "cf43ed2b-d57a-44af-836a-516eabfb72c9",
      "meta": {
        "profile": [ "http://hl7.org/fhir/us/qicore/StructureDefinition/qicore-simple-observation" ]
      },
      "status": "final",
      "category": [ {
        "coding": [ {
          "system": "http://terminology.hl7.org/CodeSystem/observation-category",
          "code": "exam",
          "display": "exam",
          "userSelected": true
        } ]
      } ],
      "code": {
        "coding": [ {
          "system": "http://loinc.org",
          "code": "11884-4"
        } ]
      },
      "subject": {
        "reference": "Patient/f6dafa7e-15a9-4fec-baea-59d43201caf8"
      },
      "effectiveDateTime": "2026-06-08T08:00:00.000+00:00",
      "performer": [ {
        "reference": "Organization/example1",
        "display": "Hendricks Country Hospital"
      } ],
      "valueQuantity": {
        "value": 43,
        "system": "http://unitsofmeasure.org",
        "code": "wk"
      }
    },
    "request": {
      "method": "PUT",
      "url": "Observation/cf43ed2b-d57a-44af-836a-516eabfb72c9"
    }
  }, {
    "fullUrl": "https://madie.cms.gov/Observation/1e3a17b0-7f4d-4218-992b-03d24b81b48b",
    "resource": {
      "resourceType": "Observation",
      "id": "1e3a17b0-7f4d-4218-992b-03d24b81b48b",
      "meta": {
        "profile": [ "http://hl7.org/fhir/us/qicore/StructureDefinition/qicore-simple-observation" ]
      },
      "status": "final",
      "category": [ {
        "coding": [ {
          "system": "http://terminology.hl7.org/CodeSystem/observation-category",
          "code": "exam",
          "display": "exam",
          "userSelected": true
        } ]
      } ],
      "code": {
        "coding": [ {
          "system": "http://loinc.org",
          "code": "93857-1"
        } ]
      },
      "subject": {
        "reference": "Patient/f6dafa7e-15a9-4fec-baea-59d43201caf8"
      },
      "effectiveDateTime": "2026-06-08T20:00:00.000+00:00",
      "performer": [ {
        "reference": "Organization/example1",
        "display": "Hendricks Country Hospital"
      } ],
      "valueDateTime": "2026-06-08T20:00:00.000+00:00"
    },
    "request": {
      "method": "PUT",
      "url": "Observation/1e3a17b0-7f4d-4218-992b-03d24b81b48b"
    }
  }, {
    "fullUrl": "https://madie.cms.gov/Observation/989b1ec8-69f1-43e5-96e4-05d3cc851549",
    "resource": {
      "resourceType": "Observation",
      "id": "989b1ec8-69f1-43e5-96e4-05d3cc851549",
      "meta": {
        "profile": [ "http://hl7.org/fhir/us/qicore/StructureDefinition/qicore-simple-observation" ]
      },
      "status": "final",
      "category": [ {
        "coding": [ {
          "system": "http://terminology.hl7.org/CodeSystem/observation-category",
          "code": "exam",
          "display": "exam",
          "userSelected": true
        } ]
      } ],
      "code": {
        "coding": [ {
          "system": "http://snomed.info/sct",
          "code": "18559007"
        } ]
      },
      "subject": {
        "reference": "Patient/f6dafa7e-15a9-4fec-baea-59d43201caf8"
      },
      "effectiveDateTime": "2026-06-10T08:16:00.000+00:00",
      "performer": [ {
        "reference": "Organization/example1",
        "display": "Hendricks Country Hospital"
      } ]
    },
    "request": {
      "method": "PUT",
      "url": "Observation/989b1ec8-69f1-43e5-96e4-05d3cc851549"
    }
  }, {
    "fullUrl": "https://madie.cms.gov/Encounter/c05c2132-cd8a-476f-aaec-24f092adbe68",
    "resource": {
      "resourceType": "Encounter",
      "id": "c05c2132-cd8a-476f-aaec-24f092adbe68",
      "meta": {
        "profile": [ "http://hl7.org/fhir/us/qicore/StructureDefinition/qicore-encounter" ]
      },
      "status": "finished",
      "class": {
        "system": "http://terminology.hl7.org/CodeSystem/v3-ActCode",
        "code": "IMP",
        "display": "inpatient encounter"
      },
      "type": [ {
        "coding": [ {
          "system": "http://snomed.info/sct",
          "code": "8715000"
        } ]
      } ],
      "subject": {
        "reference": "Patient/f6dafa7e-15a9-4fec-baea-59d43201caf8"
      },
      "period": {
        "start": "2026-06-08T08:00:00.000+00:00",
        "end": "2026-06-10T08:15:00.000+00:00"
      },
      "reasonReference": [ {
        "reference": "Condition/71c3bb6f-a025-47f7-93a6-542d41a6ec9b"
      } ]
    },
    "request": {
      "method": "PUT",
      "url": "Encounter/c05c2132-cd8a-476f-aaec-24f092adbe68"
    }
  }, {
    "fullUrl": "https://madie.cms.gov/Procedure/b3cc1e15-e84e-4bf3-90d9-814fc3a9acf1",
    "resource": {
      "resourceType": "Procedure",
      "id": "b3cc1e15-e84e-4bf3-90d9-814fc3a9acf1",
      "meta": {
        "profile": [ "http://hl7.org/fhir/us/qicore/StructureDefinition/qicore-procedure" ]
      },
      "extension": [ {
        "url": "http://hl7.org/fhir/us/qicore/StructureDefinition/qicore-recorded",
        "valueDateTime": "2014-04-05T13:35:00.000+00:00"
      } ],
      "status": "completed",
      "code": {
        "coding": [ {
          "system": "http://www.cms.gov/Medicare/Coding/ICD10",
          "code": "10D00Z0"
        }, {
          "system": "http://www.icd10data.com/icd10pcs",
          "code": "10D00Z0",
          "userSelected": true
        } ]
      },
      "subject": {
        "reference": "Patient/f6dafa7e-15a9-4fec-baea-59d43201caf8"
      },
      "performedDateTime": "2026-06-08T20:00:00.000+00:00"
    },
    "request": {
      "method": "PUT",
      "url": "Procedure/b3cc1e15-e84e-4bf3-90d9-814fc3a9acf1"
    }
  }, {
    "fullUrl": "https://madie.cms.gov/Condition/71c3bb6f-a025-47f7-93a6-542d41a6ec9b",
    "resource": {
      "resourceType": "Condition",
      "id": "71c3bb6f-a025-47f7-93a6-542d41a6ec9b",
      "meta": {
        "profile": [ "http://hl7.org/fhir/us/qicore/StructureDefinition/qicore-condition-encounter-diagnosis" ]
      },
      "category": [ {
        "coding": [ {
          "system": "http://terminology.hl7.org/CodeSystem/condition-category",
          "code": "encounter-diagnosis",
          "display": "Encounter Diagnosis"
        } ]
      } ],
      "code": {
        "coding": [ {
          "system": "http://snomed.info/sct",
          "version": "2022-09",
          "code": "169826009",
          "display": "Single live birth (finding)",
          "userSelected": true
        } ]
      },
      "subject": {
        "reference": "Patient/f6dafa7e-15a9-4fec-baea-59d43201caf8"
      },
      "encounter": {
        "reference": "Encounter/c05c2132-cd8a-476f-aaec-24f092adbe68"
      }
    },
    "request": {
      "method": "PUT",
      "url": "Condition/71c3bb6f-a025-47f7-93a6-542d41a6ec9b"
    }
  }, {
    "fullUrl": "https://madie.cms.gov/Coverage/01dbd8a2-1e7f-400e-9e27-2645f4604ea3",
    "resource": {
      "resourceType": "Coverage",
      "id": "01dbd8a2-1e7f-400e-9e27-2645f4604ea3",
      "meta": {
        "profile": [ "http://hl7.org/fhir/us/qicore/StructureDefinition/qicore-coverage" ]
      },
      "status": "active",
      "subscriberId": "523435",
      "beneficiary": {
        "reference": "Patient/f6dafa7e-15a9-4fec-baea-59d43201caf8"
      },
      "relationship": {
        "coding": [ {
          "system": "http://terminology.hl7.org/CodeSystem/subscriber-relationship",
          "code": "self"
        } ]
      },
      "payor": [ {
        "reference": "Organization/98dd5368-5585-4e3e-97ca-01798df7f7b1"
      } ]
    },
    "request": {
      "method": "PUT",
      "url": "Coverage/01dbd8a2-1e7f-400e-9e27-2645f4604ea3"
    }
  }, {
    "fullUrl": "https://madie.cms.gov/Organization/98dd5368-5585-4e3e-97ca-01798df7f7b1",
    "resource": {
      "resourceType": "Organization",
      "id": "98dd5368-5585-4e3e-97ca-01798df7f7b1",
      "meta": {
        "profile": [ "http://hl7.org/fhir/us/qicore/StructureDefinition/qicore-organization" ]
      },
      "identifier": [ {
        "use": "temp",
        "system": "urn:oid:2.16.840.1.113883.4.4",
        "value": "21-3259825"
      } ],
      "active": true,
      "type": [ {
        "coding": [ {
          "system": "http://terminology.hl7.org/CodeSystem/organization-type",
          "code": "pay",
          "display": "Payer"
        } ]
      } ],
      "name": "Blue Cross Blue Shield of Texas",
      "telecom": [ {
        "system": "phone",
        "value": "(+1) 972-766-6900"
      } ],
      "address": [ {
        "use": "billing",
        "type": "postal",
        "line": [ "P.O. Box 660044" ],
        "city": "Dallas",
        "state": "TX",
        "postalCode": "75266-0044",
        "country": "USA"
      } ]
    },
    "request": {
      "method": "PUT",
      "url": "Organization/98dd5368-5585-4e3e-97ca-01798df7f7b1"
    }
  }, {
    "fullUrl": "https://madie.cms.gov/Practitioner/1ee65b2d-6956-416d-a354-6885996b395c",
    "resource": {
      "resourceType": "Practitioner",
      "id": "1ee65b2d-6956-416d-a354-6885996b395c",
      "meta": {
        "profile": [ "http://hl7.org/fhir/us/qicore/StructureDefinition/qicore-practitioner" ]
      },
      "identifier": [ {
        "system": "http://hl7.org/fhir/sid/us-npi",
        "value": "1234567890"
      } ],
      "name": [ {
        "family": "Evil",
        "prefix": [ "Dr" ]
      } ]
    },
    "request": {
      "method": "PUT",
      "url": "Practitioner/1ee65b2d-6956-416d-a354-6885996b395c"
    }
  }, {
    "fullUrl": "https://madie.cms.gov/MeasureReport/48f90f87-9d7c-42b1-84d1-290ce85a0647",
    "resource": {
      "resourceType": "MeasureReport",
      "id": "48f90f87-9d7c-42b1-84d1-290ce85a0647",
      "meta": {
        "profile": [ "http://hl7.org/fhir/us/cqfmeasures/StructureDefinition/test-case-cqfm" ]
      },
      "contained": [ {
        "resourceType": "Parameters",
        "id": "aeed841b-87d7-46f5-863f-4d948186d7ea-parameters",
        "parameter": [ {
          "name": "subject",
          "valueString": "f6dafa7e-15a9-4fec-baea-59d43201caf8"
        } ]
      } ],
      "extension": [ {
        "url": "http://hl7.org/fhir/StructureDefinition/cqf-inputParameters",
        "valueReference": {
          "reference": "#aeed841b-87d7-46f5-863f-4d948186d7ea-parameters"
        }
      }, {
        "url": "http://hl7.org/fhir/us/cqfmeasures/StructureDefinition/cqfm-testCaseDescription",
        "valueMarkdown": "EGA 43 weeks; Assessment performed Abnormal presentation Relevant Dt/time 1 min after encounter end , gravida 1, \n"
      } ],
      "modifierExtension": [ {
        "url": "http://hl7.org/fhir/us/cqfmeasures/StructureDefinition/cqfm-isTestCase",
        "valueBoolean": true
      } ],
      "status": "complete",
      "type": "individual",
      "measure": "https://madie.cms.gov/Measure/CMS0334FHIRPCCesareanBirth",
      "period": {
        "start": "2026-01-01",
        "end": "2026-12-31"
      },
      "group": [ {
        "id": "Group_1",
        "population": [ {
          "id": "InitialPopulation_1",
          "code": {
            "coding": [ {
              "system": "http://terminology.hl7.org/CodeSystem/measure-population",
              "code": "initial-population",
              "display": "Initial Population"
            } ]
          },
          "count": 1
        }, {
          "id": "Denominator_1",
          "code": {
            "coding": [ {
              "system": "http://terminology.hl7.org/CodeSystem/measure-population",
              "code": "denominator",
              "display": "Denominator"
            } ]
          },
          "count": 1
        }, {
          "id": "DenominatorExclusion_1",
          "code": {
            "coding": [ {
              "system": "http://terminology.hl7.org/CodeSystem/measure-population",
              "code": "denominator-exclusion",
              "display": "Denominator Exclusion"
            } ]
          },
          "count": 0
        }, {
          "id": "Numerator_1",
          "code": {
            "coding": [ {
              "system": "http://terminology.hl7.org/CodeSystem/measure-population",
              "code": "numerator",
              "display": "Numerator"
            } ]
          },
          "count": 1
        } ],
        "measureScore": {
          "value": 0.0
        }
      } ],
      "evaluatedResource": [ {
        "reference": "Patient/f6dafa7e-15a9-4fec-baea-59d43201caf8"
      }, {
        "reference": "Observation/dff64f96-a73b-4450-9638-79df7b6fd885"
      }, {
        "reference": "Observation/cf43ed2b-d57a-44af-836a-516eabfb72c9"
      }, {
        "reference": "Observation/1e3a17b0-7f4d-4218-992b-03d24b81b48b"
      }, {
        "reference": "Observation/989b1ec8-69f1-43e5-96e4-05d3cc851549"
      }, {
        "reference": "Encounter/c05c2132-cd8a-476f-aaec-24f092adbe68"
      }, {
        "reference": "Procedure/b3cc1e15-e84e-4bf3-90d9-814fc3a9acf1"
      }, {
        "reference": "Condition/71c3bb6f-a025-47f7-93a6-542d41a6ec9b"
      }, {
        "reference": "Coverage/01dbd8a2-1e7f-400e-9e27-2645f4604ea3"
      }, {
        "reference": "Organization/98dd5368-5585-4e3e-97ca-01798df7f7b1"
      }, {
        "reference": "Practitioner/1ee65b2d-6956-416d-a354-6885996b395c"
      } ]
    },
    "request": {
      "method": "PUT",
      "url": "MeasureReport/48f90f87-9d7c-42b1-84d1-290ce85a0647"
    }
  } ]
}