{
  "resourceType": "Bundle",
  "id": "628d4fa9786e3aa8c68d3cd4",
  "type": "collection",
  "entry": [ {
    "fullUrl": "https://madie.cms.gov/Patient/296d38e4-d69b-481e-a8cf-f7eee8b9e5d7",
    "resource": {
      "resourceType": "Patient",
      "id": "296d38e4-d69b-481e-a8cf-f7eee8b9e5d7",
      "meta": {
        "profile": [ "http://hl7.org/fhir/us/qicore/StructureDefinition/qicore-patient" ]
      },
      "extension": [ {
        "url": "http://hl7.org/fhir/us/core/StructureDefinition/us-core-race",
        "extension": [ {
          "url": "ombCategory",
          "valueCoding": {
            "system": "urn:oid:2.16.840.1.113883.6.238",
            "code": "2054-5",
            "display": "Black or African American",
            "userSelected": true
          }
        }, {
          "url": "text",
          "valueString": "Black or African American"
        } ]
      }, {
        "url": "http://hl7.org/fhir/us/core/StructureDefinition/us-core-ethnicity",
        "extension": [ {
          "url": "ombCategory",
          "valueCoding": {
            "system": "urn:oid:2.16.840.1.113883.6.238",
            "code": "2186-5",
            "display": "Not Hispanic or Latino",
            "userSelected": true
          }
        }, {
          "url": "text",
          "valueString": "Not Hispanic or Latino"
        } ]
      } ],
      "identifier": [ {
        "type": {
          "coding": [ {
            "system": "http://terminology.hl7.org/CodeSystem/v2-0203",
            "code": "MR"
          } ]
        },
        "system": "https://bonnie-fhir.healthit.gov/",
        "value": "628d4fa9786e3aa8c68d3cd4"
      } ],
      "name": [ {
        "family": "IPPPass",
        "given": [ "Age18HasEnc" ]
      } ],
      "gender": "female",
      "birthDate": "2006-12-31"
    }
  }, {
    "fullUrl": "https://madie.cms.gov/Encounter/20174115-6c1d-4eb4-8e64-da7bffac45b1",
    "resource": {
      "resourceType": "Encounter",
      "id": "20174115-6c1d-4eb4-8e64-da7bffac45b1",
      "meta": {
        "profile": [ "http://hl7.org/fhir/us/qicore/StructureDefinition/qicore-encounter" ]
      },
      "status": "finished",
      "class": {
        "system": "http://terminology.hl7.org/CodeSystem/v3-ActCode",
        "code": "AMB",
        "display": "ambulatory"
      },
      "type": [ {
        "coding": [ {
          "system": "http://snomed.info/sct",
          "version": "2022-03",
          "code": "103705002",
          "display": "Patient status observation (procedure)",
          "userSelected": true
        } ]
      } ],
      "subject": {
        "reference": "Patient/296d38e4-d69b-481e-a8cf-f7eee8b9e5d7"
      },
      "period": {
        "start": "2026-12-31T08:01:00.000Z",
        "end": "2026-12-31T08:15:00.000Z"
      }
    }
  }, {
    "fullUrl": "https://madie.cms.gov/Coverage/1f20da88-9f49-4ffe-b559-1556ace69fd4",
    "resource": {
      "resourceType": "Coverage",
      "id": "1f20da88-9f49-4ffe-b559-1556ace69fd4",
      "meta": {
        "profile": [ "http://hl7.org/fhir/us/qicore/StructureDefinition/qicore-coverage" ]
      },
      "status": "active",
      "subscriberId": "75321654",
      "beneficiary": {
        "reference": "Patient/296d38e4-d69b-481e-a8cf-f7eee8b9e5d7"
      },
      "relationship": {
        "coding": [ {
          "system": "http://terminology.hl7.org/CodeSystem/subscriber-relationship",
          "code": "self",
          "display": "Self"
        } ]
      },
      "payor": [ {
        "reference": "Organization/f79300da-aeba-4072-9c23-d9339c347779"
      } ]
    }
  }, {
    "fullUrl": "https://madie.cms.gov/Organization/f79300da-aeba-4072-9c23-d9339c347779",
    "resource": {
      "resourceType": "Organization",
      "id": "f79300da-aeba-4072-9c23-d9339c347779",
      "meta": {
        "profile": [ "http://hl7.org/fhir/us/qicore/StructureDefinition/qicore-organization" ]
      },
      "identifier": [ {
        "use": "temp",
        "system": "urn:oid:2.16.840.1.113883.4.4",
        "value": "21-3259825"
      } ],
      "active": true,
      "type": [ {
        "coding": [ {
          "system": "http://terminology.hl7.org/CodeSystem/organization-type",
          "code": "pay",
          "display": "Payer"
        } ]
      } ],
      "name": "Blue Cross Blue Shield of Texas",
      "telecom": [ {
        "system": "phone",
        "value": "(+1) 972-766-6900"
      } ],
      "address": [ {
        "use": "billing",
        "type": "postal",
        "line": [ "P.O. Box 660044" ],
        "city": "Dallas",
        "state": "TX",
        "postalCode": "75266-0044",
        "country": "USA"
      } ]
    }
  }, {
    "fullUrl": "https://madie.cms.gov/Practitioner/937190fb-921e-40d6-92f2-821e56088a7f",
    "resource": {
      "resourceType": "Practitioner",
      "id": "937190fb-921e-40d6-92f2-821e56088a7f",
      "meta": {
        "profile": [ "http://hl7.org/fhir/us/qicore/StructureDefinition/qicore-practitioner" ]
      },
      "identifier": [ {
        "system": "http://hl7.org/fhir/sid/us-npi",
        "value": "1417960428"
      } ],
      "name": [ {
        "family": "Evil",
        "prefix": [ "Dr" ]
      } ]
    }
  }, {
    "fullUrl": "https://madie.cms.gov/MeasureReport/20a21cd3-e95a-402d-bddf-1f19baa7755f",
    "resource": {
      "resourceType": "MeasureReport",
      "id": "20a21cd3-e95a-402d-bddf-1f19baa7755f",
      "meta": {
        "profile": [ "http://hl7.org/fhir/us/cqfmeasures/StructureDefinition/test-case-cqfm" ]
      },
      "contained": [ {
        "resourceType": "Parameters",
        "id": "bc4cf6d4-4864-4b79-89b1-0a7868982241-parameters",
        "parameter": [ {
          "name": "subject",
          "valueString": "296d38e4-d69b-481e-a8cf-f7eee8b9e5d7"
        } ]
      } ],
      "extension": [ {
        "url": "http://hl7.org/fhir/StructureDefinition/cqf-inputParameters",
        "valueReference": {
          "reference": "#bc4cf6d4-4864-4b79-89b1-0a7868982241-parameters"
        }
      }, {
        "url": "http://hl7.org/fhir/us/cqfmeasures/StructureDefinition/cqfm-testCaseDescription",
        "valueMarkdown": "Age 18 at start of MP and encounter last day of MP"
      } ],
      "modifierExtension": [ {
        "url": "http://hl7.org/fhir/us/cqfmeasures/StructureDefinition/cqfm-isTestCase",
        "valueBoolean": true
      } ],
      "status": "complete",
      "type": "individual",
      "measure": "https://madie.cms.gov/Measure/CMS22FHIRPCSBPScreeningFollowUp",
      "period": {
        "start": "2026-01-01",
        "end": "2026-12-31"
      },
      "group": [ {
        "id": "Group_1",
        "population": [ {
          "id": "InitialPopulation_1",
          "code": {
            "coding": [ {
              "system": "http://terminology.hl7.org/CodeSystem/measure-population",
              "code": "initial-population",
              "display": "Initial Population"
            } ]
          },
          "count": 1
        }, {
          "id": "Denominator_1",
          "code": {
            "coding": [ {
              "system": "http://terminology.hl7.org/CodeSystem/measure-population",
              "code": "denominator",
              "display": "Denominator"
            } ]
          },
          "count": 1
        }, {
          "id": "DenominatorExclusion_1",
          "code": {
            "coding": [ {
              "system": "http://terminology.hl7.org/CodeSystem/measure-population",
              "code": "denominator-exclusion",
              "display": "Denominator Exclusion"
            } ]
          },
          "count": 0
        }, {
          "id": "Numerator_1",
          "code": {
            "coding": [ {
              "system": "http://terminology.hl7.org/CodeSystem/measure-population",
              "code": "numerator",
              "display": "Numerator"
            } ]
          },
          "count": 0
        }, {
          "id": "DenominatorException_1",
          "code": {
            "coding": [ {
              "system": "http://terminology.hl7.org/CodeSystem/measure-population",
              "code": "denominator-exception",
              "display": "Denominator Exception"
            } ]
          },
          "count": 0
        } ],
        "measureScore": {
          "value": 0.0
        }
      } ],
      "evaluatedResource": [ {
        "reference": "Patient/296d38e4-d69b-481e-a8cf-f7eee8b9e5d7"
      }, {
        "reference": "Encounter/20174115-6c1d-4eb4-8e64-da7bffac45b1"
      }, {
        "reference": "Coverage/1f20da88-9f49-4ffe-b559-1556ace69fd4"
      }, {
        "reference": "Organization/f79300da-aeba-4072-9c23-d9339c347779"
      }, {
        "reference": "Practitioner/937190fb-921e-40d6-92f2-821e56088a7f"
      } ]
    }
  } ]
}