{
  "resourceType": "Bundle",
  "id": "610d828c37a47d6ac0116a12",
  "type": "collection",
  "entry": [ {
    "fullUrl": "https://madie.cms.gov/Patient/38fba18c-6026-4777-b99b-75996d5968e3",
    "resource": {
      "resourceType": "Patient",
      "id": "38fba18c-6026-4777-b99b-75996d5968e3",
      "meta": {
        "profile": [ "http://hl7.org/fhir/us/qicore/StructureDefinition/qicore-patient" ]
      },
      "extension": [ {
        "url": "http://hl7.org/fhir/us/core/StructureDefinition/us-core-race",
        "extension": [ {
          "url": "ombCategory",
          "valueCoding": {
            "system": "urn:oid:2.16.840.1.113883.6.238",
            "code": "2028-9",
            "display": "Asian",
            "userSelected": true
          }
        }, {
          "url": "text",
          "valueString": "Asian"
        } ]
      }, {
        "url": "http://hl7.org/fhir/us/core/StructureDefinition/us-core-ethnicity",
        "extension": [ {
          "url": "ombCategory",
          "valueCoding": {
            "system": "urn:oid:2.16.840.1.113883.6.238",
            "code": "2186-5",
            "display": "Not Hispanic or Latino",
            "userSelected": true
          }
        }, {
          "url": "text",
          "valueString": "Not Hispanic or Latino"
        } ]
      } ],
      "identifier": [ {
        "type": {
          "coding": [ {
            "system": "http://terminology.hl7.org/CodeSystem/v2-0203",
            "code": "MR"
          } ]
        },
        "system": "https://goodhealth.com/",
        "value": "610d828c37a47d6ac0116a12"
      } ],
      "name": [ {
        "family": "DENEXCEPFail",
        "given": [ "AssessmentNotDonePatientReason1MinAfterEncEdge" ]
      } ],
      "gender": "female",
      "birthDate": "1991-01-05"
    }
  }, {
    "fullUrl": "https://madie.cms.gov/Encounter/6f0bc711-b096-4fe9-931d-be7746260a8d",
    "resource": {
      "resourceType": "Encounter",
      "id": "6f0bc711-b096-4fe9-931d-be7746260a8d",
      "meta": {
        "profile": [ "http://hl7.org/fhir/us/qicore/StructureDefinition/qicore-encounter" ]
      },
      "status": "finished",
      "class": {
        "system": "http://terminology.hl7.org/CodeSystem/v3-ActCode",
        "code": "AMB",
        "display": "ambulatory",
        "userSelected": true
      },
      "type": [ {
        "coding": [ {
          "system": "http://www.ama-assn.org/go/cpt",
          "version": "2023",
          "code": "96116"
        } ]
      } ],
      "subject": {
        "reference": "Patient/38fba18c-6026-4777-b99b-75996d5968e3"
      },
      "period": {
        "start": "2026-08-01T07:00:00.000+00:00",
        "end": "2026-08-01T08:00:00.000+00:00"
      }
    }
  }, {
    "fullUrl": "https://madie.cms.gov/Condition/426f06f6-6f8a-48de-95bd-7618cce11e00",
    "resource": {
      "resourceType": "Condition",
      "id": "426f06f6-6f8a-48de-95bd-7618cce11e00",
      "meta": {
        "profile": [ "http://hl7.org/fhir/us/qicore/StructureDefinition/qicore-condition-problems-health-concerns" ]
      },
      "clinicalStatus": {
        "coding": [ {
          "system": "http://terminology.hl7.org/CodeSystem/condition-clinical",
          "code": "active",
          "display": "active",
          "userSelected": true
        } ]
      },
      "category": [ {
        "coding": [ {
          "system": "http://terminology.hl7.org/CodeSystem/condition-clinical",
          "code": "active",
          "display": "active",
          "userSelected": true
        } ]
      }, {
        "coding": [ {
          "system": "http://terminology.hl7.org/CodeSystem/condition-category",
          "code": "problem-list-item",
          "display": "Problem List Item"
        } ]
      } ],
      "code": {
        "coding": [ {
          "system": "http://snomed.info/sct",
          "version": "http://snomed.info/sct/731000124108/version/20250301",
          "code": "425390006",
          "display": "Dementia associated with Parkinson's Disease (disorder)"
        } ]
      },
      "subject": {
        "reference": "Patient/38fba18c-6026-4777-b99b-75996d5968e3"
      },
      "onsetDateTime": "2025-01-06T08:00:00.000+00:00",
      "recordedDate": "2025-01-08T08:00:00.000+00:00"
    }
  }, {
    "fullUrl": "https://madie.cms.gov/Encounter/e0c0f9f3-9ff3-4700-a1d6-bcb55e3a106c",
    "resource": {
      "resourceType": "Encounter",
      "id": "e0c0f9f3-9ff3-4700-a1d6-bcb55e3a106c",
      "meta": {
        "profile": [ "http://hl7.org/fhir/us/qicore/StructureDefinition/qicore-encounter" ]
      },
      "status": "finished",
      "class": {
        "system": "http://terminology.hl7.org/CodeSystem/v3-ActCode",
        "code": "AMB",
        "display": "ambulatory",
        "userSelected": true
      },
      "type": [ {
        "coding": [ {
          "system": "http://snomed.info/sct",
          "version": "http://snomed.info/sct/731000124108/version/20230301",
          "code": "228653003",
          "display": "Occupational therapy home visit (regime/therapy)"
        } ]
      } ],
      "subject": {
        "reference": "Patient/38fba18c-6026-4777-b99b-75996d5968e3"
      },
      "period": {
        "start": "2026-05-06T08:00:00.000+00:00",
        "end": "2026-05-06T08:15:00.000+00:00"
      }
    }
  }, {
    "fullUrl": "https://madie.cms.gov/Procedure/9a345af4-4ed1-42fd-bd52-18e495937ed1",
    "resource": {
      "resourceType": "Procedure",
      "id": "9a345af4-4ed1-42fd-bd52-18e495937ed1",
      "meta": {
        "profile": [ "http://hl7.org/fhir/us/qicore/StructureDefinition/qicore-procedure" ]
      },
      "extension": [ {
        "url": "http://hl7.org/fhir/us/qicore/StructureDefinition/qicore-recorded",
        "valueDateTime": "2026-05-05T13:35:00.000+00:00"
      } ],
      "status": "completed",
      "category": {
        "coding": [ {
          "system": "http://loinc.org",
          "version": "2.73",
          "code": "58151-2",
          "display": "Prior assessment Brief Interview for Mental Status (BIMS) summary score [MDSv3]",
          "userSelected": true
        } ]
      },
      "code": {
        "coding": [ {
          "system": "http://snomed.info/sct",
          "version": "http://snomed.info/sct/731000124108/version/202303",
          "code": "113024001",
          "display": "Assessment and interpretation of higher cerebral function, cognitive testing (procedure)",
          "userSelected": true
        } ]
      },
      "subject": {
        "reference": "Patient/38fba18c-6026-4777-b99b-75996d5968e3"
      },
      "encounter": {
        "reference": "Encounter/home-healthcare-services-8b61"
      },
      "performedDateTime": "2026-05-06T08:00:00.000+00:00"
    }
  }, {
    "fullUrl": "https://madie.cms.gov/Observation/38cf817e-949a-4a53-80c2-265405fa6ed7",
    "resource": {
      "resourceType": "Observation",
      "id": "38cf817e-949a-4a53-80c2-265405fa6ed7",
      "meta": {
        "profile": [ "http://hl7.org/fhir/us/qicore/StructureDefinition/qicore-observationcancelled" ]
      },
      "extension": [ {
        "url": "http://hl7.org/fhir/us/qicore/StructureDefinition/qicore-notDoneReason",
        "valueCodeableConcept": {
          "coding": [ {
            "system": "http://snomed.info/sct",
            "version": "http://snomed.info/sct/731000124108/version/20230301",
            "code": "275936005",
            "display": "Patient noncompliance - general (situation)"
          } ]
        }
      } ],
      "status": "cancelled",
      "category": [ {
        "coding": [ {
          "system": "http://snomed.info/sct",
          "version": "http://snomed.info/sct/731000124108/version/202303",
          "code": "113024001",
          "display": "Assessment and interpretation of higher cerebral function, cognitive testing (procedure)",
          "userSelected": true
        } ]
      }, {
        "coding": [ {
          "system": "http://terminology.hl7.org/CodeSystem/observation-category",
          "code": "survey"
        } ]
      } ],
      "code": {
        "coding": [ {
          "system": "http://snomed.info/sct",
          "version": "http://snomed.info/sct/731000124108/version/20250301",
          "code": "113024001",
          "display": "Assessment and interpretation of higher cerebral function, cognitive testing (procedure)"
        } ]
      },
      "subject": {
        "reference": "Patient/38fba18c-6026-4777-b99b-75996d5968e3"
      },
      "effectiveDateTime": "2026-05-07T08:00:00.000+00:00",
      "issued": "2026-08-02T08:01:00.000+00:00",
      "dataAbsentReason": {
        "coding": [ {
          "system": "http://terminology.hl7.org/CodeSystem/data-absent-reason",
          "code": "unknown",
          "display": "Unknown"
        } ]
      }
    }
  }, {
    "fullUrl": "https://madie.cms.gov/MeasureReport/298821c0-2654-43d2-bde0-a1e15f87da13",
    "resource": {
      "resourceType": "MeasureReport",
      "id": "298821c0-2654-43d2-bde0-a1e15f87da13",
      "meta": {
        "profile": [ "http://hl7.org/fhir/us/cqfmeasures/StructureDefinition/test-case-cqfm" ]
      },
      "contained": [ {
        "resourceType": "Parameters",
        "id": "2ceef5e5-655b-45a6-b747-a37c1c3bdc1f-parameters",
        "parameter": [ {
          "name": "subject",
          "valueString": "38fba18c-6026-4777-b99b-75996d5968e3"
        } ]
      } ],
      "extension": [ {
        "url": "http://hl7.org/fhir/StructureDefinition/cqf-inputParameters",
        "valueReference": {
          "reference": "#2ceef5e5-655b-45a6-b747-a37c1c3bdc1f-parameters"
        }
      }, {
        "url": "http://hl7.org/fhir/us/cqfmeasures/StructureDefinition/cqfm-testCaseDescription",
        "valueMarkdown": "Patient has Dementia Dx, 2 qualifying encounters and Patient Reason documented for not performing Assessment however documentation is done 1 day after end of encounter."
      } ],
      "modifierExtension": [ {
        "url": "http://hl7.org/fhir/us/cqfmeasures/StructureDefinition/cqfm-isTestCase",
        "valueBoolean": true
      } ],
      "status": "complete",
      "type": "individual",
      "measure": "https://madie.cms.gov/Measure/CMS149FHIRDementiaCognitiveAssess",
      "period": {
        "start": "2026-01-01",
        "end": "2026-12-31"
      },
      "group": [ {
        "id": "Group_1",
        "population": [ {
          "id": "InitialPopulation_1",
          "code": {
            "coding": [ {
              "system": "http://terminology.hl7.org/CodeSystem/measure-population",
              "code": "initial-population",
              "display": "Initial Population"
            } ]
          },
          "count": 1
        }, {
          "id": "Denominator_1",
          "code": {
            "coding": [ {
              "system": "http://terminology.hl7.org/CodeSystem/measure-population",
              "code": "denominator",
              "display": "Denominator"
            } ]
          },
          "count": 1
        }, {
          "id": "Numerator_1",
          "code": {
            "coding": [ {
              "system": "http://terminology.hl7.org/CodeSystem/measure-population",
              "code": "numerator",
              "display": "Numerator"
            } ]
          },
          "count": 0
        }, {
          "id": "DenominatorException_1",
          "code": {
            "coding": [ {
              "system": "http://terminology.hl7.org/CodeSystem/measure-population",
              "code": "denominator-exception",
              "display": "Denominator Exception"
            } ]
          },
          "count": 0
        } ],
        "measureScore": {
          "value": 1.0
        }
      } ],
      "evaluatedResource": [ {
        "reference": "Patient/38fba18c-6026-4777-b99b-75996d5968e3"
      }, {
        "reference": "Encounter/6f0bc711-b096-4fe9-931d-be7746260a8d"
      }, {
        "reference": "Condition/426f06f6-6f8a-48de-95bd-7618cce11e00"
      }, {
        "reference": "Encounter/e0c0f9f3-9ff3-4700-a1d6-bcb55e3a106c"
      }, {
        "reference": "Procedure/9a345af4-4ed1-42fd-bd52-18e495937ed1"
      }, {
        "reference": "Observation/38cf817e-949a-4a53-80c2-265405fa6ed7"
      } ]
    }
  } ]
}