{
  "resourceType": "Bundle",
  "id": "MultEncwithMultAsses",
  "type": "transaction",
  "entry": [ {
    "fullUrl": "https://madie.cms.gov/Patient/75d19c2d-5ae9-476e-93f5-e84e668512a8",
    "resource": {
      "resourceType": "Patient",
      "id": "75d19c2d-5ae9-476e-93f5-e84e668512a8",
      "meta": {
        "profile": [ "http://hl7.org/fhir/us/qicore/StructureDefinition/qicore-patient" ]
      },
      "extension": [ {
        "url": "http://hl7.org/fhir/us/core/StructureDefinition/us-core-race",
        "extension": [ {
          "url": "ombCategory",
          "valueCoding": {
            "system": "urn:oid:2.16.840.1.113883.6.238",
            "code": "2028-9",
            "display": "Asian",
            "userSelected": true
          }
        }, {
          "url": "text",
          "valueString": "White"
        } ]
      }, {
        "url": "http://hl7.org/fhir/us/core/StructureDefinition/us-core-ethnicity",
        "extension": [ {
          "url": "ombCategory",
          "valueCoding": {
            "system": "urn:oid:2.16.840.1.113883.6.238",
            "code": "2186-5",
            "display": "Not Hispanic or Latino",
            "userSelected": true
          }
        }, {
          "url": "text",
          "valueString": "Not Hispanic or Latino"
        } ]
      }, {
        "url": "http://hl7.org/fhir/us/core/StructureDefinition/us-core-sex",
        "valueCode": "248152002"
      } ],
      "identifier": [ {
        "type": {
          "coding": [ {
            "system": "http://terminology.hl7.org/CodeSystem/v2-0203",
            "code": "MR"
          } ]
        },
        "system": "https://madie.cms.gov/",
        "value": "MultEncwithMultAsses"
      } ],
      "active": true,
      "name": [ {
        "use": "usual",
        "text": "MultEncwithMultAsses",
        "family": "MSROBSPass4",
        "given": [ "MultEncwithMultAsses" ]
      } ],
      "gender": "female",
      "birthDate": "1984-04-04",
      "address": [ {
        "text": "MultEncwithMultAsses, Screened Not at risk Assessed Severely Malnourished Diagnosed Care Plan, ID=ScreAtriRefAsseModDxCp2, DOB: 03 Feb 1956"
      } ]
    },
    "request": {
      "method": "PUT",
      "url": "Patient/75d19c2d-5ae9-476e-93f5-e84e668512a8"
    }
  }, {
    "fullUrl": "https://madie.cms.gov/Encounter/89a2a086-1560-468c-b00d-c6482252967b",
    "resource": {
      "resourceType": "Encounter",
      "id": "89a2a086-1560-468c-b00d-c6482252967b",
      "meta": {
        "profile": [ "http://hl7.org/fhir/us/qicore/StructureDefinition/qicore-encounter" ]
      },
      "status": "finished",
      "class": {
        "system": "http://terminology.hl7.org/CodeSystem/v3-ActCode",
        "code": "IMP",
        "display": "inpatient encounter"
      },
      "type": [ {
        "coding": [ {
          "system": "http://snomed.info/sct",
          "code": "32485007"
        } ]
      } ],
      "subject": {
        "reference": "Patient/75d19c2d-5ae9-476e-93f5-e84e668512a8"
      },
      "period": {
        "start": "2026-08-01T08:00:00.000+00:00",
        "end": "2026-08-10T08:00:00.000+00:00"
      }
    },
    "request": {
      "method": "PUT",
      "url": "Encounter/89a2a086-1560-468c-b00d-c6482252967b"
    }
  }, {
    "fullUrl": "https://madie.cms.gov/Encounter/ffbff92f-554b-4ce8-a9c6-faca0ba951b7",
    "resource": {
      "resourceType": "Encounter",
      "id": "ffbff92f-554b-4ce8-a9c6-faca0ba951b7",
      "meta": {
        "profile": [ "http://hl7.org/fhir/us/qicore/StructureDefinition/qicore-encounter" ]
      },
      "status": "finished",
      "class": {
        "system": "http://terminology.hl7.org/CodeSystem/v3-ActCode",
        "code": "IMP",
        "display": "inpatient encounter"
      },
      "type": [ {
        "coding": [ {
          "system": "http://snomed.info/sct",
          "code": "8715000"
        } ]
      } ],
      "subject": {
        "reference": "Patient/75d19c2d-5ae9-476e-93f5-e84e668512a8"
      },
      "period": {
        "start": "2026-05-01T08:00:00.000+00:00",
        "end": "2026-05-10T08:00:00.000+00:00"
      }
    },
    "request": {
      "method": "PUT",
      "url": "Encounter/ffbff92f-554b-4ce8-a9c6-faca0ba951b7"
    }
  }, {
    "fullUrl": "https://madie.cms.gov/Condition/69b20b5c-ddaf-4b92-902a-c405cca2390f",
    "resource": {
      "resourceType": "Condition",
      "id": "69b20b5c-ddaf-4b92-902a-c405cca2390f",
      "meta": {
        "profile": [ "http://hl7.org/fhir/us/qicore/StructureDefinition/qicore-condition-encounter-diagnosis" ]
      },
      "clinicalStatus": {
        "coding": [ {
          "system": "http://terminology.hl7.org/CodeSystem/condition-clinical",
          "code": "active",
          "display": "Active",
          "userSelected": true
        } ]
      },
      "verificationStatus": {
        "coding": [ {
          "system": "http://terminology.hl7.org/CodeSystem/condition-ver-status",
          "code": "confirmed",
          "display": "Confirmed",
          "userSelected": true
        } ]
      },
      "category": [ {
        "coding": [ {
          "system": "http://terminology.hl7.org/CodeSystem/condition-category",
          "code": "encounter-diagnosis",
          "display": "Encounter Diagnosis",
          "userSelected": true
        } ]
      } ],
      "code": {
        "coding": [ {
          "system": "http://hl7.org/fhir/sid/icd-10-cm",
          "code": "E40",
          "display": "Kwashiorkor",
          "userSelected": true
        } ]
      },
      "subject": {
        "reference": "Patient/75d19c2d-5ae9-476e-93f5-e84e668512a8"
      },
      "recordedDate": "2026-05-01T08:00:00.000+00:00"
    },
    "request": {
      "method": "PUT",
      "url": "Condition/69b20b5c-ddaf-4b92-902a-c405cca2390f"
    }
  }, {
    "fullUrl": "https://madie.cms.gov/Procedure/e1368d9f-0ced-44c0-8b19-01ec27bc5b20",
    "resource": {
      "resourceType": "Procedure",
      "id": "e1368d9f-0ced-44c0-8b19-01ec27bc5b20",
      "meta": {
        "profile": [ "http://hl7.org/fhir/us/qicore/StructureDefinition/qicore-procedure" ]
      },
      "extension": [ {
        "url": "http://hl7.org/fhir/us/qicore/StructureDefinition/qicore-recorded",
        "valueDateTime": "2026-03-05T08:00:00.000+00:00"
      } ],
      "status": "completed",
      "code": {
        "coding": [ {
          "system": "http://snomed.info/sct",
          "code": "306165000",
          "display": "Referral to hospital-based dietetics service (procedure)"
        } ],
        "text": "Referral to hospital-based dietetics service (procedure)"
      },
      "subject": {
        "reference": "Patient/75d19c2d-5ae9-476e-93f5-e84e668512a8"
      },
      "encounter": {
        "reference": "Encounter/MultEncwithMultAssesMSROBSPass4"
      },
      "performedPeriod": {
        "start": "2026-08-05T08:00:00.000+00:00",
        "end": "2026-08-05T08:00:00.000+00:00"
      }
    },
    "request": {
      "method": "PUT",
      "url": "Procedure/e1368d9f-0ced-44c0-8b19-01ec27bc5b20"
    }
  }, {
    "fullUrl": "https://madie.cms.gov/Observation/b11b6129-f8f6-43e5-a9e9-7dea03ec2887",
    "resource": {
      "resourceType": "Observation",
      "id": "b11b6129-f8f6-43e5-a9e9-7dea03ec2887",
      "meta": {
        "profile": [ "http://hl7.org/fhir/us/qicore/StructureDefinition/qicore-observation-screening-assessment" ]
      },
      "status": "final",
      "category": [ {
        "coding": [ {
          "system": "http://terminology.hl7.org/CodeSystem/observation-category",
          "code": "survey",
          "display": "Survey"
        } ]
      } ],
      "code": {
        "coding": [ {
          "system": "http://loinc.org",
          "code": "75282-4",
          "display": "Nutrition assessment panel",
          "userSelected": true
        } ]
      },
      "subject": {
        "reference": "Patient/75d19c2d-5ae9-476e-93f5-e84e668512a8"
      },
      "effectiveDateTime": "2026-08-08T08:00:00.000+00:00",
      "valueCodeableConcept": {
        "coding": [ {
          "system": "http://loinc.org",
          "code": "LA33701-6",
          "display": "Well nourished",
          "userSelected": true
        } ]
      }
    },
    "request": {
      "method": "PUT",
      "url": "Observation/b11b6129-f8f6-43e5-a9e9-7dea03ec2887"
    }
  }, {
    "fullUrl": "https://madie.cms.gov/Observation/f7f009db-3501-460e-81fe-0c0b4bd52555",
    "resource": {
      "resourceType": "Observation",
      "id": "f7f009db-3501-460e-81fe-0c0b4bd52555",
      "meta": {
        "profile": [ "http://hl7.org/fhir/us/qicore/StructureDefinition/qicore-observation-screening-assessment" ]
      },
      "status": "final",
      "category": [ {
        "coding": [ {
          "system": "http://terminology.hl7.org/CodeSystem/observation-category",
          "code": "survey",
          "display": "Survey"
        } ]
      } ],
      "code": {
        "coding": [ {
          "system": "http://loinc.org",
          "code": "75282-4",
          "display": "Nutrition assessment panel",
          "userSelected": true
        } ]
      },
      "subject": {
        "reference": "Patient/75d19c2d-5ae9-476e-93f5-e84e668512a8"
      },
      "effectiveDateTime": "2026-08-01T08:00:00.000+00:00",
      "valueCodeableConcept": {
        "coding": [ {
          "system": "http://snomed.info/sct",
          "code": "102636009",
          "display": "Chronic nutritional deficiency (finding)",
          "userSelected": true
        } ]
      }
    },
    "request": {
      "method": "PUT",
      "url": "Observation/f7f009db-3501-460e-81fe-0c0b4bd52555"
    }
  }, {
    "fullUrl": "https://madie.cms.gov/Procedure/b3abc883-a077-4820-9693-86ba99ee99fd",
    "resource": {
      "resourceType": "Procedure",
      "id": "b3abc883-a077-4820-9693-86ba99ee99fd",
      "meta": {
        "profile": [ "http://hl7.org/fhir/us/qicore/StructureDefinition/qicore-procedure" ]
      },
      "extension": [ {
        "url": "http://hl7.org/fhir/us/qicore/StructureDefinition/qicore-recorded",
        "valueDateTime": "2026-02-02T11:30:00.000+00:00"
      } ],
      "status": "completed",
      "code": {
        "coding": [ {
          "system": "http://snomed.info/sct",
          "code": "445101000124100",
          "display": "Collaborating in nutrition therapy (procedure)"
        } ],
        "text": "Collaborating in nutrition therapy (procedure)"
      },
      "subject": {
        "reference": "Patient/75d19c2d-5ae9-476e-93f5-e84e668512a8"
      },
      "encounter": {
        "reference": "Encounter/MultEncwithMultAssesMSROBSPass4"
      },
      "performedPeriod": {
        "start": "2026-05-05T08:00:00.000+00:00",
        "end": "2026-05-05T08:00:00.000+00:00"
      }
    },
    "request": {
      "method": "PUT",
      "url": "Procedure/b3abc883-a077-4820-9693-86ba99ee99fd"
    }
  }, {
    "fullUrl": "https://madie.cms.gov/Procedure/361c2a77-c855-4213-b734-4c74cff67366",
    "resource": {
      "resourceType": "Procedure",
      "id": "361c2a77-c855-4213-b734-4c74cff67366",
      "meta": {
        "profile": [ "http://hl7.org/fhir/us/qicore/StructureDefinition/qicore-procedure" ]
      },
      "extension": [ {
        "url": "http://hl7.org/fhir/us/qicore/StructureDefinition/qicore-recorded",
        "valueDateTime": "2026-02-02T11:30:00.000+00:00"
      } ],
      "status": "completed",
      "code": {
        "coding": [ {
          "system": "http://snomed.info/sct",
          "code": "445101000124100",
          "display": "Collaborating in nutrition therapy (procedure)"
        } ],
        "text": "Collaborating in nutrition therapy (procedure)"
      },
      "subject": {
        "reference": "Patient/75d19c2d-5ae9-476e-93f5-e84e668512a8"
      },
      "encounter": {
        "reference": "Encounter/MultEncwithMultAssesMSROBSPass4"
      },
      "performedPeriod": {
        "start": "2026-08-08T08:00:00.000+00:00",
        "end": "2026-08-08T08:00:00.000+00:00"
      }
    },
    "request": {
      "method": "PUT",
      "url": "Procedure/361c2a77-c855-4213-b734-4c74cff67366"
    }
  }, {
    "fullUrl": "https://madie.cms.gov/Coverage/a78915ad-5570-431f-8c96-943436349c70",
    "resource": {
      "resourceType": "Coverage",
      "id": "a78915ad-5570-431f-8c96-943436349c70",
      "meta": {
        "profile": [ "http://hl7.org/fhir/us/qicore/StructureDefinition/qicore-coverage" ]
      },
      "status": "active",
      "type": {
        "coding": [ {
          "system": "https://nahdo.org/sopt",
          "version": "9.2",
          "code": "11",
          "display": "Medicare Managed Care (Includes Medicare Advantage Plans)"
        } ]
      },
      "subscriberId": "97531",
      "beneficiary": {
        "reference": "Patient/75d19c2d-5ae9-476e-93f5-e84e668512a8"
      },
      "dependent": "0",
      "relationship": {
        "coding": [ {
          "system": "http://terminology.hl7.org/CodeSystem/subscriber-relationship",
          "code": "self"
        } ]
      },
      "period": {
        "start": "2025-10-01T00:00:00.000+00:00"
      },
      "payor": [ {
        "reference": "Organization/8392bf67-2173-4f88-9487-2faaca9b4b3a"
      } ]
    },
    "request": {
      "method": "PUT",
      "url": "Coverage/a78915ad-5570-431f-8c96-943436349c70"
    }
  }, {
    "fullUrl": "https://madie.cms.gov/Organization/8392bf67-2173-4f88-9487-2faaca9b4b3a",
    "resource": {
      "resourceType": "Organization",
      "id": "8392bf67-2173-4f88-9487-2faaca9b4b3a",
      "meta": {
        "profile": [ "http://hl7.org/fhir/us/qicore/StructureDefinition/qicore-organization" ]
      },
      "identifier": [ {
        "use": "temp",
        "system": "urn:oid:2.16.840.1.113883.4.4",
        "value": "21-3259825"
      } ],
      "active": true,
      "type": [ {
        "coding": [ {
          "system": "http://terminology.hl7.org/CodeSystem/organization-type",
          "code": "pay",
          "display": "Payer"
        } ]
      } ],
      "name": "Blue Cross Blue Shield of Texas",
      "telecom": [ {
        "system": "phone",
        "value": "(+1) 972-766-6900"
      } ],
      "address": [ {
        "use": "billing",
        "type": "postal",
        "line": [ "P.O. Box 660044" ],
        "city": "Dallas",
        "state": "TX",
        "postalCode": "75266-0044",
        "country": "USA"
      } ]
    },
    "request": {
      "method": "PUT",
      "url": "Organization/8392bf67-2173-4f88-9487-2faaca9b4b3a"
    }
  }, {
    "fullUrl": "https://madie.cms.gov/Observation/1497e5f8-6c52-40f5-8330-409120ee88a8",
    "resource": {
      "resourceType": "Observation",
      "id": "1497e5f8-6c52-40f5-8330-409120ee88a8",
      "meta": {
        "profile": [ "http://hl7.org/fhir/us/qicore/StructureDefinition/qicore-observation-screening-assessment" ]
      },
      "status": "final",
      "category": [ {
        "coding": [ {
          "system": "http://terminology.hl7.org/CodeSystem/observation-category",
          "code": "survey",
          "display": "Survey"
        } ]
      } ],
      "code": {
        "coding": [ {
          "system": "http://loinc.org",
          "code": "98967-3",
          "display": "Nutritional Risk Screening 2002 panel",
          "userSelected": true
        } ]
      },
      "subject": {
        "reference": "Patient/75d19c2d-5ae9-476e-93f5-e84e668512a8"
      },
      "effectiveDateTime": "2026-05-05T08:00:00.000+00:00",
      "valueCodeableConcept": {
        "coding": [ {
          "system": "http://snomed.info/sct",
          "code": "129689002",
          "display": "At risk for nutritional problem",
          "userSelected": true
        } ]
      }
    },
    "request": {
      "method": "PUT",
      "url": "Observation/1497e5f8-6c52-40f5-8330-409120ee88a8"
    }
  }, {
    "fullUrl": "https://madie.cms.gov/MeasureReport/de1803eb-d18a-4265-8887-ee38ef83e02a",
    "resource": {
      "resourceType": "MeasureReport",
      "id": "de1803eb-d18a-4265-8887-ee38ef83e02a",
      "meta": {
        "profile": [ "http://hl7.org/fhir/us/cqfmeasures/StructureDefinition/test-case-cqfm" ]
      },
      "contained": [ {
        "resourceType": "Parameters",
        "id": "207475ad-fdb0-41da-b72a-e07918e9f060-parameters",
        "parameter": [ {
          "name": "subject",
          "valueString": "75d19c2d-5ae9-476e-93f5-e84e668512a8"
        } ]
      } ],
      "extension": [ {
        "url": "http://hl7.org/fhir/StructureDefinition/cqf-inputParameters",
        "valueReference": {
          "reference": "#207475ad-fdb0-41da-b72a-e07918e9f060-parameters"
        }
      }, {
        "url": "http://hl7.org/fhir/us/cqfmeasures/StructureDefinition/cqfm-testCaseDescription",
        "valueMarkdown": "2 Encounters, 2 Assessments in Each Encounter (Not then Moderate, Mod then Not)\n1111 100% 1100 100%"
      } ],
      "modifierExtension": [ {
        "url": "http://hl7.org/fhir/us/cqfmeasures/StructureDefinition/cqfm-isTestCase",
        "valueBoolean": true
      } ],
      "status": "complete",
      "type": "individual",
      "measure": "https://madie.cms.gov/Measure/CMS986FHIRMalnutritionScore",
      "period": {
        "start": "2026-01-01",
        "end": "2026-12-31"
      },
      "group": [ {
        "id": "Group_1",
        "population": [ {
          "id": "InitialPopulation_1",
          "code": {
            "coding": [ {
              "system": "http://terminology.hl7.org/CodeSystem/measure-population",
              "code": "initial-population",
              "display": "Initial Population"
            } ]
          },
          "count": 2
        }, {
          "id": "MeasurePopulation_1",
          "code": {
            "coding": [ {
              "system": "http://terminology.hl7.org/CodeSystem/measure-population",
              "code": "measure-population",
              "display": "Measure Population"
            } ]
          },
          "count": 2
        }, {
          "id": "MeasurePopulationExclusion_1",
          "code": {
            "coding": [ {
              "system": "http://terminology.hl7.org/CodeSystem/measure-population",
              "code": "measure-population-exclusion",
              "display": "Measure Population Exclusion"
            } ]
          },
          "count": 0
        }, {
          "id": "MeasureObservation_1_1",
          "code": {
            "coding": [ {
              "system": "http://terminology.hl7.org/CodeSystem/measure-population",
              "code": "measure-population-observation",
              "display": "Measure Population Observation"
            } ]
          },
          "count": 1
        }, {
          "id": "MeasureObservation_1_2",
          "code": {
            "coding": [ {
              "system": "http://terminology.hl7.org/CodeSystem/measure-population",
              "code": "measure-population-observation",
              "display": "Measure Population Observation"
            } ]
          },
          "count": 1
        } ],
        "measureScore": {
          "value": 0.0
        }
      }, {
        "id": "Group_2",
        "population": [ {
          "id": "InitialPopulation_2",
          "code": {
            "coding": [ {
              "system": "http://terminology.hl7.org/CodeSystem/measure-population",
              "code": "initial-population",
              "display": "Initial Population"
            } ]
          },
          "count": 2
        }, {
          "id": "MeasurePopulation_2",
          "code": {
            "coding": [ {
              "system": "http://terminology.hl7.org/CodeSystem/measure-population",
              "code": "measure-population",
              "display": "Measure Population"
            } ]
          },
          "count": 2
        }, {
          "id": "MeasurePopulationExclusion_2",
          "code": {
            "coding": [ {
              "system": "http://terminology.hl7.org/CodeSystem/measure-population",
              "code": "measure-population-exclusion",
              "display": "Measure Population Exclusion"
            } ]
          },
          "count": 0
        }, {
          "id": "MeasureObservation_2_1",
          "code": {
            "coding": [ {
              "system": "http://terminology.hl7.org/CodeSystem/measure-population",
              "code": "measure-population-observation",
              "display": "Measure Population Observation"
            } ]
          },
          "count": 1
        }, {
          "id": "MeasureObservation_2_2",
          "code": {
            "coding": [ {
              "system": "http://terminology.hl7.org/CodeSystem/measure-population",
              "code": "measure-population-observation",
              "display": "Measure Population Observation"
            } ]
          },
          "count": 0
        } ],
        "measureScore": {
          "value": 0.0
        }
      }, {
        "id": "Group_3",
        "population": [ {
          "id": "InitialPopulation_3",
          "code": {
            "coding": [ {
              "system": "http://terminology.hl7.org/CodeSystem/measure-population",
              "code": "initial-population",
              "display": "Initial Population"
            } ]
          },
          "count": 2
        }, {
          "id": "MeasurePopulation_3",
          "code": {
            "coding": [ {
              "system": "http://terminology.hl7.org/CodeSystem/measure-population",
              "code": "measure-population",
              "display": "Measure Population"
            } ]
          },
          "count": 2
        }, {
          "id": "MeasurePopulationExclusion_3",
          "code": {
            "coding": [ {
              "system": "http://terminology.hl7.org/CodeSystem/measure-population",
              "code": "measure-population-exclusion",
              "display": "Measure Population Exclusion"
            } ]
          },
          "count": 0
        }, {
          "id": "MeasureObservation_3_1",
          "code": {
            "coding": [ {
              "system": "http://terminology.hl7.org/CodeSystem/measure-population",
              "code": "measure-population-observation",
              "display": "Measure Population Observation"
            } ]
          },
          "count": 0
        }, {
          "id": "MeasureObservation_3_2",
          "code": {
            "coding": [ {
              "system": "http://terminology.hl7.org/CodeSystem/measure-population",
              "code": "measure-population-observation",
              "display": "Measure Population Observation"
            } ]
          },
          "count": 0
        } ],
        "measureScore": {
          "value": 0.0
        }
      }, {
        "id": "Group_4",
        "population": [ {
          "id": "InitialPopulation_4",
          "code": {
            "coding": [ {
              "system": "http://terminology.hl7.org/CodeSystem/measure-population",
              "code": "initial-population",
              "display": "Initial Population"
            } ]
          },
          "count": 2
        }, {
          "id": "MeasurePopulation_4",
          "code": {
            "coding": [ {
              "system": "http://terminology.hl7.org/CodeSystem/measure-population",
              "code": "measure-population",
              "display": "Measure Population"
            } ]
          },
          "count": 2
        }, {
          "id": "MeasurePopulationExclusion_4",
          "code": {
            "coding": [ {
              "system": "http://terminology.hl7.org/CodeSystem/measure-population",
              "code": "measure-population-exclusion",
              "display": "Measure Population Exclusion"
            } ]
          },
          "count": 0
        }, {
          "id": "MeasureObservation_4_1",
          "code": {
            "coding": [ {
              "system": "http://terminology.hl7.org/CodeSystem/measure-population",
              "code": "measure-population-observation",
              "display": "Measure Population Observation"
            } ]
          },
          "count": 0
        }, {
          "id": "MeasureObservation_4_2",
          "code": {
            "coding": [ {
              "system": "http://terminology.hl7.org/CodeSystem/measure-population",
              "code": "measure-population-observation",
              "display": "Measure Population Observation"
            } ]
          },
          "count": 0
        } ],
        "measureScore": {
          "value": 0.0
        }
      }, {
        "id": "Group_5",
        "population": [ {
          "id": "InitialPopulation_5",
          "code": {
            "coding": [ {
              "system": "http://terminology.hl7.org/CodeSystem/measure-population",
              "code": "initial-population",
              "display": "Initial Population"
            } ]
          },
          "count": 2
        }, {
          "id": "MeasurePopulation_5",
          "code": {
            "coding": [ {
              "system": "http://terminology.hl7.org/CodeSystem/measure-population",
              "code": "measure-population",
              "display": "Measure Population"
            } ]
          },
          "count": 2
        }, {
          "id": "MeasurePopulationExclusion_5",
          "code": {
            "coding": [ {
              "system": "http://terminology.hl7.org/CodeSystem/measure-population",
              "code": "measure-population-exclusion",
              "display": "Measure Population Exclusion"
            } ]
          },
          "count": 0
        }, {
          "id": "MeasureObservation_5_1",
          "code": {
            "coding": [ {
              "system": "http://terminology.hl7.org/CodeSystem/measure-population",
              "code": "measure-population-observation",
              "display": "Measure Population Observation"
            } ]
          },
          "count": 2
        }, {
          "id": "MeasureObservation_5_2",
          "code": {
            "coding": [ {
              "system": "http://terminology.hl7.org/CodeSystem/measure-population",
              "code": "measure-population-observation",
              "display": "Measure Population Observation"
            } ]
          },
          "count": 1
        } ],
        "measureScore": {
          "value": 0.0
        }
      }, {
        "id": "Group_6",
        "population": [ {
          "id": "InitialPopulation_6",
          "code": {
            "coding": [ {
              "system": "http://terminology.hl7.org/CodeSystem/measure-population",
              "code": "initial-population",
              "display": "Initial Population"
            } ]
          },
          "count": 2
        }, {
          "id": "MeasurePopulation_6",
          "code": {
            "coding": [ {
              "system": "http://terminology.hl7.org/CodeSystem/measure-population",
              "code": "measure-population",
              "display": "Measure Population"
            } ]
          },
          "count": 2
        }, {
          "id": "MeasurePopulationExclusion_6",
          "code": {
            "coding": [ {
              "system": "http://terminology.hl7.org/CodeSystem/measure-population",
              "code": "measure-population-exclusion",
              "display": "Measure Population Exclusion"
            } ]
          },
          "count": 0
        }, {
          "id": "MeasureObservation_6_1",
          "code": {
            "coding": [ {
              "system": "http://terminology.hl7.org/CodeSystem/measure-population",
              "code": "measure-population-observation",
              "display": "Measure Population Observation"
            } ]
          },
          "count": 100
        }, {
          "id": "MeasureObservation_6_2",
          "code": {
            "coding": [ {
              "system": "http://terminology.hl7.org/CodeSystem/measure-population",
              "code": "measure-population-observation",
              "display": "Measure Population Observation"
            } ]
          },
          "count": 50
        } ],
        "measureScore": {
          "value": 0.0
        }
      } ],
      "evaluatedResource": [ {
        "reference": "Patient/75d19c2d-5ae9-476e-93f5-e84e668512a8"
      }, {
        "reference": "Encounter/89a2a086-1560-468c-b00d-c6482252967b"
      }, {
        "reference": "Encounter/ffbff92f-554b-4ce8-a9c6-faca0ba951b7"
      }, {
        "reference": "Condition/69b20b5c-ddaf-4b92-902a-c405cca2390f"
      }, {
        "reference": "Procedure/e1368d9f-0ced-44c0-8b19-01ec27bc5b20"
      }, {
        "reference": "Observation/b11b6129-f8f6-43e5-a9e9-7dea03ec2887"
      }, {
        "reference": "Observation/f7f009db-3501-460e-81fe-0c0b4bd52555"
      }, {
        "reference": "Procedure/b3abc883-a077-4820-9693-86ba99ee99fd"
      }, {
        "reference": "Procedure/361c2a77-c855-4213-b734-4c74cff67366"
      }, {
        "reference": "Coverage/a78915ad-5570-431f-8c96-943436349c70"
      }, {
        "reference": "Organization/8392bf67-2173-4f88-9487-2faaca9b4b3a"
      }, {
        "reference": "Observation/1497e5f8-6c52-40f5-8330-409120ee88a8"
      } ]
    },
    "request": {
      "method": "PUT",
      "url": "MeasureReport/de1803eb-d18a-4265-8887-ee38ef83e02a"
    }
  } ]
}