{
  "resourceType": "Bundle",
  "id": "63487c2e0968f80122540171",
  "type": "transaction",
  "entry": [ {
    "fullUrl": "https://madie.cms.gov/Patient/1df41494-87ab-4167-95a8-8d38e0c059f3",
    "resource": {
      "resourceType": "Patient",
      "id": "1df41494-87ab-4167-95a8-8d38e0c059f3",
      "meta": {
        "profile": [ "http://hl7.org/fhir/us/qicore/StructureDefinition/qicore-patient" ]
      },
      "text": {
        "status": "generated",
        "div": "<div xmlns=\"http://www.w3.org/1999/xhtml\"><div class=\"hapiHeaderText\">AssessTimeOfDelivRelvDateTimeEQDelivEncEnd <b>DENPASS </b></div><table class=\"hapiPropertyTable\"><tbody><tr><td>Identifier</td><td>6be577fcfc58a0f157e5a93fd65e49b7f4787364657c858f26ba6356e13eb3b6</td></tr><tr><td>Date of birth</td><td><span>14 February 1985</span></td></tr></tbody></table></div>"
      },
      "extension": [ {
        "url": "http://hl7.org/fhir/us/core/StructureDefinition/us-core-race",
        "extension": [ {
          "url": "ombCategory",
          "valueCoding": {
            "system": "urn:oid:2.16.840.1.113883.6.238",
            "code": "1002-5",
            "display": "American Indian or Alaska Native",
            "userSelected": true
          }
        }, {
          "url": "text",
          "valueString": "American Indian or Alaska Native"
        } ]
      }, {
        "url": "http://hl7.org/fhir/us/core/StructureDefinition/us-core-ethnicity",
        "extension": [ {
          "url": "ombCategory",
          "valueCoding": {
            "system": "urn:oid:2.16.840.1.113883.6.238",
            "code": "2135-2",
            "display": "Hispanic or Latino",
            "userSelected": true
          }
        }, {
          "url": "text",
          "valueString": "Hispanic or Latino"
        } ]
      } ],
      "identifier": [ {
        "type": {
          "coding": [ {
            "system": "http://terminology.hl7.org/CodeSystem/v2-0203",
            "code": "MR"
          } ]
        },
        "system": "https://bonnie-fhir.healthit.gov/",
        "value": "63487c2e0968f80122540171"
      } ],
      "active": true,
      "name": [ {
        "use": "usual",
        "family": "DENPass",
        "given": [ "AssessTimeOfDelivRelvDateTimeEQDelivEncEnd" ]
      } ],
      "gender": "female",
      "birthDate": "1998-02-14"
    },
    "request": {
      "method": "PUT",
      "url": "Patient/1df41494-87ab-4167-95a8-8d38e0c059f3"
    }
  }, {
    "fullUrl": "https://madie.cms.gov/Observation/64604963-795a-46f1-be9b-e0a3e37e8c79",
    "resource": {
      "resourceType": "Observation",
      "id": "64604963-795a-46f1-be9b-e0a3e37e8c79",
      "meta": {
        "profile": [ "http://hl7.org/fhir/us/qicore/StructureDefinition/qicore-simple-observation" ]
      },
      "status": "final",
      "category": [ {
        "coding": [ {
          "system": "http://terminology.hl7.org/CodeSystem/observation-category",
          "code": "exam",
          "display": "exam",
          "userSelected": true
        } ]
      } ],
      "code": {
        "coding": [ {
          "system": "http://loinc.org",
          "code": "11996-6"
        } ]
      },
      "subject": {
        "reference": "Patient/1df41494-87ab-4167-95a8-8d38e0c059f3"
      },
      "effectiveDateTime": "2026-06-08T08:00:00.000+00:00",
      "valueInteger": 1
    },
    "request": {
      "method": "PUT",
      "url": "Observation/64604963-795a-46f1-be9b-e0a3e37e8c79"
    }
  }, {
    "fullUrl": "https://madie.cms.gov/Observation/30401f53-1f16-48ac-af57-f70ee9d9c925",
    "resource": {
      "resourceType": "Observation",
      "id": "30401f53-1f16-48ac-af57-f70ee9d9c925",
      "meta": {
        "profile": [ "http://hl7.org/fhir/us/qicore/StructureDefinition/qicore-simple-observation" ]
      },
      "status": "final",
      "category": [ {
        "coding": [ {
          "system": "http://terminology.hl7.org/CodeSystem/observation-category",
          "code": "exam",
          "display": "exam",
          "userSelected": true
        } ]
      } ],
      "code": {
        "coding": [ {
          "system": "http://loinc.org",
          "code": "11884-4"
        } ]
      },
      "subject": {
        "reference": "Patient/1df41494-87ab-4167-95a8-8d38e0c059f3"
      },
      "effectiveDateTime": "2026-06-10T08:15:00.000+00:00",
      "valueQuantity": {
        "value": 38,
        "system": "http://unitsofmeasure.org",
        "code": "wk"
      }
    },
    "request": {
      "method": "PUT",
      "url": "Observation/30401f53-1f16-48ac-af57-f70ee9d9c925"
    }
  }, {
    "fullUrl": "https://madie.cms.gov/Observation/dbd84861-93b5-4c7e-8856-f5c0dca4b4da",
    "resource": {
      "resourceType": "Observation",
      "id": "dbd84861-93b5-4c7e-8856-f5c0dca4b4da",
      "meta": {
        "profile": [ "http://hl7.org/fhir/us/qicore/StructureDefinition/qicore-simple-observation" ]
      },
      "status": "final",
      "category": [ {
        "coding": [ {
          "system": "http://terminology.hl7.org/CodeSystem/observation-category",
          "code": "exam",
          "display": "exam",
          "userSelected": true
        } ]
      } ],
      "code": {
        "coding": [ {
          "system": "http://loinc.org",
          "code": "93857-1"
        } ]
      },
      "subject": {
        "reference": "Patient/1df41494-87ab-4167-95a8-8d38e0c059f3"
      },
      "effectiveDateTime": "2026-06-10T08:15:00.000+00:00",
      "valueDateTime": "2026-06-10T08:15:00.000+00:00"
    },
    "request": {
      "method": "PUT",
      "url": "Observation/dbd84861-93b5-4c7e-8856-f5c0dca4b4da"
    }
  }, {
    "fullUrl": "https://madie.cms.gov/Encounter/b5a46c54-1e44-4d21-9a02-6c2c0b256120",
    "resource": {
      "resourceType": "Encounter",
      "id": "b5a46c54-1e44-4d21-9a02-6c2c0b256120",
      "meta": {
        "profile": [ "http://hl7.org/fhir/us/qicore/StructureDefinition/qicore-encounter" ]
      },
      "status": "finished",
      "class": {
        "system": "http://terminology.hl7.org/CodeSystem/v3-ActCode",
        "code": "IMP",
        "display": "inpatient encounter"
      },
      "type": [ {
        "coding": [ {
          "system": "http://snomed.info/sct",
          "code": "183452005"
        } ]
      } ],
      "subject": {
        "reference": "Patient/1df41494-87ab-4167-95a8-8d38e0c059f3"
      },
      "period": {
        "start": "2026-06-08T08:00:00.000+00:00",
        "end": "2026-06-10T08:15:00.000+00:00"
      },
      "length": {
        "value": 2,
        "unit": "days"
      },
      "reasonReference": [ {
        "reference": "Condition/d0227db8-e297-4e60-b402-69b3863f608f"
      } ]
    },
    "request": {
      "method": "PUT",
      "url": "Encounter/b5a46c54-1e44-4d21-9a02-6c2c0b256120"
    }
  }, {
    "fullUrl": "https://madie.cms.gov/Procedure/14846530-cd98-4346-8218-4ec8bbebd007",
    "resource": {
      "resourceType": "Procedure",
      "id": "14846530-cd98-4346-8218-4ec8bbebd007",
      "meta": {
        "profile": [ "http://hl7.org/fhir/us/qicore/StructureDefinition/qicore-procedure" ]
      },
      "extension": [ {
        "url": "http://hl7.org/fhir/us/qicore/StructureDefinition/qicore-recorded",
        "valueDateTime": "2014-04-05T13:35:00.000+00:00"
      } ],
      "status": "completed",
      "code": {
        "coding": [ {
          "system": "http://www.cms.gov/Medicare/Coding/ICD10",
          "code": "10D00Z0"
        } ]
      },
      "subject": {
        "reference": "Patient/1df41494-87ab-4167-95a8-8d38e0c059f3"
      },
      "performedPeriod": {
        "start": "2026-06-08T08:00:00.000+00:00",
        "end": "2026-06-08T09:15:00.000+00:00"
      }
    },
    "request": {
      "method": "PUT",
      "url": "Procedure/14846530-cd98-4346-8218-4ec8bbebd007"
    }
  }, {
    "fullUrl": "https://madie.cms.gov/Condition/d0227db8-e297-4e60-b402-69b3863f608f",
    "resource": {
      "resourceType": "Condition",
      "id": "d0227db8-e297-4e60-b402-69b3863f608f",
      "meta": {
        "profile": [ "http://hl7.org/fhir/us/qicore/StructureDefinition/qicore-condition-encounter-diagnosis" ]
      },
      "category": [ {
        "coding": [ {
          "system": "http://terminology.hl7.org/CodeSystem/condition-category",
          "code": "encounter-diagnosis",
          "display": "Encounter Diagnosis"
        } ]
      } ],
      "code": {
        "coding": [ {
          "system": "http://snomed.info/sct",
          "version": "2022-09",
          "code": "169826009",
          "display": "Single live birth from singleton pregnancy (finding)",
          "userSelected": true
        } ]
      },
      "subject": {
        "reference": "Patient/1df41494-87ab-4167-95a8-8d38e0c059f3"
      },
      "encounter": {
        "reference": "Encounter/b5a46c54-1e44-4d21-9a02-6c2c0b256120"
      },
      "recordedDate": "2026-10-20T08:00:00.000+00:00"
    },
    "request": {
      "method": "PUT",
      "url": "Condition/d0227db8-e297-4e60-b402-69b3863f608f"
    }
  }, {
    "fullUrl": "https://madie.cms.gov/Coverage/87d06693-609c-445f-9509-586b9003c984",
    "resource": {
      "resourceType": "Coverage",
      "id": "87d06693-609c-445f-9509-586b9003c984",
      "meta": {
        "profile": [ "http://hl7.org/fhir/us/qicore/StructureDefinition/qicore-coverage" ]
      },
      "status": "active",
      "subscriberId": "523435",
      "beneficiary": {
        "reference": "Patient/1df41494-87ab-4167-95a8-8d38e0c059f3"
      },
      "relationship": {
        "coding": [ {
          "system": "http://terminology.hl7.org/CodeSystem/subscriber-relationship",
          "code": "self"
        } ]
      },
      "payor": [ {
        "reference": "Organization/74d2c25e-d165-4029-a049-aa8248c398ea"
      } ]
    },
    "request": {
      "method": "PUT",
      "url": "Coverage/87d06693-609c-445f-9509-586b9003c984"
    }
  }, {
    "fullUrl": "https://madie.cms.gov/Organization/74d2c25e-d165-4029-a049-aa8248c398ea",
    "resource": {
      "resourceType": "Organization",
      "id": "74d2c25e-d165-4029-a049-aa8248c398ea",
      "meta": {
        "profile": [ "http://hl7.org/fhir/us/qicore/StructureDefinition/qicore-organization" ]
      },
      "identifier": [ {
        "use": "temp",
        "system": "urn:oid:2.16.840.1.113883.4.4",
        "value": "21-3259825"
      } ],
      "active": true,
      "type": [ {
        "coding": [ {
          "system": "http://terminology.hl7.org/CodeSystem/organization-type",
          "code": "pay",
          "display": "Payer"
        } ]
      } ],
      "name": "Blue Cross Blue Shield of Texas",
      "telecom": [ {
        "system": "phone",
        "value": "(+1) 972-766-6900"
      } ],
      "address": [ {
        "use": "billing",
        "type": "postal",
        "line": [ "P.O. Box 660044" ],
        "city": "Dallas",
        "state": "TX",
        "postalCode": "75266-0044",
        "country": "USA"
      } ]
    },
    "request": {
      "method": "PUT",
      "url": "Organization/74d2c25e-d165-4029-a049-aa8248c398ea"
    }
  }, {
    "fullUrl": "https://madie.cms.gov/Practitioner/801d71e4-b5b4-4dc3-9118-fc6a8f789358",
    "resource": {
      "resourceType": "Practitioner",
      "id": "801d71e4-b5b4-4dc3-9118-fc6a8f789358",
      "meta": {
        "profile": [ "http://hl7.org/fhir/us/qicore/StructureDefinition/qicore-practitioner" ]
      },
      "identifier": [ {
        "system": "http://hl7.org/fhir/sid/us-npi",
        "value": "1234567890"
      } ],
      "name": [ {
        "family": "Evil",
        "prefix": [ "Dr" ]
      } ]
    },
    "request": {
      "method": "PUT",
      "url": "Practitioner/801d71e4-b5b4-4dc3-9118-fc6a8f789358"
    }
  }, {
    "fullUrl": "https://madie.cms.gov/MeasureReport/6420a61b-7268-4c73-9541-80e0667c5f5d",
    "resource": {
      "resourceType": "MeasureReport",
      "id": "6420a61b-7268-4c73-9541-80e0667c5f5d",
      "meta": {
        "profile": [ "http://hl7.org/fhir/us/cqfmeasures/StructureDefinition/test-case-cqfm" ]
      },
      "contained": [ {
        "resourceType": "Parameters",
        "id": "7e4c95ef-d762-49ee-8f07-721f8c70e645-parameters",
        "parameter": [ {
          "name": "subject",
          "valueString": "1df41494-87ab-4167-95a8-8d38e0c059f3"
        } ]
      } ],
      "extension": [ {
        "url": "http://hl7.org/fhir/StructureDefinition/cqf-inputParameters",
        "valueReference": {
          "reference": "#7e4c95ef-d762-49ee-8f07-721f8c70e645-parameters"
        }
      }, {
        "url": "http://hl7.org/fhir/us/cqfmeasures/StructureDefinition/cqfm-testCaseDescription",
        "valueMarkdown": "Passes: IP, Pt is 27 years of age,  encounter dx of delivery of singleton, gravida, EGA @ 38 weeks, AsseDelivTm Is DelivEncEnd.  Tests \"TimeOfDelivery.RelvDatetime during DeliveryEncounters.relevantPeriod\".\n"
      } ],
      "modifierExtension": [ {
        "url": "http://hl7.org/fhir/us/cqfmeasures/StructureDefinition/cqfm-isTestCase",
        "valueBoolean": true
      } ],
      "status": "complete",
      "type": "individual",
      "measure": "https://madie.cms.gov/Measure/CMS0334FHIRPCCesareanBirth",
      "period": {
        "start": "2026-01-01",
        "end": "2026-12-31"
      },
      "group": [ {
        "id": "Group_1",
        "population": [ {
          "id": "InitialPopulation_1",
          "code": {
            "coding": [ {
              "system": "http://terminology.hl7.org/CodeSystem/measure-population",
              "code": "initial-population",
              "display": "Initial Population"
            } ]
          },
          "count": 1
        }, {
          "id": "Denominator_1",
          "code": {
            "coding": [ {
              "system": "http://terminology.hl7.org/CodeSystem/measure-population",
              "code": "denominator",
              "display": "Denominator"
            } ]
          },
          "count": 1
        }, {
          "id": "DenominatorExclusion_1",
          "code": {
            "coding": [ {
              "system": "http://terminology.hl7.org/CodeSystem/measure-population",
              "code": "denominator-exclusion",
              "display": "Denominator Exclusion"
            } ]
          },
          "count": 0
        }, {
          "id": "Numerator_1",
          "code": {
            "coding": [ {
              "system": "http://terminology.hl7.org/CodeSystem/measure-population",
              "code": "numerator",
              "display": "Numerator"
            } ]
          },
          "count": 1
        } ],
        "measureScore": {
          "value": 0.0
        }
      } ],
      "evaluatedResource": [ {
        "reference": "Patient/1df41494-87ab-4167-95a8-8d38e0c059f3"
      }, {
        "reference": "Observation/64604963-795a-46f1-be9b-e0a3e37e8c79"
      }, {
        "reference": "Observation/30401f53-1f16-48ac-af57-f70ee9d9c925"
      }, {
        "reference": "Observation/dbd84861-93b5-4c7e-8856-f5c0dca4b4da"
      }, {
        "reference": "Encounter/b5a46c54-1e44-4d21-9a02-6c2c0b256120"
      }, {
        "reference": "Procedure/14846530-cd98-4346-8218-4ec8bbebd007"
      }, {
        "reference": "Condition/d0227db8-e297-4e60-b402-69b3863f608f"
      }, {
        "reference": "Coverage/87d06693-609c-445f-9509-586b9003c984"
      }, {
        "reference": "Organization/74d2c25e-d165-4029-a049-aa8248c398ea"
      }, {
        "reference": "Practitioner/801d71e4-b5b4-4dc3-9118-fc6a8f789358"
      } ]
    },
    "request": {
      "method": "PUT",
      "url": "MeasureReport/6420a61b-7268-4c73-9541-80e0667c5f5d"
    }
  } ]
}