{
  "resourceType": "Bundle",
  "id": "633b3f9f0968f80122503cdd",
  "type": "transaction",
  "entry": [ {
    "fullUrl": "https://madie.cms.gov/Patient/39b4a302-b060-4fc7-b2a5-3ac12fa98a43",
    "resource": {
      "resourceType": "Patient",
      "id": "39b4a302-b060-4fc7-b2a5-3ac12fa98a43",
      "meta": {
        "profile": [ "http://hl7.org/fhir/us/qicore/StructureDefinition/qicore-patient" ]
      },
      "text": {
        "status": "generated",
        "div": "<div xmlns=\"http://www.w3.org/1999/xhtml\"><div class=\"hapiHeaderText\">LastAssPrfEGARelvTm24HrB4LastTmDELRsltDtTime<b>DENOMPASS</b></div><table class=\"hapiPropertyTable\"><tbody><tr><td>Date of birth</td><td><span>01 February 2004</span></td></tr></tbody></table></div>"
      },
      "extension": [ {
        "url": "http://hl7.org/fhir/us/core/StructureDefinition/us-core-race",
        "extension": [ {
          "url": "ombCategory",
          "valueCoding": {
            "system": "urn:oid:2.16.840.1.113883.6.238",
            "code": "1002-5",
            "display": "American Indian or Alaska Native",
            "userSelected": true
          }
        }, {
          "url": "text",
          "valueString": "American Indian or Alaska Native"
        } ]
      }, {
        "url": "http://hl7.org/fhir/us/core/StructureDefinition/us-core-ethnicity",
        "extension": [ {
          "url": "ombCategory",
          "valueCoding": {
            "system": "urn:oid:2.16.840.1.113883.6.238",
            "code": "2135-2",
            "display": "Hispanic or Latino",
            "userSelected": true
          }
        }, {
          "url": "text",
          "valueString": "Hispanic or Latino"
        } ]
      } ],
      "identifier": [ {
        "type": {
          "coding": [ {
            "system": "http://terminology.hl7.org/CodeSystem/v2-0203",
            "code": "MR"
          } ]
        },
        "system": "https://bonnie-fhir.healthit.gov/",
        "value": "633b3f9f0968f80122503cdd"
      } ],
      "active": true,
      "name": [ {
        "use": "usual",
        "family": "DENOMPass",
        "given": [ "LastAssPrfEGARelvTm24HrB4LastTmDELRsltDtTime" ]
      } ],
      "gender": "female",
      "birthDate": "2005-02-01"
    },
    "request": {
      "method": "PUT",
      "url": "Patient/39b4a302-b060-4fc7-b2a5-3ac12fa98a43"
    }
  }, {
    "fullUrl": "https://madie.cms.gov/Observation/0d3bdd70-3f00-47bd-9ed0-21a44d7f6552",
    "resource": {
      "resourceType": "Observation",
      "id": "0d3bdd70-3f00-47bd-9ed0-21a44d7f6552",
      "meta": {
        "profile": [ "http://hl7.org/fhir/us/qicore/StructureDefinition/qicore-simple-observation" ]
      },
      "status": "final",
      "category": [ {
        "coding": [ {
          "system": "http://terminology.hl7.org/CodeSystem/observation-category",
          "code": "exam",
          "display": "exam",
          "userSelected": true
        } ]
      } ],
      "code": {
        "coding": [ {
          "system": "http://loinc.org",
          "code": "93857-1"
        } ]
      },
      "subject": {
        "reference": "Patient/39b4a302-b060-4fc7-b2a5-3ac12fa98a43"
      },
      "effectiveDateTime": "2026-02-01T08:00:00.000+00:00",
      "performer": [ {
        "reference": "Organization/example1",
        "display": "Hendricks Country Hospital"
      } ],
      "valueDateTime": "2026-02-01T08:00:00.000+00:00"
    },
    "request": {
      "method": "PUT",
      "url": "Observation/0d3bdd70-3f00-47bd-9ed0-21a44d7f6552"
    }
  }, {
    "fullUrl": "https://madie.cms.gov/Observation/ea014850-650a-4ef9-9fc4-dbc6c6a9fd3d",
    "resource": {
      "resourceType": "Observation",
      "id": "ea014850-650a-4ef9-9fc4-dbc6c6a9fd3d",
      "meta": {
        "profile": [ "http://hl7.org/fhir/us/qicore/StructureDefinition/qicore-simple-observation" ]
      },
      "status": "final",
      "category": [ {
        "coding": [ {
          "system": "http://terminology.hl7.org/CodeSystem/observation-category",
          "code": "exam",
          "display": "exam",
          "userSelected": true
        } ]
      } ],
      "code": {
        "coding": [ {
          "system": "http://loinc.org",
          "code": "11884-4"
        } ]
      },
      "subject": {
        "reference": "Patient/39b4a302-b060-4fc7-b2a5-3ac12fa98a43"
      },
      "effectiveDateTime": "2026-01-31T08:00:00.000+00:00",
      "performer": [ {
        "reference": "Organization/example1",
        "display": "Hendricks Country Hospital"
      } ],
      "valueQuantity": {
        "value": 20,
        "unit": "wk"
      }
    },
    "request": {
      "method": "PUT",
      "url": "Observation/ea014850-650a-4ef9-9fc4-dbc6c6a9fd3d"
    }
  }, {
    "fullUrl": "https://madie.cms.gov/Encounter/6323a653-05b9-4dbe-babf-1cfca059e6a6",
    "resource": {
      "resourceType": "Encounter",
      "id": "6323a653-05b9-4dbe-babf-1cfca059e6a6",
      "meta": {
        "profile": [ "http://hl7.org/fhir/us/qicore/StructureDefinition/qicore-encounter" ]
      },
      "status": "finished",
      "class": {
        "system": "http://terminology.hl7.org/CodeSystem/v3-ActCode",
        "code": "IMP",
        "display": "inpatient encounter"
      },
      "type": [ {
        "coding": [ {
          "system": "http://snomed.info/sct",
          "code": "183452005"
        } ]
      } ],
      "subject": {
        "reference": "Patient/39b4a302-b060-4fc7-b2a5-3ac12fa98a43"
      },
      "period": {
        "start": "2026-02-01T08:00:00.000+00:00",
        "end": "2026-02-05T08:15:00.000+00:00"
      }
    },
    "request": {
      "method": "PUT",
      "url": "Encounter/6323a653-05b9-4dbe-babf-1cfca059e6a6"
    }
  }, {
    "fullUrl": "https://madie.cms.gov/Procedure/c976eb1e-9c6c-4688-bc84-622fc86973ee",
    "resource": {
      "resourceType": "Procedure",
      "id": "c976eb1e-9c6c-4688-bc84-622fc86973ee",
      "meta": {
        "profile": [ "http://hl7.org/fhir/us/qicore/StructureDefinition/qicore-procedure" ]
      },
      "extension": [ {
        "url": "http://hl7.org/fhir/us/qicore/StructureDefinition/qicore-recorded",
        "valueDateTime": "2014-04-05T13:35:00.000+00:00"
      } ],
      "status": "completed",
      "code": {
        "coding": [ {
          "system": "http://snomed.info/sct",
          "code": "10745001"
        } ]
      },
      "subject": {
        "reference": "Patient/39b4a302-b060-4fc7-b2a5-3ac12fa98a43"
      },
      "performedPeriod": {
        "start": "2026-02-01T08:00:00.000+00:00",
        "end": "2026-02-05T08:15:00.000+00:00"
      }
    },
    "request": {
      "method": "PUT",
      "url": "Procedure/c976eb1e-9c6c-4688-bc84-622fc86973ee"
    }
  }, {
    "fullUrl": "https://madie.cms.gov/Coverage/fa1cff60-24e3-4a48-a74a-319cca09a756",
    "resource": {
      "resourceType": "Coverage",
      "id": "fa1cff60-24e3-4a48-a74a-319cca09a756",
      "meta": {
        "profile": [ "http://hl7.org/fhir/us/qicore/StructureDefinition/qicore-coverage" ]
      },
      "status": "active",
      "subscriberId": "523435",
      "beneficiary": {
        "reference": "Patient/39b4a302-b060-4fc7-b2a5-3ac12fa98a43"
      },
      "relationship": {
        "coding": [ {
          "system": "http://terminology.hl7.org/CodeSystem/subscriber-relationship",
          "code": "self"
        } ]
      },
      "payor": [ {
        "reference": "Organization/e99e06c2-23e9-467d-95c5-dda3ace3ef06"
      } ]
    },
    "request": {
      "method": "PUT",
      "url": "Coverage/fa1cff60-24e3-4a48-a74a-319cca09a756"
    }
  }, {
    "fullUrl": "https://madie.cms.gov/Organization/e99e06c2-23e9-467d-95c5-dda3ace3ef06",
    "resource": {
      "resourceType": "Organization",
      "id": "e99e06c2-23e9-467d-95c5-dda3ace3ef06",
      "meta": {
        "profile": [ "http://hl7.org/fhir/us/qicore/StructureDefinition/qicore-organization" ]
      },
      "identifier": [ {
        "use": "temp",
        "system": "urn:oid:2.16.840.1.113883.4.4",
        "value": "21-3259825"
      } ],
      "active": true,
      "type": [ {
        "coding": [ {
          "system": "http://terminology.hl7.org/CodeSystem/organization-type",
          "code": "pay",
          "display": "Payer"
        } ]
      } ],
      "name": "Blue Cross Blue Shield of Texas",
      "telecom": [ {
        "system": "phone",
        "value": "(+1) 972-766-6900"
      } ],
      "address": [ {
        "use": "billing",
        "type": "postal",
        "line": [ "P.O. Box 660044" ],
        "city": "Dallas",
        "state": "TX",
        "postalCode": "75266-0044",
        "country": "USA"
      } ]
    },
    "request": {
      "method": "PUT",
      "url": "Organization/e99e06c2-23e9-467d-95c5-dda3ace3ef06"
    }
  }, {
    "fullUrl": "https://madie.cms.gov/Practitioner/10cf2bf6-4fc5-4e89-9114-8a173baa45d6",
    "resource": {
      "resourceType": "Practitioner",
      "id": "10cf2bf6-4fc5-4e89-9114-8a173baa45d6",
      "meta": {
        "profile": [ "http://hl7.org/fhir/us/qicore/StructureDefinition/qicore-practitioner" ]
      },
      "identifier": [ {
        "system": "http://hl7.org/fhir/sid/us-npi",
        "value": "1234567890"
      } ],
      "name": [ {
        "family": "Evil",
        "prefix": [ "Dr" ]
      } ]
    },
    "request": {
      "method": "PUT",
      "url": "Practitioner/10cf2bf6-4fc5-4e89-9114-8a173baa45d6"
    }
  }, {
    "fullUrl": "https://madie.cms.gov/MeasureReport/f902206b-1186-4a14-bc0f-ac0ee0ab8a25",
    "resource": {
      "resourceType": "MeasureReport",
      "id": "f902206b-1186-4a14-bc0f-ac0ee0ab8a25",
      "meta": {
        "profile": [ "http://hl7.org/fhir/us/cqfmeasures/StructureDefinition/test-case-cqfm" ]
      },
      "contained": [ {
        "resourceType": "Parameters",
        "id": "20f0fa80-f3e9-44c6-b151-b49f34c3176f-parameters",
        "parameter": [ {
          "name": "subject",
          "valueString": "39b4a302-b060-4fc7-b2a5-3ac12fa98a43"
        } ]
      } ],
      "extension": [ {
        "url": "http://hl7.org/fhir/StructureDefinition/cqf-inputParameters",
        "valueReference": {
          "reference": "#20f0fa80-f3e9-44c6-b151-b49f34c3176f-parameters"
        }
      }, {
        "url": "http://hl7.org/fhir/us/cqfmeasures/StructureDefinition/cqfm-testCaseDescription",
        "valueMarkdown": "Estimated Gestational Age Relevant Date Time is 24 hours before Time of Delivery (result)\n"
      } ],
      "modifierExtension": [ {
        "url": "http://hl7.org/fhir/us/cqfmeasures/StructureDefinition/cqfm-isTestCase",
        "valueBoolean": true
      } ],
      "status": "complete",
      "type": "individual",
      "measure": "https://madie.cms.gov/Measure/CMS1028FHIRPCSevereOBComps",
      "period": {
        "start": "2026-01-01",
        "end": "2026-12-31"
      },
      "group": [ {
        "id": "Group_1",
        "population": [ {
          "id": "InitialPopulation_1",
          "code": {
            "coding": [ {
              "system": "http://terminology.hl7.org/CodeSystem/measure-population",
              "code": "initial-population",
              "display": "Initial Population"
            } ]
          },
          "count": 1
        }, {
          "id": "Denominator_1",
          "code": {
            "coding": [ {
              "system": "http://terminology.hl7.org/CodeSystem/measure-population",
              "code": "denominator",
              "display": "Denominator"
            } ]
          },
          "count": 1
        }, {
          "id": "Numerator_1",
          "code": {
            "coding": [ {
              "system": "http://terminology.hl7.org/CodeSystem/measure-population",
              "code": "numerator",
              "display": "Numerator"
            } ]
          },
          "count": 0
        }, {
          "id": "NumeratorExclusion_1",
          "code": {
            "coding": [ {
              "system": "http://terminology.hl7.org/CodeSystem/measure-population",
              "code": "numerator-exclusion",
              "display": "Numerator Exclusion"
            } ]
          },
          "count": 0
        } ],
        "measureScore": {
          "value": 0.0
        }
      }, {
        "id": "Group_2",
        "population": [ {
          "id": "InitialPopulation_2",
          "code": {
            "coding": [ {
              "system": "http://terminology.hl7.org/CodeSystem/measure-population",
              "code": "initial-population",
              "display": "Initial Population"
            } ]
          },
          "count": 1
        }, {
          "id": "Denominator_2",
          "code": {
            "coding": [ {
              "system": "http://terminology.hl7.org/CodeSystem/measure-population",
              "code": "denominator",
              "display": "Denominator"
            } ]
          },
          "count": 1
        }, {
          "id": "Numerator_2",
          "code": {
            "coding": [ {
              "system": "http://terminology.hl7.org/CodeSystem/measure-population",
              "code": "numerator",
              "display": "Numerator"
            } ]
          },
          "count": 0
        }, {
          "id": "NumeratorExclusion_2",
          "code": {
            "coding": [ {
              "system": "http://terminology.hl7.org/CodeSystem/measure-population",
              "code": "numerator-exclusion",
              "display": "Numerator Exclusion"
            } ]
          },
          "count": 0
        } ],
        "measureScore": {
          "value": 0.0
        }
      } ],
      "evaluatedResource": [ {
        "reference": "Patient/39b4a302-b060-4fc7-b2a5-3ac12fa98a43"
      }, {
        "reference": "Observation/0d3bdd70-3f00-47bd-9ed0-21a44d7f6552"
      }, {
        "reference": "Observation/ea014850-650a-4ef9-9fc4-dbc6c6a9fd3d"
      }, {
        "reference": "Encounter/6323a653-05b9-4dbe-babf-1cfca059e6a6"
      }, {
        "reference": "Procedure/c976eb1e-9c6c-4688-bc84-622fc86973ee"
      }, {
        "reference": "Coverage/fa1cff60-24e3-4a48-a74a-319cca09a756"
      }, {
        "reference": "Organization/e99e06c2-23e9-467d-95c5-dda3ace3ef06"
      }, {
        "reference": "Practitioner/10cf2bf6-4fc5-4e89-9114-8a173baa45d6"
      } ]
    },
    "request": {
      "method": "PUT",
      "url": "MeasureReport/f902206b-1186-4a14-bc0f-ac0ee0ab8a25"
    }
  } ]
}