{
  "resourceType": "Bundle",
  "id": "6129134902c62a011f2e6f51",
  "type": "transaction",
  "entry": [ {
    "fullUrl": "https://madie.cms.gov/Patient/964f8143-6ff7-4b80-ad76-4dc59de2af37",
    "resource": {
      "resourceType": "Patient",
      "id": "964f8143-6ff7-4b80-ad76-4dc59de2af37",
      "meta": {
        "profile": [ "http://hl7.org/fhir/us/qicore/StructureDefinition/qicore-patient" ]
      },
      "text": {
        "status": "generated",
        "div": "<div xmlns=\"http://www.w3.org/1999/xhtml\"><div class=\"hapiHeaderText\">CMOdurObs_ED&lt;1hrObs&gt;1hrBFEnc <b>DENEXFAIL </b></div><table class=\"hapiPropertyTable\"><tbody><tr><td>Identifier</td><td>a36fb0cf3d8cc0c3f179425073d57183763e3626e600c0e967bbfec7a918cee5</td></tr><tr><td>Date of birth</td><td><span>21 August 1994</span></td></tr></tbody></table></div>"
      },
      "extension": [ {
        "url": "http://hl7.org/fhir/us/core/StructureDefinition/us-core-sex",
        "valueCode": "248153007"
      } ],
      "identifier": [ {
        "type": {
          "coding": [ {
            "system": "http://terminology.hl7.org/CodeSystem/v2-0203",
            "code": "MR"
          } ]
        },
        "system": "https://bonnie-fhir.healthit.gov/",
        "value": "6129134902c62a011f2e6f51"
      } ],
      "active": true,
      "name": [ {
        "use": "usual",
        "family": "DENEXFail",
        "given": [ "CMOdurObs_ED<1hrObs>1hrBFEnc" ]
      } ],
      "gender": "male",
      "birthDate": "1995-08-21"
    },
    "request": {
      "method": "PUT",
      "url": "Patient/964f8143-6ff7-4b80-ad76-4dc59de2af37"
    }
  }, {
    "fullUrl": "https://madie.cms.gov/Encounter/260e0886-f503-4f1d-9b17-84269b86e3fd",
    "resource": {
      "resourceType": "Encounter",
      "id": "260e0886-f503-4f1d-9b17-84269b86e3fd",
      "meta": {
        "profile": [ "http://hl7.org/fhir/us/qicore/StructureDefinition/qicore-encounter" ]
      },
      "status": "finished",
      "class": {
        "system": "http://terminology.hl7.org/CodeSystem/v3-ActCode",
        "code": "EMER",
        "display": "emergency",
        "userSelected": true
      },
      "type": [ {
        "coding": [ {
          "system": "http://snomed.info/sct",
          "code": "4525004"
        } ]
      } ],
      "subject": {
        "reference": "Patient/964f8143-6ff7-4b80-ad76-4dc59de2af37"
      },
      "period": {
        "start": "2026-10-10T07:30:00.000+00:00",
        "end": "2026-10-10T07:35:00.000+00:00"
      },
      "length": {
        "value": 0,
        "unit": "days"
      }
    },
    "request": {
      "method": "PUT",
      "url": "Encounter/260e0886-f503-4f1d-9b17-84269b86e3fd"
    }
  }, {
    "fullUrl": "https://madie.cms.gov/Encounter/d2e3c26e-0ff1-4be0-9599-cd87bae5112d",
    "resource": {
      "resourceType": "Encounter",
      "id": "d2e3c26e-0ff1-4be0-9599-cd87bae5112d",
      "meta": {
        "profile": [ "http://hl7.org/fhir/us/qicore/StructureDefinition/qicore-encounter" ]
      },
      "status": "finished",
      "class": {
        "system": "http://terminology.hl7.org/CodeSystem/v3-ActCode",
        "code": "OBSENC",
        "display": "observation encounter",
        "userSelected": true
      },
      "type": [ {
        "coding": [ {
          "system": "http://snomed.info/sct",
          "code": "448851000124103"
        } ]
      } ],
      "subject": {
        "reference": "Patient/964f8143-6ff7-4b80-ad76-4dc59de2af37"
      },
      "period": {
        "start": "2026-10-10T07:36:00.000+00:00",
        "end": "2026-10-10T09:00:00.000+00:00"
      },
      "length": {
        "value": 0,
        "unit": "days"
      }
    },
    "request": {
      "method": "PUT",
      "url": "Encounter/d2e3c26e-0ff1-4be0-9599-cd87bae5112d"
    }
  }, {
    "fullUrl": "https://madie.cms.gov/Encounter/32b2aee9-b39d-4e5e-93be-3c694182572e",
    "resource": {
      "resourceType": "Encounter",
      "id": "32b2aee9-b39d-4e5e-93be-3c694182572e",
      "meta": {
        "profile": [ "http://hl7.org/fhir/us/qicore/StructureDefinition/qicore-encounter" ]
      },
      "status": "finished",
      "class": {
        "system": "http://terminology.hl7.org/CodeSystem/v3-ActCode",
        "code": "IMP",
        "display": "inpatient encounter",
        "userSelected": true
      },
      "type": [ {
        "coding": [ {
          "system": "http://snomed.info/sct",
          "code": "32485007"
        } ]
      } ],
      "subject": {
        "reference": "Patient/964f8143-6ff7-4b80-ad76-4dc59de2af37"
      },
      "period": {
        "start": "2026-10-10T10:01:00.000+00:00",
        "end": "2026-10-12T10:30:00.000+00:00"
      },
      "length": {
        "value": 2,
        "unit": "days"
      },
      "diagnosis": [ {
        "condition": {
          "reference": "Condition/8c5106ad-e3e4-46d0-8f77-7f328676dde5"
        },
        "use": {
          "coding": [ {
            "system": "http://terminology.hl7.org/CodeSystem/diagnosis-role",
            "code": "billing",
            "display": "Billing"
          } ]
        },
        "rank": 1
      } ]
    },
    "request": {
      "method": "PUT",
      "url": "Encounter/32b2aee9-b39d-4e5e-93be-3c694182572e"
    }
  }, {
    "fullUrl": "https://madie.cms.gov/ServiceRequest/9f9ac2c6-3824-4804-af7a-5b42f27004f2",
    "resource": {
      "resourceType": "ServiceRequest",
      "id": "9f9ac2c6-3824-4804-af7a-5b42f27004f2",
      "meta": {
        "profile": [ "http://hl7.org/fhir/us/qicore/StructureDefinition/qicore-servicerequest" ]
      },
      "status": "active",
      "intent": "order",
      "code": {
        "coding": [ {
          "system": "http://snomed.info/sct",
          "code": "133918004"
        } ]
      },
      "subject": {
        "reference": "Patient/964f8143-6ff7-4b80-ad76-4dc59de2af37"
      },
      "authoredOn": "2013-10-10T08:37:00.000+00:00"
    },
    "request": {
      "method": "PUT",
      "url": "ServiceRequest/9f9ac2c6-3824-4804-af7a-5b42f27004f2"
    }
  }, {
    "fullUrl": "https://madie.cms.gov/claim/5ca62962b8484628b8de1ec5",
    "resource": {
      "resourceType": "Claim",
      "id": "5ca62962b8484628b8de1ec5",
      "meta": {
        "profile": [ "http://hl7.org/fhir/us/qicore/StructureDefinition/qicore-claim" ]
      },
      "status": "active",
      "type": {
        "coding": [ {
          "system": "http://terminology.hl7.org/CodeSystem/claim-type",
          "code": "institutional"
        } ]
      },
      "use": "claim",
      "patient": {
        "reference": "Patient/d170a0a8-b5ad-4303-b6df-e304dd5f92ad"
      },
      "created": "2026-12-01",
      "provider": {
        "reference": "Practitioner/practitioner-123456"
      },
      "priority": {
        "coding": [ {
          "system": "http://terminology.hl7.org/CodeSystem/processpriority",
          "code": "normal"
        } ]
      },
      "diagnosis": [ {
        "sequence": 1,
        "diagnosisCodeableConcept": {
          "coding": [ {
            "system": "http://hl7.org/fhir/sid/icd-10-cm",
            "code": "I63.00"
          } ]
        },
        "type": [ {
          "coding": [ {
            "system": "http://terminology.hl7.org/CodeSystem/ex-diagnosistype",
            "code": "principal"
          } ]
        } ]
      } ],
      "insurance": [ {
        "sequence": 1,
        "focal": true,
        "coverage": {
          "reference": "Coverage/5fa041661c76ba66d9959367"
        }
      } ],
      "item": [ {
        "sequence": 1,
        "diagnosisSequence": [ 1 ],
        "productOrService": {
          "coding": [ {
            "system": "http://terminology.hl7.org/CodeSystem/ex-USCLS",
            "code": "99555"
          } ]
        },
        "encounter": [ {
          "reference": "Encounter/32b2aee9-b39d-4e5e-93be-3c694182572e"
        } ]
      } ]
    },
    "request": {
      "method": "PUT",
      "url": "Claim/5ca62962b8484628b8de1ec5"
    }
  }, {
    "fullUrl": "https://madie.cms.gov/Condition/8c5106ad-e3e4-46d0-8f77-7f328676dde5",
    "resource": {
      "resourceType": "Condition",
      "id": "8c5106ad-e3e4-46d0-8f77-7f328676dde5",
      "meta": {
        "profile": [ "http://hl7.org/fhir/us/qicore/StructureDefinition/qicore-condition" ]
      },
      "clinicalStatus": {
        "coding": [ {
          "system": "http://terminology.hl7.org/CodeSystem/condition-clinical",
          "code": "active"
        } ]
      },
      "verificationStatus": {
        "coding": [ {
          "system": "http://terminology.hl7.org/CodeSystem/condition-ver-status",
          "code": "confirmed"
        } ]
      },
      "category": [ {
        "coding": [ {
          "system": "http://terminology.hl7.org/CodeSystem/condition-category",
          "code": "encounter-diagnosis",
          "display": "Encounter Diagnosis"
        } ]
      } ],
      "code": {
        "coding": [ {
          "system": "http://snomed.info/sct",
          "version": "2020-09",
          "code": "111297002",
          "display": "Nonparalytic stroke (disorder)",
          "userSelected": true
        } ]
      },
      "subject": {
        "reference": "Patient/964f8143-6ff7-4b80-ad76-4dc59de2af37"
      },
      "recordedDate": "2026-07-14T08:00:00.000+00:00"
    },
    "request": {
      "method": "PUT",
      "url": "Condition/8c5106ad-e3e4-46d0-8f77-7f328676dde5"
    }
  }, {
    "fullUrl": "https://madie.cms.gov/MeasureReport/392eacd2-b1a5-4861-bb4f-084df1c7665a",
    "resource": {
      "resourceType": "MeasureReport",
      "id": "392eacd2-b1a5-4861-bb4f-084df1c7665a",
      "meta": {
        "profile": [ "http://hl7.org/fhir/us/cqfmeasures/StructureDefinition/test-case-cqfm" ]
      },
      "contained": [ {
        "resourceType": "Parameters",
        "id": "18392665-6667-422e-868c-0a3320fa072c-parameters",
        "parameter": [ {
          "name": "subject",
          "valueString": "964f8143-6ff7-4b80-ad76-4dc59de2af37"
        } ]
      } ],
      "extension": [ {
        "url": "http://hl7.org/fhir/StructureDefinition/cqf-inputParameters",
        "valueReference": {
          "reference": "#18392665-6667-422e-868c-0a3320fa072c-parameters"
        }
      }, {
        "url": "http://hl7.org/fhir/us/cqfmeasures/StructureDefinition/cqfm-testCaseDescription",
        "valueMarkdown": "\"Patient receives CMO during observation. ED ends 1 minute before observation. Obs ends 61 min before inpatient encounter start. Testing day of operator with HospitalizationWithObservation function."
      } ],
      "modifierExtension": [ {
        "url": "http://hl7.org/fhir/us/cqfmeasures/StructureDefinition/cqfm-isTestCase",
        "valueBoolean": true
      } ],
      "status": "complete",
      "type": "individual",
      "measure": "https://madie.cms.gov/Measure/CMS104FHIRSTKDCAntithrombotic",
      "period": {
        "start": "2026-01-01",
        "end": "2026-12-31"
      },
      "group": [ {
        "id": "Group_1",
        "population": [ {
          "id": "InitialPopulation_1",
          "code": {
            "coding": [ {
              "system": "http://terminology.hl7.org/CodeSystem/measure-population",
              "code": "initial-population",
              "display": "Initial Population"
            } ]
          },
          "count": 1
        }, {
          "id": "Denominator_1",
          "code": {
            "coding": [ {
              "system": "http://terminology.hl7.org/CodeSystem/measure-population",
              "code": "denominator",
              "display": "Denominator"
            } ]
          },
          "count": 1
        }, {
          "id": "DenominatorExclusion_1",
          "code": {
            "coding": [ {
              "system": "http://terminology.hl7.org/CodeSystem/measure-population",
              "code": "denominator-exclusion",
              "display": "Denominator Exclusion"
            } ]
          },
          "count": 0
        }, {
          "id": "Numerator_1",
          "code": {
            "coding": [ {
              "system": "http://terminology.hl7.org/CodeSystem/measure-population",
              "code": "numerator",
              "display": "Numerator"
            } ]
          },
          "count": 0
        }, {
          "id": "DenominatorException_1",
          "code": {
            "coding": [ {
              "system": "http://terminology.hl7.org/CodeSystem/measure-population",
              "code": "denominator-exception",
              "display": "Denominator Exception"
            } ]
          },
          "count": 0
        } ],
        "measureScore": {
          "value": 0.0
        }
      } ],
      "evaluatedResource": [ {
        "reference": "Patient/964f8143-6ff7-4b80-ad76-4dc59de2af37"
      }, {
        "reference": "Encounter/260e0886-f503-4f1d-9b17-84269b86e3fd"
      }, {
        "reference": "Encounter/d2e3c26e-0ff1-4be0-9599-cd87bae5112d"
      }, {
        "reference": "Encounter/32b2aee9-b39d-4e5e-93be-3c694182572e"
      }, {
        "reference": "ServiceRequest/9f9ac2c6-3824-4804-af7a-5b42f27004f2"
      }, {
        "reference": "Claim/5ca62962b8484628b8de1ec5"
      }, {
        "reference": "Condition/8c5106ad-e3e4-46d0-8f77-7f328676dde5"
      } ]
    },
    "request": {
      "method": "PUT",
      "url": "MeasureReport/392eacd2-b1a5-4861-bb4f-084df1c7665a"
    }
  } ]
}