{
  "resourceType": "Bundle",
  "id": "j1f044ef3e654daa9109",
  "type": "transaction",
  "entry": [ {
    "fullUrl": "https://madie.cms.gov/Patient/021fc428-e6c1-4c32-a27e-667cd272aa6d",
    "resource": {
      "resourceType": "Patient",
      "id": "021fc428-e6c1-4c32-a27e-667cd272aa6d",
      "meta": {
        "profile": [ "http://hl7.org/fhir/us/qicore/StructureDefinition/qicore-patient" ]
      },
      "extension": [ {
        "url": "http://hl7.org/fhir/us/core/StructureDefinition/us-core-race",
        "extension": [ {
          "url": "ombCategory",
          "valueCoding": {
            "system": "urn:oid:2.16.840.1.113883.6.238",
            "code": "2028-9",
            "display": "Asian",
            "userSelected": true
          }
        }, {
          "url": "text",
          "valueString": "Asian"
        } ]
      }, {
        "url": "http://hl7.org/fhir/us/core/StructureDefinition/us-core-ethnicity",
        "extension": [ {
          "url": "ombCategory",
          "valueCoding": {
            "system": "urn:oid:2.16.840.1.113883.6.238",
            "code": "2186-5",
            "display": "Not Hispanic or Latino",
            "userSelected": true
          }
        }, {
          "url": "text",
          "valueString": "Not Hispanic or Latino"
        } ]
      }, {
        "url": "http://hl7.org/fhir/us/core/StructureDefinition/us-core-sex",
        "valueCode": "248152002"
      } ],
      "identifier": [ {
        "type": {
          "coding": [ {
            "system": "http://terminology.hl7.org/CodeSystem/v2-0203",
            "code": "MR"
          } ]
        },
        "system": "https://bonnie-fhir.healthit.gov/",
        "value": "j1f044ef3e654daa9109"
      } ],
      "name": [ {
        "family": "DENEXCL11PASS",
        "given": [ "HospiceFacilityDischargeDispositionBeforeED" ]
      } ],
      "gender": "female",
      "birthDate": "1950-02-08"
    },
    "request": {
      "method": "PUT",
      "url": "Patient/021fc428-e6c1-4c32-a27e-667cd272aa6d"
    }
  }, {
    "fullUrl": "https://madie.cms.gov/Encounter/513efa5a-e637-4806-9d62-f480ea9e9cb7",
    "resource": {
      "resourceType": "Encounter",
      "id": "513efa5a-e637-4806-9d62-f480ea9e9cb7",
      "meta": {
        "profile": [ "http://hl7.org/fhir/us/qicore/StructureDefinition/qicore-encounter" ]
      },
      "status": "finished",
      "class": {
        "system": "http://terminology.hl7.org/CodeSystem/v3-ActCode",
        "code": "EMER",
        "display": "emergency",
        "userSelected": true
      },
      "type": [ {
        "coding": [ {
          "system": "http://snomed.info/sct",
          "version": "2020-09",
          "code": "4525004",
          "display": "Emergency department patient visit",
          "userSelected": true
        } ]
      } ],
      "subject": {
        "reference": "Patient/021fc428-e6c1-4c32-a27e-667cd272aa6d"
      },
      "period": {
        "start": "2026-10-09T05:00:00.000+00:00",
        "end": "2026-10-13T17:00:00.000+00:00"
      },
      "reasonReference": [ {
        "reference": "Condition/563e376e-8858-4fa7-9c8d-7f6d7be5c69d"
      } ]
    },
    "request": {
      "method": "PUT",
      "url": "Encounter/513efa5a-e637-4806-9d62-f480ea9e9cb7"
    }
  }, {
    "fullUrl": "https://madie.cms.gov/Encounter/6da84913-2b3d-4f59-8244-b09d7baddae5",
    "resource": {
      "resourceType": "Encounter",
      "id": "6da84913-2b3d-4f59-8244-b09d7baddae5",
      "meta": {
        "profile": [ "http://hl7.org/fhir/us/qicore/StructureDefinition/qicore-encounter" ]
      },
      "status": "finished",
      "class": {
        "system": "http://terminology.hl7.org/CodeSystem/v3-ActCode",
        "code": "EMER",
        "display": "emergency",
        "userSelected": true
      },
      "type": [ {
        "coding": [ {
          "system": "http://snomed.info/sct",
          "code": "32485007",
          "display": "Hospital admission (procedure)",
          "userSelected": true
        } ]
      } ],
      "subject": {
        "reference": "Patient/021fc428-e6c1-4c32-a27e-667cd272aa6d"
      },
      "period": {
        "start": "2026-08-12T05:00:00.000+00:00",
        "end": "2026-08-19T12:00:00.000+00:00"
      },
      "hospitalization": {
        "dischargeDisposition": {
          "coding": [ {
            "system": "http://snomed.info/sct",
            "code": "428371000124100",
            "display": "Discharge to healthcare facility for hospice care (procedure)",
            "userSelected": true
          } ]
        }
      }
    },
    "request": {
      "method": "PUT",
      "url": "Encounter/6da84913-2b3d-4f59-8244-b09d7baddae5"
    }
  }, {
    "fullUrl": "https://madie.cms.gov/Condition/563e376e-8858-4fa7-9c8d-7f6d7be5c69d",
    "resource": {
      "resourceType": "Condition",
      "id": "563e376e-8858-4fa7-9c8d-7f6d7be5c69d",
      "meta": {
        "profile": [ "http://hl7.org/fhir/us/qicore/StructureDefinition/qicore-condition-encounter-diagnosis" ]
      },
      "clinicalStatus": {
        "coding": [ {
          "system": "http://terminology.hl7.org/CodeSystem/condition-clinical",
          "code": "active",
          "display": "Active",
          "userSelected": true
        } ]
      },
      "category": [ {
        "coding": [ {
          "system": "http://terminology.hl7.org/CodeSystem/condition-category",
          "code": "encounter-diagnosis",
          "display": "Encounter Diagnosis",
          "userSelected": true
        } ]
      } ],
      "code": {
        "coding": [ {
          "system": "http://hl7.org/fhir/sid/icd-10-cm",
          "code": "I21.21",
          "display": "ST elevation (STEMI) myocardial infarction involving left circumflex coronary artery",
          "userSelected": true
        } ]
      },
      "subject": {
        "reference": "Patient/021fc428-e6c1-4c32-a27e-667cd272aa6d"
      },
      "encounter": {
        "reference": "Encounter/513efa5a-e637-4806-9d62-f480ea9e9cb7"
      },
      "onsetPeriod": {
        "start": "2026-10-09T05:00:00.000+00:00",
        "end": "2026-10-09T17:00:00.000+00:00"
      }
    },
    "request": {
      "method": "PUT",
      "url": "Condition/563e376e-8858-4fa7-9c8d-7f6d7be5c69d"
    }
  }, {
    "fullUrl": "https://madie.cms.gov/MeasureReport/42fa47db-1ca6-4bd2-81f0-e97bbba5b53e",
    "resource": {
      "resourceType": "MeasureReport",
      "id": "42fa47db-1ca6-4bd2-81f0-e97bbba5b53e",
      "meta": {
        "profile": [ "http://hl7.org/fhir/us/cqfmeasures/StructureDefinition/test-case-cqfm" ]
      },
      "contained": [ {
        "resourceType": "Parameters",
        "id": "b2076e23-1ae8-4e67-94f7-6dd6488d3a4c-parameters",
        "parameter": [ {
          "name": "subject",
          "valueString": "021fc428-e6c1-4c32-a27e-667cd272aa6d"
        } ]
      } ],
      "extension": [ {
        "url": "http://hl7.org/fhir/StructureDefinition/cqf-inputParameters",
        "valueReference": {
          "reference": "#b2076e23-1ae8-4e67-94f7-6dd6488d3a4c-parameters"
        }
      }, {
        "url": "http://hl7.org/fhir/us/cqfmeasures/StructureDefinition/cqfm-testCaseDescription",
        "valueMarkdown": "Patients has hospice discharge disposition (HCF) before ED"
      } ],
      "modifierExtension": [ {
        "url": "http://hl7.org/fhir/us/cqfmeasures/StructureDefinition/cqfm-isTestCase",
        "valueBoolean": true
      } ],
      "status": "complete",
      "type": "individual",
      "measure": "https://madie.cms.gov/Measure/CMS996FHIRAptTxforSTEMI",
      "period": {
        "start": "2026-01-01",
        "end": "2026-12-31"
      },
      "group": [ {
        "id": "Group_1",
        "population": [ {
          "id": "InitialPopulation_1",
          "code": {
            "coding": [ {
              "system": "http://terminology.hl7.org/CodeSystem/measure-population",
              "code": "initial-population",
              "display": "Initial Population"
            } ]
          },
          "count": 1
        }, {
          "id": "Denominator_1",
          "code": {
            "coding": [ {
              "system": "http://terminology.hl7.org/CodeSystem/measure-population",
              "code": "denominator",
              "display": "Denominator"
            } ]
          },
          "count": 1
        }, {
          "id": "DenominatorExclusion_1",
          "code": {
            "coding": [ {
              "system": "http://terminology.hl7.org/CodeSystem/measure-population",
              "code": "denominator-exclusion",
              "display": "Denominator Exclusion"
            } ]
          },
          "count": 1
        }, {
          "id": "Numerator_1",
          "code": {
            "coding": [ {
              "system": "http://terminology.hl7.org/CodeSystem/measure-population",
              "code": "numerator",
              "display": "Numerator"
            } ]
          },
          "count": 0
        }, {
          "id": "DenominatorException_1",
          "code": {
            "coding": [ {
              "system": "http://terminology.hl7.org/CodeSystem/measure-population",
              "code": "denominator-exception",
              "display": "Denominator Exception"
            } ]
          },
          "count": 0
        } ],
        "measureScore": {
          "value": 0.0
        }
      } ],
      "evaluatedResource": [ {
        "reference": "Patient/021fc428-e6c1-4c32-a27e-667cd272aa6d"
      }, {
        "reference": "Encounter/513efa5a-e637-4806-9d62-f480ea9e9cb7"
      }, {
        "reference": "Encounter/6da84913-2b3d-4f59-8244-b09d7baddae5"
      }, {
        "reference": "Condition/563e376e-8858-4fa7-9c8d-7f6d7be5c69d"
      } ]
    },
    "request": {
      "method": "PUT",
      "url": "MeasureReport/42fa47db-1ca6-4bd2-81f0-e97bbba5b53e"
    }
  } ]
}