{
  "resourceType": "Bundle",
  "id": "641365df4b11b147841ab89b",
  "type": "transaction",
  "entry": [ {
    "fullUrl": "https://madie.cms.gov/Patient/d7e37bcf-d13b-4415-82ac-a51b5c83151c",
    "resource": {
      "resourceType": "Patient",
      "id": "d7e37bcf-d13b-4415-82ac-a51b5c83151c",
      "meta": {
        "profile": [ "http://hl7.org/fhir/us/qicore/StructureDefinition/qicore-patient" ]
      },
      "extension": [ {
        "url": "http://hl7.org/fhir/us/core/StructureDefinition/us-core-race",
        "extension": [ {
          "url": "ombCategory",
          "valueCoding": {
            "system": "urn:oid:2.16.840.1.113883.6.238",
            "code": "2076-8",
            "display": "Native Hawaiian or Other Pacific Islander",
            "userSelected": true
          }
        }, {
          "url": "text",
          "valueString": "Native Hawaiian or Other Pacific Islander"
        } ]
      }, {
        "url": "http://hl7.org/fhir/us/core/StructureDefinition/us-core-ethnicity",
        "extension": [ {
          "url": "ombCategory",
          "valueCoding": {
            "system": "urn:oid:2.16.840.1.113883.6.238",
            "code": "2186-5",
            "display": "Not Hispanic or Latino",
            "userSelected": true
          }
        }, {
          "url": "text",
          "valueString": "Not Hispanic or Latino"
        } ]
      } ],
      "identifier": [ {
        "type": {
          "coding": [ {
            "system": "http://terminology.hl7.org/CodeSystem/v2-0203",
            "code": "MR"
          } ]
        },
        "system": "https://bonnie-fhir.healthit.gov/",
        "value": "641365df4b11b147841ab89b"
      } ],
      "name": [ {
        "family": "DENEXPass",
        "given": [ "DiagnosisPalliativeCare" ]
      } ],
      "gender": "male",
      "birthDate": "1965-03-22"
    },
    "request": {
      "method": "PUT",
      "url": "Patient/d7e37bcf-d13b-4415-82ac-a51b5c83151c"
    }
  }, {
    "fullUrl": "https://madie.cms.gov/Condition/20cf92fd-9092-4389-a811-cae8637f0b2b",
    "resource": {
      "resourceType": "Condition",
      "id": "20cf92fd-9092-4389-a811-cae8637f0b2b",
      "meta": {
        "profile": [ "http://hl7.org/fhir/us/qicore/StructureDefinition/qicore-condition-problems-health-concerns" ]
      },
      "clinicalStatus": {
        "coding": [ {
          "system": "http://terminology.hl7.org/CodeSystem/condition-clinical",
          "code": "active",
          "display": "active",
          "userSelected": true
        } ]
      },
      "category": [ {
        "coding": [ {
          "system": "http://terminology.hl7.org/CodeSystem/condition-category",
          "code": "problem-list-item",
          "display": "Problem List Item",
          "userSelected": true
        } ]
      } ],
      "code": {
        "coding": [ {
          "system": "http://snomed.info/sct",
          "version": "2021-09",
          "code": "102781000119107",
          "display": "Sensory neuropathy due to type 1 diabetes mellitus (disorder)",
          "userSelected": true
        } ]
      },
      "subject": {
        "reference": "Patient/d7e37bcf-d13b-4415-82ac-a51b5c83151c"
      },
      "onsetDateTime": "2020-04-01T10:00:00.000+00:00"
    },
    "request": {
      "method": "PUT",
      "url": "Condition/20cf92fd-9092-4389-a811-cae8637f0b2b"
    }
  }, {
    "fullUrl": "https://madie.cms.gov/Encounter/7cc0fadf-d6d5-4b0e-9816-06c0ca303535",
    "resource": {
      "resourceType": "Encounter",
      "id": "7cc0fadf-d6d5-4b0e-9816-06c0ca303535",
      "meta": {
        "profile": [ "http://hl7.org/fhir/us/qicore/StructureDefinition/qicore-encounter" ]
      },
      "status": "finished",
      "class": {
        "system": "http://terminology.hl7.org/CodeSystem/v3-ActCode",
        "code": "AMB",
        "display": "ambulatory",
        "userSelected": true
      },
      "type": [ {
        "coding": [ {
          "system": "http://snomed.info/sct",
          "version": "2021-09",
          "code": "444971000124105",
          "display": "Annual wellness visit (procedure)",
          "userSelected": true
        } ]
      } ],
      "subject": {
        "reference": "Patient/d7e37bcf-d13b-4415-82ac-a51b5c83151c"
      },
      "period": {
        "start": "2026-03-06T08:00:00.000+00:00",
        "end": "2026-03-06T08:15:00.000+00:00"
      }
    },
    "request": {
      "method": "PUT",
      "url": "Encounter/7cc0fadf-d6d5-4b0e-9816-06c0ca303535"
    }
  }, {
    "fullUrl": "https://madie.cms.gov/Condition/a3415f74-68c7-4e4e-a537-009807db82bb",
    "resource": {
      "resourceType": "Condition",
      "id": "a3415f74-68c7-4e4e-a537-009807db82bb",
      "meta": {
        "profile": [ "http://hl7.org/fhir/us/qicore/StructureDefinition/qicore-condition-problems-health-concerns" ]
      },
      "clinicalStatus": {
        "coding": [ {
          "system": "http://terminology.hl7.org/CodeSystem/condition-clinical",
          "code": "active",
          "display": "active",
          "userSelected": true
        } ]
      },
      "category": [ {
        "coding": [ {
          "system": "http://terminology.hl7.org/CodeSystem/condition-category",
          "code": "problem-list-item",
          "display": "Problem List Item",
          "userSelected": true
        } ]
      } ],
      "code": {
        "coding": [ {
          "system": "http://hl7.org/fhir/sid/icd-10-cm",
          "code": "Z51.5",
          "display": "Encounter for palliative care",
          "userSelected": true
        } ]
      },
      "subject": {
        "reference": "Patient/d7e37bcf-d13b-4415-82ac-a51b5c83151c"
      },
      "onsetDateTime": "2026-03-14T08:00:00.000+00:00"
    },
    "request": {
      "method": "PUT",
      "url": "Condition/a3415f74-68c7-4e4e-a537-009807db82bb"
    }
  }, {
    "fullUrl": "https://madie.cms.gov/MeasureReport/ac924678-8c0d-43c9-b520-f5a3518d5f42",
    "resource": {
      "resourceType": "MeasureReport",
      "id": "ac924678-8c0d-43c9-b520-f5a3518d5f42",
      "meta": {
        "profile": [ "http://hl7.org/fhir/us/cqfmeasures/StructureDefinition/test-case-cqfm" ]
      },
      "contained": [ {
        "resourceType": "Parameters",
        "id": "d26d75b1-a73f-465f-bb37-0702805d79e7-parameters",
        "parameter": [ {
          "name": "subject",
          "valueString": "d7e37bcf-d13b-4415-82ac-a51b5c83151c"
        } ]
      } ],
      "extension": [ {
        "url": "http://hl7.org/fhir/StructureDefinition/cqf-inputParameters",
        "valueReference": {
          "reference": "#d26d75b1-a73f-465f-bb37-0702805d79e7-parameters"
        }
      }, {
        "url": "http://hl7.org/fhir/us/cqfmeasures/StructureDefinition/cqfm-testCaseDescription",
        "valueMarkdown": "This patient is 60 years old with a qualifying encounter and active diabetes diagnosis, with a Palliative Care diagnosis in the Measurement Period. This case tests the denominator exclusion criteria."
      } ],
      "modifierExtension": [ {
        "url": "http://hl7.org/fhir/us/cqfmeasures/StructureDefinition/cqfm-isTestCase",
        "valueBoolean": true
      } ],
      "status": "complete",
      "type": "individual",
      "measure": "https://madie.cms.gov/Measure/CMS951FHIRKidneyHealthEval",
      "period": {
        "start": "2026-01-01",
        "end": "2026-12-31"
      },
      "group": [ {
        "id": "Group_1",
        "population": [ {
          "id": "InitialPopulation_1",
          "code": {
            "coding": [ {
              "system": "http://terminology.hl7.org/CodeSystem/measure-population",
              "code": "initial-population",
              "display": "Initial Population"
            } ]
          },
          "count": 1
        }, {
          "id": "Denominator_1",
          "code": {
            "coding": [ {
              "system": "http://terminology.hl7.org/CodeSystem/measure-population",
              "code": "denominator",
              "display": "Denominator"
            } ]
          },
          "count": 1
        }, {
          "id": "DenominatorExclusion_1",
          "code": {
            "coding": [ {
              "system": "http://terminology.hl7.org/CodeSystem/measure-population",
              "code": "denominator-exclusion",
              "display": "Denominator Exclusion"
            } ]
          },
          "count": 1
        }, {
          "id": "Numerator_1",
          "code": {
            "coding": [ {
              "system": "http://terminology.hl7.org/CodeSystem/measure-population",
              "code": "numerator",
              "display": "Numerator"
            } ]
          },
          "count": 0
        } ],
        "measureScore": {
          "value": 1.0
        }
      } ],
      "evaluatedResource": [ {
        "reference": "Patient/d7e37bcf-d13b-4415-82ac-a51b5c83151c"
      }, {
        "reference": "Condition/20cf92fd-9092-4389-a811-cae8637f0b2b"
      }, {
        "reference": "Encounter/7cc0fadf-d6d5-4b0e-9816-06c0ca303535"
      }, {
        "reference": "Condition/a3415f74-68c7-4e4e-a537-009807db82bb"
      } ]
    },
    "request": {
      "method": "PUT",
      "url": "MeasureReport/ac924678-8c0d-43c9-b520-f5a3518d5f42"
    }
  } ]
}