{
  "resourceType": "Bundle",
  "id": "63231ae12a56ae63756a53ee",
  "type": "transaction",
  "entry": [ {
    "fullUrl": "https://madie.cms.gov/Patient/0a9ce53d-32ec-45be-b981-0fae3d3e91f5",
    "resource": {
      "resourceType": "Patient",
      "id": "0a9ce53d-32ec-45be-b981-0fae3d3e91f5",
      "meta": {
        "profile": [ "http://hl7.org/fhir/us/qicore/StructureDefinition/qicore-patient" ]
      },
      "extension": [ {
        "url": "http://hl7.org/fhir/us/core/StructureDefinition/us-core-race",
        "extension": [ {
          "url": "ombCategory",
          "valueCoding": {
            "system": "urn:oid:2.16.840.1.113883.6.238",
            "code": "1002-5",
            "display": "American Indian or Alaska Native",
            "userSelected": true
          }
        }, {
          "url": "text",
          "valueString": "American Indian or Alaska Native"
        } ]
      }, {
        "url": "http://hl7.org/fhir/us/core/StructureDefinition/us-core-ethnicity",
        "extension": [ {
          "url": "ombCategory",
          "valueCoding": {
            "system": "urn:oid:2.16.840.1.113883.6.238",
            "code": "2135-2",
            "display": "Hispanic or Latino",
            "userSelected": true
          }
        }, {
          "url": "text",
          "valueString": "Hispanic or Latino"
        } ]
      } ],
      "identifier": [ {
        "system": "http://hospital.smarthealthit.org",
        "value": "999999999"
      } ],
      "name": [ {
        "family": "IPPFail",
        "given": [ "EncounterAndOpioidBeforeMP" ]
      } ],
      "gender": "unknown",
      "birthDate": "2006-12-31"
    },
    "request": {
      "method": "PUT",
      "url": "Patient/0a9ce53d-32ec-45be-b981-0fae3d3e91f5"
    }
  }, {
    "fullUrl": "https://madie.cms.gov/Encounter/37dce9b4-2f51-448e-850a-b1459943cd7d",
    "resource": {
      "resourceType": "Encounter",
      "id": "37dce9b4-2f51-448e-850a-b1459943cd7d",
      "meta": {
        "profile": [ "http://hl7.org/fhir/us/qicore/StructureDefinition/qicore-encounter" ]
      },
      "status": "finished",
      "class": {
        "system": "http://terminology.hl7.org/CodeSystem/v3-ActCode",
        "code": "IMP",
        "display": "inpatient encounter"
      },
      "type": [ {
        "coding": [ {
          "system": "http://snomed.info/sct",
          "code": "183452005",
          "display": "Emergency hospital admission (procedure)",
          "userSelected": true
        } ]
      } ],
      "subject": {
        "reference": "Patient/0a9ce53d-32ec-45be-b981-0fae3d3e91f5"
      },
      "period": {
        "start": "2025-12-30T00:01:00.000+00:00",
        "end": "2025-12-31T23:59:00.000+00:00"
      }
    },
    "request": {
      "method": "PUT",
      "url": "Encounter/37dce9b4-2f51-448e-850a-b1459943cd7d"
    }
  }, {
    "fullUrl": "https://madie.cms.gov/MedicationRequest/2a236503-ca89-4449-bffb-4ed6aae0b1dd",
    "resource": {
      "resourceType": "MedicationRequest",
      "id": "2a236503-ca89-4449-bffb-4ed6aae0b1dd",
      "meta": {
        "profile": [ "http://hl7.org/fhir/us/qicore/StructureDefinition/qicore-medicationrequest" ]
      },
      "status": "active",
      "intent": "order",
      "category": [ {
        "coding": [ {
          "system": "http://terminology.hl7.org/CodeSystem/medicationrequest-category",
          "code": "discharge",
          "display": "Discharge",
          "userSelected": true
        } ]
      } ],
      "doNotPerform": false,
      "medicationCodeableConcept": {
        "coding": [ {
          "system": "http://www.nlm.nih.gov/research/umls/rxnorm",
          "code": "1014632",
          "display": "acetaminophen 300 MG / oxycodone hydrochloride 7.5 MG Oral Tablet",
          "userSelected": true
        } ]
      },
      "subject": {
        "reference": "Patient/0a9ce53d-32ec-45be-b981-0fae3d3e91f5"
      },
      "authoredOn": "2025-12-31T23:59:00.000+00:00",
      "requester": {
        "reference": "Practitioner/978826dc-659e-457b-89b8-559c8a143cb3"
      }
    },
    "request": {
      "method": "PUT",
      "url": "MedicationRequest/2a236503-ca89-4449-bffb-4ed6aae0b1dd"
    }
  }, {
    "fullUrl": "https://madie.cms.gov/Practitioner/978826dc-659e-457b-89b8-559c8a143cb3",
    "resource": {
      "resourceType": "Practitioner",
      "id": "978826dc-659e-457b-89b8-559c8a143cb3",
      "meta": {
        "profile": [ "http://hl7.org/fhir/us/qicore/StructureDefinition/qicore-practitioner" ]
      },
      "identifier": [ {
        "system": "http://hl7.org/fhir/sid/us-npi",
        "value": "9999999896"
      } ],
      "active": true,
      "name": [ {
        "family": "Ramires",
        "given": [ "Alma" ],
        "prefix": [ "Dr" ]
      } ],
      "address": [ {
        "use": "home",
        "line": [ "534 Erewhon St" ],
        "city": "Netherville",
        "state": "IN",
        "postalCode": "46131"
      } ],
      "qualification": [ {
        "identifier": [ {
          "system": "http://goodhealth.org/prIdentifier",
          "value": "12345"
        } ],
        "code": {
          "coding": [ {
            "system": "http://terminology.hl7.org/CodeSystem/v2-0360|2.7",
            "code": "BS",
            "display": "Bachelor of Science"
          } ],
          "text": "Bachelor of Science"
        },
        "period": {
          "start": "1995"
        },
        "issuer": {
          "display": "Example University"
        }
      } ]
    },
    "request": {
      "method": "PUT",
      "url": "Practitioner/978826dc-659e-457b-89b8-559c8a143cb3"
    }
  }, {
    "fullUrl": "https://madie.cms.gov/Coverage/30a496f6-0675-4173-897f-b04107ed4968",
    "resource": {
      "resourceType": "Coverage",
      "id": "30a496f6-0675-4173-897f-b04107ed4968",
      "meta": {
        "profile": [ "http://hl7.org/fhir/us/qicore/StructureDefinition/qicore-coverage" ]
      },
      "status": "active",
      "subscriberId": "523435",
      "beneficiary": {
        "reference": "Patient/0a9ce53d-32ec-45be-b981-0fae3d3e91f5"
      },
      "relationship": {
        "coding": [ {
          "system": "http://terminology.hl7.org/CodeSystem/subscriber-relationship",
          "code": "self"
        } ]
      },
      "payor": [ {
        "reference": "Organization/914e1a9e-1b07-4d4b-9970-97c317144a5e"
      } ]
    },
    "request": {
      "method": "PUT",
      "url": "Coverage/30a496f6-0675-4173-897f-b04107ed4968"
    }
  }, {
    "fullUrl": "https://madie.cms.gov/Organization/914e1a9e-1b07-4d4b-9970-97c317144a5e",
    "resource": {
      "resourceType": "Organization",
      "id": "914e1a9e-1b07-4d4b-9970-97c317144a5e",
      "meta": {
        "profile": [ "http://hl7.org/fhir/us/qicore/StructureDefinition/qicore-organization" ]
      },
      "identifier": [ {
        "use": "temp",
        "system": "urn:oid:2.16.840.1.113883.4.4",
        "value": "21-3259825"
      } ],
      "active": true,
      "type": [ {
        "coding": [ {
          "system": "http://terminology.hl7.org/CodeSystem/organization-type",
          "code": "pay",
          "display": "Payer"
        } ]
      } ],
      "name": "Blue Cross Blue Shield of Texas",
      "telecom": [ {
        "system": "phone",
        "value": "(+1) 972-766-6900"
      } ],
      "address": [ {
        "use": "billing",
        "type": "postal",
        "line": [ "P.O. Box 660044" ],
        "city": "Dallas",
        "state": "TX",
        "postalCode": "75266-0044",
        "country": "USA"
      } ]
    },
    "request": {
      "method": "PUT",
      "url": "Organization/914e1a9e-1b07-4d4b-9970-97c317144a5e"
    }
  }, {
    "fullUrl": "https://madie.cms.gov/MeasureReport/6ffd0bf9-a3ba-4ffa-a163-735f1761227f",
    "resource": {
      "resourceType": "MeasureReport",
      "id": "6ffd0bf9-a3ba-4ffa-a163-735f1761227f",
      "meta": {
        "profile": [ "http://hl7.org/fhir/us/cqfmeasures/StructureDefinition/test-case-cqfm" ]
      },
      "contained": [ {
        "resourceType": "Parameters",
        "id": "36c00214-1222-4b5b-84a7-cfbc0b7892d6-parameters",
        "parameter": [ {
          "name": "subject",
          "valueString": "0a9ce53d-32ec-45be-b981-0fae3d3e91f5"
        } ]
      } ],
      "extension": [ {
        "url": "http://hl7.org/fhir/StructureDefinition/cqf-inputParameters",
        "valueReference": {
          "reference": "#36c00214-1222-4b5b-84a7-cfbc0b7892d6-parameters"
        }
      }, {
        "url": "http://hl7.org/fhir/us/cqfmeasures/StructureDefinition/cqfm-testCaseDescription",
        "valueMarkdown": "Encounter ended last minute of year prior and Opioid prescribed (active) minutes before start of MP"
      } ],
      "modifierExtension": [ {
        "url": "http://hl7.org/fhir/us/cqfmeasures/StructureDefinition/cqfm-isTestCase",
        "valueBoolean": true
      } ],
      "status": "complete",
      "type": "individual",
      "measure": "https://madie.cms.gov/Measure/CMS506FHIRSafeUseofOpioids",
      "period": {
        "start": "2026-01-01",
        "end": "2026-12-31"
      },
      "group": [ {
        "id": "Group_1",
        "population": [ {
          "id": "InitialPopulation_1",
          "code": {
            "coding": [ {
              "system": "http://terminology.hl7.org/CodeSystem/measure-population",
              "code": "initial-population",
              "display": "Initial Population"
            } ]
          },
          "count": 0
        }, {
          "id": "Denominator_1",
          "code": {
            "coding": [ {
              "system": "http://terminology.hl7.org/CodeSystem/measure-population",
              "code": "denominator",
              "display": "Denominator"
            } ]
          },
          "count": 0
        }, {
          "id": "DenominatorExclusion_1",
          "code": {
            "coding": [ {
              "system": "http://terminology.hl7.org/CodeSystem/measure-population",
              "code": "denominator-exclusion",
              "display": "Denominator Exclusion"
            } ]
          },
          "count": 0
        }, {
          "id": "Numerator_1",
          "code": {
            "coding": [ {
              "system": "http://terminology.hl7.org/CodeSystem/measure-population",
              "code": "numerator",
              "display": "Numerator"
            } ]
          },
          "count": 0
        } ],
        "measureScore": {
          "value": 0.0
        }
      } ],
      "evaluatedResource": [ {
        "reference": "Patient/0a9ce53d-32ec-45be-b981-0fae3d3e91f5"
      }, {
        "reference": "Encounter/37dce9b4-2f51-448e-850a-b1459943cd7d"
      }, {
        "reference": "MedicationRequest/2a236503-ca89-4449-bffb-4ed6aae0b1dd"
      }, {
        "reference": "Practitioner/978826dc-659e-457b-89b8-559c8a143cb3"
      }, {
        "reference": "Coverage/30a496f6-0675-4173-897f-b04107ed4968"
      }, {
        "reference": "Organization/914e1a9e-1b07-4d4b-9970-97c317144a5e"
      } ]
    },
    "request": {
      "method": "PUT",
      "url": "MeasureReport/6ffd0bf9-a3ba-4ffa-a163-735f1761227f"
    }
  } ]
}