{
  "resourceType": "Bundle",
  "id": "889p80a15a66f34573c7y997",
  "type": "transaction",
  "entry": [ {
    "fullUrl": "https://madie.cms.gov/Patient/27c46a2f-d0bc-492f-addc-11821cc59b29",
    "resource": {
      "resourceType": "Patient",
      "id": "27c46a2f-d0bc-492f-addc-11821cc59b29",
      "meta": {
        "profile": [ "http://hl7.org/fhir/us/qicore/StructureDefinition/qicore-patient" ]
      },
      "extension": [ {
        "url": "http://hl7.org/fhir/us/core/StructureDefinition/us-core-race",
        "extension": [ {
          "url": "ombCategory",
          "valueCoding": {
            "system": "urn:oid:2.16.840.1.113883.6.238",
            "code": "2028-9",
            "display": "Asian",
            "userSelected": true
          }
        }, {
          "url": "text",
          "valueString": "Asian"
        } ]
      }, {
        "url": "http://hl7.org/fhir/us/core/StructureDefinition/us-core-ethnicity",
        "extension": [ {
          "url": "ombCategory",
          "valueCoding": {
            "system": "urn:oid:2.16.840.1.113883.6.238",
            "code": "2186-5",
            "display": "Not Hispanic or Latino",
            "userSelected": true
          }
        }, {
          "url": "text",
          "valueString": "Not Hispanic or Latino"
        } ]
      } ],
      "identifier": [ {
        "system": "http://hospital.smarthealthit.org",
        "value": "999999999"
      } ],
      "name": [ {
        "family": "NUMERFail",
        "given": [ "AntagonistGivenInOR" ]
      } ],
      "gender": "female",
      "birthDate": "2006-07-31"
    },
    "request": {
      "method": "PUT",
      "url": "Patient/27c46a2f-d0bc-492f-addc-11821cc59b29"
    }
  }, {
    "fullUrl": "https://madie.cms.gov/Encounter/e1e077d1-17cf-4e80-b224-06ceae07587a",
    "resource": {
      "resourceType": "Encounter",
      "id": "e1e077d1-17cf-4e80-b224-06ceae07587a",
      "meta": {
        "profile": [ "http://hl7.org/fhir/us/qicore/StructureDefinition/qicore-encounter" ]
      },
      "status": "finished",
      "class": {
        "system": "http://terminology.hl7.org/CodeSystem/v3-ActCode",
        "code": "IMP",
        "display": "inpatient encounter"
      },
      "type": [ {
        "coding": [ {
          "system": "http://snomed.info/sct",
          "code": "183452005"
        } ]
      } ],
      "subject": {
        "reference": "Patient/27c46a2f-d0bc-492f-addc-11821cc59b29"
      },
      "period": {
        "start": "2026-07-11T08:00:00.000+00:00",
        "end": "2026-07-16T08:15:00.000+00:00"
      },
      "location": [ {
        "location": {
          "reference": "Location/850ca548-b9e0-441f-8603-14f267cfc2e3"
        },
        "period": {
          "start": "2026-07-11T09:00:00.000+00:00",
          "end": "2026-07-11T11:15:00.000+00:00"
        }
      } ]
    },
    "request": {
      "method": "PUT",
      "url": "Encounter/e1e077d1-17cf-4e80-b224-06ceae07587a"
    }
  }, {
    "fullUrl": "https://madie.cms.gov/Location/850ca548-b9e0-441f-8603-14f267cfc2e3",
    "resource": {
      "resourceType": "Location",
      "id": "850ca548-b9e0-441f-8603-14f267cfc2e3",
      "meta": {
        "profile": [ "http://hl7.org/fhir/us/qicore/StructureDefinition/qicore-location" ]
      },
      "identifier": [ {
        "use": "usual",
        "system": "http://exampleoflocation.com",
        "value": "B1-S.F2"
      } ],
      "name": "Medical Surgical East, first floor",
      "type": [ {
        "coding": [ {
          "system": "https://www.cdc.gov/nhsn/cdaportal/terminology/codesystem/hsloc.html",
          "code": "1096-7",
          "display": "Operating Room/Suite"
        } ]
      } ]
    },
    "request": {
      "method": "PUT",
      "url": "Location/850ca548-b9e0-441f-8603-14f267cfc2e3"
    }
  }, {
    "fullUrl": "https://madie.cms.gov/MedicationAdministration/aa9c5f37-b799-4a5a-a083-912a25917d5c",
    "resource": {
      "resourceType": "MedicationAdministration",
      "id": "aa9c5f37-b799-4a5a-a083-912a25917d5c",
      "meta": {
        "profile": [ "http://hl7.org/fhir/us/qicore/StructureDefinition/qicore-medicationadministration" ]
      },
      "status": "completed",
      "medicationCodeableConcept": {
        "coding": [ {
          "system": "http://www.nlm.nih.gov/research/umls/rxnorm",
          "code": "1010600",
          "display": "Opioids, All"
        } ]
      },
      "subject": {
        "reference": "Patient/27c46a2f-d0bc-492f-addc-11821cc59b29"
      },
      "effectivePeriod": {
        "start": "2026-07-11T08:00:00.000+00:00",
        "end": "2026-07-11T08:15:00.000+00:00"
      }
    },
    "request": {
      "method": "PUT",
      "url": "MedicationAdministration/aa9c5f37-b799-4a5a-a083-912a25917d5c"
    }
  }, {
    "fullUrl": "https://madie.cms.gov/MedicationAdministration/d90b0d97-1cb6-4fab-a2a0-39cb9883adaf",
    "resource": {
      "resourceType": "MedicationAdministration",
      "id": "d90b0d97-1cb6-4fab-a2a0-39cb9883adaf",
      "meta": {
        "profile": [ "http://hl7.org/fhir/us/qicore/StructureDefinition/qicore-medicationadministration" ]
      },
      "status": "completed",
      "medicationCodeableConcept": {
        "coding": [ {
          "system": "http://www.nlm.nih.gov/research/umls/rxnorm",
          "code": "1191222",
          "display": "Opioid Antagonist"
        } ]
      },
      "subject": {
        "reference": "Patient/27c46a2f-d0bc-492f-addc-11821cc59b29"
      },
      "effectiveDateTime": "2026-07-11T10:00:00.000+00:00",
      "dosage": {
        "route": {
          "coding": [ {
            "system": "http://snomed.info/sct",
            "code": "34206005",
            "display": "Subcutaneous route"
          } ]
        }
      }
    },
    "request": {
      "method": "PUT",
      "url": "MedicationAdministration/d90b0d97-1cb6-4fab-a2a0-39cb9883adaf"
    }
  }, {
    "fullUrl": "https://madie.cms.gov/Coverage/beacddbc-3d24-40fb-921c-115e255f5212",
    "resource": {
      "resourceType": "Coverage",
      "id": "beacddbc-3d24-40fb-921c-115e255f5212",
      "meta": {
        "profile": [ "http://hl7.org/fhir/us/qicore/StructureDefinition/qicore-coverage" ]
      },
      "status": "active",
      "subscriberId": "523435",
      "beneficiary": {
        "reference": "Patient/27c46a2f-d0bc-492f-addc-11821cc59b29"
      },
      "relationship": {
        "coding": [ {
          "system": "http://terminology.hl7.org/CodeSystem/subscriber-relationship",
          "code": "self"
        } ]
      },
      "payor": [ {
        "reference": "Organization/c5db393b-2030-4bc2-9c4e-651f8be0b520"
      } ]
    },
    "request": {
      "method": "PUT",
      "url": "Coverage/beacddbc-3d24-40fb-921c-115e255f5212"
    }
  }, {
    "fullUrl": "https://madie.cms.gov/Organization/c5db393b-2030-4bc2-9c4e-651f8be0b520",
    "resource": {
      "resourceType": "Organization",
      "id": "c5db393b-2030-4bc2-9c4e-651f8be0b520",
      "meta": {
        "profile": [ "http://hl7.org/fhir/us/qicore/StructureDefinition/qicore-organization" ]
      },
      "identifier": [ {
        "use": "temp",
        "system": "urn:oid:2.16.840.1.113883.4.4",
        "value": "21-3259825"
      } ],
      "active": true,
      "type": [ {
        "coding": [ {
          "system": "http://terminology.hl7.org/CodeSystem/organization-type",
          "code": "pay",
          "display": "Payer"
        } ]
      } ],
      "name": "Blue Cross Blue Shield of Texas",
      "telecom": [ {
        "system": "phone",
        "value": "(+1) 972-766-6900"
      } ],
      "address": [ {
        "use": "billing",
        "type": "postal",
        "line": [ "P.O. Box 660044" ],
        "city": "Dallas",
        "state": "TX",
        "postalCode": "75266-0044",
        "country": "USA"
      } ]
    },
    "request": {
      "method": "PUT",
      "url": "Organization/c5db393b-2030-4bc2-9c4e-651f8be0b520"
    }
  }, {
    "fullUrl": "https://madie.cms.gov/MeasureReport/32a1cf46-c234-4bf1-9374-76700719ce2e",
    "resource": {
      "resourceType": "MeasureReport",
      "id": "32a1cf46-c234-4bf1-9374-76700719ce2e",
      "meta": {
        "profile": [ "http://hl7.org/fhir/us/cqfmeasures/StructureDefinition/test-case-cqfm" ]
      },
      "contained": [ {
        "resourceType": "Parameters",
        "id": "1815a30b-7c75-4cc5-a518-78d2ed5da677-parameters",
        "parameter": [ {
          "name": "subject",
          "valueString": "27c46a2f-d0bc-492f-addc-11821cc59b29"
        } ]
      } ],
      "extension": [ {
        "url": "http://hl7.org/fhir/StructureDefinition/cqf-inputParameters",
        "valueReference": {
          "reference": "#1815a30b-7c75-4cc5-a518-78d2ed5da677-parameters"
        }
      }, {
        "url": "http://hl7.org/fhir/us/cqfmeasures/StructureDefinition/cqfm-testCaseDescription",
        "valueMarkdown": "Encounter-1 7/11 0800 - 7/16 0815 of MP, in OR 7/11 0900 - 1115,  MedAdmin-1 7/11 Opioid 0800-0815, MedAdmin-2 7/11 Antagonist at 1000 in OR"
      } ],
      "modifierExtension": [ {
        "url": "http://hl7.org/fhir/us/cqfmeasures/StructureDefinition/cqfm-isTestCase",
        "valueBoolean": true
      } ],
      "status": "complete",
      "type": "individual",
      "measure": "https://madie.cms.gov/Measure/CMS819FHIRHHORAE",
      "period": {
        "start": "2026-01-01",
        "end": "2026-12-31"
      },
      "group": [ {
        "id": "Group_1",
        "population": [ {
          "id": "InitialPopulation_1",
          "code": {
            "coding": [ {
              "system": "http://terminology.hl7.org/CodeSystem/measure-population",
              "code": "initial-population",
              "display": "Initial Population"
            } ]
          },
          "count": 1
        }, {
          "id": "Denominator_1",
          "code": {
            "coding": [ {
              "system": "http://terminology.hl7.org/CodeSystem/measure-population",
              "code": "denominator",
              "display": "Denominator"
            } ]
          },
          "count": 1
        }, {
          "id": "Numerator_1",
          "code": {
            "coding": [ {
              "system": "http://terminology.hl7.org/CodeSystem/measure-population",
              "code": "numerator",
              "display": "Numerator"
            } ]
          },
          "count": 0
        } ],
        "measureScore": {
          "value": 0.0
        }
      } ],
      "evaluatedResource": [ {
        "reference": "Patient/27c46a2f-d0bc-492f-addc-11821cc59b29"
      }, {
        "reference": "Encounter/e1e077d1-17cf-4e80-b224-06ceae07587a"
      }, {
        "reference": "Location/850ca548-b9e0-441f-8603-14f267cfc2e3"
      }, {
        "reference": "MedicationAdministration/aa9c5f37-b799-4a5a-a083-912a25917d5c"
      }, {
        "reference": "MedicationAdministration/d90b0d97-1cb6-4fab-a2a0-39cb9883adaf"
      }, {
        "reference": "Coverage/beacddbc-3d24-40fb-921c-115e255f5212"
      }, {
        "reference": "Organization/c5db393b-2030-4bc2-9c4e-651f8be0b520"
      } ]
    },
    "request": {
      "method": "PUT",
      "url": "MeasureReport/32a1cf46-c234-4bf1-9374-76700719ce2e"
    }
  } ]
}