{
  "resourceType": "Bundle",
  "id": "612e6b2e02c62a011f2ecc81",
  "type": "transaction",
  "entry": [ {
    "fullUrl": "https://madie.cms.gov/Patient/61e522ed-d51b-4398-bb65-6cf7fefe179f",
    "resource": {
      "resourceType": "Patient",
      "id": "61e522ed-d51b-4398-bb65-6cf7fefe179f",
      "meta": {
        "profile": [ "http://hl7.org/fhir/us/qicore/StructureDefinition/qicore-patient" ]
      },
      "text": {
        "status": "generated",
        "div": "<div xmlns=\"http://www.w3.org/1999/xhtml\"><div class=\"hapiHeaderText\">PtRef_MO_Riv_DayOfAnes_ProcRvltDT <b>NUMERPASS </b></div><table class=\"hapiPropertyTable\"><tbody><tr><td>Identifier</td><td>bec2580a47ed4bf7691b191e0654b2de</td></tr><tr><td>Date of birth</td><td><span>02 January 1974</span></td></tr></tbody></table></div>"
      },
      "extension": [ {
        "url": "http://hl7.org/fhir/us/core/StructureDefinition/us-core-race",
        "extension": [ {
          "url": "ombCategory",
          "valueCoding": {
            "system": "urn:oid:2.16.840.1.113883.6.238",
            "code": "1002-5",
            "display": "American Indian or Alaska Native",
            "userSelected": true
          }
        }, {
          "url": "text",
          "valueString": "American Indian or Alaska Native"
        } ]
      }, {
        "url": "http://hl7.org/fhir/us/core/StructureDefinition/us-core-ethnicity",
        "extension": [ {
          "url": "ombCategory",
          "valueCoding": {
            "system": "urn:oid:2.16.840.1.113883.6.238",
            "code": "2135-2",
            "display": "Hispanic or Latino",
            "userSelected": true
          }
        }, {
          "url": "text",
          "valueString": "Hispanic or Latino"
        } ]
      } ],
      "identifier": [ {
        "type": {
          "coding": [ {
            "system": "http://terminology.hl7.org/CodeSystem/v2-0203",
            "code": "MR"
          } ]
        },
        "system": "https://bonnie-fhir.healthit.gov/",
        "value": "612e6b2e02c62a011f2ecc81"
      } ],
      "active": true,
      "name": [ {
        "use": "usual",
        "family": "NUMERPass",
        "given": [ "PtRefMORivDayOfAnesProcRvltDT" ]
      } ],
      "gender": "male",
      "birthDate": "1975-01-02"
    },
    "request": {
      "method": "PUT",
      "url": "Patient/61e522ed-d51b-4398-bb65-6cf7fefe179f"
    }
  }, {
    "fullUrl": "https://madie.cms.gov/Encounter/79339135-0b26-4db5-a2be-ebb3d6c3b322",
    "resource": {
      "resourceType": "Encounter",
      "id": "79339135-0b26-4db5-a2be-ebb3d6c3b322",
      "meta": {
        "profile": [ "http://hl7.org/fhir/us/qicore/StructureDefinition/qicore-encounter" ]
      },
      "status": "finished",
      "class": {
        "system": "http://terminology.hl7.org/CodeSystem/v3-ActCode",
        "code": "IMP",
        "display": "inpatient encounter"
      },
      "type": [ {
        "coding": [ {
          "system": "http://snomed.info/sct",
          "code": "8715000"
        } ]
      } ],
      "subject": {
        "reference": "Patient/61e522ed-d51b-4398-bb65-6cf7fefe179f"
      },
      "period": {
        "start": "2026-11-01T08:00:00.000+00:00",
        "end": "2026-11-26T08:15:00.000+00:00"
      },
      "length": {
        "value": 25,
        "unit": "days"
      }
    },
    "request": {
      "method": "PUT",
      "url": "Encounter/79339135-0b26-4db5-a2be-ebb3d6c3b322"
    }
  }, {
    "fullUrl": "https://madie.cms.gov/Coverage/f4f26d7d-3dd2-4b04-b1c9-740e2452cdd7",
    "resource": {
      "resourceType": "Coverage",
      "id": "f4f26d7d-3dd2-4b04-b1c9-740e2452cdd7",
      "status": "active",
      "beneficiary": {
        "reference": "Patient/61e522ed-d51b-4398-bb65-6cf7fefe179f"
      },
      "period": {
        "start": "1975-01-02T08:00:00.000+00:00"
      },
      "payor": [ {
        "reference": "Organization/19935db7-d11a-436a-bcd2-3466b18d6d65"
      } ]
    },
    "request": {
      "method": "PUT",
      "url": "Coverage/f4f26d7d-3dd2-4b04-b1c9-740e2452cdd7"
    }
  }, {
    "fullUrl": "https://madie.cms.gov/MedicationRequest/af95be22-437a-49e5-aa97-26a83875f2de",
    "resource": {
      "resourceType": "MedicationRequest",
      "id": "af95be22-437a-49e5-aa97-26a83875f2de",
      "meta": {
        "profile": [ "http://hl7.org/fhir/us/qicore/StructureDefinition/qicore-medicationnotrequested" ]
      },
      "status": "completed",
      "intent": "order",
      "category": [ {
        "coding": [ {
          "system": "http://terminology.hl7.org/CodeSystem/medicationrequest-category",
          "code": "community"
        } ]
      } ],
      "doNotPerform": true,
      "medicationCodeableConcept": {
        "coding": [ {
          "system": "http://www.nlm.nih.gov/research/umls/rxnorm",
          "code": "1114198"
        } ]
      },
      "subject": {
        "reference": "Patient/61e522ed-d51b-4398-bb65-6cf7fefe179f"
      },
      "authoredOn": "2026-11-01T07:00:00.000+00:00",
      "requester": {
        "reference": "Practitioner/123456"
      },
      "reasonCode": [ {
        "coding": [ {
          "system": "http://snomed.info/sct",
          "code": "443390004",
          "display": "Refusal of treatment by patient (situation)",
          "userSelected": true
        } ]
      } ],
      "dosageInstruction": [ {
        "timing": {
          "repeat": {
            "boundsPeriod": {
              "start": "2026-11-03T09:00:00.000+00:00"
            }
          }
        }
      } ]
    },
    "request": {
      "method": "PUT",
      "url": "MedicationRequest/af95be22-437a-49e5-aa97-26a83875f2de"
    }
  }, {
    "fullUrl": "https://madie.cms.gov/Procedure/67408435-7e95-4459-b05e-3475fb377d77",
    "resource": {
      "resourceType": "Procedure",
      "id": "67408435-7e95-4459-b05e-3475fb377d77",
      "meta": {
        "profile": [ "http://hl7.org/fhir/us/qicore/StructureDefinition/qicore-procedure" ]
      },
      "extension": [ {
        "url": "http://hl7.org/fhir/us/qicore/StructureDefinition/qicore-recorded",
        "valueDateTime": "2013-11-19T13:35:00.000+00:00"
      } ],
      "status": "completed",
      "code": {
        "coding": [ {
          "system": "http://snomed.info/sct",
          "code": "18946005"
        } ]
      },
      "subject": {
        "reference": "Patient/61e522ed-d51b-4398-bb65-6cf7fefe179f"
      },
      "performedDateTime": "2026-11-02T09:15:00.000+00:00"
    },
    "request": {
      "method": "PUT",
      "url": "Procedure/67408435-7e95-4459-b05e-3475fb377d77"
    }
  }, {
    "fullUrl": "https://madie.cms.gov/Organization/19935db7-d11a-436a-bcd2-3466b18d6d65",
    "resource": {
      "resourceType": "Organization",
      "id": "19935db7-d11a-436a-bcd2-3466b18d6d65",
      "meta": {
        "profile": [ "http://hl7.org/fhir/us/qicore/StructureDefinition/qicore-organization" ]
      },
      "identifier": [ {
        "use": "temp",
        "system": "urn:oid:2.16.840.1.113883.4.4",
        "value": "21-3259825"
      } ],
      "active": true,
      "type": [ {
        "coding": [ {
          "system": "http://terminology.hl7.org/CodeSystem/organization-type",
          "code": "pay",
          "display": "Payer"
        } ]
      } ],
      "name": "Blue Cross Blue Shield of Texas",
      "telecom": [ {
        "system": "phone",
        "value": "(+1) 972-766-6900"
      } ],
      "address": [ {
        "use": "billing",
        "type": "postal",
        "line": [ "P.O. Box 660044" ],
        "city": "Dallas",
        "state": "TX",
        "postalCode": "75266-0044",
        "country": "USA"
      } ]
    },
    "request": {
      "method": "PUT",
      "url": "Organization/19935db7-d11a-436a-bcd2-3466b18d6d65"
    }
  }, {
    "fullUrl": "https://madie.cms.gov/Practitioner/68d0df2b-3c22-4f72-bb1a-1e7b53367bb9",
    "resource": {
      "resourceType": "Practitioner",
      "id": "68d0df2b-3c22-4f72-bb1a-1e7b53367bb9",
      "identifier": [ {
        "system": "http://hl7.org/fhir/sid/us-npi",
        "value": "123456"
      } ],
      "name": [ {
        "family": "Evil",
        "prefix": [ "Dr" ]
      } ]
    },
    "request": {
      "method": "PUT",
      "url": "Practitioner/68d0df2b-3c22-4f72-bb1a-1e7b53367bb9"
    }
  }, {
    "fullUrl": "https://madie.cms.gov/MeasureReport/618a1100-7863-4905-9428-f0c934d1f608",
    "resource": {
      "resourceType": "MeasureReport",
      "id": "618a1100-7863-4905-9428-f0c934d1f608",
      "meta": {
        "profile": [ "http://hl7.org/fhir/us/cqfmeasures/StructureDefinition/test-case-cqfm" ]
      },
      "contained": [ {
        "resourceType": "Parameters",
        "id": "b06d31d7-1b16-40fa-8c88-26b006c9e5c9-parameters",
        "parameter": [ {
          "name": "subject",
          "valueString": "61e522ed-d51b-4398-bb65-6cf7fefe179f"
        } ]
      } ],
      "extension": [ {
        "url": "http://hl7.org/fhir/StructureDefinition/cqf-inputParameters",
        "valueReference": {
          "reference": "#b06d31d7-1b16-40fa-8c88-26b006c9e5c9-parameters"
        }
      }, {
        "url": "http://hl7.org/fhir/us/cqfmeasures/StructureDefinition/cqfm-testCaseDescription",
        "valueMarkdown": "Rivaroxaban refused <= 1 day after end of anesthesia as revelant Datetime\n"
      } ],
      "modifierExtension": [ {
        "url": "http://hl7.org/fhir/us/cqfmeasures/StructureDefinition/cqfm-isTestCase",
        "valueBoolean": true
      } ],
      "status": "complete",
      "type": "individual",
      "measure": "https://madie.cms.gov/Measure/CMS108FHIRVTEProphylaxis",
      "period": {
        "start": "2026-01-01",
        "end": "2026-12-31"
      },
      "group": [ {
        "id": "Group_1",
        "population": [ {
          "id": "InitialPopulation_1",
          "code": {
            "coding": [ {
              "system": "http://terminology.hl7.org/CodeSystem/measure-population",
              "code": "initial-population",
              "display": "Initial Population"
            } ]
          },
          "count": 1
        }, {
          "id": "Denominator_1",
          "code": {
            "coding": [ {
              "system": "http://terminology.hl7.org/CodeSystem/measure-population",
              "code": "denominator",
              "display": "Denominator"
            } ]
          },
          "count": 1
        }, {
          "id": "DenominatorExclusion_1",
          "code": {
            "coding": [ {
              "system": "http://terminology.hl7.org/CodeSystem/measure-population",
              "code": "denominator-exclusion",
              "display": "Denominator Exclusion"
            } ]
          },
          "count": 0
        }, {
          "id": "Numerator_1",
          "code": {
            "coding": [ {
              "system": "http://terminology.hl7.org/CodeSystem/measure-population",
              "code": "numerator",
              "display": "Numerator"
            } ]
          },
          "count": 1
        } ],
        "measureScore": {
          "value": 0.0
        }
      } ],
      "evaluatedResource": [ {
        "reference": "Patient/61e522ed-d51b-4398-bb65-6cf7fefe179f"
      }, {
        "reference": "Encounter/79339135-0b26-4db5-a2be-ebb3d6c3b322"
      }, {
        "reference": "Coverage/f4f26d7d-3dd2-4b04-b1c9-740e2452cdd7"
      }, {
        "reference": "MedicationRequest/af95be22-437a-49e5-aa97-26a83875f2de"
      }, {
        "reference": "Procedure/67408435-7e95-4459-b05e-3475fb377d77"
      }, {
        "reference": "Organization/19935db7-d11a-436a-bcd2-3466b18d6d65"
      }, {
        "reference": "Practitioner/68d0df2b-3c22-4f72-bb1a-1e7b53367bb9"
      } ]
    },
    "request": {
      "method": "PUT",
      "url": "MeasureReport/618a1100-7863-4905-9428-f0c934d1f608"
    }
  } ]
}