{
  "resourceType": "Bundle",
  "id": "6353045e224f3b053967124c",
  "type": "transaction",
  "entry": [ {
    "fullUrl": "https://madie.cms.gov/Patient/3700e4ab-df72-403f-8733-b457583dac19",
    "resource": {
      "resourceType": "Patient",
      "id": "3700e4ab-df72-403f-8733-b457583dac19",
      "meta": {
        "profile": [ "http://hl7.org/fhir/us/qicore/StructureDefinition/qicore-patient" ]
      },
      "extension": [ {
        "url": "http://hl7.org/fhir/us/core/StructureDefinition/us-core-race",
        "extension": [ {
          "url": "ombCategory",
          "valueCoding": {
            "system": "urn:oid:2.16.840.1.113883.6.238",
            "code": "1002-5",
            "display": "American Indian or Alaska Native",
            "userSelected": true
          }
        }, {
          "url": "text",
          "valueString": "American Indian or Alaska Native"
        } ]
      }, {
        "url": "http://hl7.org/fhir/us/core/StructureDefinition/us-core-ethnicity",
        "extension": [ {
          "url": "ombCategory",
          "valueCoding": {
            "system": "urn:oid:2.16.840.1.113883.6.238",
            "code": "2135-2",
            "display": "Hispanic or Latino",
            "userSelected": true
          }
        }, {
          "url": "text",
          "valueString": "Hispanic or Latino"
        } ]
      } ],
      "identifier": [ {
        "type": {
          "coding": [ {
            "system": "http://terminology.hl7.org/CodeSystem/v2-0203",
            "code": "MR"
          } ]
        },
        "system": "https://bonnie-fhir.healthit.gov/",
        "value": "6353045e224f3b053967124c"
      } ],
      "name": [ {
        "family": "DENOMPass",
        "given": [ "EDD24Hr01MinB4DELRsltDtTime" ]
      } ],
      "gender": "female",
      "birthDate": "2005-02-01"
    },
    "request": {
      "method": "PUT",
      "url": "Patient/3700e4ab-df72-403f-8733-b457583dac19"
    }
  }, {
    "fullUrl": "https://madie.cms.gov/Encounter/178e4f20-4e32-412b-a427-0b26aec0aa9d",
    "resource": {
      "resourceType": "Encounter",
      "id": "178e4f20-4e32-412b-a427-0b26aec0aa9d",
      "meta": {
        "profile": [ "http://hl7.org/fhir/us/qicore/StructureDefinition/qicore-encounter" ]
      },
      "status": "finished",
      "class": {
        "system": "http://terminology.hl7.org/CodeSystem/v3-ActCode",
        "code": "IMP",
        "display": "inpatient encounter"
      },
      "type": [ {
        "coding": [ {
          "system": "http://snomed.info/sct",
          "version": "2022-09",
          "code": "183452005",
          "display": "Emergency hospital admission (procedure)",
          "userSelected": true
        } ]
      } ],
      "subject": {
        "reference": "Patient/3700e4ab-df72-403f-8733-b457583dac19"
      },
      "period": {
        "start": "2026-02-01T08:00:00.000+00:00",
        "end": "2026-02-05T08:15:00.000+00:00"
      }
    },
    "request": {
      "method": "PUT",
      "url": "Encounter/178e4f20-4e32-412b-a427-0b26aec0aa9d"
    }
  }, {
    "fullUrl": "https://madie.cms.gov/Procedure/5229924c-9e07-4a58-8048-157ca7ea4a93",
    "resource": {
      "resourceType": "Procedure",
      "id": "5229924c-9e07-4a58-8048-157ca7ea4a93",
      "meta": {
        "profile": [ "http://hl7.org/fhir/us/qicore/StructureDefinition/qicore-procedure" ]
      },
      "extension": [ {
        "url": "http://hl7.org/fhir/us/qicore/StructureDefinition/qicore-recorded",
        "valueDateTime": "2014-04-05T13:35:00.000+00:00"
      } ],
      "status": "completed",
      "code": {
        "coding": [ {
          "system": "http://snomed.info/sct",
          "version": "2022-09",
          "code": "10745001",
          "display": "Delivery of transverse presentation (procedure)",
          "userSelected": true
        } ]
      },
      "subject": {
        "reference": "Patient/3700e4ab-df72-403f-8733-b457583dac19"
      },
      "performedPeriod": {
        "start": "2026-02-01T08:00:00.000+00:00",
        "end": "2026-02-05T08:15:00.000+00:00"
      }
    },
    "request": {
      "method": "PUT",
      "url": "Procedure/5229924c-9e07-4a58-8048-157ca7ea4a93"
    }
  }, {
    "fullUrl": "https://madie.cms.gov/Observation/ce16fb97-24a3-4fa7-bf99-c3d6bc9e7aa4",
    "resource": {
      "resourceType": "Observation",
      "id": "ce16fb97-24a3-4fa7-bf99-c3d6bc9e7aa4",
      "meta": {
        "profile": [ "http://hl7.org/fhir/us/qicore/StructureDefinition/qicore-simple-observation" ]
      },
      "status": "final",
      "category": [ {
        "coding": [ {
          "system": "http://terminology.hl7.org/CodeSystem/observation-category",
          "code": "exam",
          "display": "exam",
          "userSelected": true
        } ]
      } ],
      "code": {
        "coding": [ {
          "system": "http://loinc.org",
          "code": "93857-1",
          "display": "Date and time of obstetric delivery",
          "userSelected": true
        } ]
      },
      "subject": {
        "reference": "Patient/3700e4ab-df72-403f-8733-b457583dac19"
      },
      "effectiveDateTime": "2026-02-01T08:00:00.000+00:00",
      "performer": [ {
        "reference": "Organization/example1",
        "display": "Hendricks Country Hospital"
      } ],
      "valueDateTime": "2026-02-01T08:00:00.000+00:00"
    },
    "request": {
      "method": "PUT",
      "url": "Observation/ce16fb97-24a3-4fa7-bf99-c3d6bc9e7aa4"
    }
  }, {
    "fullUrl": "https://madie.cms.gov/Observation/bb225686-dd55-49e6-8993-d5fab66ad7ff",
    "resource": {
      "resourceType": "Observation",
      "id": "bb225686-dd55-49e6-8993-d5fab66ad7ff",
      "meta": {
        "profile": [ "http://hl7.org/fhir/us/qicore/StructureDefinition/qicore-simple-observation" ]
      },
      "status": "final",
      "category": [ {
        "coding": [ {
          "system": "http://terminology.hl7.org/CodeSystem/observation-category",
          "code": "exam",
          "display": "exam",
          "userSelected": true
        } ]
      } ],
      "code": {
        "coding": [ {
          "system": "http://loinc.org",
          "code": "11778-8",
          "display": "Delivery date Estimated",
          "userSelected": true
        } ]
      },
      "subject": {
        "reference": "Patient/3700e4ab-df72-403f-8733-b457583dac19"
      },
      "effectiveDateTime": "2026-01-31T07:59:00.000+00:00",
      "performer": [ {
        "reference": "Organization/example1",
        "display": "Hendricks Country Hospital"
      } ],
      "valueDateTime": "2026-01-31T08:01:00.000+00:00"
    },
    "request": {
      "method": "PUT",
      "url": "Observation/bb225686-dd55-49e6-8993-d5fab66ad7ff"
    }
  }, {
    "fullUrl": "https://madie.cms.gov/Coverage/4d3b2bb4-550d-415d-889c-837a5a179ee0",
    "resource": {
      "resourceType": "Coverage",
      "id": "4d3b2bb4-550d-415d-889c-837a5a179ee0",
      "meta": {
        "profile": [ "http://hl7.org/fhir/us/qicore/StructureDefinition/qicore-coverage" ]
      },
      "status": "active",
      "subscriberId": "523435",
      "beneficiary": {
        "reference": "Patient/3700e4ab-df72-403f-8733-b457583dac19"
      },
      "relationship": {
        "coding": [ {
          "system": "http://terminology.hl7.org/CodeSystem/subscriber-relationship",
          "code": "self"
        } ]
      },
      "payor": [ {
        "reference": "Organization/e98f8fa9-a85c-4b34-a277-ba19c8b76114"
      } ]
    },
    "request": {
      "method": "PUT",
      "url": "Coverage/4d3b2bb4-550d-415d-889c-837a5a179ee0"
    }
  }, {
    "fullUrl": "https://madie.cms.gov/Organization/e98f8fa9-a85c-4b34-a277-ba19c8b76114",
    "resource": {
      "resourceType": "Organization",
      "id": "e98f8fa9-a85c-4b34-a277-ba19c8b76114",
      "meta": {
        "profile": [ "http://hl7.org/fhir/us/qicore/StructureDefinition/qicore-organization" ]
      },
      "identifier": [ {
        "use": "temp",
        "system": "urn:oid:2.16.840.1.113883.4.4",
        "value": "21-3259825"
      } ],
      "active": true,
      "type": [ {
        "coding": [ {
          "system": "http://terminology.hl7.org/CodeSystem/organization-type",
          "code": "pay",
          "display": "Payer"
        } ]
      } ],
      "name": "Blue Cross Blue Shield of Texas",
      "telecom": [ {
        "system": "phone",
        "value": "(+1) 972-766-6900"
      } ],
      "address": [ {
        "use": "billing",
        "type": "postal",
        "line": [ "P.O. Box 660044" ],
        "city": "Dallas",
        "state": "TX",
        "postalCode": "75266-0044",
        "country": "USA"
      } ]
    },
    "request": {
      "method": "PUT",
      "url": "Organization/e98f8fa9-a85c-4b34-a277-ba19c8b76114"
    }
  }, {
    "fullUrl": "https://madie.cms.gov/Practitioner/5343958b-ce1d-4e26-a89e-b58999fe9af9",
    "resource": {
      "resourceType": "Practitioner",
      "id": "5343958b-ce1d-4e26-a89e-b58999fe9af9",
      "meta": {
        "profile": [ "http://hl7.org/fhir/us/qicore/StructureDefinition/qicore-practitioner" ]
      },
      "identifier": [ {
        "system": "http://hl7.org/fhir/sid/us-npi",
        "value": "1234567890"
      } ],
      "name": [ {
        "family": "Evil",
        "prefix": [ "Dr" ]
      } ]
    },
    "request": {
      "method": "PUT",
      "url": "Practitioner/5343958b-ce1d-4e26-a89e-b58999fe9af9"
    }
  }, {
    "fullUrl": "https://madie.cms.gov/MeasureReport/4d42290b-fe09-41be-b980-5bb4abcc9ec6",
    "resource": {
      "resourceType": "MeasureReport",
      "id": "4d42290b-fe09-41be-b980-5bb4abcc9ec6",
      "meta": {
        "profile": [ "http://hl7.org/fhir/us/cqfmeasures/StructureDefinition/test-case-cqfm" ]
      },
      "contained": [ {
        "resourceType": "Parameters",
        "id": "d4a7a0c0-86a9-45df-97aa-2e8882fc951b-parameters",
        "parameter": [ {
          "name": "subject",
          "valueString": "3700e4ab-df72-403f-8733-b457583dac19"
        } ]
      } ],
      "extension": [ {
        "url": "http://hl7.org/fhir/StructureDefinition/cqf-inputParameters",
        "valueReference": {
          "reference": "#d4a7a0c0-86a9-45df-97aa-2e8882fc951b-parameters"
        }
      }, {
        "url": "http://hl7.org/fhir/us/cqfmeasures/StructureDefinition/cqfm-testCaseDescription",
        "valueMarkdown": "Last assessment Performed, Estimated Delivery Date, Relevant time, 24 hours 1 min before Delivery Result Date/Time.  EDD has date/time\n"
      } ],
      "modifierExtension": [ {
        "url": "http://hl7.org/fhir/us/cqfmeasures/StructureDefinition/cqfm-isTestCase",
        "valueBoolean": true
      } ],
      "status": "complete",
      "type": "individual",
      "measure": "https://madie.cms.gov/Measure/CMS1028FHIRPCSevereOBComps",
      "period": {
        "start": "2026-01-01",
        "end": "2026-12-31"
      },
      "group": [ {
        "id": "Group_1",
        "population": [ {
          "id": "InitialPopulation_1",
          "code": {
            "coding": [ {
              "system": "http://terminology.hl7.org/CodeSystem/measure-population",
              "code": "initial-population",
              "display": "Initial Population"
            } ]
          },
          "count": 1
        }, {
          "id": "Denominator_1",
          "code": {
            "coding": [ {
              "system": "http://terminology.hl7.org/CodeSystem/measure-population",
              "code": "denominator",
              "display": "Denominator"
            } ]
          },
          "count": 1
        }, {
          "id": "Numerator_1",
          "code": {
            "coding": [ {
              "system": "http://terminology.hl7.org/CodeSystem/measure-population",
              "code": "numerator",
              "display": "Numerator"
            } ]
          },
          "count": 0
        }, {
          "id": "NumeratorExclusion_1",
          "code": {
            "coding": [ {
              "system": "http://terminology.hl7.org/CodeSystem/measure-population",
              "code": "numerator-exclusion",
              "display": "Numerator Exclusion"
            } ]
          },
          "count": 0
        } ],
        "measureScore": {
          "value": 0.0
        }
      }, {
        "id": "Group_2",
        "population": [ {
          "id": "InitialPopulation_2",
          "code": {
            "coding": [ {
              "system": "http://terminology.hl7.org/CodeSystem/measure-population",
              "code": "initial-population",
              "display": "Initial Population"
            } ]
          },
          "count": 1
        }, {
          "id": "Denominator_2",
          "code": {
            "coding": [ {
              "system": "http://terminology.hl7.org/CodeSystem/measure-population",
              "code": "denominator",
              "display": "Denominator"
            } ]
          },
          "count": 1
        }, {
          "id": "Numerator_2",
          "code": {
            "coding": [ {
              "system": "http://terminology.hl7.org/CodeSystem/measure-population",
              "code": "numerator",
              "display": "Numerator"
            } ]
          },
          "count": 0
        }, {
          "id": "NumeratorExclusion_2",
          "code": {
            "coding": [ {
              "system": "http://terminology.hl7.org/CodeSystem/measure-population",
              "code": "numerator-exclusion",
              "display": "Numerator Exclusion"
            } ]
          },
          "count": 0
        } ],
        "measureScore": {
          "value": 0.0
        }
      } ],
      "evaluatedResource": [ {
        "reference": "Patient/3700e4ab-df72-403f-8733-b457583dac19"
      }, {
        "reference": "Encounter/178e4f20-4e32-412b-a427-0b26aec0aa9d"
      }, {
        "reference": "Procedure/5229924c-9e07-4a58-8048-157ca7ea4a93"
      }, {
        "reference": "Observation/ce16fb97-24a3-4fa7-bf99-c3d6bc9e7aa4"
      }, {
        "reference": "Observation/bb225686-dd55-49e6-8993-d5fab66ad7ff"
      }, {
        "reference": "Coverage/4d3b2bb4-550d-415d-889c-837a5a179ee0"
      }, {
        "reference": "Organization/e98f8fa9-a85c-4b34-a277-ba19c8b76114"
      }, {
        "reference": "Practitioner/5343958b-ce1d-4e26-a89e-b58999fe9af9"
      } ]
    },
    "request": {
      "method": "PUT",
      "url": "MeasureReport/4d42290b-fe09-41be-b980-5bb4abcc9ec6"
    }
  } ]
}