{
  "resourceType": "Bundle",
  "id": "617bf2761619a529957d62c7",
  "type": "transaction",
  "entry": [ {
    "fullUrl": "https://madie.cms.gov/Patient/c786ef91-8830-4877-a007-934c97d8ac8d",
    "resource": {
      "resourceType": "Patient",
      "id": "c786ef91-8830-4877-a007-934c97d8ac8d",
      "meta": {
        "profile": [ "http://hl7.org/fhir/us/qicore/StructureDefinition/qicore-patient" ]
      },
      "extension": [ {
        "url": "http://hl7.org/fhir/us/core/StructureDefinition/us-core-race",
        "extension": [ {
          "url": "ombCategory",
          "valueCoding": {
            "system": "urn:oid:2.16.840.1.113883.6.238",
            "code": "2028-9",
            "display": "Asian",
            "userSelected": true
          }
        }, {
          "url": "text",
          "valueString": "Asian"
        } ]
      }, {
        "url": "http://hl7.org/fhir/us/core/StructureDefinition/us-core-ethnicity",
        "extension": [ {
          "url": "ombCategory",
          "valueCoding": {
            "system": "urn:oid:2.16.840.1.113883.6.238",
            "code": "2135-2",
            "display": "Hispanic or Latino",
            "userSelected": true
          }
        }, {
          "url": "text",
          "valueString": "Hispanic or Latino"
        } ]
      }, {
        "url": "http://hl7.org/fhir/us/core/StructureDefinition/us-core-sex",
        "valueCode": "248153007"
      } ],
      "identifier": [ {
        "type": {
          "coding": [ {
            "system": "http://terminology.hl7.org/CodeSystem/v2-0203",
            "code": "MR"
          } ]
        },
        "system": "https://bonnie-fhir.healthit.gov/",
        "value": "617bf2761619a529957d62c7"
      } ],
      "name": [ {
        "family": "DenExcl8Fail",
        "given": [ "AllergyStartsAfterEndsAfterED" ]
      } ],
      "gender": "male",
      "birthDate": "1985-12-02"
    },
    "request": {
      "method": "PUT",
      "url": "Patient/c786ef91-8830-4877-a007-934c97d8ac8d"
    }
  }, {
    "fullUrl": "https://madie.cms.gov/Encounter/553ea9b0-b1e4-4b44-a04b-edf66adfe61e",
    "resource": {
      "resourceType": "Encounter",
      "id": "553ea9b0-b1e4-4b44-a04b-edf66adfe61e",
      "meta": {
        "profile": [ "http://hl7.org/fhir/us/qicore/StructureDefinition/qicore-encounter" ]
      },
      "status": "finished",
      "class": {
        "system": "http://terminology.hl7.org/CodeSystem/v3-ActCode",
        "code": "EMER",
        "display": "emergency",
        "userSelected": true
      },
      "type": [ {
        "coding": [ {
          "system": "http://snomed.info/sct",
          "version": "2020-09",
          "code": "4525004",
          "display": "Emergency department patient visit (procedure)",
          "userSelected": true
        } ]
      } ],
      "subject": {
        "reference": "Patient/c786ef91-8830-4877-a007-934c97d8ac8d"
      },
      "period": {
        "start": "2026-10-09T08:05:00.000+00:00",
        "end": "2026-10-10T07:15:00.000+00:00"
      },
      "reasonCode": [ {
        "coding": [ {
          "system": "http://snomed.info/sct",
          "version": "2020-09",
          "code": "703211006",
          "display": "Subsequent ST segment elevation myocardial infarction (disorder)",
          "userSelected": true
        } ]
      } ]
    },
    "request": {
      "method": "PUT",
      "url": "Encounter/553ea9b0-b1e4-4b44-a04b-edf66adfe61e"
    }
  }, {
    "fullUrl": "https://madie.cms.gov/AllergyIntolerance/e6cd06cd-d799-4afe-9549-5d75b5147d37",
    "resource": {
      "resourceType": "AllergyIntolerance",
      "id": "e6cd06cd-d799-4afe-9549-5d75b5147d37",
      "meta": {
        "profile": [ "http://hl7.org/fhir/us/qicore/StructureDefinition/qicore-allergyintolerance" ]
      },
      "clinicalStatus": {
        "coding": [ {
          "system": "http://terminology.hl7.org/CodeSystem/allergyintolerance-clinical",
          "code": "active",
          "display": "Active",
          "userSelected": true
        } ]
      },
      "code": {
        "coding": [ {
          "system": "http://www.nlm.nih.gov/research/umls/rxnorm",
          "version": "2021-01",
          "code": "10106",
          "display": "streptokinase",
          "userSelected": true
        } ]
      },
      "patient": {
        "reference": "Patient/c786ef91-8830-4877-a007-934c97d8ac8d"
      },
      "onsetPeriod": {
        "start": "2026-10-12T08:00:00.000+00:00",
        "end": "2026-12-02T10:15:00.000+00:00"
      }
    },
    "request": {
      "method": "PUT",
      "url": "AllergyIntolerance/e6cd06cd-d799-4afe-9549-5d75b5147d37"
    }
  }, {
    "fullUrl": "https://madie.cms.gov/MeasureReport/fe7db0e8-86b1-4f6c-9f50-295121e5dc26",
    "resource": {
      "resourceType": "MeasureReport",
      "id": "fe7db0e8-86b1-4f6c-9f50-295121e5dc26",
      "meta": {
        "profile": [ "http://hl7.org/fhir/us/cqfmeasures/StructureDefinition/test-case-cqfm" ]
      },
      "contained": [ {
        "resourceType": "Parameters",
        "id": "68354c59-e292-45b2-8776-ad135439e3e6-parameters",
        "parameter": [ {
          "name": "subject",
          "valueString": "c786ef91-8830-4877-a007-934c97d8ac8d"
        } ]
      } ],
      "extension": [ {
        "url": "http://hl7.org/fhir/StructureDefinition/cqf-inputParameters",
        "valueReference": {
          "reference": "#68354c59-e292-45b2-8776-ad135439e3e6-parameters"
        }
      }, {
        "url": "http://hl7.org/fhir/us/cqfmeasures/StructureDefinition/cqfm-testCaseDescription",
        "valueMarkdown": "Patient has allergy to medication ingredient starts after and ends after ED"
      } ],
      "modifierExtension": [ {
        "url": "http://hl7.org/fhir/us/cqfmeasures/StructureDefinition/cqfm-isTestCase",
        "valueBoolean": true
      } ],
      "status": "complete",
      "type": "individual",
      "measure": "https://madie.cms.gov/Measure/CMS996FHIRAptTxforSTEMI",
      "period": {
        "start": "2026-01-01",
        "end": "2026-12-31"
      },
      "group": [ {
        "id": "Group_1",
        "population": [ {
          "id": "InitialPopulation_1",
          "code": {
            "coding": [ {
              "system": "http://terminology.hl7.org/CodeSystem/measure-population",
              "code": "initial-population",
              "display": "Initial Population"
            } ]
          },
          "count": 1
        }, {
          "id": "Denominator_1",
          "code": {
            "coding": [ {
              "system": "http://terminology.hl7.org/CodeSystem/measure-population",
              "code": "denominator",
              "display": "Denominator"
            } ]
          },
          "count": 1
        }, {
          "id": "DenominatorExclusion_1",
          "code": {
            "coding": [ {
              "system": "http://terminology.hl7.org/CodeSystem/measure-population",
              "code": "denominator-exclusion",
              "display": "Denominator Exclusion"
            } ]
          },
          "count": 0
        }, {
          "id": "Numerator_1",
          "code": {
            "coding": [ {
              "system": "http://terminology.hl7.org/CodeSystem/measure-population",
              "code": "numerator",
              "display": "Numerator"
            } ]
          },
          "count": 0
        }, {
          "id": "DenominatorException_1",
          "code": {
            "coding": [ {
              "system": "http://terminology.hl7.org/CodeSystem/measure-population",
              "code": "denominator-exception",
              "display": "Denominator Exception"
            } ]
          },
          "count": 0
        } ],
        "measureScore": {
          "value": 0.0
        }
      } ],
      "evaluatedResource": [ {
        "reference": "Patient/c786ef91-8830-4877-a007-934c97d8ac8d"
      }, {
        "reference": "Encounter/553ea9b0-b1e4-4b44-a04b-edf66adfe61e"
      }, {
        "reference": "AllergyIntolerance/e6cd06cd-d799-4afe-9549-5d75b5147d37"
      } ]
    },
    "request": {
      "method": "PUT",
      "url": "MeasureReport/fe7db0e8-86b1-4f6c-9f50-295121e5dc26"
    }
  } ]
}