{
  "resourceType": "Bundle",
  "id": "NUMPass-RetinalExamJan1OfYrB4MPRetinoDxDec31B4MP",
  "type": "transaction",
  "entry": [ {
    "fullUrl": "https://madie.cms.gov/Patient/7ca93198-2a13-4266-aa39-82003e19b175",
    "resource": {
      "resourceType": "Patient",
      "id": "7ca93198-2a13-4266-aa39-82003e19b175",
      "meta": {
        "profile": [ "http://hl7.org/fhir/us/qicore/StructureDefinition/qicore-patient" ]
      },
      "extension": [ {
        "url": "http://hl7.org/fhir/us/core/StructureDefinition/us-core-race",
        "extension": [ {
          "url": "ombCategory",
          "valueCoding": {
            "system": "urn:oid:2.16.840.1.113883.6.238",
            "code": "2028-9",
            "display": "Asian",
            "userSelected": true
          }
        }, {
          "url": "text",
          "valueString": "Asian"
        } ]
      }, {
        "url": "http://hl7.org/fhir/us/core/StructureDefinition/us-core-ethnicity",
        "extension": [ {
          "url": "ombCategory",
          "valueCoding": {
            "system": "urn:oid:2.16.840.1.113883.6.238",
            "code": "2135-2",
            "display": "Hispanic or Latino",
            "userSelected": true
          }
        }, {
          "url": "text",
          "valueString": "Hispanic or Latino"
        } ]
      } ],
      "identifier": [ {
        "type": {
          "coding": [ {
            "system": "http://terminology.hl7.org/CodeSystem/v2-0203",
            "code": "MR"
          } ]
        },
        "system": "http://hospital.smarthealthit.org",
        "value": "999999995"
      } ],
      "name": [ {
        "family": "Bertha",
        "given": [ "Betty" ]
      } ],
      "gender": "female",
      "birthDate": "2007-12-31"
    },
    "request": {
      "method": "PUT",
      "url": "Patient/7ca93198-2a13-4266-aa39-82003e19b175"
    }
  }, {
    "fullUrl": "https://madie.cms.gov/Encounter/4b8030d9-f653-4921-b92c-0811ae536c58",
    "resource": {
      "resourceType": "Encounter",
      "id": "4b8030d9-f653-4921-b92c-0811ae536c58",
      "meta": {
        "profile": [ "http://hl7.org/fhir/us/qicore/StructureDefinition/qicore-encounter" ]
      },
      "status": "finished",
      "class": {
        "system": "http://terminology.hl7.org/CodeSystem/v3-ActCode",
        "code": "AMB",
        "display": "ambulatory"
      },
      "type": [ {
        "coding": [ {
          "system": "http://snomed.info/sct",
          "code": "185463005",
          "display": "Visit out of hours (procedure)"
        } ]
      } ],
      "subject": {
        "reference": "Patient/7ca93198-2a13-4266-aa39-82003e19b175"
      },
      "period": {
        "start": "2026-01-01T00:00:00.000+00:00",
        "end": "2026-01-01T00:00:00.000+00:00"
      }
    },
    "request": {
      "method": "PUT",
      "url": "Encounter/4b8030d9-f653-4921-b92c-0811ae536c58"
    }
  }, {
    "fullUrl": "https://madie.cms.gov/Condition/59fdc0a7-ea7a-43e4-be76-4a67af4a55e2",
    "resource": {
      "resourceType": "Condition",
      "id": "59fdc0a7-ea7a-43e4-be76-4a67af4a55e2",
      "meta": {
        "profile": [ "http://hl7.org/fhir/us/qicore/StructureDefinition/qicore-condition-encounter-diagnosis" ]
      },
      "clinicalStatus": {
        "coding": [ {
          "system": "http://terminology.hl7.org/CodeSystem/condition-clinical",
          "code": "active"
        } ]
      },
      "category": [ {
        "coding": [ {
          "system": "http://terminology.hl7.org/CodeSystem/condition-category",
          "code": "encounter-diagnosis",
          "display": "Encounter Diagnosis"
        } ]
      } ],
      "code": {
        "coding": [ {
          "system": "http://snomed.info/sct",
          "code": "102781000119107",
          "display": "Sensory neuropathy due to type 1 diabetes mellitus (disorder)"
        } ]
      },
      "subject": {
        "reference": "Patient/7ca93198-2a13-4266-aa39-82003e19b175"
      },
      "onsetDateTime": "2026-01-01T00:00:00.000+00:00"
    },
    "request": {
      "method": "PUT",
      "url": "Condition/59fdc0a7-ea7a-43e4-be76-4a67af4a55e2"
    }
  }, {
    "fullUrl": "https://madie.cms.gov/Condition/59fdc0a7-ea7a-43e4-be76-4a67af4a55e2.1",
    "resource": {
      "resourceType": "Condition",
      "id": "59fdc0a7-ea7a-43e4-be76-4a67af4a55e2.1",
      "meta": {
        "profile": [ "http://hl7.org/fhir/us/qicore/StructureDefinition/qicore-condition-encounter-diagnosis" ]
      },
      "clinicalStatus": {
        "coding": [ {
          "system": "http://terminology.hl7.org/CodeSystem/condition-clinical",
          "code": "resolved"
        } ]
      },
      "category": [ {
        "coding": [ {
          "system": "http://terminology.hl7.org/CodeSystem/condition-category",
          "code": "encounter-diagnosis",
          "display": "Encounter Diagnosis"
        } ]
      } ],
      "code": {
        "coding": [ {
          "system": "http://snomed.info/sct",
          "code": "193349004",
          "display": "Preproliferative retinopathy due to diabetes mellitus (disorder)"
        } ]
      },
      "subject": {
        "reference": "Patient/7ca93198-2a13-4266-aa39-82003e19b175"
      },
      "onsetDateTime": "2024-12-31T23:59:59.000+00:00",
      "abatementDateTime": "2024-12-31T23:59:59.000+00:00"
    },
    "request": {
      "method": "PUT",
      "url": "Condition/59fdc0a7-ea7a-43e4-be76-4a67af4a55e2.1"
    }
  }, {
    "fullUrl": "https://madie.cms.gov/Observation/13dee4ae-8b91-4272-953c-06b065695acf",
    "resource": {
      "resourceType": "Observation",
      "id": "13dee4ae-8b91-4272-953c-06b065695acf",
      "meta": {
        "profile": [ "http://hl7.org/fhir/us/qicore/StructureDefinition/qicore-observation-clinical-result" ]
      },
      "status": "final",
      "category": [ {
        "coding": [ {
          "system": "http://terminology.hl7.org/CodeSystem/observation-category",
          "code": "exam"
        } ]
      } ],
      "code": {
        "coding": [ {
          "system": "http://snomed.info/sct",
          "code": "252779009",
          "display": "Single bright white flash electroretinography (procedure)"
        } ]
      },
      "subject": {
        "reference": "Patient/7ca93198-2a13-4266-aa39-82003e19b175"
      },
      "effectivePeriod": {
        "start": "2025-01-01T00:00:00.000+00:00",
        "end": "2025-01-01T00:00:00.000+00:00"
      },
      "dataAbsentReason": {
        "extension": [ {
          "url": "http://hl7.org/fhir/StructureDefinition/data-absent-reason",
          "valueCode": "unknown"
        } ]
      }
    },
    "request": {
      "method": "PUT",
      "url": "Observation/13dee4ae-8b91-4272-953c-06b065695acf"
    }
  }, {
    "fullUrl": "https://madie.cms.gov/MeasureReport/ce9ab1a9-0027-4b45-9355-8720d45ec922",
    "resource": {
      "resourceType": "MeasureReport",
      "id": "ce9ab1a9-0027-4b45-9355-8720d45ec922",
      "meta": {
        "profile": [ "http://hl7.org/fhir/us/cqfmeasures/StructureDefinition/test-case-cqfm" ]
      },
      "contained": [ {
        "resourceType": "Parameters",
        "id": "f2414059-355d-4c22-aa24-e0ec206888c2-parameters",
        "parameter": [ {
          "name": "subject",
          "valueString": "7ca93198-2a13-4266-aa39-82003e19b175"
        } ]
      } ],
      "extension": [ {
        "url": "http://hl7.org/fhir/StructureDefinition/cqf-inputParameters",
        "valueReference": {
          "reference": "#f2414059-355d-4c22-aa24-e0ec206888c2-parameters"
        }
      }, {
        "url": "http://hl7.org/fhir/us/cqfmeasures/StructureDefinition/cqfm-testCaseDescription",
        "valueMarkdown": "Patient 18yo w/ an Office Visit Encounter, Diabetes Condition ending 1/1 during the MP, and Retinopathy Condition 12/31 of the year before the MP, with an Eye Exam Observation 12/31 of the year before the MP."
      } ],
      "modifierExtension": [ {
        "url": "http://hl7.org/fhir/us/cqfmeasures/StructureDefinition/cqfm-isTestCase",
        "valueBoolean": true
      } ],
      "status": "complete",
      "type": "individual",
      "measure": "https://madie.cms.gov/Measure/CMS131FHIRDiabetesEyeExam",
      "period": {
        "start": "2026-01-01",
        "end": "2026-12-31"
      },
      "group": [ {
        "id": "Group_1",
        "population": [ {
          "id": "InitialPopulation_1",
          "code": {
            "coding": [ {
              "system": "http://terminology.hl7.org/CodeSystem/measure-population",
              "code": "initial-population",
              "display": "Initial Population"
            } ]
          },
          "count": 1
        }, {
          "id": "Denominator_1",
          "code": {
            "coding": [ {
              "system": "http://terminology.hl7.org/CodeSystem/measure-population",
              "code": "denominator",
              "display": "Denominator"
            } ]
          },
          "count": 1
        }, {
          "id": "DenominatorExclusion_1",
          "code": {
            "coding": [ {
              "system": "http://terminology.hl7.org/CodeSystem/measure-population",
              "code": "denominator-exclusion",
              "display": "Denominator Exclusion"
            } ]
          },
          "count": 0
        }, {
          "id": "Numerator_1",
          "code": {
            "coding": [ {
              "system": "http://terminology.hl7.org/CodeSystem/measure-population",
              "code": "numerator",
              "display": "Numerator"
            } ]
          },
          "count": 1
        } ],
        "measureScore": {
          "value": 1.0
        }
      } ],
      "evaluatedResource": [ {
        "reference": "Patient/7ca93198-2a13-4266-aa39-82003e19b175"
      }, {
        "reference": "Encounter/4b8030d9-f653-4921-b92c-0811ae536c58"
      }, {
        "reference": "Condition/59fdc0a7-ea7a-43e4-be76-4a67af4a55e2"
      }, {
        "reference": "Condition/59fdc0a7-ea7a-43e4-be76-4a67af4a55e2.1"
      }, {
        "reference": "Observation/13dee4ae-8b91-4272-953c-06b065695acf"
      } ]
    },
    "request": {
      "method": "PUT",
      "url": "MeasureReport/ce9ab1a9-0027-4b45-9355-8720d45ec922"
    }
  } ]
}