{
  "resourceType": "Bundle",
  "id": "63ec096cccb3770120fea178",
  "type": "transaction",
  "entry": [ {
    "fullUrl": "https://madie.cms.gov/Patient/dbb82192-d268-4e50-be41-8e371d33bacd",
    "resource": {
      "resourceType": "Patient",
      "id": "dbb82192-d268-4e50-be41-8e371d33bacd",
      "meta": {
        "profile": [ "http://hl7.org/fhir/us/qicore/StructureDefinition/qicore-patient" ]
      },
      "text": {
        "status": "generated",
        "div": "<div xmlns=\"http://www.w3.org/1999/xhtml\"><div class=\"hapiHeaderText\">LTE24before <b>CREATPASS </b></div><table class=\"hapiPropertyTable\"><tbody><tr><td>Identifier</td><td>f7053d5904ff43c96857e3f606716bbc2f99b5ab9c0c40826e6d339080f2947c</td></tr><tr><td>Date of birth</td><td><span>15 June 1956</span></td></tr></tbody></table></div>"
      },
      "extension": [ {
        "url": "http://hl7.org/fhir/us/core/StructureDefinition/us-core-race",
        "extension": [ {
          "url": "ombCategory",
          "valueCoding": {
            "system": "urn:oid:2.16.840.1.113883.6.238",
            "code": "2076-8",
            "display": "Native Hawaiian or Other Pacific Islander",
            "userSelected": true
          }
        }, {
          "url": "text",
          "valueString": "Native Hawaiian or Other Pacific Islander"
        } ]
      }, {
        "url": "http://hl7.org/fhir/us/core/StructureDefinition/us-core-ethnicity",
        "extension": [ {
          "url": "ombCategory",
          "valueCoding": {
            "system": "urn:oid:2.16.840.1.113883.6.238",
            "code": "2186-5",
            "display": "Not Hispanic or Latino",
            "userSelected": true
          }
        }, {
          "url": "text",
          "valueString": "Not Hispanic or Latino"
        } ]
      }, {
        "url": "http://hl7.org/fhir/us/core/StructureDefinition/us-core-sex",
        "valueCode": "248152002"
      } ],
      "identifier": [ {
        "type": {
          "coding": [ {
            "system": "http://terminology.hl7.org/CodeSystem/v2-0203",
            "code": "MR"
          } ]
        },
        "system": "https://bonnie-fhir.healthit.gov/",
        "value": "63ec096cccb3770120fea178"
      } ],
      "active": true,
      "name": [ {
        "use": "usual",
        "family": "CreatinineFail",
        "given": [ "CreatinineBeforeAndAfterStartOfEnc" ]
      } ],
      "gender": "female",
      "birthDate": "1961-07-01"
    },
    "request": {
      "method": "PUT",
      "url": "Patient/dbb82192-d268-4e50-be41-8e371d33bacd"
    }
  }, {
    "fullUrl": "https://madie.cms.gov/Encounter/73b35978-c036-4a21-b706-0a0db65d07ab",
    "resource": {
      "resourceType": "Encounter",
      "id": "73b35978-c036-4a21-b706-0a0db65d07ab",
      "meta": {
        "profile": [ "http://hl7.org/fhir/us/qicore/StructureDefinition/qicore-encounter" ]
      },
      "status": "finished",
      "class": {
        "system": "http://terminology.hl7.org/CodeSystem/v3-ActCode",
        "code": "ACUTE",
        "display": "Acute",
        "userSelected": true
      },
      "type": [ {
        "coding": [ {
          "system": "http://snomed.info/sct",
          "code": "183452005"
        } ]
      } ],
      "subject": {
        "reference": "Patient/dbb82192-d268-4e50-be41-8e371d33bacd"
      },
      "period": {
        "start": "2026-07-01T08:00:00.000+00:00",
        "end": "2026-07-05T08:15:00.000+00:00"
      },
      "length": {
        "value": 4,
        "unit": "days"
      }
    },
    "request": {
      "method": "PUT",
      "url": "Encounter/73b35978-c036-4a21-b706-0a0db65d07ab"
    }
  }, {
    "fullUrl": "https://madie.cms.gov/Coverage/31f39a9c-701c-4479-9ced-acaae3575711",
    "resource": {
      "resourceType": "Coverage",
      "id": "31f39a9c-701c-4479-9ced-acaae3575711",
      "meta": {
        "profile": [ "http://hl7.org/fhir/us/qicore/StructureDefinition/qicore-coverage" ]
      },
      "status": "active",
      "type": {
        "coding": [ {
          "system": "https://nahdo.org/sopt",
          "version": "1.0.1",
          "code": "1",
          "display": "MEDICARE",
          "userSelected": true
        } ]
      },
      "subscriberId": "AB9876",
      "beneficiary": {
        "reference": "Patient/dbb82192-d268-4e50-be41-8e371d33bacd"
      },
      "relationship": {
        "coding": [ {
          "system": "http://terminology.hl7.org/CodeSystem/subscriber-relationship",
          "code": "self"
        } ]
      },
      "payor": [ {
        "reference": "Organization/8e4fb804-c357-4106-a046-486c73c10089"
      } ]
    },
    "request": {
      "method": "PUT",
      "url": "Coverage/31f39a9c-701c-4479-9ced-acaae3575711"
    }
  }, {
    "fullUrl": "https://madie.cms.gov/Observation/8b2c17ff-ceea-458a-9fea-7f5c2b86577a",
    "resource": {
      "resourceType": "Observation",
      "id": "8b2c17ff-ceea-458a-9fea-7f5c2b86577a",
      "meta": {
        "profile": [ "http://hl7.org/fhir/us/qicore/StructureDefinition/qicore-observation-lab" ]
      },
      "status": "final",
      "category": [ {
        "coding": [ {
          "system": "http://terminology.hl7.org/CodeSystem/observation-category",
          "code": "laboratory",
          "display": "Laboratory",
          "userSelected": true
        } ]
      } ],
      "code": {
        "coding": [ {
          "system": "http://loinc.org",
          "version": "2.72",
          "code": "14682-9",
          "display": "Creatinine [Moles/volume] in Serum or Plasma",
          "userSelected": true
        } ]
      },
      "subject": {
        "reference": "Patient/dbb82192-d268-4e50-be41-8e371d33bacd"
      },
      "effectiveDateTime": "2026-07-01T07:59:00.000+00:00",
      "issued": "2026-07-01T07:59:00.000+00:00",
      "performer": [ {
        "reference": "Organization/Organization-1"
      } ],
      "valueQuantity": {
        "value": 1,
        "unit": "mg/dL",
        "system": "http://unitsofmeasure.org",
        "code": "mg/dL"
      }
    },
    "request": {
      "method": "PUT",
      "url": "Observation/8b2c17ff-ceea-458a-9fea-7f5c2b86577a"
    }
  }, {
    "fullUrl": "https://madie.cms.gov/Observation/c7bb9404-dc0d-46c5-b3fd-f419bfb48179",
    "resource": {
      "resourceType": "Observation",
      "id": "c7bb9404-dc0d-46c5-b3fd-f419bfb48179",
      "meta": {
        "profile": [ "http://hl7.org/fhir/us/qicore/StructureDefinition/qicore-observation-lab" ]
      },
      "status": "final",
      "category": [ {
        "coding": [ {
          "system": "http://terminology.hl7.org/CodeSystem/observation-category",
          "code": "laboratory",
          "display": "Laboratory",
          "userSelected": true
        } ]
      } ],
      "code": {
        "coding": [ {
          "system": "http://loinc.org",
          "version": "2.72",
          "code": "14682-9",
          "display": "Creatinine [Moles/volume] in Serum or Plasma",
          "userSelected": true
        } ]
      },
      "subject": {
        "reference": "Patient/dbb82192-d268-4e50-be41-8e371d33bacd"
      },
      "effectiveDateTime": "2026-07-03T08:00:00.000+00:00",
      "issued": "2026-07-03T08:00:00.000+00:00",
      "performer": [ {
        "reference": "Organization/Organization-1"
      } ],
      "valueQuantity": {
        "value": 2,
        "unit": "mg/dL",
        "system": "http://unitsofmeasure.org",
        "code": "mg/dL"
      }
    },
    "request": {
      "method": "PUT",
      "url": "Observation/c7bb9404-dc0d-46c5-b3fd-f419bfb48179"
    }
  }, {
    "fullUrl": "https://madie.cms.gov/Observation/fff89ef9-825b-4708-a2fa-86c0c80bf147",
    "resource": {
      "resourceType": "Observation",
      "id": "fff89ef9-825b-4708-a2fa-86c0c80bf147",
      "meta": {
        "profile": [ "http://hl7.org/fhir/us/qicore/StructureDefinition/qicore-observation-lab" ]
      },
      "status": "final",
      "category": [ {
        "coding": [ {
          "system": "http://terminology.hl7.org/CodeSystem/observation-category",
          "code": "laboratory",
          "display": "Laboratory",
          "userSelected": true
        } ]
      } ],
      "code": {
        "coding": [ {
          "system": "http://loinc.org",
          "version": "2.72",
          "code": "14682-9",
          "display": "Creatinine [Moles/volume] in Serum or Plasma",
          "userSelected": true
        } ]
      },
      "subject": {
        "reference": "Patient/dbb82192-d268-4e50-be41-8e371d33bacd"
      },
      "effectiveDateTime": "2026-07-04T20:00:00.000+00:00",
      "issued": "2026-07-04T20:00:00.000+00:00",
      "performer": [ {
        "reference": "Organization/Organization-1"
      } ],
      "valueQuantity": {
        "value": 3,
        "unit": "mg/dL",
        "system": "http://unitsofmeasure.org",
        "code": "mg/dL"
      }
    },
    "request": {
      "method": "PUT",
      "url": "Observation/fff89ef9-825b-4708-a2fa-86c0c80bf147"
    }
  }, {
    "fullUrl": "https://madie.cms.gov/Observation/404eba68-5b5d-4eae-806c-dd3b5eb6ef30",
    "resource": {
      "resourceType": "Observation",
      "id": "404eba68-5b5d-4eae-806c-dd3b5eb6ef30",
      "meta": {
        "profile": [ "http://hl7.org/fhir/us/qicore/StructureDefinition/qicore-observation-lab" ]
      },
      "status": "final",
      "category": [ {
        "coding": [ {
          "system": "http://terminology.hl7.org/CodeSystem/observation-category",
          "code": "laboratory",
          "display": "Laboratory",
          "userSelected": true
        } ]
      } ],
      "code": {
        "coding": [ {
          "system": "http://loinc.org",
          "version": "2.72",
          "code": "14682-9",
          "display": "Creatinine [Moles/volume] in Serum or Plasma",
          "userSelected": true
        } ]
      },
      "subject": {
        "reference": "Patient/dbb82192-d268-4e50-be41-8e371d33bacd"
      },
      "effectiveDateTime": "2026-07-05T08:00:00.000+00:00",
      "issued": "2026-07-05T08:00:00.000+00:00",
      "performer": [ {
        "reference": "Organization/Organization-1"
      } ],
      "valueQuantity": {
        "value": 4,
        "unit": "mg/dL",
        "system": "http://unitsofmeasure.org",
        "code": "mg/dL"
      }
    },
    "request": {
      "method": "PUT",
      "url": "Observation/404eba68-5b5d-4eae-806c-dd3b5eb6ef30"
    }
  }, {
    "fullUrl": "https://madie.cms.gov/Organization/8e4fb804-c357-4106-a046-486c73c10089",
    "resource": {
      "resourceType": "Organization",
      "id": "8e4fb804-c357-4106-a046-486c73c10089",
      "meta": {
        "profile": [ "http://hl7.org/fhir/us/qicore/StructureDefinition/qicore-organization" ]
      },
      "identifier": [ {
        "use": "temp",
        "system": "urn:oid:2.16.840.1.113883.4.4",
        "value": "21-3259825"
      } ],
      "active": true,
      "type": [ {
        "coding": [ {
          "system": "http://terminology.hl7.org/CodeSystem/organization-type",
          "code": "pay",
          "display": "Payer"
        } ]
      } ],
      "name": "Blue Cross Blue Shield of Texas",
      "telecom": [ {
        "system": "phone",
        "value": "(+1) 972-766-6900"
      } ],
      "address": [ {
        "use": "billing",
        "type": "postal",
        "line": [ "P.O. Box 660044" ],
        "city": "Dallas",
        "state": "TX",
        "postalCode": "75266-0044",
        "country": "USA"
      } ]
    },
    "request": {
      "method": "PUT",
      "url": "Organization/8e4fb804-c357-4106-a046-486c73c10089"
    }
  }, {
    "fullUrl": "https://madie.cms.gov/Practitioner/f55e7dfb-7e79-4d78-926a-80f41bab1b01",
    "resource": {
      "resourceType": "Practitioner",
      "id": "f55e7dfb-7e79-4d78-926a-80f41bab1b01",
      "meta": {
        "profile": [ "http://hl7.org/fhir/us/qicore/StructureDefinition/qicore-practitioner" ]
      },
      "identifier": [ {
        "system": "http://hl7.org/fhir/sid/us-npi",
        "value": "0723660813"
      } ],
      "name": [ {
        "family": "Evil",
        "prefix": [ "Dr" ]
      } ]
    },
    "request": {
      "method": "PUT",
      "url": "Practitioner/f55e7dfb-7e79-4d78-926a-80f41bab1b01"
    }
  }, {
    "fullUrl": "https://madie.cms.gov/MeasureReport/d4496988-5cff-4a87-9d93-82c89dbc64cf",
    "resource": {
      "resourceType": "MeasureReport",
      "id": "d4496988-5cff-4a87-9d93-82c89dbc64cf",
      "meta": {
        "profile": [ "http://hl7.org/fhir/us/cqfmeasures/StructureDefinition/test-case-cqfm" ]
      },
      "contained": [ {
        "resourceType": "Parameters",
        "id": "66ba4c0c-af2f-4747-a0d9-7f930a9c79b1-parameters",
        "parameter": [ {
          "name": "subject",
          "valueString": "dbb82192-d268-4e50-be41-8e371d33bacd"
        } ]
      } ],
      "extension": [ {
        "url": "http://hl7.org/fhir/StructureDefinition/cqf-inputParameters",
        "valueReference": {
          "reference": "#66ba4c0c-af2f-4747-a0d9-7f930a9c79b1-parameters"
        }
      }, {
        "url": "http://hl7.org/fhir/us/cqfmeasures/StructureDefinition/cqfm-testCaseDescription",
        "valueMarkdown": "Enc. started first day of MP (7/1), has Medicare. Creatinine tests performed 1 min before start of inpatient enc; other creatinine  labs followed for days 2-4; second creatinine test (first inpatient) counts"
      } ],
      "modifierExtension": [ {
        "url": "http://hl7.org/fhir/us/cqfmeasures/StructureDefinition/cqfm-isTestCase",
        "valueBoolean": true
      } ],
      "status": "complete",
      "type": "individual",
      "measure": "https://madie.cms.gov/Measure/CMSFHIR844HybridHospitalWideMortality",
      "period": {
        "start": "2026-07-01",
        "end": "2027-06-30"
      },
      "group": [ {
        "id": "Group_1",
        "population": [ {
          "id": "InitialPopulation_1",
          "code": {
            "coding": [ {
              "system": "http://terminology.hl7.org/CodeSystem/measure-population",
              "code": "initial-population",
              "display": "Initial Population"
            } ]
          },
          "count": 1
        } ],
        "measureScore": {
          "value": 0.0
        }
      } ],
      "evaluatedResource": [ {
        "reference": "Patient/dbb82192-d268-4e50-be41-8e371d33bacd"
      }, {
        "reference": "Encounter/73b35978-c036-4a21-b706-0a0db65d07ab"
      }, {
        "reference": "Coverage/31f39a9c-701c-4479-9ced-acaae3575711"
      }, {
        "reference": "Observation/8b2c17ff-ceea-458a-9fea-7f5c2b86577a"
      }, {
        "reference": "Observation/c7bb9404-dc0d-46c5-b3fd-f419bfb48179"
      }, {
        "reference": "Observation/fff89ef9-825b-4708-a2fa-86c0c80bf147"
      }, {
        "reference": "Observation/404eba68-5b5d-4eae-806c-dd3b5eb6ef30"
      }, {
        "reference": "Organization/8e4fb804-c357-4106-a046-486c73c10089"
      }, {
        "reference": "Practitioner/f55e7dfb-7e79-4d78-926a-80f41bab1b01"
      } ]
    },
    "request": {
      "method": "PUT",
      "url": "MeasureReport/d4496988-5cff-4a87-9d93-82c89dbc64cf"
    }
  } ]
}