{
  "resourceType": "Bundle",
  "id": "66328b236cea4124ba3e75a7",
  "type": "transaction",
  "entry": [ {
    "fullUrl": "https://madie.cms.gov/Patient/816296ad-a84a-48a9-89e4-38817c7e0c8b",
    "resource": {
      "resourceType": "Patient",
      "id": "816296ad-a84a-48a9-89e4-38817c7e0c8b",
      "meta": {
        "profile": [ "http://hl7.org/fhir/us/qicore/StructureDefinition/qicore-patient" ]
      },
      "extension": [ {
        "url": "http://hl7.org/fhir/us/core/StructureDefinition/us-core-race",
        "extension": [ {
          "url": "ombCategory",
          "valueCoding": {
            "system": "urn:oid:2.16.840.1.113883.6.238",
            "code": "2076-8",
            "display": "Native Hawaiian or Other Pacific Islander",
            "userSelected": true
          }
        }, {
          "url": "text",
          "valueString": "Native Hawaiian or Other Pacific Islander"
        } ]
      }, {
        "url": "http://hl7.org/fhir/us/core/StructureDefinition/us-core-ethnicity",
        "extension": [ {
          "url": "ombCategory",
          "valueCoding": {
            "system": "urn:oid:2.16.840.1.113883.6.238",
            "code": "2186-5",
            "display": "Not Hispanic or Latino",
            "userSelected": true
          }
        }, {
          "url": "text",
          "valueString": "Not Hispanic or Latino"
        } ]
      }, {
        "url": "http://hl7.org/fhir/us/core/StructureDefinition/us-core-sex",
        "valueCode": "248152002"
      } ],
      "identifier": [ {
        "type": {
          "coding": [ {
            "system": "http://terminology.hl7.org/CodeSystem/v2-0203",
            "code": "MR"
          } ]
        },
        "system": "https://bonnie-fhir.healthit.gov/",
        "value": "66328b236cea4124ba3e75a7"
      } ],
      "name": [ {
        "family": "DenExcl7Pass",
        "given": [ "DxStartsDuring90DayPeriodNoAbatementCardiac" ]
      } ],
      "gender": "female",
      "birthDate": "1985-12-02"
    },
    "request": {
      "method": "PUT",
      "url": "Patient/816296ad-a84a-48a9-89e4-38817c7e0c8b"
    }
  }, {
    "fullUrl": "https://madie.cms.gov/Encounter/5bbd3633-0093-46b8-b3c6-7ef1fe004a09",
    "resource": {
      "resourceType": "Encounter",
      "id": "5bbd3633-0093-46b8-b3c6-7ef1fe004a09",
      "meta": {
        "profile": [ "http://hl7.org/fhir/us/qicore/StructureDefinition/qicore-encounter" ]
      },
      "status": "finished",
      "class": {
        "system": "http://terminology.hl7.org/CodeSystem/v3-ActCode",
        "code": "EMER",
        "display": "emergency",
        "userSelected": true
      },
      "type": [ {
        "coding": [ {
          "system": "http://snomed.info/sct",
          "version": "2020-09",
          "code": "4525004",
          "display": "Emergency department patient visit (procedure)",
          "userSelected": true
        } ]
      } ],
      "subject": {
        "reference": "Patient/816296ad-a84a-48a9-89e4-38817c7e0c8b"
      },
      "period": {
        "start": "2026-10-09T08:05:00.000+00:00",
        "end": "2026-10-10T07:15:00.000+00:00"
      },
      "reasonReference": [ {
        "reference": "Condition/28a37bde-d3f3-4c17-8350-444e84576b07"
      } ]
    },
    "request": {
      "method": "PUT",
      "url": "Encounter/5bbd3633-0093-46b8-b3c6-7ef1fe004a09"
    }
  }, {
    "fullUrl": "https://madie.cms.gov/Condition/28a37bde-d3f3-4c17-8350-444e84576b07",
    "resource": {
      "resourceType": "Condition",
      "id": "28a37bde-d3f3-4c17-8350-444e84576b07",
      "meta": {
        "profile": [ "http://hl7.org/fhir/us/qicore/StructureDefinition/qicore-condition-problems-health-concerns" ]
      },
      "clinicalStatus": {
        "coding": [ {
          "system": "http://terminology.hl7.org/CodeSystem/condition-clinical",
          "code": "active",
          "display": "active",
          "userSelected": true
        } ]
      },
      "category": [ {
        "coding": [ {
          "system": "http://terminology.hl7.org/CodeSystem/condition-category",
          "code": "problem-list-item",
          "display": "Problem List Item",
          "userSelected": true
        } ]
      } ],
      "code": {
        "coding": [ {
          "system": "http://snomed.info/sct",
          "version": "2020-09",
          "code": "401303003",
          "display": "Acute ST segment elevation myocardial infarction (disorder)",
          "userSelected": true
        } ]
      },
      "subject": {
        "reference": "Patient/816296ad-a84a-48a9-89e4-38817c7e0c8b"
      },
      "onsetDateTime": "2026-10-09T08:30:00.000+00:00"
    },
    "request": {
      "method": "PUT",
      "url": "Condition/28a37bde-d3f3-4c17-8350-444e84576b07"
    }
  }, {
    "fullUrl": "https://madie.cms.gov/Condition/db8607ae-1e27-4190-9969-19e05d53bc02",
    "resource": {
      "resourceType": "Condition",
      "id": "db8607ae-1e27-4190-9969-19e05d53bc02",
      "meta": {
        "profile": [ "http://hl7.org/fhir/us/qicore/StructureDefinition/qicore-condition-problems-health-concerns" ]
      },
      "clinicalStatus": {
        "coding": [ {
          "system": "http://terminology.hl7.org/CodeSystem/condition-clinical",
          "code": "active",
          "display": "active",
          "userSelected": true
        } ]
      },
      "category": [ {
        "coding": [ {
          "system": "http://terminology.hl7.org/CodeSystem/condition-category",
          "code": "problem-list-item",
          "display": "Problem List Item",
          "userSelected": true
        } ]
      } ],
      "code": {
        "coding": [ {
          "system": "http://snomed.info/sct",
          "version": "2020-09",
          "code": "405806007",
          "display": "On examination - collapse -cardiac arrest (disorder)",
          "userSelected": true
        } ]
      },
      "subject": {
        "reference": "Patient/816296ad-a84a-48a9-89e4-38817c7e0c8b"
      },
      "onsetDateTime": "2026-10-09T06:00:00.000+00:00"
    },
    "request": {
      "method": "PUT",
      "url": "Condition/db8607ae-1e27-4190-9969-19e05d53bc02"
    }
  }, {
    "fullUrl": "https://madie.cms.gov/Coverage/c437e9dd-a058-47c3-ba9f-eeb1b4797b90",
    "resource": {
      "resourceType": "Coverage",
      "id": "c437e9dd-a058-47c3-ba9f-eeb1b4797b90",
      "meta": {
        "profile": [ "http://hl7.org/fhir/us/qicore/StructureDefinition/qicore-coverage" ]
      },
      "identifier": [ {
        "type": {
          "coding": [ {
            "system": "http://terminology.hl7.org/CodeSystem/v2-0203",
            "code": "MB"
          } ]
        }
      } ],
      "status": "active",
      "beneficiary": {
        "reference": "Patient/816296ad-a84a-48a9-89e4-38817c7e0c8b"
      },
      "relationship": {
        "coding": [ {
          "system": "http://terminology.hl7.org/CodeSystem/subscriber-relationship",
          "code": "self"
        } ]
      },
      "payor": [ {
        "reference": "Organization/fa1b4f71-970e-4ef3-ad1b-11a18524296d"
      } ]
    },
    "request": {
      "method": "PUT",
      "url": "Coverage/c437e9dd-a058-47c3-ba9f-eeb1b4797b90"
    }
  }, {
    "fullUrl": "https://madie.cms.gov/Organization/fa1b4f71-970e-4ef3-ad1b-11a18524296d",
    "resource": {
      "resourceType": "Organization",
      "id": "fa1b4f71-970e-4ef3-ad1b-11a18524296d",
      "meta": {
        "profile": [ "http://hl7.org/fhir/us/qicore/StructureDefinition/qicore-organization" ]
      },
      "identifier": [ {
        "use": "temp",
        "system": "urn:oid:2.16.840.1.113883.4.4",
        "value": "21-3259825"
      } ],
      "active": true,
      "type": [ {
        "coding": [ {
          "system": "http://terminology.hl7.org/CodeSystem/organization-type",
          "code": "pay",
          "display": "Payer"
        } ]
      } ],
      "name": "Blue Cross Blue Shield of Texas",
      "telecom": [ {
        "system": "phone",
        "value": "(+1) 972-766-6900"
      } ],
      "address": [ {
        "use": "billing",
        "type": "postal",
        "line": [ "P.O. Box 660044" ],
        "city": "Dallas",
        "state": "TX",
        "postalCode": "75266-0044",
        "country": "USA"
      } ]
    },
    "request": {
      "method": "PUT",
      "url": "Organization/fa1b4f71-970e-4ef3-ad1b-11a18524296d"
    }
  }, {
    "fullUrl": "https://madie.cms.gov/Practitioner/9d807e9a-5e10-4c62-82a9-538475848058",
    "resource": {
      "resourceType": "Practitioner",
      "id": "9d807e9a-5e10-4c62-82a9-538475848058",
      "meta": {
        "profile": [ "http://hl7.org/fhir/us/qicore/StructureDefinition/qicore-practitioner" ]
      },
      "identifier": [ {
        "system": "http://hl7.org/fhir/sid/us-npi",
        "value": "9999999896"
      } ],
      "name": [ {
        "family": "Evil",
        "prefix": [ "Dr" ]
      } ]
    },
    "request": {
      "method": "PUT",
      "url": "Practitioner/9d807e9a-5e10-4c62-82a9-538475848058"
    }
  }, {
    "fullUrl": "https://madie.cms.gov/MeasureReport/323b0a71-7312-4667-b102-ec030f2406e2",
    "resource": {
      "resourceType": "MeasureReport",
      "id": "323b0a71-7312-4667-b102-ec030f2406e2",
      "meta": {
        "profile": [ "http://hl7.org/fhir/us/cqfmeasures/StructureDefinition/test-case-cqfm" ]
      },
      "contained": [ {
        "resourceType": "Parameters",
        "id": "42f5ebea-a265-4614-ba2e-3d5051cb7cec-parameters",
        "parameter": [ {
          "name": "subject",
          "valueString": "816296ad-a84a-48a9-89e4-38817c7e0c8b"
        } ]
      } ],
      "extension": [ {
        "url": "http://hl7.org/fhir/StructureDefinition/cqf-inputParameters",
        "valueReference": {
          "reference": "#42f5ebea-a265-4614-ba2e-3d5051cb7cec-parameters"
        }
      }, {
        "url": "http://hl7.org/fhir/us/cqfmeasures/StructureDefinition/cqfm-testCaseDescription",
        "valueMarkdown": "Patient has STEMI diagnosis during ED Encounter with Cardiopulmonary arrest diagnosis within 24 hours before and no abatement."
      } ],
      "modifierExtension": [ {
        "url": "http://hl7.org/fhir/us/cqfmeasures/StructureDefinition/cqfm-isTestCase",
        "valueBoolean": true
      } ],
      "status": "complete",
      "type": "individual",
      "measure": "https://madie.cms.gov/Measure/CMS996FHIRAptTxforSTEMI",
      "period": {
        "start": "2026-01-01",
        "end": "2026-12-31"
      },
      "group": [ {
        "id": "Group_1",
        "population": [ {
          "id": "InitialPopulation_1",
          "code": {
            "coding": [ {
              "system": "http://terminology.hl7.org/CodeSystem/measure-population",
              "code": "initial-population",
              "display": "Initial Population"
            } ]
          },
          "count": 1
        }, {
          "id": "Denominator_1",
          "code": {
            "coding": [ {
              "system": "http://terminology.hl7.org/CodeSystem/measure-population",
              "code": "denominator",
              "display": "Denominator"
            } ]
          },
          "count": 1
        }, {
          "id": "DenominatorExclusion_1",
          "code": {
            "coding": [ {
              "system": "http://terminology.hl7.org/CodeSystem/measure-population",
              "code": "denominator-exclusion",
              "display": "Denominator Exclusion"
            } ]
          },
          "count": 1
        }, {
          "id": "Numerator_1",
          "code": {
            "coding": [ {
              "system": "http://terminology.hl7.org/CodeSystem/measure-population",
              "code": "numerator",
              "display": "Numerator"
            } ]
          },
          "count": 0
        }, {
          "id": "DenominatorException_1",
          "code": {
            "coding": [ {
              "system": "http://terminology.hl7.org/CodeSystem/measure-population",
              "code": "denominator-exception",
              "display": "Denominator Exception"
            } ]
          },
          "count": 0
        } ],
        "measureScore": {
          "value": 0.0
        }
      } ],
      "evaluatedResource": [ {
        "reference": "Patient/816296ad-a84a-48a9-89e4-38817c7e0c8b"
      }, {
        "reference": "Encounter/5bbd3633-0093-46b8-b3c6-7ef1fe004a09"
      }, {
        "reference": "Condition/28a37bde-d3f3-4c17-8350-444e84576b07"
      }, {
        "reference": "Condition/db8607ae-1e27-4190-9969-19e05d53bc02"
      }, {
        "reference": "Coverage/c437e9dd-a058-47c3-ba9f-eeb1b4797b90"
      }, {
        "reference": "Organization/fa1b4f71-970e-4ef3-ad1b-11a18524296d"
      }, {
        "reference": "Practitioner/9d807e9a-5e10-4c62-82a9-538475848058"
      } ]
    },
    "request": {
      "method": "PUT",
      "url": "MeasureReport/323b0a71-7312-4667-b102-ec030f2406e2"
    }
  } ]
}