{
  "resourceType": "Bundle",
  "id": "60f82c2d98086b570510e25a",
  "type": "transaction",
  "entry": [ {
    "fullUrl": "https://madie.cms.gov/Patient/f25baf5f-2980-416c-a8ef-3b9e42d751c3",
    "resource": {
      "resourceType": "Patient",
      "id": "f25baf5f-2980-416c-a8ef-3b9e42d751c3",
      "meta": {
        "profile": [ "http://hl7.org/fhir/us/qicore/StructureDefinition/qicore-patient" ]
      },
      "text": {
        "status": "generated",
        "div": "<div xmlns=\"http://www.w3.org/1999/xhtml\"><div class=\"hapiHeaderText\">MedAntithromboticStart_gt1dayDuringEncIP <b>NUMERFAIL </b></div><table class=\"hapiPropertyTable\"><tbody><tr><td>Identifier</td><td>17d9cc11aebb5947545ea131f50a8a07</td></tr><tr><td>Date of birth</td><td><span>26 September 1975</span></td></tr></tbody></table></div>"
      },
      "extension": [ {
        "url": "http://hl7.org/fhir/us/core/StructureDefinition/us-core-race",
        "extension": [ {
          "url": "ombCategory",
          "valueCoding": {
            "system": "urn:oid:2.16.840.1.113883.6.238",
            "code": "2054-5",
            "display": "Black or African American",
            "userSelected": true
          }
        }, {
          "url": "text",
          "valueString": "Black or African American"
        } ]
      }, {
        "url": "http://hl7.org/fhir/us/core/StructureDefinition/us-core-ethnicity",
        "extension": [ {
          "url": "ombCategory",
          "valueCoding": {
            "system": "urn:oid:2.16.840.1.113883.6.238",
            "code": "2186-5",
            "display": "Not Hispanic or Latino",
            "userSelected": true
          }
        }, {
          "url": "text",
          "valueString": "Not Hispanic or Latino"
        } ]
      } ],
      "identifier": [ {
        "type": {
          "coding": [ {
            "system": "http://terminology.hl7.org/CodeSystem/v2-0203",
            "code": "MR"
          } ]
        },
        "system": "https://bonnie-fhir.healthit.gov/",
        "value": "60f82c2d98086b570510e25a"
      } ],
      "active": true,
      "name": [ {
        "use": "usual",
        "family": "NUMERFail",
        "given": [ "MedAntithromboticStart_gt1dayDuringEncIP" ]
      } ],
      "gender": "female",
      "birthDate": "1976-09-26"
    },
    "request": {
      "method": "PUT",
      "url": "Patient/f25baf5f-2980-416c-a8ef-3b9e42d751c3"
    }
  }, {
    "fullUrl": "https://madie.cms.gov/Encounter/ccb5ccf0-cdb9-402e-9d6c-f01b8057e63a",
    "resource": {
      "resourceType": "Encounter",
      "id": "ccb5ccf0-cdb9-402e-9d6c-f01b8057e63a",
      "meta": {
        "profile": [ "http://hl7.org/fhir/us/qicore/StructureDefinition/qicore-encounter" ]
      },
      "status": "finished",
      "class": {
        "system": "http://terminology.hl7.org/CodeSystem/v3-ActCode",
        "code": "IMP",
        "display": "inpatient encounter"
      },
      "type": [ {
        "coding": [ {
          "system": "http://snomed.info/sct",
          "code": "32485007"
        } ]
      } ],
      "subject": {
        "reference": "Patient/f25baf5f-2980-416c-a8ef-3b9e42d751c3"
      },
      "period": {
        "start": "2026-10-10T09:00:00.000+00:00",
        "end": "2026-10-12T11:15:00.000+00:00"
      },
      "length": {
        "value": 2,
        "unit": "days"
      },
      "reasonReference": [ {
        "reference": "Condition/0000cdd8-5ccf-4fee-b759-e8a759a8adf6"
      } ]
    },
    "request": {
      "method": "PUT",
      "url": "Encounter/ccb5ccf0-cdb9-402e-9d6c-f01b8057e63a"
    }
  }, {
    "fullUrl": "https://madie.cms.gov/claim/5ca62962b8484628b8de1ec5",
    "resource": {
      "resourceType": "Claim",
      "id": "5ca62962b8484628b8de1ec5",
      "meta": {
        "profile": [ "http://hl7.org/fhir/us/qicore/StructureDefinition/qicore-claim" ]
      },
      "status": "active",
      "type": {
        "coding": [ {
          "system": "http://terminology.hl7.org/CodeSystem/claim-type",
          "code": "institutional"
        } ]
      },
      "use": "claim",
      "patient": {
        "reference": "Patient/d170a0a8-b5ad-4303-b6df-e304dd5f92ad"
      },
      "created": "2026-12-01",
      "provider": {
        "reference": "Practitioner/6c2806fa-7922-4a42-ba83-27b5a89e1ef8"
      },
      "priority": {
        "coding": [ {
          "system": "http://terminology.hl7.org/CodeSystem/processpriority",
          "code": "normal"
        } ]
      },
      "diagnosis": [ {
        "sequence": 1,
        "diagnosisCodeableConcept": {
          "coding": [ {
            "system": "http://hl7.org/fhir/sid/icd-10-cm",
            "code": "I63.00"
          } ]
        },
        "type": [ {
          "coding": [ {
            "system": "http://terminology.hl7.org/CodeSystem/ex-diagnosistype",
            "code": "principal"
          } ]
        } ]
      } ],
      "insurance": [ {
        "sequence": 1,
        "focal": true,
        "coverage": {
          "reference": "Coverage/5fa041661c76ba66d9959367"
        }
      } ],
      "item": [ {
        "sequence": 1,
        "diagnosisSequence": [ 1 ],
        "productOrService": {
          "coding": [ {
            "system": "http://terminology.hl7.org/CodeSystem/ex-USCLS",
            "code": "99555"
          } ]
        },
        "encounter": [ {
          "reference": "Encounter/ccb5ccf0-cdb9-402e-9d6c-f01b8057e63a"
        } ]
      } ]
    },
    "request": {
      "method": "PUT",
      "url": "Claim/5ca62962b8484628b8de1ec5"
    }
  }, {
    "fullUrl": "https://madie.cms.gov/MedicationAdministration/ac698f2e-d9bb-46cb-9cbf-383855e4300a",
    "resource": {
      "resourceType": "MedicationAdministration",
      "id": "ac698f2e-d9bb-46cb-9cbf-383855e4300a",
      "meta": {
        "profile": [ "http://hl7.org/fhir/us/qicore/StructureDefinition/qicore-medicationadministration" ]
      },
      "status": "completed",
      "medicationCodeableConcept": {
        "coding": [ {
          "system": "http://www.nlm.nih.gov/research/umls/rxnorm",
          "code": "198466"
        } ]
      },
      "subject": {
        "reference": "Patient/f25baf5f-2980-416c-a8ef-3b9e42d751c3"
      },
      "effectivePeriod": {
        "start": "2026-10-12T00:00:00.000+00:00"
      }
    },
    "request": {
      "method": "PUT",
      "url": "MedicationAdministration/ac698f2e-d9bb-46cb-9cbf-383855e4300a"
    }
  }, {
    "fullUrl": "https://madie.cms.gov/Coverage/ded37c94-79fb-42eb-a251-2643854b1e96",
    "resource": {
      "resourceType": "Coverage",
      "id": "ded37c94-79fb-42eb-a251-2643854b1e96",
      "status": "active",
      "subscriberId": "523435",
      "beneficiary": {
        "reference": "Patient/f25baf5f-2980-416c-a8ef-3b9e42d751c3"
      },
      "relationship": {
        "coding": [ {
          "system": "http://terminology.hl7.org/CodeSystem/subscriber-relationship",
          "code": "self"
        } ]
      },
      "period": {
        "start": "1976-09-26T08:00:00.000+00:00"
      },
      "payor": [ {
        "reference": "Organization/532bbe52-d3ea-4def-9839-6255a868d17a"
      } ]
    },
    "request": {
      "method": "PUT",
      "url": "Coverage/ded37c94-79fb-42eb-a251-2643854b1e96"
    }
  }, {
    "fullUrl": "https://madie.cms.gov/Condition/0000cdd8-5ccf-4fee-b759-e8a759a8adf6",
    "resource": {
      "resourceType": "Condition",
      "id": "0000cdd8-5ccf-4fee-b759-e8a759a8adf6",
      "meta": {
        "profile": [ "http://hl7.org/fhir/us/qicore/StructureDefinition/qicore-condition-problems-health-concerns" ]
      },
      "clinicalStatus": {
        "coding": [ {
          "system": "http://terminology.hl7.org/CodeSystem/condition-clinical",
          "code": "active"
        } ]
      },
      "verificationStatus": {
        "coding": [ {
          "system": "http://terminology.hl7.org/CodeSystem/condition-ver-status",
          "code": "confirmed"
        } ]
      },
      "category": [ {
        "coding": [ {
          "system": "http://terminology.hl7.org/CodeSystem/condition-category",
          "code": "encounter-diagnosis",
          "display": "Encounter Diagnosis"
        } ]
      } ],
      "code": {
        "coding": [ {
          "system": "http://snomed.info/sct",
          "version": "2020-09",
          "code": "111297002",
          "display": "Nonparalytic stroke (disorder)",
          "userSelected": true
        } ]
      },
      "subject": {
        "reference": "Patient/f25baf5f-2980-416c-a8ef-3b9e42d751c3"
      },
      "recordedDate": "2026-08-16T08:00:00.000+00:00"
    },
    "request": {
      "method": "PUT",
      "url": "Condition/0000cdd8-5ccf-4fee-b759-e8a759a8adf6"
    }
  }, {
    "fullUrl": "https://madie.cms.gov/Organization/532bbe52-d3ea-4def-9839-6255a868d17a",
    "resource": {
      "resourceType": "Organization",
      "id": "532bbe52-d3ea-4def-9839-6255a868d17a",
      "meta": {
        "profile": [ "http://hl7.org/fhir/us/qicore/StructureDefinition/qicore-organization" ]
      },
      "identifier": [ {
        "use": "temp",
        "system": "urn:oid:2.16.840.1.113883.4.4",
        "value": "21-3259825"
      } ],
      "active": true,
      "type": [ {
        "coding": [ {
          "system": "http://terminology.hl7.org/CodeSystem/organization-type",
          "code": "pay",
          "display": "Payer"
        } ]
      } ],
      "name": "Blue Cross Blue Shield of Texas",
      "telecom": [ {
        "system": "phone",
        "value": "(+1) 972-766-6900"
      } ],
      "address": [ {
        "use": "billing",
        "type": "postal",
        "line": [ "P.O. Box 660044" ],
        "city": "Dallas",
        "state": "TX",
        "postalCode": "75266-0044",
        "country": "USA"
      } ]
    },
    "request": {
      "method": "PUT",
      "url": "Organization/532bbe52-d3ea-4def-9839-6255a868d17a"
    }
  }, {
    "fullUrl": "https://madie.cms.gov/Practitioner/6c2806fa-7922-4a42-ba83-27b5a89e1ef8",
    "resource": {
      "resourceType": "Practitioner",
      "id": "6c2806fa-7922-4a42-ba83-27b5a89e1ef8",
      "meta": {
        "profile": [ "http://hl7.org/fhir/us/qicore/StructureDefinition/qicore-practitioner" ]
      },
      "identifier": [ {
        "system": "http://hl7.org/fhir/sid/us-npi",
        "value": "9999999896"
      } ],
      "name": [ {
        "family": "Evil",
        "prefix": [ "Dr" ]
      } ]
    },
    "request": {
      "method": "PUT",
      "url": "Practitioner/6c2806fa-7922-4a42-ba83-27b5a89e1ef8"
    }
  }, {
    "fullUrl": "https://madie.cms.gov/MeasureReport/266c25a4-4223-491b-84a3-b89ed4a70165",
    "resource": {
      "resourceType": "MeasureReport",
      "id": "266c25a4-4223-491b-84a3-b89ed4a70165",
      "meta": {
        "profile": [ "http://hl7.org/fhir/us/cqfmeasures/StructureDefinition/test-case-cqfm" ]
      },
      "contained": [ {
        "resourceType": "Parameters",
        "id": "65543c2e-a8ba-41c6-b2f4-6440f019c02a-parameters",
        "parameter": [ {
          "name": "subject",
          "valueString": "f25baf5f-2980-416c-a8ef-3b9e42d751c3"
        } ]
      } ],
      "extension": [ {
        "url": "http://hl7.org/fhir/StructureDefinition/cqf-inputParameters",
        "valueReference": {
          "reference": "#65543c2e-a8ba-41c6-b2f4-6440f019c02a-parameters"
        }
      }, {
        "url": "http://hl7.org/fhir/us/cqfmeasures/StructureDefinition/cqfm-testCaseDescription",
        "valueMarkdown": "\"Patient receives antithrombotic in = 2 days after IP encounter starts.\nglobal.\"\"Hospitalization\"\" =(IP)\"\n"
      } ],
      "modifierExtension": [ {
        "url": "http://hl7.org/fhir/us/cqfmeasures/StructureDefinition/cqfm-isTestCase",
        "valueBoolean": true
      } ],
      "status": "complete",
      "type": "individual",
      "measure": "https://madie.cms.gov/Measure/CMS72FHIRSTKAntithromboticDay2",
      "period": {
        "start": "2026-01-01",
        "end": "2026-12-31"
      },
      "group": [ {
        "id": "Group_1",
        "population": [ {
          "id": "InitialPopulation_1",
          "code": {
            "coding": [ {
              "system": "http://terminology.hl7.org/CodeSystem/measure-population",
              "code": "initial-population",
              "display": "Initial Population"
            } ]
          },
          "count": 1
        }, {
          "id": "Denominator_1",
          "code": {
            "coding": [ {
              "system": "http://terminology.hl7.org/CodeSystem/measure-population",
              "code": "denominator",
              "display": "Denominator"
            } ]
          },
          "count": 1
        }, {
          "id": "DenominatorExclusion_1",
          "code": {
            "coding": [ {
              "system": "http://terminology.hl7.org/CodeSystem/measure-population",
              "code": "denominator-exclusion",
              "display": "Denominator Exclusion"
            } ]
          },
          "count": 0
        }, {
          "id": "Numerator_1",
          "code": {
            "coding": [ {
              "system": "http://terminology.hl7.org/CodeSystem/measure-population",
              "code": "numerator",
              "display": "Numerator"
            } ]
          },
          "count": 0
        }, {
          "id": "DenominatorException_1",
          "code": {
            "coding": [ {
              "system": "http://terminology.hl7.org/CodeSystem/measure-population",
              "code": "denominator-exception",
              "display": "Denominator Exception"
            } ]
          },
          "count": 0
        } ],
        "measureScore": {
          "value": 0.0
        }
      } ],
      "evaluatedResource": [ {
        "reference": "Patient/f25baf5f-2980-416c-a8ef-3b9e42d751c3"
      }, {
        "reference": "Encounter/ccb5ccf0-cdb9-402e-9d6c-f01b8057e63a"
      }, {
        "reference": "Claim/5ca62962b8484628b8de1ec5"
      }, {
        "reference": "MedicationAdministration/ac698f2e-d9bb-46cb-9cbf-383855e4300a"
      }, {
        "reference": "Coverage/ded37c94-79fb-42eb-a251-2643854b1e96"
      }, {
        "reference": "Condition/0000cdd8-5ccf-4fee-b759-e8a759a8adf6"
      }, {
        "reference": "Organization/532bbe52-d3ea-4def-9839-6255a868d17a"
      }, {
        "reference": "Practitioner/6c2806fa-7922-4a42-ba83-27b5a89e1ef8"
      } ]
    },
    "request": {
      "method": "PUT",
      "url": "MeasureReport/266c25a4-4223-491b-84a3-b89ed4a70165"
    }
  } ]
}