{
  "resourceType": "Bundle",
  "id": "4613103634163131",
  "type": "collection",
  "entry": [ {
    "fullUrl": "https://madie.cms.gov/Patient/38ed8b42-1631-4673-aa53-6d2a4db163f3",
    "resource": {
      "resourceType": "Patient",
      "id": "38ed8b42-1631-4673-aa53-6d2a4db163f3",
      "meta": {
        "profile": [ "http://hl7.org/fhir/us/qicore/StructureDefinition/qicore-patient" ]
      },
      "extension": [ {
        "url": "http://hl7.org/fhir/us/core/StructureDefinition/us-core-race",
        "extension": [ {
          "url": "ombCategory",
          "valueCoding": {
            "system": "urn:oid:2.16.840.1.113883.6.238",
            "code": "2106-3",
            "display": "White"
          }
        }, {
          "url": "detailed",
          "valueCoding": {
            "system": "urn:oid:2.16.840.1.113883.6.238",
            "code": "2036-2",
            "display": "Filipino"
          }
        }, {
          "url": "text",
          "valueString": "mixed"
        } ]
      }, {
        "url": "http://hl7.org/fhir/us/core/StructureDefinition/us-core-ethnicity",
        "extension": [ {
          "url": "ombCategory",
          "valueCoding": {
            "system": "urn:oid:2.16.840.1.113883.6.238",
            "code": "2135-2",
            "display": "Hispanic or Latino"
          }
        }, {
          "url": "detailed",
          "valueCoding": {
            "system": "urn:oid:2.16.840.1.113883.6.238",
            "code": "2148-5",
            "display": "Mexican"
          }
        }, {
          "url": "text",
          "valueString": "Hispanic or Latino"
        } ]
      } ],
      "identifier": [ {
        "type": {
          "coding": [ {
            "system": "http://terminology.hl7.org/CodeSystem/v2-0203",
            "code": "MR"
          } ]
        },
        "system": "https://bonnie-fhir.healthit.gov/",
        "value": "7843135463165262"
      } ],
      "name": [ {
        "family": "DENEXPass",
        "given": [ "ImmunosuppresiveMedicationsB4BCS" ]
      } ],
      "gender": "female",
      "birthDate": "1947-11-03"
    }
  }, {
    "fullUrl": "https://madie.cms.gov/Encounter/3b1b936a-b442-4455-91ad-6973f96f9788",
    "resource": {
      "resourceType": "Encounter",
      "id": "3b1b936a-b442-4455-91ad-6973f96f9788",
      "meta": {
        "profile": [ "http://hl7.org/fhir/us/qicore/StructureDefinition/qicore-encounter" ]
      },
      "status": "finished",
      "class": {
        "system": "http://terminology.hl7.org/CodeSystem/v3-ActCode",
        "code": "AMB",
        "display": "ambulatory"
      },
      "type": [ {
        "coding": [ {
          "system": "http://snomed.info/sct",
          "version": "http://snomed.info/sct/731000124108/version/20240301",
          "code": "185463005",
          "display": "Visit out of hours (procedure)"
        } ]
      } ],
      "subject": {
        "reference": "Patient/38ed8b42-1631-4673-aa53-6d2a4db163f3"
      },
      "period": {
        "start": "2026-04-06T08:00:00.000+00:00",
        "end": "2026-04-06T09:15:00.000+00:00"
      }
    }
  }, {
    "fullUrl": "https://madie.cms.gov/Condition/64ecd82a-3a81-47fb-88bb-2f90b78a6bf4",
    "resource": {
      "resourceType": "Condition",
      "id": "64ecd82a-3a81-47fb-88bb-2f90b78a6bf4",
      "meta": {
        "profile": [ "http://hl7.org/fhir/us/qicore/StructureDefinition/qicore-condition-problems-health-concerns" ]
      },
      "clinicalStatus": {
        "coding": [ {
          "system": "http://terminology.hl7.org/CodeSystem/condition-clinical",
          "code": "active",
          "display": "Active"
        } ]
      },
      "verificationStatus": {
        "coding": [ {
          "system": "http://terminology.hl7.org/CodeSystem/condition-ver-status",
          "code": "confirmed",
          "display": "Confirmed"
        } ]
      },
      "category": [ {
        "coding": [ {
          "system": "http://terminology.hl7.org/CodeSystem/condition-category",
          "code": "problem-list-item",
          "display": "Problem List Item"
        } ]
      } ],
      "code": {
        "coding": [ {
          "system": "http://hl7.org/fhir/sid/icd-10-cm",
          "version": "2024",
          "code": "C67.1",
          "display": "Malignant neoplasm of dome of bladder"
        } ]
      },
      "subject": {
        "reference": "Patient/38ed8b42-1631-4673-aa53-6d2a4db163f3"
      },
      "onsetPeriod": {
        "start": "2026-04-06T08:00:00.000+00:00"
      }
    }
  }, {
    "fullUrl": "https://madie.cms.gov/MedicationRequest/52c70221-7532-45f3-8d7f-a4f5f2a690fd",
    "resource": {
      "resourceType": "MedicationRequest",
      "id": "52c70221-7532-45f3-8d7f-a4f5f2a690fd",
      "meta": {
        "profile": [ "http://hl7.org/fhir/us/qicore/StructureDefinition/qicore-medicationrequest" ]
      },
      "status": "completed",
      "intent": "order",
      "medicationCodeableConcept": {
        "coding": [ {
          "system": "http://www.nlm.nih.gov/research/umls/rxnorm",
          "version": "06052023",
          "code": "1303125",
          "display": "prednisone 1 MG Delayed Release Oral Tablet"
        } ]
      },
      "subject": {
        "reference": "Patient/38ed8b42-1631-4673-aa53-6d2a4db163f3"
      },
      "authoredOn": "2026-03-03T14:00:00.000+00:00",
      "requester": {
        "reference": "Practitioner/1351644115135131"
      },
      "dosageInstruction": [ {
        "timing": {
          "repeat": {
            "boundsPeriod": {
              "start": "2026-03-03T14:00:00.000+00:00",
              "end": "2026-12-03T14:00:00.000+00:00"
            }
          }
        }
      } ]
    }
  }, {
    "fullUrl": "https://madie.cms.gov/Procedure/43d64577-1e25-46a9-86b5-94f0c1472935",
    "resource": {
      "resourceType": "Procedure",
      "id": "43d64577-1e25-46a9-86b5-94f0c1472935",
      "meta": {
        "profile": [ "http://hl7.org/fhir/us/qicore/StructureDefinition/qicore-procedure" ]
      },
      "extension": [ {
        "url": "http://hl7.org/fhir/us/qicore/StructureDefinition/qicore-recorded",
        "valueDateTime": "2026-04-06T08:00:00.000+00:00"
      } ],
      "status": "completed",
      "code": {
        "coding": [ {
          "system": "http://snomed.info/sct",
          "version": "http://snomed.info/sct/731000124108/version/20250301",
          "code": "254292007",
          "display": "Tumor staging"
        } ]
      },
      "subject": {
        "reference": "Patient/38ed8b42-1631-4673-aa53-6d2a4db163f3"
      },
      "performedDateTime": "2026-04-06T08:00:00.000+00:00"
    }
  }, {
    "fullUrl": "https://madie.cms.gov/Coverage/2c66814d-0bd1-4550-9fc7-88d63b35b9c9",
    "resource": {
      "resourceType": "Coverage",
      "id": "2c66814d-0bd1-4550-9fc7-88d63b35b9c9",
      "meta": {
        "profile": [ "http://hl7.org/fhir/us/qicore/StructureDefinition/qicore-coverage" ]
      },
      "status": "active",
      "type": {
        "coding": [ {
          "system": "https://nahdo.org/sopt",
          "code": "59",
          "display": "Other Private Insurance"
        } ]
      },
      "subscriberId": "123456",
      "beneficiary": {
        "reference": "Patient/38ed8b42-1631-4673-aa53-6d2a4db163f3"
      },
      "relationship": {
        "coding": [ {
          "system": "http://terminology.hl7.org/CodeSystem/subscriber-relationship",
          "code": "self",
          "display": "Self"
        } ]
      },
      "period": {
        "start": "2025-05-01",
        "end": "2026-04-27"
      },
      "payor": [ {
        "reference": "Organization/038f6f04-59be-49e6-b282-efe0ea740e9f"
      } ]
    }
  }, {
    "fullUrl": "https://madie.cms.gov/Organization/038f6f04-59be-49e6-b282-efe0ea740e9f",
    "resource": {
      "resourceType": "Organization",
      "id": "038f6f04-59be-49e6-b282-efe0ea740e9f",
      "meta": {
        "profile": [ "http://hl7.org/fhir/us/qicore/StructureDefinition/qicore-organization" ]
      },
      "identifier": [ {
        "use": "temp",
        "system": "urn:oid:2.16.840.1.113883.4.4",
        "value": "21-3259825"
      } ],
      "active": true,
      "type": [ {
        "coding": [ {
          "system": "http://terminology.hl7.org/CodeSystem/organization-type",
          "code": "pay",
          "display": "Payer"
        } ]
      } ],
      "name": "Blue Cross Blue Shield of Texas",
      "telecom": [ {
        "system": "phone",
        "value": "(+1) 972-766-6900"
      } ],
      "address": [ {
        "use": "billing",
        "type": "postal",
        "line": [ "P.O. Box 660044" ],
        "city": "Dallas",
        "state": "TX",
        "postalCode": "75266-0044",
        "country": "USA"
      } ]
    }
  }, {
    "fullUrl": "https://madie.cms.gov/Practitioner/894b1d70-a564-4e15-abd5-8c08b963fd13",
    "resource": {
      "resourceType": "Practitioner",
      "id": "894b1d70-a564-4e15-abd5-8c08b963fd13",
      "meta": {
        "profile": [ "http://hl7.org/fhir/us/qicore/StructureDefinition/qicore-practitioner" ]
      },
      "identifier": [ {
        "system": "http://hl7.org/fhir/sid/us-npi",
        "value": "1689411712"
      } ],
      "name": [ {
        "family": "Evil",
        "prefix": [ "Dr" ]
      } ]
    }
  }, {
    "fullUrl": "https://madie.cms.gov/Observation/43e999da-e4da-4137-8a84-b44f65263e34",
    "resource": {
      "resourceType": "Observation",
      "id": "43e999da-e4da-4137-8a84-b44f65263e34",
      "meta": {
        "profile": [ "http://hl7.org/fhir/us/qicore/StructureDefinition/qicore-observation-lab" ]
      },
      "partOf": [ {
        "reference": "Procedure/43d64577-1e25-46a9-86b5-94f0c1472935"
      } ],
      "status": "final",
      "category": [ {
        "coding": [ {
          "system": "http://terminology.hl7.org/CodeSystem/observation-category",
          "code": "procedure",
          "display": "Procedure"
        } ]
      }, {
        "coding": [ {
          "system": "http://terminology.hl7.org/CodeSystem/observation-category",
          "code": "laboratory",
          "display": "Laboratory"
        } ]
      } ],
      "code": {
        "coding": [ {
          "system": "http://loinc.org",
          "version": "2.76",
          "code": "21902-2",
          "display": "Stage group.pathology Cancer"
        } ]
      },
      "subject": {
        "reference": "Patient/38ed8b42-1631-4673-aa53-6d2a4db163f3"
      },
      "effectiveDateTime": "2026-04-06T08:00:00.000+00:00",
      "issued": "2026-04-06T08:10:00.000+00:00",
      "valueCodeableConcept": {
        "coding": [ {
          "system": "http://snomed.info/sct",
          "version": "http://snomed.info/sct/731000124108/version/20240301",
          "code": "1228884006",
          "display": "American Joint Committee on Cancer cTis (qualifier value)"
        } ]
      }
    }
  }, {
    "fullUrl": "https://madie.cms.gov/MeasureReport/1bec9e34-031c-462b-9934-42816811d0f1",
    "resource": {
      "resourceType": "MeasureReport",
      "id": "1bec9e34-031c-462b-9934-42816811d0f1",
      "meta": {
        "profile": [ "http://hl7.org/fhir/us/cqfmeasures/StructureDefinition/test-case-cqfm" ]
      },
      "contained": [ {
        "resourceType": "Parameters",
        "id": "47c2861f-0480-4fb1-a9a3-bb0556e6a539-parameters",
        "parameter": [ {
          "name": "subject",
          "valueString": "38ed8b42-1631-4673-aa53-6d2a4db163f3"
        } ]
      } ],
      "extension": [ {
        "url": "http://hl7.org/fhir/StructureDefinition/cqf-inputParameters",
        "valueReference": {
          "reference": "#47c2861f-0480-4fb1-a9a3-bb0556e6a539-parameters"
        }
      }, {
        "url": "http://hl7.org/fhir/us/cqfmeasures/StructureDefinition/cqfm-testCaseDescription",
        "valueMarkdown": "Patient's most recent bladder cancer tumor staging is Tis. Patient has Medication Request for prednisone before BCS which qualifies for denominator exclusion. Uses Bound period"
      } ],
      "modifierExtension": [ {
        "url": "http://hl7.org/fhir/us/cqfmeasures/StructureDefinition/cqfm-isTestCase",
        "valueBoolean": true
      } ],
      "status": "complete",
      "type": "individual",
      "measure": "https://madie.cms.gov/Measure/CMS646FHIRIntravesicalBCGTherapy",
      "period": {
        "start": "2026-01-01",
        "end": "2026-12-31"
      },
      "group": [ {
        "id": "Group_1",
        "population": [ {
          "id": "InitialPopulation_1",
          "code": {
            "coding": [ {
              "system": "http://terminology.hl7.org/CodeSystem/measure-population",
              "code": "initial-population",
              "display": "Initial Population"
            } ]
          },
          "count": 1
        }, {
          "id": "Denominator_1",
          "code": {
            "coding": [ {
              "system": "http://terminology.hl7.org/CodeSystem/measure-population",
              "code": "denominator",
              "display": "Denominator"
            } ]
          },
          "count": 1
        }, {
          "id": "DenominatorExclusion_1",
          "code": {
            "coding": [ {
              "system": "http://terminology.hl7.org/CodeSystem/measure-population",
              "code": "denominator-exclusion",
              "display": "Denominator Exclusion"
            } ]
          },
          "count": 1
        }, {
          "id": "Numerator_1",
          "code": {
            "coding": [ {
              "system": "http://terminology.hl7.org/CodeSystem/measure-population",
              "code": "numerator",
              "display": "Numerator"
            } ]
          },
          "count": 0
        }, {
          "id": "DenominatorException_1",
          "code": {
            "coding": [ {
              "system": "http://terminology.hl7.org/CodeSystem/measure-population",
              "code": "denominator-exception",
              "display": "Denominator Exception"
            } ]
          },
          "count": 0
        } ],
        "measureScore": {
          "value": 1.0
        }
      } ],
      "evaluatedResource": [ {
        "reference": "Patient/38ed8b42-1631-4673-aa53-6d2a4db163f3"
      }, {
        "reference": "Encounter/3b1b936a-b442-4455-91ad-6973f96f9788"
      }, {
        "reference": "Condition/64ecd82a-3a81-47fb-88bb-2f90b78a6bf4"
      }, {
        "reference": "MedicationRequest/52c70221-7532-45f3-8d7f-a4f5f2a690fd"
      }, {
        "reference": "Procedure/43d64577-1e25-46a9-86b5-94f0c1472935"
      }, {
        "reference": "Coverage/2c66814d-0bd1-4550-9fc7-88d63b35b9c9"
      }, {
        "reference": "Organization/038f6f04-59be-49e6-b282-efe0ea740e9f"
      }, {
        "reference": "Practitioner/894b1d70-a564-4e15-abd5-8c08b963fd13"
      }, {
        "reference": "Observation/43e999da-e4da-4137-8a84-b44f65263e34"
      } ]
    }
  } ]
}