{
  "resourceType": "Bundle",
  "id": "661579e3db207d74c03b8a54",
  "type": "transaction",
  "entry": [ {
    "fullUrl": "https://madie.cms.gov/Patient/8e96f973-9e5d-4c85-9466-83c562f5a2ee",
    "resource": {
      "resourceType": "Patient",
      "id": "8e96f973-9e5d-4c85-9466-83c562f5a2ee",
      "meta": {
        "profile": [ "http://hl7.org/fhir/us/qicore/StructureDefinition/qicore-patient" ]
      },
      "extension": [ {
        "url": "http://hl7.org/fhir/us/core/StructureDefinition/us-core-race",
        "extension": [ {
          "url": "ombCategory",
          "valueCoding": {
            "system": "urn:oid:2.16.840.1.113883.6.238",
            "code": "2076-8",
            "display": "Native Hawaiian or Other Pacific Islander",
            "userSelected": true
          }
        }, {
          "url": "text",
          "valueString": "Native Hawaiian or Other Pacific Islander"
        } ]
      }, {
        "url": "http://hl7.org/fhir/us/core/StructureDefinition/us-core-ethnicity",
        "extension": [ {
          "url": "ombCategory",
          "valueCoding": {
            "system": "urn:oid:2.16.840.1.113883.6.238",
            "code": "2186-5",
            "display": "Not Hispanic or Latino",
            "userSelected": true
          }
        }, {
          "url": "text",
          "valueString": "Not Hispanic or Latino"
        } ]
      }, {
        "url": "http://hl7.org/fhir/us/core/StructureDefinition/us-core-sex",
        "valueCode": "248152002"
      } ],
      "identifier": [ {
        "type": {
          "coding": [ {
            "system": "http://terminology.hl7.org/CodeSystem/v2-0203",
            "code": "MR"
          } ]
        },
        "system": "https://bonnie-fhir.healthit.gov/",
        "value": "661579e3db207d74c03b8a54"
      } ],
      "name": [ {
        "family": "NUMERStrat4Pass",
        "given": [ "TriageDuringEM" ]
      } ],
      "gender": "female",
      "birthDate": "2008-12-31"
    },
    "request": {
      "method": "PUT",
      "url": "Patient/8e96f973-9e5d-4c85-9466-83c562f5a2ee"
    }
  }, {
    "fullUrl": "https://madie.cms.gov/Encounter/a1e26bd2-c68b-43ee-b8bf-b0b04a36707c",
    "resource": {
      "resourceType": "Encounter",
      "id": "a1e26bd2-c68b-43ee-b8bf-b0b04a36707c",
      "meta": {
        "profile": [ "http://hl7.org/fhir/us/qicore/StructureDefinition/qicore-encounter" ]
      },
      "status": "finished",
      "class": {
        "system": "http://terminology.hl7.org/CodeSystem/v3-ActCode",
        "code": "EMER",
        "display": "emergency"
      },
      "type": [ {
        "coding": [ {
          "system": "http://snomed.info/sct",
          "version": "2023-09",
          "code": "225390008",
          "display": "Triage (procedure)",
          "userSelected": true
        } ]
      } ],
      "subject": {
        "reference": "Patient/8e96f973-9e5d-4c85-9466-83c562f5a2ee"
      },
      "period": {
        "start": "2027-05-01T08:00:00.000+00:00",
        "end": "2027-05-01T08:15:00.000+00:00"
      }
    },
    "request": {
      "method": "PUT",
      "url": "Encounter/a1e26bd2-c68b-43ee-b8bf-b0b04a36707c"
    }
  }, {
    "fullUrl": "https://madie.cms.gov/Encounter/8207d771-fca0-4a57-a9bd-27c1b2bc48fd",
    "resource": {
      "resourceType": "Encounter",
      "id": "8207d771-fca0-4a57-a9bd-27c1b2bc48fd",
      "meta": {
        "profile": [ "http://hl7.org/fhir/us/qicore/StructureDefinition/qicore-encounter" ]
      },
      "status": "finished",
      "class": {
        "system": "http://terminology.hl7.org/CodeSystem/v3-ActCode",
        "code": "EMER",
        "display": "emergency"
      },
      "type": [ {
        "coding": [ {
          "system": "http://snomed.info/sct",
          "version": "2023-09",
          "code": "4525004",
          "display": "Emergency department patient visit (procedure)",
          "userSelected": true
        } ]
      } ],
      "subject": {
        "reference": "Patient/8e96f973-9e5d-4c85-9466-83c562f5a2ee"
      },
      "period": {
        "start": "2027-05-01T08:00:00.000+00:00",
        "end": "2027-05-01T12:15:00.000+00:00"
      },
      "diagnosis": [ {
        "condition": {
          "reference": "Condition/655e9d4a-d1f6-4213-9a4b-cb70ea32844c"
        },
        "use": {
          "coding": [ {
            "system": "http://terminology.hl7.org/CodeSystem/diagnosis-role",
            "code": "billing"
          } ]
        },
        "rank": 1
      } ],
      "location": [ {
        "location": {
          "reference": "Location/bc41141b-ebcc-4624-98db-521aa6e272da"
        },
        "period": {
          "start": "2027-05-01T07:45:00.000+00:00",
          "end": "2027-05-01T16:31:00.000+00:00"
        }
      }, {
        "location": {
          "reference": "Location/790ea671-a79f-48fc-a76b-65f8d9123497"
        },
        "period": {
          "start": "2027-05-01T09:31:00.000+00:00",
          "end": "2027-05-01T12:15:00.000+00:00"
        }
      }, {
        "location": {
          "reference": "Location/e01dc307-a7bb-4deb-9620-91cc4481a606"
        },
        "period": {
          "start": "2027-05-01T08:40:00.000+00:00",
          "end": "2027-05-01T12:15:00.000+00:00"
        }
      }, {
        "location": {
          "reference": "Location/f2eb2ce4-55de-46dc-b31c-2bcf2c4ecebc"
        },
        "period": {
          "start": "2027-05-01T08:30:00.000+00:00",
          "end": "2027-05-01T15:46:00.000+00:00"
        }
      } ]
    },
    "request": {
      "method": "PUT",
      "url": "Encounter/8207d771-fca0-4a57-a9bd-27c1b2bc48fd"
    }
  }, {
    "fullUrl": "https://madie.cms.gov/Location/bc41141b-ebcc-4624-98db-521aa6e272da",
    "resource": {
      "resourceType": "Location",
      "id": "bc41141b-ebcc-4624-98db-521aa6e272da",
      "meta": {
        "profile": [ "http://hl7.org/fhir/us/qicore/StructureDefinition/qicore-location" ]
      },
      "identifier": [ {
        "use": "usual",
        "system": "http://exampleoflocation.com",
        "value": "B1-S.F1"
      } ],
      "name": "Medical Surgical East, first floor",
      "type": [ {
        "coding": [ {
          "system": "https://www.cdc.gov/nhsn/cdaportal/terminology/codesystem/hsloc.html",
          "version": "2022",
          "code": "1108-0",
          "display": "Emergency Department",
          "userSelected": true
        } ]
      } ]
    },
    "request": {
      "method": "PUT",
      "url": "Location/bc41141b-ebcc-4624-98db-521aa6e272da"
    }
  }, {
    "fullUrl": "https://madie.cms.gov/Location/790ea671-a79f-48fc-a76b-65f8d9123497",
    "resource": {
      "resourceType": "Location",
      "id": "790ea671-a79f-48fc-a76b-65f8d9123497",
      "meta": {
        "profile": [ "http://hl7.org/fhir/us/qicore/StructureDefinition/qicore-location" ]
      },
      "identifier": [ {
        "use": "usual",
        "system": "http://exampleoflocation.com",
        "value": "B1-S.F2"
      } ],
      "name": "Medical Surgical East, first floor",
      "type": [ {
        "coding": [ {
          "system": "https://www.cdc.gov/nhsn/cdaportal/terminology/codesystem/hsloc.html",
          "version": "2022",
          "code": "1209-6",
          "display": "Treatment Room",
          "userSelected": true
        } ]
      } ]
    },
    "request": {
      "method": "PUT",
      "url": "Location/790ea671-a79f-48fc-a76b-65f8d9123497"
    }
  }, {
    "fullUrl": "https://madie.cms.gov/Condition/655e9d4a-d1f6-4213-9a4b-cb70ea32844c",
    "resource": {
      "resourceType": "Condition",
      "id": "655e9d4a-d1f6-4213-9a4b-cb70ea32844c",
      "meta": {
        "profile": [ "http://hl7.org/fhir/us/qicore/StructureDefinition/qicore-condition-encounter-diagnosis" ]
      },
      "category": [ {
        "coding": [ {
          "system": "http://terminology.hl7.org/CodeSystem/condition-category",
          "code": "encounter-diagnosis",
          "display": "Encounter Diagnosis"
        } ]
      } ],
      "code": {
        "coding": [ {
          "system": "http://snomed.info/sct",
          "version": "2023-09",
          "code": "10349009",
          "display": "Multi-infarct dementia with delirium (disorder)",
          "userSelected": true
        } ]
      },
      "subject": {
        "reference": "Patient/8e96f973-9e5d-4c85-9466-83c562f5a2ee"
      },
      "recordedDate": "2027-04-09T08:00:00.000+00:00"
    },
    "request": {
      "method": "PUT",
      "url": "Condition/655e9d4a-d1f6-4213-9a4b-cb70ea32844c"
    }
  }, {
    "fullUrl": "https://madie.cms.gov/Location/f2eb2ce4-55de-46dc-b31c-2bcf2c4ecebc",
    "resource": {
      "resourceType": "Location",
      "id": "f2eb2ce4-55de-46dc-b31c-2bcf2c4ecebc",
      "meta": {
        "profile": [ "http://hl7.org/fhir/us/qicore/StructureDefinition/qicore-location" ]
      },
      "identifier": [ {
        "use": "usual",
        "system": "http://exampleoflocation.com",
        "value": "B1-S.F2"
      } ],
      "name": "Medical Surgical East, first floor",
      "type": [ {
        "coding": [ {
          "system": "https://www.cdc.gov/nhsn/cdaportal/terminology/codesystem/hsloc.html",
          "version": "2022",
          "code": "1108-0",
          "display": "Emergency Department",
          "userSelected": true
        } ]
      } ]
    },
    "request": {
      "method": "PUT",
      "url": "Location/f2eb2ce4-55de-46dc-b31c-2bcf2c4ecebc"
    }
  }, {
    "fullUrl": "https://madie.cms.gov/Location/e01dc307-a7bb-4deb-9620-91cc4481a606",
    "resource": {
      "resourceType": "Location",
      "id": "e01dc307-a7bb-4deb-9620-91cc4481a606",
      "meta": {
        "profile": [ "http://hl7.org/fhir/us/qicore/StructureDefinition/qicore-location" ]
      },
      "identifier": [ {
        "use": "usual",
        "system": "http://exampleoflocation.com",
        "value": "B1-S.F2"
      } ],
      "name": "Medical Surgical East, first floor",
      "type": [ {
        "coding": [ {
          "system": "https://www.cdc.gov/nhsn/cdaportal/terminology/codesystem/hsloc.html",
          "version": "2022",
          "code": "1209-6",
          "display": "Treatment Room"
        } ]
      } ]
    },
    "request": {
      "method": "PUT",
      "url": "Location/e01dc307-a7bb-4deb-9620-91cc4481a606"
    }
  }, {
    "fullUrl": "https://madie.cms.gov/claim/ClaimBehavior-NotSubsAbuse",
    "resource": {
      "resourceType": "Claim",
      "id": "ClaimBehavior-NotSubsAbuse",
      "meta": {
        "profile": [ "http://hl7.org/fhir/us/qicore/StructureDefinition/qicore-claim" ]
      },
      "status": "active",
      "type": {
        "coding": [ {
          "system": "http://terminology.hl7.org/CodeSystem/claim-type",
          "code": "institutional"
        } ]
      },
      "use": "claim",
      "patient": {
        "reference": "Patient/8e96f973-9e5d-4c85-9466-83c562f5a2ee"
      },
      "created": "2027-05-01",
      "provider": {
        "reference": "Practitioner/82d39464-aae8-448e-a349-aa6554adfe08"
      },
      "priority": {
        "coding": [ {
          "system": "http://terminology.hl7.org/CodeSystem/processpriority",
          "code": "normal"
        } ]
      },
      "diagnosis": [ {
        "sequence": 1,
        "diagnosisReference": {
          "reference": "Condition/655e9d4a-d1f6-4213-9a4b-cb70ea32844c"
        },
        "type": [ {
          "coding": [ {
            "system": "http://terminology.hl7.org/CodeSystem/ex-diagnosistype",
            "code": "principal"
          } ]
        } ]
      } ],
      "insurance": [ {
        "sequence": 1,
        "focal": true,
        "coverage": {
          "reference": "Coverage/ccebf3c4-67f8-46e8-ad92-c861c1140bdb"
        }
      } ],
      "item": [ {
        "sequence": 1,
        "diagnosisSequence": [ 1 ],
        "productOrService": {
          "coding": [ {
            "system": "http://terminology.hl7.org/CodeSystem/ex-USCLS",
            "code": "99555"
          } ]
        },
        "encounter": [ {
          "reference": "Encounter/8207d771-fca0-4a57-a9bd-27c1b2bc48fd"
        } ]
      } ]
    },
    "request": {
      "method": "PUT",
      "url": "Claim/ClaimBehavior-NotSubsAbuse"
    }
  }, {
    "fullUrl": "https://madie.cms.gov/Coverage/ccebf3c4-67f8-46e8-ad92-c861c1140bdb",
    "resource": {
      "resourceType": "Coverage",
      "id": "ccebf3c4-67f8-46e8-ad92-c861c1140bdb",
      "meta": {
        "profile": [ "http://hl7.org/fhir/us/qicore/StructureDefinition/qicore-coverage" ]
      },
      "identifier": [ {
        "type": {
          "coding": [ {
            "system": "http://terminology.hl7.org/CodeSystem/v2-0203",
            "code": "MB"
          } ]
        }
      } ],
      "status": "active",
      "beneficiary": {
        "reference": "Patient/8e96f973-9e5d-4c85-9466-83c562f5a2ee"
      },
      "relationship": {
        "coding": [ {
          "system": "http://terminology.hl7.org/CodeSystem/subscriber-relationship",
          "code": "self"
        } ]
      },
      "payor": [ {
        "reference": "Organization/0584466e-7c06-4cb8-9a3d-402dffd01ab9"
      } ]
    },
    "request": {
      "method": "PUT",
      "url": "Coverage/ccebf3c4-67f8-46e8-ad92-c861c1140bdb"
    }
  }, {
    "fullUrl": "https://madie.cms.gov/Organization/0584466e-7c06-4cb8-9a3d-402dffd01ab9",
    "resource": {
      "resourceType": "Organization",
      "id": "0584466e-7c06-4cb8-9a3d-402dffd01ab9",
      "meta": {
        "profile": [ "http://hl7.org/fhir/us/qicore/StructureDefinition/qicore-organization" ]
      },
      "identifier": [ {
        "use": "temp",
        "system": "urn:oid:2.16.840.1.113883.4.4",
        "value": "21-3259825"
      } ],
      "active": true,
      "type": [ {
        "coding": [ {
          "system": "http://terminology.hl7.org/CodeSystem/organization-type",
          "code": "pay",
          "display": "Payer"
        } ]
      } ],
      "name": "Blue Cross Blue Shield of Texas",
      "telecom": [ {
        "system": "phone",
        "value": "(+1) 972-766-6900"
      } ],
      "address": [ {
        "use": "billing",
        "type": "postal",
        "line": [ "P.O. Box 660044" ],
        "city": "Dallas",
        "state": "TX",
        "postalCode": "75266-0044",
        "country": "USA"
      } ]
    },
    "request": {
      "method": "PUT",
      "url": "Organization/0584466e-7c06-4cb8-9a3d-402dffd01ab9"
    }
  }, {
    "fullUrl": "https://madie.cms.gov/Practitioner/82d39464-aae8-448e-a349-aa6554adfe08",
    "resource": {
      "resourceType": "Practitioner",
      "id": "82d39464-aae8-448e-a349-aa6554adfe08",
      "meta": {
        "profile": [ "http://hl7.org/fhir/us/qicore/StructureDefinition/qicore-practitioner" ]
      },
      "identifier": [ {
        "system": "http://hl7.org/fhir/sid/us-npi",
        "value": "9999999896"
      } ],
      "name": [ {
        "family": "Evil",
        "prefix": [ "Dr" ]
      } ]
    },
    "request": {
      "method": "PUT",
      "url": "Practitioner/82d39464-aae8-448e-a349-aa6554adfe08"
    }
  }, {
    "fullUrl": "https://madie.cms.gov/MeasureReport/8c09ecdf-4a79-45c8-aa61-72cfadd4813b",
    "resource": {
      "resourceType": "MeasureReport",
      "id": "8c09ecdf-4a79-45c8-aa61-72cfadd4813b",
      "meta": {
        "profile": [ "http://hl7.org/fhir/us/cqfmeasures/StructureDefinition/test-case-cqfm" ]
      },
      "contained": [ {
        "resourceType": "Parameters",
        "id": "d9f7a94a-ed8a-4a05-bdf6-5928dbcc7134-parameters",
        "parameter": [ {
          "name": "subject",
          "valueString": "8e96f973-9e5d-4c85-9466-83c562f5a2ee"
        } ]
      } ],
      "extension": [ {
        "url": "http://hl7.org/fhir/StructureDefinition/cqf-inputParameters",
        "valueReference": {
          "reference": "#d9f7a94a-ed8a-4a05-bdf6-5928dbcc7134-parameters"
        }
      }, {
        "url": "http://hl7.org/fhir/us/cqfmeasures/StructureDefinition/cqfm-testCaseDescription",
        "valueMarkdown": "Adult, mental condition, ED arrival to treatment - takes latest location time"
      } ],
      "modifierExtension": [ {
        "url": "http://hl7.org/fhir/us/cqfmeasures/StructureDefinition/cqfm-isTestCase",
        "valueBoolean": true
      } ],
      "status": "complete",
      "type": "individual",
      "measure": "https://madie.cms.gov/Measure/CMS1244FHIRECATHOQR",
      "period": {
        "start": "2027-01-01",
        "end": "2027-12-31"
      },
      "group": [ {
        "id": "Group_1",
        "population": [ {
          "id": "InitialPopulation_1",
          "code": {
            "coding": [ {
              "system": "http://terminology.hl7.org/CodeSystem/measure-population",
              "code": "initial-population",
              "display": "Initial Population"
            } ]
          },
          "count": 1
        }, {
          "id": "Denominator_1",
          "code": {
            "coding": [ {
              "system": "http://terminology.hl7.org/CodeSystem/measure-population",
              "code": "denominator",
              "display": "Denominator"
            } ]
          },
          "count": 1
        }, {
          "id": "Numerator_1",
          "code": {
            "coding": [ {
              "system": "http://terminology.hl7.org/CodeSystem/measure-population",
              "code": "numerator",
              "display": "Numerator"
            } ]
          },
          "count": 1
        } ],
        "measureScore": {
          "value": 0.0
        },
        "stratifier": [ {
          "id": "Stratification_1_1",
          "code": [ {
            "text": "Strata-1"
          } ],
          "stratum": [ {
            "value": {
              "text": "Strata-1"
            },
            "population": [ {
              "id": "InitialPopulation_1",
              "code": {
                "coding": [ {
                  "system": "http://terminology.hl7.org/CodeSystem/measure-population",
                  "code": "initial-population",
                  "display": "Initial Population"
                } ]
              },
              "count": 0
            }, {
              "id": "Denominator_1",
              "code": {
                "coding": [ {
                  "system": "http://terminology.hl7.org/CodeSystem/measure-population",
                  "code": "denominator",
                  "display": "Denominator"
                } ]
              },
              "count": 0
            }, {
              "id": "Numerator_1",
              "code": {
                "coding": [ {
                  "system": "http://terminology.hl7.org/CodeSystem/measure-population",
                  "code": "numerator",
                  "display": "Numerator"
                } ]
              },
              "count": 0
            } ]
          } ]
        }, {
          "id": "Stratification_1_2",
          "code": [ {
            "text": "Strata-2"
          } ],
          "stratum": [ {
            "value": {
              "text": "Strata-2"
            },
            "population": [ {
              "id": "InitialPopulation_1",
              "code": {
                "coding": [ {
                  "system": "http://terminology.hl7.org/CodeSystem/measure-population",
                  "code": "initial-population",
                  "display": "Initial Population"
                } ]
              },
              "count": 0
            }, {
              "id": "Denominator_1",
              "code": {
                "coding": [ {
                  "system": "http://terminology.hl7.org/CodeSystem/measure-population",
                  "code": "denominator",
                  "display": "Denominator"
                } ]
              },
              "count": 0
            }, {
              "id": "Numerator_1",
              "code": {
                "coding": [ {
                  "system": "http://terminology.hl7.org/CodeSystem/measure-population",
                  "code": "numerator",
                  "display": "Numerator"
                } ]
              },
              "count": 0
            } ]
          } ]
        }, {
          "id": "Stratification_1_3",
          "code": [ {
            "text": "Strata-3"
          } ],
          "stratum": [ {
            "value": {
              "text": "Strata-3"
            },
            "population": [ {
              "id": "InitialPopulation_1",
              "code": {
                "coding": [ {
                  "system": "http://terminology.hl7.org/CodeSystem/measure-population",
                  "code": "initial-population",
                  "display": "Initial Population"
                } ]
              },
              "count": 0
            }, {
              "id": "Denominator_1",
              "code": {
                "coding": [ {
                  "system": "http://terminology.hl7.org/CodeSystem/measure-population",
                  "code": "denominator",
                  "display": "Denominator"
                } ]
              },
              "count": 0
            }, {
              "id": "Numerator_1",
              "code": {
                "coding": [ {
                  "system": "http://terminology.hl7.org/CodeSystem/measure-population",
                  "code": "numerator",
                  "display": "Numerator"
                } ]
              },
              "count": 0
            } ]
          } ]
        }, {
          "id": "Stratification_1_4",
          "code": [ {
            "text": "Strata-4"
          } ],
          "stratum": [ {
            "value": {
              "text": "Strata-4"
            },
            "population": [ {
              "id": "InitialPopulation_1",
              "code": {
                "coding": [ {
                  "system": "http://terminology.hl7.org/CodeSystem/measure-population",
                  "code": "initial-population",
                  "display": "Initial Population"
                } ]
              },
              "count": 1
            }, {
              "id": "Denominator_1",
              "code": {
                "coding": [ {
                  "system": "http://terminology.hl7.org/CodeSystem/measure-population",
                  "code": "denominator",
                  "display": "Denominator"
                } ]
              },
              "count": 1
            }, {
              "id": "Numerator_1",
              "code": {
                "coding": [ {
                  "system": "http://terminology.hl7.org/CodeSystem/measure-population",
                  "code": "numerator",
                  "display": "Numerator"
                } ]
              },
              "count": 1
            } ]
          } ]
        } ]
      } ],
      "evaluatedResource": [ {
        "reference": "Patient/8e96f973-9e5d-4c85-9466-83c562f5a2ee"
      }, {
        "reference": "Encounter/a1e26bd2-c68b-43ee-b8bf-b0b04a36707c"
      }, {
        "reference": "Encounter/8207d771-fca0-4a57-a9bd-27c1b2bc48fd"
      }, {
        "reference": "Location/bc41141b-ebcc-4624-98db-521aa6e272da"
      }, {
        "reference": "Location/790ea671-a79f-48fc-a76b-65f8d9123497"
      }, {
        "reference": "Condition/655e9d4a-d1f6-4213-9a4b-cb70ea32844c"
      }, {
        "reference": "Location/f2eb2ce4-55de-46dc-b31c-2bcf2c4ecebc"
      }, {
        "reference": "Location/e01dc307-a7bb-4deb-9620-91cc4481a606"
      }, {
        "reference": "Claim/ClaimBehavior-NotSubsAbuse"
      }, {
        "reference": "Coverage/ccebf3c4-67f8-46e8-ad92-c861c1140bdb"
      }, {
        "reference": "Organization/0584466e-7c06-4cb8-9a3d-402dffd01ab9"
      }, {
        "reference": "Practitioner/82d39464-aae8-448e-a349-aa6554adfe08"
      } ]
    },
    "request": {
      "method": "PUT",
      "url": "MeasureReport/8c09ecdf-4a79-45c8-aa61-72cfadd4813b"
    }
  } ]
}