{
  "resourceType": "Bundle",
  "id": "60f82c2e98086b570510e29c",
  "type": "transaction",
  "entry": [ {
    "fullUrl": "https://madie.cms.gov/Patient/1b785f3f-23e7-4b52-889c-d9f66945e7f1",
    "resource": {
      "resourceType": "Patient",
      "id": "1b785f3f-23e7-4b52-889c-d9f66945e7f1",
      "meta": {
        "profile": [ "http://hl7.org/fhir/us/qicore/StructureDefinition/qicore-patient" ]
      },
      "text": {
        "status": "generated",
        "div": "<div xmlns=\"http://www.w3.org/1999/xhtml\"><div class=\"hapiHeaderText\">CMO&lt;1day_DuringEncIP <b>DENEXPASS </b></div><table class=\"hapiPropertyTable\"><tbody><tr><td>Identifier</td><td>d9671613ad13fc4c07e2f7a63a584374</td></tr><tr><td>Date of birth</td><td><span>26 September 1975</span></td></tr></tbody></table></div>"
      },
      "extension": [ {
        "url": "http://hl7.org/fhir/us/core/StructureDefinition/us-core-race",
        "extension": [ {
          "url": "ombCategory",
          "valueCoding": {
            "system": "urn:oid:2.16.840.1.113883.6.238",
            "code": "2054-5",
            "display": "Black or African American",
            "userSelected": true
          }
        }, {
          "url": "text",
          "valueString": "Black or African American"
        } ]
      }, {
        "url": "http://hl7.org/fhir/us/core/StructureDefinition/us-core-ethnicity",
        "extension": [ {
          "url": "ombCategory",
          "valueCoding": {
            "system": "urn:oid:2.16.840.1.113883.6.238",
            "code": "2186-5",
            "display": "Not Hispanic or Latino",
            "userSelected": true
          }
        }, {
          "url": "text",
          "valueString": "Not Hispanic or Latino"
        } ]
      } ],
      "identifier": [ {
        "type": {
          "coding": [ {
            "system": "http://terminology.hl7.org/CodeSystem/v2-0203",
            "code": "MR"
          } ]
        },
        "system": "https://bonnie-fhir.healthit.gov/",
        "value": "60f82c2e98086b570510e29c"
      } ],
      "active": true,
      "name": [ {
        "use": "usual",
        "family": "DENEXPass",
        "given": [ "CMO<1dayDuringEncIP" ]
      } ],
      "gender": "female",
      "birthDate": "1976-09-26"
    },
    "request": {
      "method": "PUT",
      "url": "Patient/1b785f3f-23e7-4b52-889c-d9f66945e7f1"
    }
  }, {
    "fullUrl": "https://madie.cms.gov/Encounter/3cdccc71-26b3-48e0-8b34-532bc42dd21d",
    "resource": {
      "resourceType": "Encounter",
      "id": "3cdccc71-26b3-48e0-8b34-532bc42dd21d",
      "meta": {
        "profile": [ "http://hl7.org/fhir/us/qicore/StructureDefinition/qicore-encounter" ]
      },
      "status": "finished",
      "class": {
        "system": "http://terminology.hl7.org/CodeSystem/v3-ActCode",
        "code": "EMER",
        "display": "emergency",
        "userSelected": true
      },
      "type": [ {
        "coding": [ {
          "system": "http://snomed.info/sct",
          "code": "4525004"
        } ]
      } ],
      "subject": {
        "reference": "Patient/1b785f3f-23e7-4b52-889c-d9f66945e7f1"
      },
      "period": {
        "start": "2026-10-10T04:00:00.000+00:00",
        "end": "2026-10-10T06:00:00.000+00:00"
      },
      "length": {
        "value": 0,
        "unit": "days"
      }
    },
    "request": {
      "method": "PUT",
      "url": "Encounter/3cdccc71-26b3-48e0-8b34-532bc42dd21d"
    }
  }, {
    "fullUrl": "https://madie.cms.gov/Encounter/454680fe-24b0-484e-a43a-7a7a6228034c",
    "resource": {
      "resourceType": "Encounter",
      "id": "454680fe-24b0-484e-a43a-7a7a6228034c",
      "meta": {
        "profile": [ "http://hl7.org/fhir/us/qicore/StructureDefinition/qicore-encounter" ]
      },
      "status": "finished",
      "class": {
        "system": "http://terminology.hl7.org/CodeSystem/v3-ActCode",
        "code": "IMP",
        "display": "inpatient encounter",
        "userSelected": true
      },
      "type": [ {
        "coding": [ {
          "system": "http://snomed.info/sct",
          "code": "32485007"
        } ]
      } ],
      "subject": {
        "reference": "Patient/1b785f3f-23e7-4b52-889c-d9f66945e7f1"
      },
      "period": {
        "start": "2026-10-10T06:15:00.000+00:00",
        "end": "2026-10-11T11:30:00.000+00:00"
      },
      "length": {
        "value": 1,
        "unit": "days"
      },
      "reasonReference": [ {
        "reference": "Condition/264fc101-5781-4ed8-9efb-8bddb41337be"
      } ]
    },
    "request": {
      "method": "PUT",
      "url": "Encounter/454680fe-24b0-484e-a43a-7a7a6228034c"
    }
  }, {
    "fullUrl": "https://madie.cms.gov/claim/5ca62962b8484628b8de1ec5",
    "resource": {
      "resourceType": "Claim",
      "id": "5ca62962b8484628b8de1ec5",
      "meta": {
        "profile": [ "http://hl7.org/fhir/us/qicore/StructureDefinition/qicore-claim" ]
      },
      "status": "active",
      "type": {
        "coding": [ {
          "system": "http://terminology.hl7.org/CodeSystem/claim-type",
          "code": "institutional"
        } ]
      },
      "use": "claim",
      "patient": {
        "reference": "Patient/1b785f3f-23e7-4b52-889c-d9f66945e7f1"
      },
      "created": "2026-12-01",
      "provider": {
        "reference": "Practitioner/practitioner-123456"
      },
      "priority": {
        "coding": [ {
          "system": "http://terminology.hl7.org/CodeSystem/processpriority",
          "code": "normal"
        } ]
      },
      "diagnosis": [ {
        "sequence": 1,
        "diagnosisCodeableConcept": {
          "coding": [ {
            "system": "http://hl7.org/fhir/sid/icd-10-cm",
            "code": "I63.00"
          } ]
        },
        "type": [ {
          "coding": [ {
            "system": "http://terminology.hl7.org/CodeSystem/ex-diagnosistype",
            "code": "principal"
          } ]
        } ]
      } ],
      "insurance": [ {
        "sequence": 1,
        "focal": true,
        "coverage": {
          "reference": "Coverage/649405ae-124a-44d2-a297-ee2a0cfb955d"
        }
      } ],
      "item": [ {
        "sequence": 1,
        "diagnosisSequence": [ 1 ],
        "productOrService": {
          "coding": [ {
            "system": "http://terminology.hl7.org/CodeSystem/ex-USCLS",
            "code": "99555"
          } ]
        },
        "encounter": [ {
          "reference": "Encounter/454680fe-24b0-484e-a43a-7a7a6228034c"
        } ]
      } ]
    },
    "request": {
      "method": "PUT",
      "url": "Claim/5ca62962b8484628b8de1ec5"
    }
  }, {
    "fullUrl": "https://madie.cms.gov/ServiceRequest/b3211dfc-7cee-4dd0-875f-32ca987d3054",
    "resource": {
      "resourceType": "ServiceRequest",
      "id": "b3211dfc-7cee-4dd0-875f-32ca987d3054",
      "meta": {
        "profile": [ "http://hl7.org/fhir/us/qicore/StructureDefinition/qicore-servicerequest" ]
      },
      "status": "active",
      "intent": "order",
      "code": {
        "coding": [ {
          "system": "http://snomed.info/sct",
          "code": "133918004"
        } ]
      },
      "subject": {
        "reference": "Patient/1b785f3f-23e7-4b52-889c-d9f66945e7f1"
      },
      "authoredOn": "2026-10-10T11:00:00.000+00:00"
    },
    "request": {
      "method": "PUT",
      "url": "ServiceRequest/b3211dfc-7cee-4dd0-875f-32ca987d3054"
    }
  }, {
    "fullUrl": "https://madie.cms.gov/Coverage/649405ae-124a-44d2-a297-ee2a0cfb955d",
    "resource": {
      "resourceType": "Coverage",
      "id": "649405ae-124a-44d2-a297-ee2a0cfb955d",
      "status": "active",
      "beneficiary": {
        "reference": "Patient/1b785f3f-23e7-4b52-889c-d9f66945e7f1"
      },
      "period": {
        "start": "1976-09-26T08:00:00.000+00:00"
      },
      "payor": [ {
        "reference": "Organization/1b98affe-48ac-4926-b5a4-600a9ac1ee4f"
      } ]
    },
    "request": {
      "method": "PUT",
      "url": "Coverage/649405ae-124a-44d2-a297-ee2a0cfb955d"
    }
  }, {
    "fullUrl": "https://madie.cms.gov/Condition/264fc101-5781-4ed8-9efb-8bddb41337be",
    "resource": {
      "resourceType": "Condition",
      "id": "264fc101-5781-4ed8-9efb-8bddb41337be",
      "meta": {
        "profile": [ "http://hl7.org/fhir/us/qicore/StructureDefinition/qicore-condition-encounter-diagnosis" ]
      },
      "clinicalStatus": {
        "coding": [ {
          "system": "http://terminology.hl7.org/CodeSystem/condition-clinical",
          "code": "active"
        } ]
      },
      "verificationStatus": {
        "coding": [ {
          "system": "http://terminology.hl7.org/CodeSystem/condition-ver-status",
          "code": "confirmed"
        } ]
      },
      "category": [ {
        "coding": [ {
          "system": "http://terminology.hl7.org/CodeSystem/condition-category",
          "code": "encounter-diagnosis",
          "display": "Encounter Diagnosis"
        } ]
      } ],
      "code": {
        "coding": [ {
          "system": "http://snomed.info/sct",
          "version": "2020-09",
          "code": "111297002",
          "display": "Nonparalytic stroke (disorder)",
          "userSelected": true
        } ]
      },
      "subject": {
        "reference": "Patient/1b785f3f-23e7-4b52-889c-d9f66945e7f1"
      },
      "recordedDate": "2026-08-12T08:00:00.000+00:00"
    },
    "request": {
      "method": "PUT",
      "url": "Condition/264fc101-5781-4ed8-9efb-8bddb41337be"
    }
  }, {
    "fullUrl": "https://madie.cms.gov/Organization/1b98affe-48ac-4926-b5a4-600a9ac1ee4f",
    "resource": {
      "resourceType": "Organization",
      "id": "1b98affe-48ac-4926-b5a4-600a9ac1ee4f",
      "meta": {
        "profile": [ "http://hl7.org/fhir/us/qicore/StructureDefinition/qicore-organization" ]
      },
      "identifier": [ {
        "use": "temp",
        "system": "urn:oid:2.16.840.1.113883.4.4",
        "value": "21-3259825"
      } ],
      "active": true,
      "type": [ {
        "coding": [ {
          "system": "http://terminology.hl7.org/CodeSystem/organization-type",
          "code": "pay",
          "display": "Payer"
        } ]
      } ],
      "name": "Blue Cross Blue Shield of Texas",
      "telecom": [ {
        "system": "phone",
        "value": "(+1) 972-766-6900"
      } ],
      "address": [ {
        "use": "billing",
        "type": "postal",
        "line": [ "P.O. Box 660044" ],
        "city": "Dallas",
        "state": "TX",
        "postalCode": "75266-0044",
        "country": "USA"
      } ]
    },
    "request": {
      "method": "PUT",
      "url": "Organization/1b98affe-48ac-4926-b5a4-600a9ac1ee4f"
    }
  }, {
    "fullUrl": "https://madie.cms.gov/MeasureReport/684bd3ca-e676-4b4e-97e2-6c52f08bd684",
    "resource": {
      "resourceType": "MeasureReport",
      "id": "684bd3ca-e676-4b4e-97e2-6c52f08bd684",
      "meta": {
        "profile": [ "http://hl7.org/fhir/us/cqfmeasures/StructureDefinition/test-case-cqfm" ]
      },
      "contained": [ {
        "resourceType": "Parameters",
        "id": "a2384d5c-ebe7-4cc3-90f1-b4d998d79bf2-parameters",
        "parameter": [ {
          "name": "subject",
          "valueString": "1b785f3f-23e7-4b52-889c-d9f66945e7f1"
        } ]
      } ],
      "extension": [ {
        "url": "http://hl7.org/fhir/StructureDefinition/cqf-inputParameters",
        "valueReference": {
          "reference": "#a2384d5c-ebe7-4cc3-90f1-b4d998d79bf2-parameters"
        }
      }, {
        "url": "http://hl7.org/fhir/us/cqfmeasures/StructureDefinition/cqfm-testCaseDescription",
        "valueMarkdown": "Patient receives comfort measures order CMP<1day (=0 day)   during Enc IP   global.\"Hospitalization\" =(Ed+IP)\n"
      } ],
      "modifierExtension": [ {
        "url": "http://hl7.org/fhir/us/cqfmeasures/StructureDefinition/cqfm-isTestCase",
        "valueBoolean": true
      } ],
      "status": "complete",
      "type": "individual",
      "measure": "https://madie.cms.gov/Measure/CMS72FHIRSTKAntithromboticDay2",
      "period": {
        "start": "2026-01-01",
        "end": "2026-12-31"
      },
      "group": [ {
        "id": "Group_1",
        "population": [ {
          "id": "InitialPopulation_1",
          "code": {
            "coding": [ {
              "system": "http://terminology.hl7.org/CodeSystem/measure-population",
              "code": "initial-population",
              "display": "Initial Population"
            } ]
          },
          "count": 1
        }, {
          "id": "Denominator_1",
          "code": {
            "coding": [ {
              "system": "http://terminology.hl7.org/CodeSystem/measure-population",
              "code": "denominator",
              "display": "Denominator"
            } ]
          },
          "count": 1
        }, {
          "id": "DenominatorExclusion_1",
          "code": {
            "coding": [ {
              "system": "http://terminology.hl7.org/CodeSystem/measure-population",
              "code": "denominator-exclusion",
              "display": "Denominator Exclusion"
            } ]
          },
          "count": 1
        }, {
          "id": "Numerator_1",
          "code": {
            "coding": [ {
              "system": "http://terminology.hl7.org/CodeSystem/measure-population",
              "code": "numerator",
              "display": "Numerator"
            } ]
          },
          "count": 0
        }, {
          "id": "DenominatorException_1",
          "code": {
            "coding": [ {
              "system": "http://terminology.hl7.org/CodeSystem/measure-population",
              "code": "denominator-exception",
              "display": "Denominator Exception"
            } ]
          },
          "count": 0
        } ],
        "measureScore": {
          "value": 0.0
        }
      } ],
      "evaluatedResource": [ {
        "reference": "Patient/1b785f3f-23e7-4b52-889c-d9f66945e7f1"
      }, {
        "reference": "Encounter/3cdccc71-26b3-48e0-8b34-532bc42dd21d"
      }, {
        "reference": "Encounter/454680fe-24b0-484e-a43a-7a7a6228034c"
      }, {
        "reference": "Claim/5ca62962b8484628b8de1ec5"
      }, {
        "reference": "ServiceRequest/b3211dfc-7cee-4dd0-875f-32ca987d3054"
      }, {
        "reference": "Coverage/649405ae-124a-44d2-a297-ee2a0cfb955d"
      }, {
        "reference": "Condition/264fc101-5781-4ed8-9efb-8bddb41337be"
      }, {
        "reference": "Organization/1b98affe-48ac-4926-b5a4-600a9ac1ee4f"
      } ]
    },
    "request": {
      "method": "PUT",
      "url": "MeasureReport/684bd3ca-e676-4b4e-97e2-6c52f08bd684"
    }
  } ]
}