{
  "resourceType": "Bundle",
  "id": "DENEXPass-FrailtyDeviceRequestNoPerformedModExt",
  "type": "transaction",
  "entry": [ {
    "fullUrl": "https://madie.cms.gov/Patient/821185af-e5b2-4552-a63c-36b64a9200a9",
    "resource": {
      "resourceType": "Patient",
      "id": "821185af-e5b2-4552-a63c-36b64a9200a9",
      "meta": {
        "profile": [ "http://hl7.org/fhir/us/qicore/StructureDefinition/qicore-patient" ]
      },
      "extension": [ {
        "url": "http://hl7.org/fhir/us/core/StructureDefinition/us-core-race",
        "extension": [ {
          "url": "ombCategory",
          "valueCoding": {
            "system": "urn:oid:2.16.840.1.113883.6.238",
            "code": "2028-9",
            "display": "Asian"
          }
        }, {
          "url": "text",
          "valueString": "Asian"
        } ]
      }, {
        "url": "http://hl7.org/fhir/us/core/StructureDefinition/us-core-ethnicity",
        "extension": [ {
          "url": "ombCategory",
          "valueCoding": {
            "system": "urn:oid:2.16.840.1.113883.6.238",
            "code": "2135-2",
            "display": "Hispanic or Latino"
          }
        }, {
          "url": "text",
          "valueString": "Hispanic or Latino"
        } ]
      } ],
      "identifier": [ {
        "system": "http://hospital.smarthealthit.org",
        "value": "999999995"
      } ],
      "name": [ {
        "family": "DENEXPass",
        "given": [ "FrailtyDeviceRequestNoDoNotPerformExtension" ]
      } ],
      "gender": "female",
      "birthDate": "1959-12-31"
    },
    "request": {
      "method": "PUT",
      "url": "Patient/821185af-e5b2-4552-a63c-36b64a9200a9"
    }
  }, {
    "fullUrl": "https://madie.cms.gov/Encounter/76750a0d-f58c-4b19-bef8-10a1a56e960b",
    "resource": {
      "resourceType": "Encounter",
      "id": "76750a0d-f58c-4b19-bef8-10a1a56e960b",
      "meta": {
        "profile": [ "http://hl7.org/fhir/us/qicore/StructureDefinition/qicore-encounter" ]
      },
      "status": "finished",
      "class": {
        "system": "http://terminology.hl7.org/CodeSystem/v3-ActCode",
        "code": "AMB",
        "display": "ambulatory"
      },
      "type": [ {
        "coding": [ {
          "system": "http://snomed.info/sct",
          "code": "3391000175108",
          "display": "Office visit for pediatric care and assessment (procedure)"
        } ]
      } ],
      "subject": {
        "reference": "Patient/821185af-e5b2-4552-a63c-36b64a9200a9"
      },
      "period": {
        "start": "2026-01-01T00:00:00.000+00:00",
        "end": "2026-01-01T01:00:00.000+00:00"
      }
    },
    "request": {
      "method": "PUT",
      "url": "Encounter/76750a0d-f58c-4b19-bef8-10a1a56e960b"
    }
  }, {
    "fullUrl": "https://madie.cms.gov/Condition/5a926e9a-42ca-4723-ac70-05fb8d76c1f9",
    "resource": {
      "resourceType": "Condition",
      "id": "5a926e9a-42ca-4723-ac70-05fb8d76c1f9",
      "meta": {
        "profile": [ "http://hl7.org/fhir/us/qicore/StructureDefinition/qicore-condition-problems-health-concerns" ]
      },
      "clinicalStatus": {
        "coding": [ {
          "system": "http://terminology.hl7.org/CodeSystem/condition-clinical",
          "code": "active"
        } ]
      },
      "category": [ {
        "coding": [ {
          "system": "http://terminology.hl7.org/CodeSystem/condition-category",
          "code": "problem-list-item",
          "display": "Problem List Item"
        } ]
      } ],
      "code": {
        "coding": [ {
          "system": "http://snomed.info/sct",
          "code": "371125006",
          "display": "Labile essential hypertension (disorder)"
        } ]
      },
      "subject": {
        "reference": "Patient/821185af-e5b2-4552-a63c-36b64a9200a9"
      },
      "onsetDateTime": "2026-06-30T23:59:59.000+00:00"
    },
    "request": {
      "method": "PUT",
      "url": "Condition/5a926e9a-42ca-4723-ac70-05fb8d76c1f9"
    }
  }, {
    "fullUrl": "https://madie.cms.gov/Encounter/7c91edd5-f824-4399-adca-5264a607ffcc",
    "resource": {
      "resourceType": "Encounter",
      "id": "7c91edd5-f824-4399-adca-5264a607ffcc",
      "meta": {
        "profile": [ "http://hl7.org/fhir/us/qicore/StructureDefinition/qicore-encounter" ]
      },
      "status": "finished",
      "class": {
        "system": "http://terminology.hl7.org/CodeSystem/v3-ActCode",
        "code": "AMB",
        "display": "ambulatory"
      },
      "type": [ {
        "coding": [ {
          "system": "http://snomed.info/sct",
          "code": "4525004",
          "display": "Emergency department patient visit (procedure)"
        } ]
      } ],
      "subject": {
        "reference": "Patient/821185af-e5b2-4552-a63c-36b64a9200a9"
      },
      "period": {
        "start": "2025-12-31T00:00:00.000+00:00",
        "end": "2026-01-01T01:00:00.000+00:00"
      },
      "diagnosis": [ {
        "condition": {
          "reference": "Condition/07f63213-80f3-4a50-b89f-835caad4a99c"
        }
      } ]
    },
    "request": {
      "method": "PUT",
      "url": "Encounter/7c91edd5-f824-4399-adca-5264a607ffcc"
    }
  }, {
    "fullUrl": "https://madie.cms.gov/Encounter/1b9799e4-46c7-4695-abb4-1a5a5b7ba18f",
    "resource": {
      "resourceType": "Encounter",
      "id": "1b9799e4-46c7-4695-abb4-1a5a5b7ba18f",
      "meta": {
        "profile": [ "http://hl7.org/fhir/us/qicore/StructureDefinition/qicore-encounter" ]
      },
      "status": "finished",
      "class": {
        "system": "http://terminology.hl7.org/CodeSystem/v3-ActCode",
        "code": "AMB",
        "display": "ambulatory"
      },
      "type": [ {
        "coding": [ {
          "system": "http://snomed.info/sct",
          "code": "4525004",
          "display": "Emergency department patient visit (procedure)"
        } ]
      } ],
      "subject": {
        "reference": "Patient/821185af-e5b2-4552-a63c-36b64a9200a9"
      },
      "period": {
        "start": "2026-05-01T00:00:00.000+00:00",
        "end": "2026-05-01T01:00:00.000+00:00"
      },
      "diagnosis": [ {
        "condition": {
          "reference": "Condition/07f63213-80f3-4a50-b89f-835caad4a99c"
        }
      } ]
    },
    "request": {
      "method": "PUT",
      "url": "Encounter/1b9799e4-46c7-4695-abb4-1a5a5b7ba18f"
    }
  }, {
    "fullUrl": "https://madie.cms.gov/Condition/07f63213-80f3-4a50-b89f-835caad4a99c",
    "resource": {
      "resourceType": "Condition",
      "id": "07f63213-80f3-4a50-b89f-835caad4a99c",
      "meta": {
        "profile": [ "http://hl7.org/fhir/us/qicore/StructureDefinition/qicore-condition-problems-health-concerns" ]
      },
      "clinicalStatus": {
        "coding": [ {
          "system": "http://terminology.hl7.org/CodeSystem/condition-clinical",
          "code": "active"
        } ]
      },
      "category": [ {
        "coding": [ {
          "system": "http://terminology.hl7.org/CodeSystem/condition-category",
          "code": "problem-list-item",
          "display": "Problem List Item"
        } ]
      } ],
      "code": {
        "coding": [ {
          "system": "http://snomed.info/sct",
          "code": "101421000119107",
          "display": "Dementia due to Parkinson's disease (disorder)"
        } ]
      },
      "subject": {
        "reference": "Patient/821185af-e5b2-4552-a63c-36b64a9200a9"
      },
      "onsetDateTime": "2025-12-31T23:59:00.000+00:00"
    },
    "request": {
      "method": "PUT",
      "url": "Condition/07f63213-80f3-4a50-b89f-835caad4a99c"
    }
  }, {
    "fullUrl": "https://madie.cms.gov/DeviceRequest/5e077e3d-71ce-462c-96ef-18919b0bd52a",
    "resource": {
      "resourceType": "DeviceRequest",
      "id": "5e077e3d-71ce-462c-96ef-18919b0bd52a",
      "meta": {
        "profile": [ "http://hl7.org/fhir/us/qicore/StructureDefinition/qicore-devicerequest" ]
      },
      "status": "completed",
      "intent": "order",
      "codeCodeableConcept": {
        "coding": [ {
          "system": "http://snomed.info/sct",
          "code": "183240000",
          "display": "Self-propelled wheelchair (physical object)"
        } ]
      },
      "subject": {
        "reference": "Patient/821185af-e5b2-4552-a63c-36b64a9200a9"
      },
      "authoredOn": "2026-11-01T23:59:00.000+00:00"
    },
    "request": {
      "method": "PUT",
      "url": "DeviceRequest/5e077e3d-71ce-462c-96ef-18919b0bd52a"
    }
  }, {
    "fullUrl": "https://madie.cms.gov/MeasureReport/774c09d2-ef68-44ce-a0ac-28087cdbab94",
    "resource": {
      "resourceType": "MeasureReport",
      "id": "774c09d2-ef68-44ce-a0ac-28087cdbab94",
      "meta": {
        "profile": [ "http://hl7.org/fhir/us/cqfmeasures/StructureDefinition/test-case-cqfm" ]
      },
      "contained": [ {
        "resourceType": "Parameters",
        "id": "9c0344d9-deb9-4321-b58d-4931eb3880a2-parameters",
        "parameter": [ {
          "name": "subject",
          "valueString": "821185af-e5b2-4552-a63c-36b64a9200a9"
        } ]
      } ],
      "extension": [ {
        "url": "http://hl7.org/fhir/StructureDefinition/cqf-inputParameters",
        "valueReference": {
          "reference": "#9c0344d9-deb9-4321-b58d-4931eb3880a2-parameters"
        }
      }, {
        "url": "http://hl7.org/fhir/us/cqfmeasures/StructureDefinition/cqfm-testCaseDescription",
        "valueMarkdown": "Frailty device request with no doNotPerform extension value is still meeting DENEX because value is fixed to false in the profile"
      } ],
      "modifierExtension": [ {
        "url": "http://hl7.org/fhir/us/cqfmeasures/StructureDefinition/cqfm-isTestCase",
        "valueBoolean": true
      } ],
      "status": "complete",
      "type": "individual",
      "measure": "https://madie.cms.gov/Measure/CMS165FHIRControllingHighBP",
      "period": {
        "start": "2026-01-01",
        "end": "2026-12-31"
      },
      "group": [ {
        "id": "Group_1",
        "population": [ {
          "id": "InitialPopulation_1",
          "code": {
            "coding": [ {
              "system": "http://terminology.hl7.org/CodeSystem/measure-population",
              "code": "initial-population",
              "display": "Initial Population"
            } ]
          },
          "count": 1
        }, {
          "id": "Denominator_1",
          "code": {
            "coding": [ {
              "system": "http://terminology.hl7.org/CodeSystem/measure-population",
              "code": "denominator",
              "display": "Denominator"
            } ]
          },
          "count": 1
        }, {
          "id": "DenominatorExclusion_1",
          "code": {
            "coding": [ {
              "system": "http://terminology.hl7.org/CodeSystem/measure-population",
              "code": "denominator-exclusion",
              "display": "Denominator Exclusion"
            } ]
          },
          "count": 1
        }, {
          "id": "Numerator_1",
          "code": {
            "coding": [ {
              "system": "http://terminology.hl7.org/CodeSystem/measure-population",
              "code": "numerator",
              "display": "Numerator"
            } ]
          },
          "count": 0
        } ],
        "measureScore": {
          "value": 1.0
        }
      } ],
      "evaluatedResource": [ {
        "reference": "Patient/821185af-e5b2-4552-a63c-36b64a9200a9"
      }, {
        "reference": "Encounter/76750a0d-f58c-4b19-bef8-10a1a56e960b"
      }, {
        "reference": "Condition/5a926e9a-42ca-4723-ac70-05fb8d76c1f9"
      }, {
        "reference": "Encounter/7c91edd5-f824-4399-adca-5264a607ffcc"
      }, {
        "reference": "Encounter/1b9799e4-46c7-4695-abb4-1a5a5b7ba18f"
      }, {
        "reference": "Condition/07f63213-80f3-4a50-b89f-835caad4a99c"
      }, {
        "reference": "DeviceRequest/5e077e3d-71ce-462c-96ef-18919b0bd52a"
      } ]
    },
    "request": {
      "method": "PUT",
      "url": "MeasureReport/774c09d2-ef68-44ce-a0ac-28087cdbab94"
    }
  } ]
}