{
  "resourceType": "Bundle",
  "id": "60f82c2e98086b570510e26e",
  "type": "transaction",
  "entry": [ {
    "fullUrl": "https://madie.cms.gov/Patient/9bfee327-99be-48de-ba09-5b64e4435f8d",
    "resource": {
      "resourceType": "Patient",
      "id": "9bfee327-99be-48de-ba09-5b64e4435f8d",
      "meta": {
        "profile": [ "http://hl7.org/fhir/us/qicore/StructureDefinition/qicore-patient" ]
      },
      "text": {
        "status": "generated",
        "div": "<div xmlns=\"http://www.w3.org/1999/xhtml\"><div class=\"hapiHeaderText\">LOS=1Day <b>DENEXPASS </b></div><table class=\"hapiPropertyTable\"><tbody><tr><td>Identifier</td><td>8bc608f158a1b40b295820be8e9bc30e</td></tr><tr><td>Date of birth</td><td><span>21 August 1993</span></td></tr></tbody></table></div>"
      },
      "extension": [ {
        "url": "http://hl7.org/fhir/us/core/StructureDefinition/us-core-race",
        "extension": [ {
          "url": "ombCategory",
          "valueCoding": {
            "system": "urn:oid:2.16.840.1.113883.6.238",
            "code": "1002-5",
            "display": "American Indian or Alaska Native",
            "userSelected": true
          }
        }, {
          "url": "text",
          "valueString": "American Indian or Alaska Native"
        } ]
      }, {
        "url": "http://hl7.org/fhir/us/core/StructureDefinition/us-core-ethnicity",
        "extension": [ {
          "url": "ombCategory",
          "valueCoding": {
            "system": "urn:oid:2.16.840.1.113883.6.238",
            "code": "2186-5",
            "display": "Not Hispanic or Latino",
            "userSelected": true
          }
        }, {
          "url": "text",
          "valueString": "Not Hispanic or Latino"
        } ]
      } ],
      "identifier": [ {
        "type": {
          "coding": [ {
            "system": "http://terminology.hl7.org/CodeSystem/v2-0203",
            "code": "MR"
          } ]
        },
        "system": "https://bonnie-fhir.healthit.gov/",
        "value": "60f82c2e98086b570510e26e"
      } ],
      "active": true,
      "name": [ {
        "use": "usual",
        "family": "DENEXPass",
        "given": [ "LOSEQ1Day" ]
      } ],
      "gender": "male",
      "birthDate": "1994-08-21"
    },
    "request": {
      "method": "PUT",
      "url": "Patient/9bfee327-99be-48de-ba09-5b64e4435f8d"
    }
  }, {
    "fullUrl": "https://madie.cms.gov/Encounter/7873efea-8f1c-475e-9535-6573d7fd7d48",
    "resource": {
      "resourceType": "Encounter",
      "id": "7873efea-8f1c-475e-9535-6573d7fd7d48",
      "meta": {
        "profile": [ "http://hl7.org/fhir/us/qicore/StructureDefinition/qicore-encounter" ]
      },
      "status": "finished",
      "class": {
        "system": "http://terminology.hl7.org/CodeSystem/v3-ActCode",
        "code": "EMER",
        "display": "emergency"
      },
      "type": [ {
        "coding": [ {
          "system": "http://snomed.info/sct",
          "code": "4525004"
        } ]
      } ],
      "subject": {
        "reference": "Patient/9bfee327-99be-48de-ba09-5b64e4435f8d"
      },
      "period": {
        "start": "2026-08-19T08:00:00.000+00:00",
        "end": "2026-08-20T20:00:00.000+00:00"
      },
      "length": {
        "value": 1,
        "unit": "days"
      }
    },
    "request": {
      "method": "PUT",
      "url": "Encounter/7873efea-8f1c-475e-9535-6573d7fd7d48"
    }
  }, {
    "fullUrl": "https://madie.cms.gov/Encounter/8f8197ac-14d8-4461-9761-e99e2efad790",
    "resource": {
      "resourceType": "Encounter",
      "id": "8f8197ac-14d8-4461-9761-e99e2efad790",
      "meta": {
        "profile": [ "http://hl7.org/fhir/us/qicore/StructureDefinition/qicore-encounter" ]
      },
      "status": "finished",
      "class": {
        "system": "http://terminology.hl7.org/CodeSystem/v3-ActCode",
        "code": "IMP",
        "display": "inpatient encounter"
      },
      "type": [ {
        "coding": [ {
          "system": "http://snomed.info/sct",
          "code": "32485007"
        } ]
      } ],
      "subject": {
        "reference": "Patient/9bfee327-99be-48de-ba09-5b64e4435f8d"
      },
      "period": {
        "start": "2026-08-20T22:00:00.000+00:00",
        "end": "2026-08-21T23:59:00.000+00:00"
      },
      "length": {
        "value": 1,
        "unit": "days"
      },
      "reasonReference": [ {
        "reference": "Condition/b104bab1-c92c-43b4-98aa-483740330b87"
      } ]
    },
    "request": {
      "method": "PUT",
      "url": "Encounter/8f8197ac-14d8-4461-9761-e99e2efad790"
    }
  }, {
    "fullUrl": "https://madie.cms.gov/Coverage/dd3ce6cd-29e2-4e5b-a1e6-3126a45a2104",
    "resource": {
      "resourceType": "Coverage",
      "id": "dd3ce6cd-29e2-4e5b-a1e6-3126a45a2104",
      "status": "active",
      "beneficiary": {
        "reference": "Patient/9bfee327-99be-48de-ba09-5b64e4435f8d"
      },
      "period": {
        "start": "1994-08-21T07:00:00.000+00:00"
      },
      "payor": [ {
        "reference": "Organization/fb810731-3552-48e5-afad-3a8c09a5fbad"
      } ]
    },
    "request": {
      "method": "PUT",
      "url": "Coverage/dd3ce6cd-29e2-4e5b-a1e6-3126a45a2104"
    }
  }, {
    "fullUrl": "https://madie.cms.gov/Condition/b104bab1-c92c-43b4-98aa-483740330b87",
    "resource": {
      "resourceType": "Condition",
      "id": "b104bab1-c92c-43b4-98aa-483740330b87",
      "meta": {
        "profile": [ "http://hl7.org/fhir/us/qicore/StructureDefinition/qicore-condition-encounter-diagnosis" ]
      },
      "clinicalStatus": {
        "coding": [ {
          "system": "http://terminology.hl7.org/CodeSystem/condition-clinical",
          "code": "active"
        } ]
      },
      "verificationStatus": {
        "coding": [ {
          "system": "http://terminology.hl7.org/CodeSystem/condition-ver-status",
          "code": "confirmed"
        } ]
      },
      "category": [ {
        "coding": [ {
          "system": "http://terminology.hl7.org/CodeSystem/condition-category",
          "code": "encounter-diagnosis",
          "display": "Encounter Diagnosis"
        } ]
      } ],
      "code": {
        "coding": [ {
          "system": "http://snomed.info/sct",
          "version": "2020-09",
          "code": "111297002",
          "display": "Nonparalytic stroke (disorder)",
          "userSelected": true
        } ]
      },
      "subject": {
        "reference": "Patient/9bfee327-99be-48de-ba09-5b64e4435f8d"
      },
      "encounter": {
        "reference": "Encounter/8f8197ac-14d8-4461-9761-e99e2efad790"
      },
      "recordedDate": "2026-08-13T08:00:00.000+00:00"
    },
    "request": {
      "method": "PUT",
      "url": "Condition/b104bab1-c92c-43b4-98aa-483740330b87"
    }
  }, {
    "fullUrl": "https://madie.cms.gov/claim/5ca62962b8484628b8de1ec5",
    "resource": {
      "resourceType": "Claim",
      "id": "5ca62962b8484628b8de1ec5",
      "meta": {
        "profile": [ "http://hl7.org/fhir/us/qicore/StructureDefinition/qicore-claim" ]
      },
      "status": "active",
      "type": {
        "coding": [ {
          "system": "http://terminology.hl7.org/CodeSystem/claim-type",
          "code": "institutional"
        } ]
      },
      "use": "claim",
      "patient": {
        "reference": "Patient/d170a0a8-b5ad-4303-b6df-e304dd5f92ad"
      },
      "created": "2026-12-01",
      "provider": {
        "reference": "Practitioner/practitioner-123456"
      },
      "priority": {
        "coding": [ {
          "system": "http://terminology.hl7.org/CodeSystem/processpriority",
          "code": "normal"
        } ]
      },
      "diagnosis": [ {
        "sequence": 1,
        "diagnosisCodeableConcept": {
          "coding": [ {
            "system": "http://hl7.org/fhir/sid/icd-10-cm",
            "code": "I63.00"
          } ]
        },
        "type": [ {
          "coding": [ {
            "system": "http://terminology.hl7.org/CodeSystem/ex-diagnosistype",
            "code": "principal"
          } ]
        } ]
      } ],
      "insurance": [ {
        "sequence": 1,
        "focal": true,
        "coverage": {
          "reference": "Coverage/5fa041661c76ba66d9959367"
        }
      } ],
      "item": [ {
        "sequence": 1,
        "diagnosisSequence": [ 1 ],
        "productOrService": {
          "coding": [ {
            "system": "http://terminology.hl7.org/CodeSystem/ex-USCLS",
            "code": "99555"
          } ]
        },
        "encounter": [ {
          "reference": "Encounter/8f8197ac-14d8-4461-9761-e99e2efad790"
        } ]
      } ]
    },
    "request": {
      "method": "PUT",
      "url": "Claim/5ca62962b8484628b8de1ec5"
    }
  }, {
    "fullUrl": "https://madie.cms.gov/Organization/fb810731-3552-48e5-afad-3a8c09a5fbad",
    "resource": {
      "resourceType": "Organization",
      "id": "fb810731-3552-48e5-afad-3a8c09a5fbad",
      "meta": {
        "profile": [ "http://hl7.org/fhir/us/qicore/StructureDefinition/qicore-organization" ]
      },
      "identifier": [ {
        "use": "temp",
        "system": "urn:oid:2.16.840.1.113883.4.4",
        "value": "21-3259825"
      } ],
      "active": true,
      "type": [ {
        "coding": [ {
          "system": "http://terminology.hl7.org/CodeSystem/organization-type",
          "code": "pay",
          "display": "Payer"
        } ]
      } ],
      "name": "Blue Cross Blue Shield of Texas",
      "telecom": [ {
        "system": "phone",
        "value": "(+1) 972-766-6900"
      } ],
      "address": [ {
        "use": "billing",
        "type": "postal",
        "line": [ "P.O. Box 660044" ],
        "city": "Dallas",
        "state": "TX",
        "postalCode": "75266-0044",
        "country": "USA"
      } ]
    },
    "request": {
      "method": "PUT",
      "url": "Organization/fb810731-3552-48e5-afad-3a8c09a5fbad"
    }
  }, {
    "fullUrl": "https://madie.cms.gov/MeasureReport/86d7e13d-0cb4-47bb-9ae7-2dda4306f4fb",
    "resource": {
      "resourceType": "MeasureReport",
      "id": "86d7e13d-0cb4-47bb-9ae7-2dda4306f4fb",
      "meta": {
        "profile": [ "http://hl7.org/fhir/us/cqfmeasures/StructureDefinition/test-case-cqfm" ]
      },
      "contained": [ {
        "resourceType": "Parameters",
        "id": "a3ace37f-3f12-4873-996d-1ba9e590b1b1-parameters",
        "parameter": [ {
          "name": "subject",
          "valueString": "9bfee327-99be-48de-ba09-5b64e4435f8d"
        } ]
      } ],
      "extension": [ {
        "url": "http://hl7.org/fhir/StructureDefinition/cqf-inputParameters",
        "valueReference": {
          "reference": "#a3ace37f-3f12-4873-996d-1ba9e590b1b1-parameters"
        }
      }, {
        "url": "http://hl7.org/fhir/us/cqfmeasures/StructureDefinition/cqfm-testCaseDescription",
        "valueMarkdown": "LOS = 1 Day, only counts IP visit since ED visit > 1 hour before IP visit\n"
      } ],
      "modifierExtension": [ {
        "url": "http://hl7.org/fhir/us/cqfmeasures/StructureDefinition/cqfm-isTestCase",
        "valueBoolean": true
      } ],
      "status": "complete",
      "type": "individual",
      "measure": "https://madie.cms.gov/Measure/CMS72FHIRSTKAntithromboticDay2",
      "period": {
        "start": "2026-01-01",
        "end": "2026-12-31"
      },
      "group": [ {
        "id": "Group_1",
        "population": [ {
          "id": "InitialPopulation_1",
          "code": {
            "coding": [ {
              "system": "http://terminology.hl7.org/CodeSystem/measure-population",
              "code": "initial-population",
              "display": "Initial Population"
            } ]
          },
          "count": 1
        }, {
          "id": "Denominator_1",
          "code": {
            "coding": [ {
              "system": "http://terminology.hl7.org/CodeSystem/measure-population",
              "code": "denominator",
              "display": "Denominator"
            } ]
          },
          "count": 1
        }, {
          "id": "DenominatorExclusion_1",
          "code": {
            "coding": [ {
              "system": "http://terminology.hl7.org/CodeSystem/measure-population",
              "code": "denominator-exclusion",
              "display": "Denominator Exclusion"
            } ]
          },
          "count": 1
        }, {
          "id": "Numerator_1",
          "code": {
            "coding": [ {
              "system": "http://terminology.hl7.org/CodeSystem/measure-population",
              "code": "numerator",
              "display": "Numerator"
            } ]
          },
          "count": 0
        }, {
          "id": "DenominatorException_1",
          "code": {
            "coding": [ {
              "system": "http://terminology.hl7.org/CodeSystem/measure-population",
              "code": "denominator-exception",
              "display": "Denominator Exception"
            } ]
          },
          "count": 0
        } ],
        "measureScore": {
          "value": 0.0
        }
      } ],
      "evaluatedResource": [ {
        "reference": "Patient/9bfee327-99be-48de-ba09-5b64e4435f8d"
      }, {
        "reference": "Encounter/7873efea-8f1c-475e-9535-6573d7fd7d48"
      }, {
        "reference": "Encounter/8f8197ac-14d8-4461-9761-e99e2efad790"
      }, {
        "reference": "Coverage/dd3ce6cd-29e2-4e5b-a1e6-3126a45a2104"
      }, {
        "reference": "Condition/b104bab1-c92c-43b4-98aa-483740330b87"
      }, {
        "reference": "Claim/5ca62962b8484628b8de1ec5"
      }, {
        "reference": "Organization/fb810731-3552-48e5-afad-3a8c09a5fbad"
      } ]
    },
    "request": {
      "method": "PUT",
      "url": "MeasureReport/86d7e13d-0cb4-47bb-9ae7-2dda4306f4fb"
    }
  } ]
}