{
  "resourceType": "Bundle",
  "id": "612e6af202c62a011f2ebdd1",
  "type": "transaction",
  "entry": [ {
    "fullUrl": "https://madie.cms.gov/Patient/393c7827-5136-4a2d-916d-3da088d2c053",
    "resource": {
      "resourceType": "Patient",
      "id": "393c7827-5136-4a2d-916d-3da088d2c053",
      "meta": {
        "profile": [ "http://hl7.org/fhir/us/qicore/StructureDefinition/qicore-patient" ]
      },
      "text": {
        "status": "generated",
        "div": "<div xmlns=\"http://www.w3.org/1999/xhtml\"><div class=\"hapiHeaderText\">MAOralXaDayAFEncStartKneeSurgRvltDT <b>NUMERPASS </b></div><table class=\"hapiPropertyTable\"><tbody><tr><td>Date of birth</td><td><span>02 January 1974</span></td></tr></tbody></table></div>"
      },
      "extension": [ {
        "url": "http://hl7.org/fhir/us/core/StructureDefinition/us-core-race",
        "extension": [ {
          "url": "ombCategory",
          "valueCoding": {
            "system": "urn:oid:2.16.840.1.113883.6.238",
            "code": "1002-5",
            "display": "American Indian or Alaska Native",
            "userSelected": true
          }
        }, {
          "url": "text",
          "valueString": "American Indian or Alaska Native"
        } ]
      }, {
        "url": "http://hl7.org/fhir/us/core/StructureDefinition/us-core-ethnicity",
        "extension": [ {
          "url": "ombCategory",
          "valueCoding": {
            "system": "urn:oid:2.16.840.1.113883.6.238",
            "code": "2135-2",
            "display": "Hispanic or Latino",
            "userSelected": true
          }
        }, {
          "url": "text",
          "valueString": "Hispanic or Latino"
        } ]
      } ],
      "identifier": [ {
        "type": {
          "coding": [ {
            "system": "http://terminology.hl7.org/CodeSystem/v2-0203",
            "code": "MR"
          } ]
        },
        "system": "https://bonnie-fhir.healthit.gov/",
        "value": "612e6af202c62a011f2ebdd1"
      } ],
      "active": true,
      "name": [ {
        "use": "usual",
        "family": "NUMERPass",
        "given": [ "MAOralXaDayAFEncStartKneeSurgRvltDT" ]
      } ],
      "gender": "female",
      "birthDate": "1975-01-02"
    },
    "request": {
      "method": "PUT",
      "url": "Patient/393c7827-5136-4a2d-916d-3da088d2c053"
    }
  }, {
    "fullUrl": "https://madie.cms.gov/Encounter/b3a4db72-9ba5-4487-bad0-eadc7710de89",
    "resource": {
      "resourceType": "Encounter",
      "id": "b3a4db72-9ba5-4487-bad0-eadc7710de89",
      "meta": {
        "profile": [ "http://hl7.org/fhir/us/qicore/StructureDefinition/qicore-encounter" ]
      },
      "status": "finished",
      "class": {
        "system": "http://terminology.hl7.org/CodeSystem/v3-ActCode",
        "code": "IMP",
        "display": "inpatient encounter"
      },
      "type": [ {
        "coding": [ {
          "system": "http://snomed.info/sct",
          "code": "183452005"
        } ]
      } ],
      "subject": {
        "reference": "Patient/393c7827-5136-4a2d-916d-3da088d2c053"
      },
      "period": {
        "start": "2026-11-01T08:00:00.000+00:00",
        "end": "2026-11-26T08:15:00.000+00:00"
      },
      "length": {
        "value": 25.0,
        "unit": "day"
      }
    },
    "request": {
      "method": "PUT",
      "url": "Encounter/b3a4db72-9ba5-4487-bad0-eadc7710de89"
    }
  }, {
    "fullUrl": "https://madie.cms.gov/Coverage/20f6cf2a-3062-4e63-bb9d-2c6da26fa8f1",
    "resource": {
      "resourceType": "Coverage",
      "id": "20f6cf2a-3062-4e63-bb9d-2c6da26fa8f1",
      "status": "active",
      "beneficiary": {
        "reference": "Patient/393c7827-5136-4a2d-916d-3da088d2c053"
      },
      "period": {
        "start": "1975-01-02T08:00:00.000+00:00"
      },
      "payor": [ {
        "reference": "Organization/7f5138bb-7c45-4bef-aa84-a7971e049941"
      } ]
    },
    "request": {
      "method": "PUT",
      "url": "Coverage/20f6cf2a-3062-4e63-bb9d-2c6da26fa8f1"
    }
  }, {
    "fullUrl": "https://madie.cms.gov/MedicationAdministration/106b3b75-4cd6-4518-95bc-1c44477354a2",
    "resource": {
      "resourceType": "MedicationAdministration",
      "id": "106b3b75-4cd6-4518-95bc-1c44477354a2",
      "meta": {
        "profile": [ "http://hl7.org/fhir/us/qicore/StructureDefinition/qicore-medicationadministration" ]
      },
      "status": "completed",
      "medicationCodeableConcept": {
        "coding": [ {
          "system": "http://www.nlm.nih.gov/research/umls/rxnorm",
          "code": "1992427"
        } ]
      },
      "subject": {
        "reference": "Patient/393c7827-5136-4a2d-916d-3da088d2c053"
      },
      "effectivePeriod": {
        "start": "2026-11-02T23:59:00.000+00:00",
        "end": "2026-11-02T23:59:00.000+00:00"
      }
    },
    "request": {
      "method": "PUT",
      "url": "MedicationAdministration/106b3b75-4cd6-4518-95bc-1c44477354a2"
    }
  }, {
    "fullUrl": "https://madie.cms.gov/Procedure/28926389-113b-4c58-a4ab-ca76ad9ca65a",
    "resource": {
      "resourceType": "Procedure",
      "id": "28926389-113b-4c58-a4ab-ca76ad9ca65a",
      "meta": {
        "profile": [ "http://hl7.org/fhir/us/qicore/StructureDefinition/qicore-procedure" ]
      },
      "extension": [ {
        "url": "http://hl7.org/fhir/us/qicore/StructureDefinition/qicore-recorded",
        "valueDateTime": "2013-11-19T13:35:00.000+00:00"
      } ],
      "status": "completed",
      "code": {
        "coding": [ {
          "system": "http://www.cms.gov/Medicare/Coding/ICD10",
          "code": "0SUU09Z"
        } ]
      },
      "subject": {
        "reference": "Patient/393c7827-5136-4a2d-916d-3da088d2c053"
      },
      "performedDateTime": "2026-11-01T09:00:00.000+00:00"
    },
    "request": {
      "method": "PUT",
      "url": "Procedure/28926389-113b-4c58-a4ab-ca76ad9ca65a"
    }
  }, {
    "fullUrl": "https://madie.cms.gov/Organization/7f5138bb-7c45-4bef-aa84-a7971e049941",
    "resource": {
      "resourceType": "Organization",
      "id": "7f5138bb-7c45-4bef-aa84-a7971e049941",
      "meta": {
        "profile": [ "http://hl7.org/fhir/us/qicore/StructureDefinition/qicore-organization" ]
      },
      "identifier": [ {
        "use": "temp",
        "system": "urn:oid:2.16.840.1.113883.4.4",
        "value": "21-3259825"
      } ],
      "active": true,
      "type": [ {
        "coding": [ {
          "system": "http://terminology.hl7.org/CodeSystem/organization-type",
          "code": "pay",
          "display": "Payer"
        } ]
      } ],
      "name": "Blue Cross Blue Shield of Texas",
      "telecom": [ {
        "system": "phone",
        "value": "(+1) 972-766-6900"
      } ],
      "address": [ {
        "use": "billing",
        "type": "postal",
        "line": [ "P.O. Box 660044" ],
        "city": "Dallas",
        "state": "TX",
        "postalCode": "75266-0044",
        "country": "USA"
      } ]
    },
    "request": {
      "method": "PUT",
      "url": "Organization/7f5138bb-7c45-4bef-aa84-a7971e049941"
    }
  }, {
    "fullUrl": "https://madie.cms.gov/Practitioner/2665251a-9d76-45f4-ac29-dbb771a46f42",
    "resource": {
      "resourceType": "Practitioner",
      "id": "2665251a-9d76-45f4-ac29-dbb771a46f42",
      "identifier": [ {
        "system": "http://hl7.org/fhir/sid/us-npi",
        "value": "123456"
      } ],
      "name": [ {
        "family": "Evil",
        "prefix": [ "Dr" ]
      } ]
    },
    "request": {
      "method": "PUT",
      "url": "Practitioner/2665251a-9d76-45f4-ac29-dbb771a46f42"
    }
  }, {
    "fullUrl": "https://madie.cms.gov/MeasureReport/4b493c78-36ea-4e4e-860d-b2b490cd3eaa",
    "resource": {
      "resourceType": "MeasureReport",
      "id": "4b493c78-36ea-4e4e-860d-b2b490cd3eaa",
      "meta": {
        "profile": [ "http://hl7.org/fhir/us/cqfmeasures/StructureDefinition/test-case-cqfm" ]
      },
      "contained": [ {
        "resourceType": "Parameters",
        "id": "c13db83a-f67a-46a8-8eb6-1fca0960e8b4-parameters",
        "parameter": [ {
          "name": "subject",
          "valueString": "393c7827-5136-4a2d-916d-3da088d2c053"
        } ]
      } ],
      "extension": [ {
        "url": "http://hl7.org/fhir/StructureDefinition/cqf-inputParameters",
        "valueReference": {
          "reference": "#c13db83a-f67a-46a8-8eb6-1fca0960e8b4-parameters"
        }
      }, {
        "url": "http://hl7.org/fhir/us/cqfmeasures/StructureDefinition/cqfm-testCaseDescription",
        "valueMarkdown": "\"Oral Xa 11:59PM day after Inp.start\nHip replacement surgery Revelant Datetime after IP\"\n"
      } ],
      "modifierExtension": [ {
        "url": "http://hl7.org/fhir/us/cqfmeasures/StructureDefinition/cqfm-isTestCase",
        "valueBoolean": true
      } ],
      "status": "complete",
      "type": "individual",
      "measure": "https://madie.cms.gov/Measure/CMS108FHIRVTEProphylaxis",
      "period": {
        "start": "2026-01-01",
        "end": "2026-12-31"
      },
      "group": [ {
        "id": "Group_1",
        "population": [ {
          "id": "InitialPopulation_1",
          "code": {
            "coding": [ {
              "system": "http://terminology.hl7.org/CodeSystem/measure-population",
              "code": "initial-population",
              "display": "Initial Population"
            } ]
          },
          "count": 1
        }, {
          "id": "Denominator_1",
          "code": {
            "coding": [ {
              "system": "http://terminology.hl7.org/CodeSystem/measure-population",
              "code": "denominator",
              "display": "Denominator"
            } ]
          },
          "count": 1
        }, {
          "id": "DenominatorExclusion_1",
          "code": {
            "coding": [ {
              "system": "http://terminology.hl7.org/CodeSystem/measure-population",
              "code": "denominator-exclusion",
              "display": "Denominator Exclusion"
            } ]
          },
          "count": 0
        }, {
          "id": "Numerator_1",
          "code": {
            "coding": [ {
              "system": "http://terminology.hl7.org/CodeSystem/measure-population",
              "code": "numerator",
              "display": "Numerator"
            } ]
          },
          "count": 1
        } ],
        "measureScore": {
          "value": 0.0
        }
      } ],
      "evaluatedResource": [ {
        "reference": "Patient/393c7827-5136-4a2d-916d-3da088d2c053"
      }, {
        "reference": "Encounter/b3a4db72-9ba5-4487-bad0-eadc7710de89"
      }, {
        "reference": "Coverage/20f6cf2a-3062-4e63-bb9d-2c6da26fa8f1"
      }, {
        "reference": "MedicationAdministration/106b3b75-4cd6-4518-95bc-1c44477354a2"
      }, {
        "reference": "Procedure/28926389-113b-4c58-a4ab-ca76ad9ca65a"
      }, {
        "reference": "Organization/7f5138bb-7c45-4bef-aa84-a7971e049941"
      }, {
        "reference": "Practitioner/2665251a-9d76-45f4-ac29-dbb771a46f42"
      } ]
    },
    "request": {
      "method": "PUT",
      "url": "MeasureReport/4b493c78-36ea-4e4e-860d-b2b490cd3eaa"
    }
  } ]
}