{
  "resourceType": "Bundle",
  "id": "DENEXPass-66yoInNursingHomeOnDec31OfMP",
  "type": "transaction",
  "entry": [ {
    "fullUrl": "https://madie.cms.gov/Patient/f0b61b7a-4381-486d-9eee-2128ada5280a",
    "resource": {
      "resourceType": "Patient",
      "id": "f0b61b7a-4381-486d-9eee-2128ada5280a",
      "meta": {
        "profile": [ "http://hl7.org/fhir/us/qicore/StructureDefinition/qicore-patient" ]
      },
      "extension": [ {
        "url": "http://hl7.org/fhir/us/core/StructureDefinition/us-core-race",
        "extension": [ {
          "url": "ombCategory",
          "valueCoding": {
            "system": "urn:oid:2.16.840.1.113883.6.238",
            "code": "2028-9",
            "display": "Asian"
          }
        }, {
          "url": "text",
          "valueString": "Asian"
        } ]
      }, {
        "url": "http://hl7.org/fhir/us/core/StructureDefinition/us-core-ethnicity",
        "extension": [ {
          "url": "ombCategory",
          "valueCoding": {
            "system": "urn:oid:2.16.840.1.113883.6.238",
            "code": "2135-2",
            "display": "Hispanic or Latino"
          }
        }, {
          "url": "text",
          "valueString": "Hispanic or Latino"
        } ]
      } ],
      "identifier": [ {
        "system": "http://hospital.smarthealthit.org",
        "value": "999999995"
      } ],
      "name": [ {
        "family": "Bertha",
        "given": [ "Betty" ]
      } ],
      "gender": "female",
      "birthDate": "1960-12-31"
    },
    "request": {
      "method": "PUT",
      "url": "Patient/f0b61b7a-4381-486d-9eee-2128ada5280a"
    }
  }, {
    "fullUrl": "https://madie.cms.gov/Encounter/9e257386-11bc-4e0c-85f3-6b557775bb39",
    "resource": {
      "resourceType": "Encounter",
      "id": "9e257386-11bc-4e0c-85f3-6b557775bb39",
      "meta": {
        "profile": [ "http://hl7.org/fhir/us/qicore/StructureDefinition/qicore-encounter" ]
      },
      "status": "finished",
      "class": {
        "system": "http://terminology.hl7.org/CodeSystem/v3-ActCode",
        "code": "AMB",
        "display": "ambulatory"
      },
      "type": [ {
        "coding": [ {
          "system": "http://snomed.info/sct",
          "code": "185463005",
          "display": "Visit out of hours (procedure)"
        } ]
      } ],
      "subject": {
        "reference": "Patient/f0b61b7a-4381-486d-9eee-2128ada5280a"
      },
      "period": {
        "start": "2026-01-01T00:00:00.000+00:00",
        "end": "2026-01-01T00:00:00.000+00:00"
      }
    },
    "request": {
      "method": "PUT",
      "url": "Encounter/9e257386-11bc-4e0c-85f3-6b557775bb39"
    }
  }, {
    "fullUrl": "https://madie.cms.gov/Condition/2108dbb4-ee1a-4fd8-9995-5f685c4051ce",
    "resource": {
      "resourceType": "Condition",
      "id": "2108dbb4-ee1a-4fd8-9995-5f685c4051ce",
      "meta": {
        "profile": [ "http://hl7.org/fhir/us/qicore/StructureDefinition/qicore-condition-encounter-diagnosis" ]
      },
      "clinicalStatus": {
        "coding": [ {
          "system": "http://terminology.hl7.org/CodeSystem/condition-clinical",
          "code": "active"
        } ]
      },
      "category": [ {
        "coding": [ {
          "system": "http://terminology.hl7.org/CodeSystem/condition-category",
          "code": "encounter-diagnosis",
          "display": "Encounter Diagnosis"
        } ]
      } ],
      "code": {
        "coding": [ {
          "system": "http://snomed.info/sct",
          "code": "102781000119107",
          "display": "Sensory neuropathy due to type 1 diabetes mellitus (disorder)"
        } ]
      },
      "subject": {
        "reference": "Patient/f0b61b7a-4381-486d-9eee-2128ada5280a"
      },
      "onsetDateTime": "2026-01-01T00:00:00.000+00:00"
    },
    "request": {
      "method": "PUT",
      "url": "Condition/2108dbb4-ee1a-4fd8-9995-5f685c4051ce"
    }
  }, {
    "fullUrl": "https://madie.cms.gov/Observation/04ae3c92-5f3d-4b2c-906a-58b9ab56a46f",
    "resource": {
      "resourceType": "Observation",
      "id": "04ae3c92-5f3d-4b2c-906a-58b9ab56a46f",
      "meta": {
        "profile": [ "http://hl7.org/fhir/us/qicore/StructureDefinition/qicore-observation-screening-assessment" ]
      },
      "status": "final",
      "category": [ {
        "coding": [ {
          "system": "http://terminology.hl7.org/CodeSystem/observation-category",
          "code": "survey"
        } ]
      } ],
      "code": {
        "coding": [ {
          "system": "http://loinc.org",
          "code": "71802-3",
          "display": "Housing status"
        } ]
      },
      "subject": {
        "reference": "Patient/f0b61b7a-4381-486d-9eee-2128ada5280a"
      },
      "effectivePeriod": {
        "start": "2026-12-31T23:59:59.000+00:00",
        "end": "2026-12-31T23:59:59.000+00:00"
      },
      "valueCodeableConcept": {
        "coding": [ {
          "system": "http://snomed.info/sct",
          "code": "160734000",
          "display": "Lives in nursing home (finding)"
        } ]
      }
    },
    "request": {
      "method": "PUT",
      "url": "Observation/04ae3c92-5f3d-4b2c-906a-58b9ab56a46f"
    }
  }, {
    "fullUrl": "https://madie.cms.gov/MeasureReport/0dfe6124-5f9e-4c30-a52f-e6c50f17e949",
    "resource": {
      "resourceType": "MeasureReport",
      "id": "0dfe6124-5f9e-4c30-a52f-e6c50f17e949",
      "meta": {
        "profile": [ "http://hl7.org/fhir/us/cqfmeasures/StructureDefinition/test-case-cqfm" ]
      },
      "contained": [ {
        "resourceType": "Parameters",
        "id": "137762c2-3f99-4fae-8c8a-31497e6c0565-parameters",
        "parameter": [ {
          "name": "subject",
          "valueString": "f0b61b7a-4381-486d-9eee-2128ada5280a"
        } ]
      } ],
      "extension": [ {
        "url": "http://hl7.org/fhir/StructureDefinition/cqf-inputParameters",
        "valueReference": {
          "reference": "#137762c2-3f99-4fae-8c8a-31497e6c0565-parameters"
        }
      }, {
        "url": "http://hl7.org/fhir/us/cqfmeasures/StructureDefinition/cqfm-testCaseDescription",
        "valueMarkdown": "Patient 66yo w/ an Office Visit Encounter 1/1 of the MP, Diabetes Condition ending 1/1 during the MP, & an Observation AIFrailty Living In Nursing Home that starts on 12/31 of the MP."
      } ],
      "modifierExtension": [ {
        "url": "http://hl7.org/fhir/us/cqfmeasures/StructureDefinition/cqfm-isTestCase",
        "valueBoolean": true
      } ],
      "status": "complete",
      "type": "individual",
      "measure": "https://madie.cms.gov/Measure/CMS131FHIRDiabetesEyeExam",
      "period": {
        "start": "2026-01-01",
        "end": "2026-12-31"
      },
      "group": [ {
        "id": "Group_1",
        "population": [ {
          "id": "InitialPopulation_1",
          "code": {
            "coding": [ {
              "system": "http://terminology.hl7.org/CodeSystem/measure-population",
              "code": "initial-population",
              "display": "Initial Population"
            } ]
          },
          "count": 1
        }, {
          "id": "Denominator_1",
          "code": {
            "coding": [ {
              "system": "http://terminology.hl7.org/CodeSystem/measure-population",
              "code": "denominator",
              "display": "Denominator"
            } ]
          },
          "count": 1
        }, {
          "id": "DenominatorExclusion_1",
          "code": {
            "coding": [ {
              "system": "http://terminology.hl7.org/CodeSystem/measure-population",
              "code": "denominator-exclusion",
              "display": "Denominator Exclusion"
            } ]
          },
          "count": 1
        }, {
          "id": "Numerator_1",
          "code": {
            "coding": [ {
              "system": "http://terminology.hl7.org/CodeSystem/measure-population",
              "code": "numerator",
              "display": "Numerator"
            } ]
          },
          "count": 0
        } ],
        "measureScore": {
          "value": 1.0
        }
      } ],
      "evaluatedResource": [ {
        "reference": "Patient/f0b61b7a-4381-486d-9eee-2128ada5280a"
      }, {
        "reference": "Encounter/9e257386-11bc-4e0c-85f3-6b557775bb39"
      }, {
        "reference": "Condition/2108dbb4-ee1a-4fd8-9995-5f685c4051ce"
      }, {
        "reference": "Observation/04ae3c92-5f3d-4b2c-906a-58b9ab56a46f"
      } ]
    },
    "request": {
      "method": "PUT",
      "url": "MeasureReport/0dfe6124-5f9e-4c30-a52f-e6c50f17e949"
    }
  } ]
}