{
  "resourceType": "Bundle",
  "id": "TMT-PATIENT-BUNDLE-10",
  "type": "collection",
  "entry": [ {
    "fullUrl": "https://madie.cms.gov/Patient/b486fbcd-6122-4238-812d-ed538bdf8bfc",
    "resource": {
      "resourceType": "Patient",
      "id": "b486fbcd-6122-4238-812d-ed538bdf8bfc",
      "meta": {
        "profile": [ "http://hl7.org/fhir/us/qicore/StructureDefinition/qicore-patient" ]
      },
      "text": {
        "status": "generated",
        "div": "<div xmlns=\"http://www.w3.org/1999/xhtml\"><div class=\"hapiHeaderText\">DOVE-IPP-PASS <b>PATIENT </b></div><table class=\"hapiPropertyTable\"><tbody><tr><td>Identifier</td><td>679a60f5-1866-49a0-9992-a7ded2451985</td></tr><tr><td>Date of birth</td><td><span>10 May 1960</span></td></tr></tbody></table></div>"
      },
      "extension": [ {
        "url": "http://hl7.org/fhir/us/core/StructureDefinition/us-core-race",
        "extension": [ {
          "url": "ombCategory",
          "valueCoding": {
            "system": "urn:oid:2.16.840.1.113883.6.238",
            "code": "1002-5",
            "display": "American Indian or Alaska Native",
            "userSelected": true
          }
        }, {
          "url": "text",
          "valueString": "American Indian or Alaska Native"
        }, {
          "url": "detailed",
          "valueCoding": {
            "system": "urn:oid:2.16.840.1.113883.6.238",
            "code": "1653-5",
            "display": "Tohono O'Odham"
          }
        } ]
      }, {
        "url": "http://hl7.org/fhir/us/core/StructureDefinition/us-core-ethnicity",
        "extension": [ {
          "url": "ombCategory",
          "valueCoding": {
            "system": "urn:oid:2.16.840.1.113883.6.238",
            "code": "2135-2",
            "display": "Hispanic or Latino",
            "userSelected": true
          }
        }, {
          "url": "text",
          "valueString": "Hispanic or Latino"
        }, {
          "url": "detailed",
          "valueCoding": {
            "system": "urn:oid:2.16.840.1.113883.6.238",
            "code": "2153-5",
            "display": "Mexican American Indian"
          }
        } ]
      }, {
        "id": "sex",
        "url": "http://hl7.org/fhir/us/core/StructureDefinition/us-core-sex",
        "valueCode": "248153007"
      } ],
      "identifier": [ {
        "use": "usual",
        "type": {
          "coding": [ {
            "system": "http://terminology.hl7.org/CodeSystem/v2-0203",
            "code": "MR"
          } ]
        },
        "system": "urn:oid:1.2.36.146.595.217.0.1",
        "value": "12345",
        "period": {
          "start": "1995-05-06"
        },
        "assigner": {
          "display": "Acme Healthcare"
        }
      } ],
      "active": true,
      "name": [ {
        "use": "official",
        "family": "Dovetestpatient10",
        "given": [ "Shirhy" ]
      } ],
      "telecom": [ {
        "system": "phone",
        "value": "(202) 212 1212",
        "use": "mobile",
        "rank": 1
      } ],
      "gender": "male",
      "birthDate": "1946-09-25",
      "_birthDate": {
        "extension": [ {
          "url": "http://hl7.org/fhir/StructureDefinition/patient-birthTime",
          "valueDateTime": "1946-09-25T19:35:45.000+00:00"
        } ]
      },
      "deceasedBoolean": false,
      "address": [ {
        "use": "home",
        "type": "both",
        "text": "1600 Pennslyvania Ave",
        "line": [ "1600 Pennslyvania Ave" ],
        "city": "Washington DC",
        "state": "DC",
        "postalCode": "20500",
        "period": {
          "start": "1946-12-25"
        }
      } ],
      "contact": [ {
        "relationship": [ {
          "coding": [ {
            "system": "http://terminology.hl7.org/CodeSystem/v2-0131",
            "code": "N"
          } ]
        } ],
        "name": {
          "family": "du Marché",
          "_family": {
            "extension": [ {
              "url": "http://hl7.org/fhir/StructureDefinition/humanname-own-prefix",
              "valueString": "VV"
            } ]
          },
          "given": [ "Bénédicte" ]
        },
        "telecom": [ {
          "system": "phone",
          "value": "+33 (237) 998327"
        } ],
        "address": {
          "use": "home",
          "type": "both",
          "line": [ "534 Erewhon St" ],
          "city": "PleasantVille",
          "district": "Rainbow",
          "state": "VT",
          "postalCode": "3999",
          "period": {
            "start": "1974-12-25"
          }
        },
        "gender": "female",
        "period": {
          "start": "2012"
        }
      } ],
      "managingOrganization": {
        "reference": "Organization/example"
      }
    }
  }, {
    "fullUrl": "https://madie.cms.gov/Encounter/c5313c56-aed1-4cb3-9290-20c063958ad1",
    "resource": {
      "resourceType": "Encounter",
      "id": "c5313c56-aed1-4cb3-9290-20c063958ad1",
      "meta": {
        "profile": [ "http://hl7.org/fhir/us/qicore/StructureDefinition/qicore-encounter" ]
      },
      "text": {
        "status": "generated",
        "div": "<div xmlns=\"http://www.w3.org/1999/xhtml\"><div class=\"hapiHeaderText\">DOVE-IPP-PASS <b>PATIENT </b></div><table class=\"hapiPropertyTable\"><tbody><tr><td>Identifier</td><td>679a60f5-1866-49a0-9992-a7ded2451985</td></tr><tr><td>Date of birth</td><td><span>10 May 1960</span></td></tr></tbody></table></div>"
      },
      "status": "finished",
      "class": {
        "system": "http://terminology.hl7.org/CodeSystem/v3-ActCode",
        "code": "IMP",
        "display": "inpatient encounter"
      },
      "type": [ {
        "coding": [ {
          "system": "http://snomed.info/sct",
          "code": "183452005",
          "display": "Emergency hospital admission (procedure)"
        } ]
      } ],
      "subject": {
        "reference": "Patient/b486fbcd-6122-4238-812d-ed538bdf8bfc"
      },
      "period": {
        "start": "2026-01-31T02:30:00.000+00:00",
        "end": "2026-01-31T22:30:00.000+00:00"
      },
      "length": {
        "value": 20,
        "unit": "hours"
      },
      "reasonCode": [ {
        "coding": [ {
          "system": "http://hl7.org/fhir/sid/icd-10-cm",
          "code": "I82.3",
          "display": "Embolism and thrombosis of renal vein",
          "userSelected": true
        } ]
      } ],
      "reasonReference": [ {
        "reference": "Condition/ce735ba0-64d5-4a63-867e-b558596109e2"
      } ]
    }
  }, {
    "fullUrl": "https://madie.cms.gov/Condition/ce735ba0-64d5-4a63-867e-b558596109e2",
    "resource": {
      "resourceType": "Condition",
      "id": "ce735ba0-64d5-4a63-867e-b558596109e2",
      "meta": {
        "profile": [ "http://hl7.org/fhir/us/qicore/StructureDefinition/qicore-condition-encounter-diagnosis" ]
      },
      "text": {
        "status": "generated",
        "div": "<div xmlns=\"http://www.w3.org/1999/xhtml\"><p><b>Generated Narrative: Condition</b><a name=\"appendicitis-example\"> </a></p><div style=\"display: inline-block; background-color: #d9e0e7; padding: 6px; margin: 4px; border: 1px solid #8da1b4; border-radius: 5px; line-height: 60%\"><p style=\"margin-bottom: 0px\">Resource Condition &quot;appendicitis-example&quot; </p><p style=\"margin-bottom: 0px\">Profile: <a href=\"StructureDefinition-qicore-condition-encounter-diagnosis.html\">QICore Condition Encounter Diagnosis</a></p></div><p><b>clinicalStatus</b>: Active <span style=\"background: LightGoldenRodYellow; margin: 4px; border: 1px solid khaki\"> (<a href=\"http://terminology.hl7.org/5.4.0/CodeSystem-condition-clinical.html\">Condition Clinical Status Codes</a>#active)</span></p><p><b>verificationStatus</b>: Confirmed <span style=\"background: LightGoldenRodYellow; margin: 4px; border: 1px solid khaki\"> (<a href=\"http://terminology.hl7.org/5.4.0/CodeSystem-condition-ver-status.html\">ConditionVerificationStatus</a>#confirmed)</span></p><p><b>category</b>: Encounter Diagnosis <span style=\"background: LightGoldenRodYellow; margin: 4px; border: 1px solid khaki\"> (<a href=\"http://terminology.hl7.org/5.4.0/CodeSystem-condition-category.html\">Condition Category Codes</a>#encounter-diagnosis)</span></p><p><b>severity</b>: Severe (severity modifier) <span style=\"background: LightGoldenRodYellow; margin: 4px; border: 1px solid khaki\"> (<a href=\"https://browser.ihtsdotools.org/\">SNOMED CT</a>#24484000)</span></p><p><b>code</b>: Appendicitis <span style=\"background: LightGoldenRodYellow; margin: 4px; border: 1px solid khaki\"> (<a href=\"https://browser.ihtsdotools.org/\">SNOMED CT</a>#74400008 &quot;Appendicitis (disorder)&quot;)</span></p><p><b>bodySite</b>: Appendix structure <span style=\"background: LightGoldenRodYellow; margin: 4px; border: 1px solid khaki\"> (<a href=\"https://browser.ihtsdotools.org/\">SNOMED CT</a>#66754008)</span></p><p><b>subject</b>: <a href=\"Patient-example.html\">Patient/example</a> &quot; CHALMERS&quot;</p><p><b>encounter</b>: <a href=\"Encounter-example.html\">Encounter/example</a></p><p><b>onset</b>: 2012-05-24 00:00:00+0000</p><p><b>recordedDate</b>: 2012-05-24 00:00:00+0000</p></div>"
      },
      "clinicalStatus": {
        "coding": [ {
          "system": "http://terminology.hl7.org/CodeSystem/condition-clinical",
          "code": "active"
        } ]
      },
      "verificationStatus": {
        "coding": [ {
          "system": "http://terminology.hl7.org/CodeSystem/condition-ver-status",
          "code": "confirmed"
        } ]
      },
      "category": [ {
        "coding": [ {
          "system": "http://terminology.hl7.org/CodeSystem/condition-category",
          "code": "encounter-diagnosis",
          "display": "Encounter Diagnosis"
        } ]
      } ],
      "code": {
        "coding": [ {
          "system": "http://hl7.org/fhir/sid/icd-10",
          "code": "I82.3",
          "display": "Embolism and thrombosis of renal vein"
        } ],
        "text": "Embolism and thrombosis of renal vein"
      },
      "subject": {
        "reference": "Patient/b486fbcd-6122-4238-812d-ed538bdf8bfc"
      },
      "encounter": {
        "reference": "Encounter/c5313c56-aed1-4cb3-9290-20c063958ad1"
      },
      "onsetDateTime": "2026-01-31T03:30:00.000+00:00",
      "recordedDate": "2026-01-31T03:30:00.000+00:00"
    }
  }, {
    "fullUrl": "https://madie.cms.gov/Encounter/d017a047-49de-43ed-911b-15dc46877ae4",
    "resource": {
      "resourceType": "Encounter",
      "id": "d017a047-49de-43ed-911b-15dc46877ae4",
      "meta": {
        "profile": [ "http://hl7.org/fhir/us/qicore/StructureDefinition/qicore-encounter" ]
      },
      "text": {
        "status": "generated",
        "div": "<div xmlns=\"http://www.w3.org/1999/xhtml\"><div class=\"hapiHeaderText\">DOVE-IPP-PASS <b>PATIENT </b></div><table class=\"hapiPropertyTable\"><tbody><tr><td>Identifier</td><td>679a60f5-1866-49a0-9992-a7ded2451985</td></tr><tr><td>Date of birth</td><td><span>10 May 1960</span></td></tr></tbody></table></div>"
      },
      "status": "finished",
      "class": {
        "system": "http://terminology.hl7.org/CodeSystem/v3-ActCode",
        "code": "AMB",
        "display": "ambulatory"
      },
      "type": [ {
        "coding": [ {
          "system": "http://www.ama-assn.org/go/cpt",
          "code": "99202",
          "display": "Office or other outpatient visit for the evaluation and management of a new patient, which requires a medically appropriate history and/or examination and straightforward medical decision making. When using time for code selection, 15-29 minutes of total time is spent on the date of the encounter."
        } ]
      } ],
      "subject": {
        "reference": "Patient/b486fbcd-6122-4238-812d-ed538bdf8bfc"
      },
      "period": {
        "start": "2026-01-22T17:48:57.000+00:00",
        "end": "2026-01-22T18:00:00.000+00:00"
      },
      "length": {
        "value": 20,
        "unit": "hours"
      },
      "reasonCode": [ {
        "coding": [ {
          "system": "http://snomed.info/sct",
          "code": "10601006",
          "display": "Pain in lower limb (finding)",
          "userSelected": true
        } ]
      } ],
      "reasonReference": [ {
        "reference": "Condition/3727187d-fb6c-44d5-a9ad-dcb2f924576f"
      } ]
    }
  }, {
    "fullUrl": "https://madie.cms.gov/Condition/31ba6b7d-5987-4ec0-9f06-921e3a8e95a5",
    "resource": {
      "resourceType": "Condition",
      "id": "31ba6b7d-5987-4ec0-9f06-921e3a8e95a5",
      "meta": {
        "profile": [ "http://hl7.org/fhir/us/qicore/StructureDefinition/qicore-condition-encounter-diagnosis" ]
      },
      "text": {
        "status": "generated",
        "div": "<div xmlns=\"http://www.w3.org/1999/xhtml\"><p><b>Generated Narrative: Condition</b><a name=\"appendicitis-example\"> </a></p><div style=\"display: inline-block; background-color: #d9e0e7; padding: 6px; margin: 4px; border: 1px solid #8da1b4; border-radius: 5px; line-height: 60%\"><p style=\"margin-bottom: 0px\">Resource Condition &quot;appendicitis-example&quot; </p><p style=\"margin-bottom: 0px\">Profile: <a href=\"StructureDefinition-qicore-condition-encounter-diagnosis.html\">QICore Condition Encounter Diagnosis</a></p></div><p><b>clinicalStatus</b>: Active <span style=\"background: LightGoldenRodYellow; margin: 4px; border: 1px solid khaki\"> (<a href=\"http://terminology.hl7.org/5.4.0/CodeSystem-condition-clinical.html\">Condition Clinical Status Codes</a>#active)</span></p><p><b>verificationStatus</b>: Confirmed <span style=\"background: LightGoldenRodYellow; margin: 4px; border: 1px solid khaki\"> (<a href=\"http://terminology.hl7.org/5.4.0/CodeSystem-condition-ver-status.html\">ConditionVerificationStatus</a>#confirmed)</span></p><p><b>category</b>: Encounter Diagnosis <span style=\"background: LightGoldenRodYellow; margin: 4px; border: 1px solid khaki\"> (<a href=\"http://terminology.hl7.org/5.4.0/CodeSystem-condition-category.html\">Condition Category Codes</a>#encounter-diagnosis)</span></p><p><b>severity</b>: Severe (severity modifier) <span style=\"background: LightGoldenRodYellow; margin: 4px; border: 1px solid khaki\"> (<a href=\"https://browser.ihtsdotools.org/\">SNOMED CT</a>#24484000)</span></p><p><b>code</b>: Appendicitis <span style=\"background: LightGoldenRodYellow; margin: 4px; border: 1px solid khaki\"> (<a href=\"https://browser.ihtsdotools.org/\">SNOMED CT</a>#74400008 &quot;Appendicitis (disorder)&quot;)</span></p><p><b>bodySite</b>: Appendix structure <span style=\"background: LightGoldenRodYellow; margin: 4px; border: 1px solid khaki\"> (<a href=\"https://browser.ihtsdotools.org/\">SNOMED CT</a>#66754008)</span></p><p><b>subject</b>: <a href=\"Patient-example.html\">Patient/example</a> &quot; CHALMERS&quot;</p><p><b>encounter</b>: <a href=\"Encounter-example.html\">Encounter/example</a></p><p><b>onset</b>: 2012-05-24 00:00:00+0000</p><p><b>recordedDate</b>: 2012-05-24 00:00:00+0000</p></div>"
      },
      "clinicalStatus": {
        "coding": [ {
          "system": "http://terminology.hl7.org/CodeSystem/condition-clinical",
          "code": "active"
        } ]
      },
      "verificationStatus": {
        "coding": [ {
          "system": "http://terminology.hl7.org/CodeSystem/condition-ver-status",
          "code": "confirmed"
        } ]
      },
      "category": [ {
        "coding": [ {
          "system": "http://terminology.hl7.org/CodeSystem/condition-category",
          "code": "encounter-diagnosis",
          "display": "Encounter Diagnosis"
        } ]
      } ],
      "code": {
        "coding": [ {
          "system": "http://snomed.info/sct",
          "code": "10601006",
          "display": "Pain in lower limb (finding)"
        } ],
        "text": "Pain in lower limb (finding)"
      },
      "subject": {
        "reference": "Patient/b486fbcd-6122-4238-812d-ed538bdf8bfc"
      },
      "encounter": {
        "reference": "Encounter/d017a047-49de-43ed-911b-15dc46877ae4"
      },
      "onsetDateTime": "2026-01-22T17:48:57.000+00:00",
      "recordedDate": "2026-01-22T17:48:57.000+00:00"
    }
  }, {
    "fullUrl": "https://madie.cms.gov/DiagnosticReport/535be8af-44eb-499c-93bd-685cdfb3485c",
    "resource": {
      "resourceType": "DiagnosticReport",
      "id": "535be8af-44eb-499c-93bd-685cdfb3485c",
      "meta": {
        "profile": [ "http://hl7.org/fhir/us/qicore/StructureDefinition/qicore-diagnosticreport-note" ]
      },
      "text": {
        "status": "generated",
        "div": "<div xmlns=\"http://www.w3.org/1999/xhtml\"><p><b>Generated Narrative: DiagnosticReport</b><a name=\"clinical-result-heart-rate-rhythm\"> </a></p><div style=\"display: inline-block; background-color: #d9e0e7; padding: 6px; margin: 4px; border: 1px solid #8da1b4; border-radius: 5px; line-height: 60%\"><p style=\"margin-bottom: 0px\">Resource Observation &quot;clinical-result-heart-rate-rhythm&quot; </p><p style=\"margin-bottom: 0px\">Profile: <a href=\"StructureDefinition-qicore-observation-clinical-result.html\">QICore Observation Clinical Result</a></p></div><p><b>status</b>: final</p><p><b>category</b>: Exam <span style=\"background: LightGoldenRodYellow; margin: 4px; border: 1px solid khaki\"> (<a href=\"http://terminology.hl7.org/5.4.0/CodeSystem-observation-category.html\">Observation Category Codes</a>#exam)</span></p><p><b>code</b>: Heart rate rhythm <span style=\"background: LightGoldenRodYellow; margin: 4px; border: 1px solid khaki\"> (<a href=\"https://loinc.org/\">LOINC</a>#8884-9)</span></p><p><b>subject</b>: <a href=\"Patient-example.html\">Patient/example</a> &quot; CHALMERS&quot;</p><p><b>encounter</b>: <span>: Cardiology Consult</span></p><p><b>effective</b>: 2021-11-10 16:48:57-0800</p><p><b>performer</b>: <a href=\"Practitioner-example.html\">Practitioner/example: Practitioner</a> &quot; CAREFUL&quot;</p><p><b>value</b>: Regular (R)</p></div>"
      },
      "status": "final",
      "category": [ {
        "coding": [ {
          "system": "http://loinc.org",
          "code": "LP29684-5",
          "display": "Radiology"
        } ],
        "text": "Imaging"
      } ],
      "code": {
        "coding": [ {
          "system": "http://www.ama-assn.org/go/cpt",
          "code": "71260",
          "display": "Computed tomography, thorax, diagnostic; with contrast material(s)"
        } ],
        "text": "Computed tomography, thorax, diagnostic; with contrast material(s)"
      },
      "subject": {
        "reference": "Patient/b486fbcd-6122-4238-812d-ed538bdf8bfc"
      },
      "encounter": {
        "display": "Computed tomography"
      },
      "effectiveDateTime": "2026-01-31T17:48:57.000+00:00",
      "performer": [ {
        "reference": "Practitioner/example",
        "display": "Practitioner"
      } ]
    }
  }, {
    "fullUrl": "https://madie.cms.gov/MedicationRequest/82896bd6-047c-4d21-b7f7-2e7854091cf4",
    "resource": {
      "resourceType": "MedicationRequest",
      "id": "82896bd6-047c-4d21-b7f7-2e7854091cf4",
      "meta": {
        "profile": [ "http://hl7.org/fhir/us/qicore/StructureDefinition/qicore-medicationrequest" ]
      },
      "text": {
        "status": "generated",
        "div": "<div xmlns=\"http://www.w3.org/1999/xhtml\"><div class=\"hapiHeaderText\">DOVE-IPP-PASS <b>PATIENT </b></div><table class=\"hapiPropertyTable\"><tbody><tr><td>Identifier</td><td>679a60f5-1866-49a0-9992-a7ded2451985</td></tr><tr><td>Date of birth</td><td><span>10 May 1960</span></td></tr></tbody></table></div>"
      },
      "status": "active",
      "intent": "order",
      "category": [ {
        "coding": [ {
          "system": "http://terminology.hl7.org/CodeSystem/medicationrequest-category",
          "code": "discharge",
          "display": "Discharge",
          "userSelected": true
        } ]
      } ],
      "medicationCodeableConcept": {
        "coding": [ {
          "system": "http://www.nlm.nih.gov/research/umls/rxnorm",
          "code": "114194"
        } ]
      },
      "subject": {
        "reference": "Patient/b486fbcd-6122-4238-812d-ed538bdf8bfc"
      },
      "authoredOn": "2026-01-31T06:30:00.000+00:00",
      "requester": {
        "reference": "Practitioner/example"
      }
    }
  }, {
    "fullUrl": "https://madie.cms.gov/Encounter/38d8fcea-0ac3-429b-8078-c6f697a36fbc",
    "resource": {
      "resourceType": "Encounter",
      "id": "38d8fcea-0ac3-429b-8078-c6f697a36fbc",
      "meta": {
        "profile": [ "http://hl7.org/fhir/us/qicore/StructureDefinition/qicore-encounter" ]
      },
      "text": {
        "status": "generated",
        "div": "<div xmlns=\"http://www.w3.org/1999/xhtml\"><div class=\"hapiHeaderText\">DOVE-IPP-PASS <b>PATIENT </b></div><table class=\"hapiPropertyTable\"><tbody><tr><td>Identifier</td><td>679a60f5-1866-49a0-9992-a7ded2451985</td></tr><tr><td>Date of birth</td><td><span>10 May 1960</span></td></tr></tbody></table></div>"
      },
      "status": "finished",
      "class": {
        "system": "http://terminology.hl7.org/CodeSystem/v3-ActCode",
        "code": "IMP",
        "display": "inpatient encounter"
      },
      "type": [ {
        "coding": [ {
          "system": "http://snomed.info/sct",
          "code": "183452005",
          "display": "Emergency hospital admission (procedure)"
        } ]
      } ],
      "subject": {
        "reference": "Patient/b486fbcd-6122-4238-812d-ed538bdf8bfc"
      },
      "period": {
        "start": "2027-02-22T02:30:00.000+00:00",
        "end": "2027-02-22T22:30:00.000+00:00"
      },
      "length": {
        "value": 20,
        "unit": "hours"
      },
      "reasonCode": [ {
        "coding": [ {
          "system": "http://hl7.org/fhir/sid/icd-10-cm",
          "code": "I82.3",
          "display": "Embolism and thrombosis of renal vein",
          "userSelected": true
        } ]
      } ],
      "reasonReference": [ {
        "reference": "Condition/25c4eabb-360d-4e4c-8d92-4ede326f38be"
      } ]
    }
  }, {
    "fullUrl": "https://madie.cms.gov/Condition/25c4eabb-360d-4e4c-8d92-4ede326f38be",
    "resource": {
      "resourceType": "Condition",
      "id": "25c4eabb-360d-4e4c-8d92-4ede326f38be",
      "meta": {
        "profile": [ "http://hl7.org/fhir/us/qicore/StructureDefinition/qicore-condition-encounter-diagnosis" ]
      },
      "text": {
        "status": "generated",
        "div": "<div xmlns=\"http://www.w3.org/1999/xhtml\"><p><b>Generated Narrative: Condition</b><a name=\"appendicitis-example\"> </a></p><div style=\"display: inline-block; background-color: #d9e0e7; padding: 6px; margin: 4px; border: 1px solid #8da1b4; border-radius: 5px; line-height: 60%\"><p style=\"margin-bottom: 0px\">Resource Condition &quot;appendicitis-example&quot; </p><p style=\"margin-bottom: 0px\">Profile: <a href=\"StructureDefinition-qicore-condition-encounter-diagnosis.html\">QICore Condition Encounter Diagnosis</a></p></div><p><b>clinicalStatus</b>: Active <span style=\"background: LightGoldenRodYellow; margin: 4px; border: 1px solid khaki\"> (<a href=\"http://terminology.hl7.org/5.4.0/CodeSystem-condition-clinical.html\">Condition Clinical Status Codes</a>#active)</span></p><p><b>verificationStatus</b>: Confirmed <span style=\"background: LightGoldenRodYellow; margin: 4px; border: 1px solid khaki\"> (<a href=\"http://terminology.hl7.org/5.4.0/CodeSystem-condition-ver-status.html\">ConditionVerificationStatus</a>#confirmed)</span></p><p><b>category</b>: Encounter Diagnosis <span style=\"background: LightGoldenRodYellow; margin: 4px; border: 1px solid khaki\"> (<a href=\"http://terminology.hl7.org/5.4.0/CodeSystem-condition-category.html\">Condition Category Codes</a>#encounter-diagnosis)</span></p><p><b>severity</b>: Severe (severity modifier) <span style=\"background: LightGoldenRodYellow; margin: 4px; border: 1px solid khaki\"> (<a href=\"https://browser.ihtsdotools.org/\">SNOMED CT</a>#24484000)</span></p><p><b>code</b>: Appendicitis <span style=\"background: LightGoldenRodYellow; margin: 4px; border: 1px solid khaki\"> (<a href=\"https://browser.ihtsdotools.org/\">SNOMED CT</a>#74400008 &quot;Appendicitis (disorder)&quot;)</span></p><p><b>bodySite</b>: Appendix structure <span style=\"background: LightGoldenRodYellow; margin: 4px; border: 1px solid khaki\"> (<a href=\"https://browser.ihtsdotools.org/\">SNOMED CT</a>#66754008)</span></p><p><b>subject</b>: <a href=\"Patient-example.html\">Patient/example</a> &quot; CHALMERS&quot;</p><p><b>encounter</b>: <a href=\"Encounter-example.html\">Encounter/example</a></p><p><b>onset</b>: 2012-05-24 00:00:00+0000</p><p><b>recordedDate</b>: 2012-05-24 00:00:00+0000</p></div>"
      },
      "clinicalStatus": {
        "coding": [ {
          "system": "http://terminology.hl7.org/CodeSystem/condition-clinical",
          "code": "active"
        } ]
      },
      "verificationStatus": {
        "coding": [ {
          "system": "http://terminology.hl7.org/CodeSystem/condition-ver-status",
          "code": "confirmed"
        } ]
      },
      "category": [ {
        "coding": [ {
          "system": "http://terminology.hl7.org/CodeSystem/condition-category",
          "code": "encounter-diagnosis",
          "display": "Encounter Diagnosis"
        } ]
      } ],
      "code": {
        "coding": [ {
          "system": "http://hl7.org/fhir/sid/icd-10",
          "code": "I82.3",
          "display": "Embolism and thrombosis of renal vein"
        } ],
        "text": "Embolism and thrombosis of renal vein"
      },
      "subject": {
        "reference": "Patient/b486fbcd-6122-4238-812d-ed538bdf8bfc"
      },
      "encounter": {
        "reference": "Encounter/38d8fcea-0ac3-429b-8078-c6f697a36fbc"
      },
      "onsetDateTime": "2027-02-22T02:30:00.000+00:00",
      "recordedDate": "2027-02-22T02:30:00.000+00:00"
    }
  }, {
    "fullUrl": "https://madie.cms.gov/Encounter/2b5ab4ba-1832-48d1-9913-38c9b7a05662",
    "resource": {
      "resourceType": "Encounter",
      "id": "2b5ab4ba-1832-48d1-9913-38c9b7a05662",
      "meta": {
        "profile": [ "http://hl7.org/fhir/us/qicore/StructureDefinition/qicore-encounter" ]
      },
      "text": {
        "status": "generated",
        "div": "<div xmlns=\"http://www.w3.org/1999/xhtml\"><div class=\"hapiHeaderText\">DOVE-IPP-PASS <b>PATIENT </b></div><table class=\"hapiPropertyTable\"><tbody><tr><td>Identifier</td><td>679a60f5-1866-49a0-9992-a7ded2451985</td></tr><tr><td>Date of birth</td><td><span>10 May 1960</span></td></tr></tbody></table></div>"
      },
      "status": "finished",
      "class": {
        "system": "http://terminology.hl7.org/CodeSystem/v3-ActCode",
        "code": "AMB",
        "display": "ambulatory"
      },
      "type": [ {
        "coding": [ {
          "system": "http://www.ama-assn.org/go/cpt",
          "code": "99202",
          "display": "Office or other outpatient visit for the evaluation and management of a new patient, which requires a medically appropriate history and/or examination and straightforward medical decision making. When using time for code selection, 15-29 minutes of total time is spent on the date of the encounter."
        } ]
      } ],
      "subject": {
        "reference": "Patient/b486fbcd-6122-4238-812d-ed538bdf8bfc"
      },
      "period": {
        "start": "2027-02-15T17:48:57.000+00:00",
        "end": "2027-02-15T18:00:00.000+00:00"
      },
      "length": {
        "value": 20,
        "unit": "hours"
      },
      "reasonCode": [ {
        "coding": [ {
          "system": "http://snomed.info/sct",
          "code": "10601006",
          "display": "Pain in lower limb (finding)",
          "userSelected": true
        } ]
      } ],
      "reasonReference": [ {
        "reference": "Condition/3727187d-fb6c-44d5-a9ad-dcb2f924576f"
      } ]
    }
  }, {
    "fullUrl": "https://madie.cms.gov/Condition/3727187d-fb6c-44d5-a9ad-dcb2f924576f",
    "resource": {
      "resourceType": "Condition",
      "id": "3727187d-fb6c-44d5-a9ad-dcb2f924576f",
      "meta": {
        "profile": [ "http://hl7.org/fhir/us/qicore/StructureDefinition/qicore-condition-encounter-diagnosis" ]
      },
      "text": {
        "status": "generated",
        "div": "<div xmlns=\"http://www.w3.org/1999/xhtml\"><p><b>Generated Narrative: Condition</b><a name=\"appendicitis-example\"> </a></p><div style=\"display: inline-block; background-color: #d9e0e7; padding: 6px; margin: 4px; border: 1px solid #8da1b4; border-radius: 5px; line-height: 60%\"><p style=\"margin-bottom: 0px\">Resource Condition &quot;appendicitis-example&quot; </p><p style=\"margin-bottom: 0px\">Profile: <a href=\"StructureDefinition-qicore-condition-encounter-diagnosis.html\">QICore Condition Encounter Diagnosis</a></p></div><p><b>clinicalStatus</b>: Active <span style=\"background: LightGoldenRodYellow; margin: 4px; border: 1px solid khaki\"> (<a href=\"http://terminology.hl7.org/5.4.0/CodeSystem-condition-clinical.html\">Condition Clinical Status Codes</a>#active)</span></p><p><b>verificationStatus</b>: Confirmed <span style=\"background: LightGoldenRodYellow; margin: 4px; border: 1px solid khaki\"> (<a href=\"http://terminology.hl7.org/5.4.0/CodeSystem-condition-ver-status.html\">ConditionVerificationStatus</a>#confirmed)</span></p><p><b>category</b>: Encounter Diagnosis <span style=\"background: LightGoldenRodYellow; margin: 4px; border: 1px solid khaki\"> (<a href=\"http://terminology.hl7.org/5.4.0/CodeSystem-condition-category.html\">Condition Category Codes</a>#encounter-diagnosis)</span></p><p><b>severity</b>: Severe (severity modifier) <span style=\"background: LightGoldenRodYellow; margin: 4px; border: 1px solid khaki\"> (<a href=\"https://browser.ihtsdotools.org/\">SNOMED CT</a>#24484000)</span></p><p><b>code</b>: Appendicitis <span style=\"background: LightGoldenRodYellow; margin: 4px; border: 1px solid khaki\"> (<a href=\"https://browser.ihtsdotools.org/\">SNOMED CT</a>#74400008 &quot;Appendicitis (disorder)&quot;)</span></p><p><b>bodySite</b>: Appendix structure <span style=\"background: LightGoldenRodYellow; margin: 4px; border: 1px solid khaki\"> (<a href=\"https://browser.ihtsdotools.org/\">SNOMED CT</a>#66754008)</span></p><p><b>subject</b>: <a href=\"Patient-example.html\">Patient/example</a> &quot; CHALMERS&quot;</p><p><b>encounter</b>: <a href=\"Encounter-example.html\">Encounter/example</a></p><p><b>onset</b>: 2012-05-24 00:00:00+0000</p><p><b>recordedDate</b>: 2012-05-24 00:00:00+0000</p></div>"
      },
      "clinicalStatus": {
        "coding": [ {
          "system": "http://terminology.hl7.org/CodeSystem/condition-clinical",
          "code": "active"
        } ]
      },
      "verificationStatus": {
        "coding": [ {
          "system": "http://terminology.hl7.org/CodeSystem/condition-ver-status",
          "code": "confirmed"
        } ]
      },
      "category": [ {
        "coding": [ {
          "system": "http://terminology.hl7.org/CodeSystem/condition-category",
          "code": "encounter-diagnosis",
          "display": "Encounter Diagnosis"
        } ]
      } ],
      "code": {
        "coding": [ {
          "system": "http://snomed.info/sct",
          "code": "10601006",
          "display": "Pain in lower limb (finding)"
        } ],
        "text": "Pain in lower limb (finding)"
      },
      "subject": {
        "reference": "Patient/b486fbcd-6122-4238-812d-ed538bdf8bfc"
      },
      "encounter": {
        "reference": "Encounter/2b5ab4ba-1832-48d1-9913-38c9b7a05662"
      },
      "onsetDateTime": "2027-02-15T17:48:57.000+00:00",
      "recordedDate": "2027-02-15T17:48:57.000+00:00"
    }
  }, {
    "fullUrl": "https://madie.cms.gov/DiagnosticReport/feb55b4b-bdfe-424f-bb2c-871f1c8cd076",
    "resource": {
      "resourceType": "DiagnosticReport",
      "id": "feb55b4b-bdfe-424f-bb2c-871f1c8cd076",
      "meta": {
        "profile": [ "http://hl7.org/fhir/us/qicore/StructureDefinition/qicore-diagnosticreport-note" ]
      },
      "text": {
        "status": "generated",
        "div": "<div xmlns=\"http://www.w3.org/1999/xhtml\"><p><b>Generated Narrative: DiagnosticReport</b><a name=\"clinical-result-heart-rate-rhythm\"> </a></p><div style=\"display: inline-block; background-color: #d9e0e7; padding: 6px; margin: 4px; border: 1px solid #8da1b4; border-radius: 5px; line-height: 60%\"><p style=\"margin-bottom: 0px\">Resource Observation &quot;clinical-result-heart-rate-rhythm&quot; </p><p style=\"margin-bottom: 0px\">Profile: <a href=\"StructureDefinition-qicore-observation-clinical-result.html\">QICore Observation Clinical Result</a></p></div><p><b>status</b>: final</p><p><b>category</b>: Exam <span style=\"background: LightGoldenRodYellow; margin: 4px; border: 1px solid khaki\"> (<a href=\"http://terminology.hl7.org/5.4.0/CodeSystem-observation-category.html\">Observation Category Codes</a>#exam)</span></p><p><b>code</b>: Heart rate rhythm <span style=\"background: LightGoldenRodYellow; margin: 4px; border: 1px solid khaki\"> (<a href=\"https://loinc.org/\">LOINC</a>#8884-9)</span></p><p><b>subject</b>: <a href=\"Patient-example.html\">Patient/example</a> &quot; CHALMERS&quot;</p><p><b>encounter</b>: <span>: Cardiology Consult</span></p><p><b>effective</b>: 2021-11-10 16:48:57-0800</p><p><b>performer</b>: <a href=\"Practitioner-example.html\">Practitioner/example: Practitioner</a> &quot; CAREFUL&quot;</p><p><b>value</b>: Regular (R)</p></div>"
      },
      "status": "final",
      "category": [ {
        "coding": [ {
          "system": "http://loinc.org",
          "code": "LP29684-5",
          "display": "Radiology"
        } ],
        "text": "Imaging"
      } ],
      "code": {
        "coding": [ {
          "system": "http://www.ama-assn.org/go/cpt",
          "code": "71260",
          "display": "Computed tomography, thorax, diagnostic; with contrast material(s)"
        } ],
        "text": "Computed tomography, thorax, diagnostic; with contrast material(s)"
      },
      "subject": {
        "reference": "Patient/b486fbcd-6122-4238-812d-ed538bdf8bfc"
      },
      "encounter": {
        "display": "Computed tomography"
      },
      "effectiveDateTime": "2027-02-22T17:48:57.000+00:00",
      "performer": [ {
        "reference": "Practitioner/example",
        "display": "Practitioner"
      } ]
    }
  }, {
    "fullUrl": "https://madie.cms.gov/MedicationRequest/6f07937d-545f-4572-baa5-6062e5282cf5",
    "resource": {
      "resourceType": "MedicationRequest",
      "id": "6f07937d-545f-4572-baa5-6062e5282cf5",
      "meta": {
        "profile": [ "http://hl7.org/fhir/us/qicore/StructureDefinition/qicore-medicationrequest" ]
      },
      "text": {
        "status": "generated",
        "div": "<div xmlns=\"http://www.w3.org/1999/xhtml\"><div class=\"hapiHeaderText\">DOVE-IPP-PASS <b>PATIENT </b></div><table class=\"hapiPropertyTable\"><tbody><tr><td>Identifier</td><td>679a60f5-1866-49a0-9992-a7ded2451985</td></tr><tr><td>Date of birth</td><td><span>10 May 1960</span></td></tr></tbody></table></div>"
      },
      "status": "active",
      "intent": "order",
      "category": [ {
        "coding": [ {
          "system": "http://terminology.hl7.org/CodeSystem/medicationrequest-category",
          "code": "discharge",
          "display": "Discharge",
          "userSelected": true
        } ]
      } ],
      "medicationCodeableConcept": {
        "coding": [ {
          "system": "http://www.nlm.nih.gov/research/umls/rxnorm",
          "code": "114194"
        } ]
      },
      "subject": {
        "reference": "Patient/b486fbcd-6122-4238-812d-ed538bdf8bfc"
      },
      "authoredOn": "2026-07-02T06:30:00.000+00:00",
      "requester": {
        "reference": "Practitioner/example"
      }
    }
  }, {
    "fullUrl": "https://madie.cms.gov/Coverage/0518d2a3-df75-492c-ba70-7268cc4c38b2",
    "resource": {
      "resourceType": "Coverage",
      "id": "0518d2a3-df75-492c-ba70-7268cc4c38b2",
      "meta": {
        "profile": [ "http://hl7.org/fhir/us/qicore/StructureDefinition/qicore-coverage" ]
      },
      "text": {
        "status": "generated",
        "div": "<div xmlns=\"http://www.w3.org/1999/xhtml\"><p><b>Generated Narrative: DiagnosticReport</b><a name=\"clinical-result-heart-rate-rhythm\"> </a></p><div style=\"display: inline-block; background-color: #d9e0e7; padding: 6px; margin: 4px; border: 1px solid #8da1b4; border-radius: 5px; line-height: 60%\"><p style=\"margin-bottom: 0px\">Resource Observation &quot;clinical-result-heart-rate-rhythm&quot; </p><p style=\"margin-bottom: 0px\">Profile: <a href=\"StructureDefinition-qicore-observation-clinical-result.html\">QICore Observation Clinical Result</a></p></div><p><b>status</b>: final</p><p><b>category</b>: Exam <span style=\"background: LightGoldenRodYellow; margin: 4px; border: 1px solid khaki\"> (<a href=\"http://terminology.hl7.org/5.4.0/CodeSystem-observation-category.html\">Observation Category Codes</a>#exam)</span></p><p><b>code</b>: Heart rate rhythm <span style=\"background: LightGoldenRodYellow; margin: 4px; border: 1px solid khaki\"> (<a href=\"https://loinc.org/\">LOINC</a>#8884-9)</span></p><p><b>subject</b>: <a href=\"Patient-example.html\">Patient/example</a> &quot; CHALMERS&quot;</p><p><b>encounter</b>: <span>: Cardiology Consult</span></p><p><b>effective</b>: 2021-11-10 16:48:57-0800</p><p><b>performer</b>: <a href=\"Practitioner-example.html\">Practitioner/example: Practitioner</a> &quot; CAREFUL&quot;</p><p><b>value</b>: Regular (R)</p></div>"
      },
      "status": "active",
      "type": {
        "coding": [ {
          "system": "https://nahdo.org/sopt",
          "code": "59",
          "display": "Other Private Insurance"
        } ]
      },
      "policyHolder": {
        "reference": "Patient/b486fbcd-6122-4238-812d-ed538bdf8bfc"
      },
      "subscriber": {
        "reference": "Patient/b486fbcd-6122-4238-812d-ed538bdf8bfc"
      },
      "subscriberId": "888009337",
      "beneficiary": {
        "reference": "Patient/b486fbcd-6122-4238-812d-ed538bdf8bfc"
      },
      "dependent": "0",
      "relationship": {
        "coding": [ {
          "system": "http://terminology.hl7.org/CodeSystem/subscriber-relationship",
          "code": "self"
        } ]
      },
      "period": {
        "start": "2026-01-10T08:00:00.000+00:00",
        "end": "2026-12-31T08:15:00.000+00:00"
      },
      "payor": [ {
        "reference": "Organization/0c9e8ae4-5042-47e7-8f33-b066bbbac14e"
      } ]
    }
  }, {
    "fullUrl": "https://madie.cms.gov/Claim/4b676354-023f-4408-985a-3bb039eb2d18",
    "resource": {
      "resourceType": "Claim",
      "id": "4b676354-023f-4408-985a-3bb039eb2d18",
      "meta": {
        "profile": [ "http://hl7.org/fhir/us/qicore/StructureDefinition/qicore-claim" ]
      },
      "text": {
        "status": "generated",
        "div": "<div xmlns=\"http://www.w3.org/1999/xhtml\"><div class=\"hapiHeaderText\">DOVE-IPP-PASS <b>PATIENT </b></div><table class=\"hapiPropertyTable\"><tbody><tr><td>Identifier</td><td>679a60f5-1866-49a0-9992-a7ded2451985</td></tr><tr><td>Date of birth</td><td><span>10 May 1960</span></td></tr></tbody></table></div>"
      },
      "status": "active",
      "type": {
        "coding": [ {
          "system": "http://terminology.hl7.org/CodeSystem/claim-type",
          "code": "institutional"
        } ]
      },
      "use": "claim",
      "patient": {
        "reference": "Patient/b486fbcd-6122-4238-812d-ed538bdf8bfc"
      },
      "created": "2026-01-01",
      "provider": {
        "reference": "Practitioner/practitioner-123456"
      },
      "priority": {
        "coding": [ {
          "system": "http://terminology.hl7.org/CodeSystem/processpriority",
          "code": "normal"
        } ]
      },
      "diagnosis": [ {
        "sequence": 1,
        "diagnosisCodeableConcept": {
          "coding": [ {
            "system": "http://hl7.org/fhir/sid/icd-10-cm",
            "code": "I63.00"
          } ]
        },
        "type": [ {
          "coding": [ {
            "system": "http://terminology.hl7.org/CodeSystem/ex-diagnosistype",
            "code": "principal"
          } ]
        } ]
      } ],
      "insurance": [ {
        "sequence": 1,
        "focal": true,
        "coverage": {
          "reference": "Coverage/5fa041661c76ba66d9959367"
        }
      } ],
      "item": [ {
        "sequence": 1,
        "diagnosisSequence": [ 1 ],
        "productOrService": {
          "coding": [ {
            "system": "http://terminology.hl7.org/CodeSystem/ex-USCLS",
            "code": "99555"
          } ]
        },
        "encounter": [ {
          "reference": "Encounter/c5313c56-aed1-4cb3-9290-20c063958ad1"
        } ]
      } ]
    }
  }, {
    "fullUrl": "https://madie.cms.gov/Organization/0c9e8ae4-5042-47e7-8f33-b066bbbac14e",
    "resource": {
      "resourceType": "Organization",
      "id": "0c9e8ae4-5042-47e7-8f33-b066bbbac14e",
      "meta": {
        "profile": [ "http://hl7.org/fhir/us/qicore/StructureDefinition/qicore-organization" ]
      },
      "text": {
        "status": "generated",
        "div": "<div xmlns=\"http://www.w3.org/1999/xhtml\"><div class=\"hapiHeaderText\">DOVE-IPP-PASS <b>PATIENT </b></div><table class=\"hapiPropertyTable\"><tbody><tr><td>Identifier</td><td>679a60f5-1866-49a0-9992-a7ded2451985</td></tr><tr><td>Date of birth</td><td><span>10 May 1960</span></td></tr></tbody></table></div>"
      },
      "identifier": [ {
        "use": "temp",
        "system": "urn:oid:2.16.840.1.113883.4.4",
        "value": "21-3259825"
      } ],
      "active": true,
      "type": [ {
        "coding": [ {
          "system": "http://terminology.hl7.org/CodeSystem/organization-type",
          "code": "pay",
          "display": "Payer"
        } ]
      } ],
      "name": "Blue Cross Blue Shield of Texas",
      "telecom": [ {
        "system": "phone",
        "value": "(+1) 972-766-6900"
      } ],
      "address": [ {
        "use": "billing",
        "type": "postal",
        "line": [ "P.O. Box 660044" ],
        "city": "Dallas",
        "state": "TX",
        "postalCode": "75266-0044",
        "country": "USA"
      } ]
    }
  }, {
    "fullUrl": "https://madie.cms.gov/MeasureReport/20908f40-2c20-4d12-9d77-2ae654993cb6",
    "resource": {
      "resourceType": "MeasureReport",
      "id": "20908f40-2c20-4d12-9d77-2ae654993cb6",
      "meta": {
        "profile": [ "http://hl7.org/fhir/us/cqfmeasures/StructureDefinition/test-case-cqfm" ]
      },
      "contained": [ {
        "resourceType": "Parameters",
        "id": "4c9f0c5c-fb05-4f4d-a1ab-898c499a761e-parameters",
        "parameter": [ {
          "name": "subject",
          "valueString": "b486fbcd-6122-4238-812d-ed538bdf8bfc"
        } ]
      } ],
      "extension": [ {
        "url": "http://hl7.org/fhir/StructureDefinition/cqf-inputParameters",
        "valueReference": {
          "reference": "#4c9f0c5c-fb05-4f4d-a1ab-898c499a761e-parameters"
        }
      }, {
        "url": "http://hl7.org/fhir/us/cqfmeasures/StructureDefinition/cqfm-testCaseDescription",
        "valueMarkdown": "2 qualified VTE encounters which are greater than 6 months apart but the second one occurred after the MP.  This test also covers NUM-PASS"
      } ],
      "modifierExtension": [ {
        "url": "http://hl7.org/fhir/us/cqfmeasures/StructureDefinition/cqfm-isTestCase",
        "valueBoolean": true
      } ],
      "status": "complete",
      "type": "individual",
      "measure": "https://madie.cms.gov/Measure/CMS1173FHIRDiagnosticDelayVTE",
      "period": {
        "start": "2026-01-01",
        "end": "2026-12-31"
      },
      "group": [ {
        "id": "Group_1",
        "population": [ {
          "id": "InitialPopulation_1",
          "code": {
            "coding": [ {
              "system": "http://terminology.hl7.org/CodeSystem/measure-population",
              "code": "initial-population",
              "display": "Initial Population"
            } ]
          },
          "count": 1
        }, {
          "id": "Denominator_1",
          "code": {
            "coding": [ {
              "system": "http://terminology.hl7.org/CodeSystem/measure-population",
              "code": "denominator",
              "display": "Denominator"
            } ]
          },
          "count": 1
        }, {
          "id": "DenominatorExclusion_1",
          "code": {
            "coding": [ {
              "system": "http://terminology.hl7.org/CodeSystem/measure-population",
              "code": "denominator-exclusion",
              "display": "Denominator Exclusion"
            } ]
          },
          "count": 0
        }, {
          "id": "Numerator_1",
          "code": {
            "coding": [ {
              "system": "http://terminology.hl7.org/CodeSystem/measure-population",
              "code": "numerator",
              "display": "Numerator"
            } ]
          },
          "count": 1
        } ],
        "measureScore": {
          "value": 0.0
        }
      } ],
      "evaluatedResource": [ {
        "reference": "Patient/b486fbcd-6122-4238-812d-ed538bdf8bfc"
      }, {
        "reference": "Encounter/c5313c56-aed1-4cb3-9290-20c063958ad1"
      }, {
        "reference": "Condition/ce735ba0-64d5-4a63-867e-b558596109e2"
      }, {
        "reference": "Encounter/d017a047-49de-43ed-911b-15dc46877ae4"
      }, {
        "reference": "Condition/31ba6b7d-5987-4ec0-9f06-921e3a8e95a5"
      }, {
        "reference": "DiagnosticReport/535be8af-44eb-499c-93bd-685cdfb3485c"
      }, {
        "reference": "MedicationRequest/82896bd6-047c-4d21-b7f7-2e7854091cf4"
      }, {
        "reference": "Encounter/38d8fcea-0ac3-429b-8078-c6f697a36fbc"
      }, {
        "reference": "Condition/25c4eabb-360d-4e4c-8d92-4ede326f38be"
      }, {
        "reference": "Encounter/2b5ab4ba-1832-48d1-9913-38c9b7a05662"
      }, {
        "reference": "Condition/3727187d-fb6c-44d5-a9ad-dcb2f924576f"
      }, {
        "reference": "DiagnosticReport/feb55b4b-bdfe-424f-bb2c-871f1c8cd076"
      }, {
        "reference": "MedicationRequest/6f07937d-545f-4572-baa5-6062e5282cf5"
      }, {
        "reference": "Coverage/0518d2a3-df75-492c-ba70-7268cc4c38b2"
      }, {
        "reference": "Claim/4b676354-023f-4408-985a-3bb039eb2d18"
      }, {
        "reference": "Organization/0c9e8ae4-5042-47e7-8f33-b066bbbac14e"
      } ]
    }
  } ]
}