{
  "resourceType": "Bundle",
  "id": "63487c300968f801225401bc",
  "type": "transaction",
  "entry": [ {
    "fullUrl": "https://madie.cms.gov/Patient/97e8802a-f6a7-4359-a0ff-ce597741ca0f",
    "resource": {
      "resourceType": "Patient",
      "id": "97e8802a-f6a7-4359-a0ff-ce597741ca0f",
      "meta": {
        "profile": [ "http://hl7.org/fhir/us/qicore/StructureDefinition/qicore-patient" ]
      },
      "text": {
        "status": "generated",
        "div": "<div xmlns=\"http://www.w3.org/1999/xhtml\"><div class=\"hapiHeaderText\">AssessPreTermLastMissingResult <b>DENPASS </b></div><table class=\"hapiPropertyTable\"><tbody><tr><td>Identifier</td><td>68ae6e24f0fface97c058e998841dc5fd1e621f11f5d5bc2aeef1a3a248ebc14</td></tr><tr><td>Date of birth</td><td><span>14 February 1985</span></td></tr></tbody></table></div>"
      },
      "extension": [ {
        "url": "http://hl7.org/fhir/us/core/StructureDefinition/us-core-race",
        "extension": [ {
          "url": "ombCategory",
          "valueCoding": {
            "system": "urn:oid:2.16.840.1.113883.6.238",
            "code": "1002-5",
            "display": "American Indian or Alaska Native",
            "userSelected": true
          }
        }, {
          "url": "text",
          "valueString": "American Indian or Alaska Native"
        } ]
      }, {
        "url": "http://hl7.org/fhir/us/core/StructureDefinition/us-core-ethnicity",
        "extension": [ {
          "url": "ombCategory",
          "valueCoding": {
            "system": "urn:oid:2.16.840.1.113883.6.238",
            "code": "2135-2",
            "display": "Hispanic or Latino",
            "userSelected": true
          }
        }, {
          "url": "text",
          "valueString": "Hispanic or Latino"
        } ]
      } ],
      "identifier": [ {
        "type": {
          "coding": [ {
            "system": "http://terminology.hl7.org/CodeSystem/v2-0203",
            "code": "MR"
          } ]
        },
        "system": "https://bonnie-fhir.healthit.gov/",
        "value": "63487c300968f801225401bc"
      } ],
      "active": true,
      "name": [ {
        "use": "usual",
        "family": "DENPass",
        "given": [ "AssessPreTermLastMissingResult" ]
      } ],
      "gender": "female",
      "birthDate": "1998-02-14"
    },
    "request": {
      "method": "PUT",
      "url": "Patient/97e8802a-f6a7-4359-a0ff-ce597741ca0f"
    }
  }, {
    "fullUrl": "https://madie.cms.gov/Observation/f6162edf-8225-45c1-89cb-79244778a895",
    "resource": {
      "resourceType": "Observation",
      "id": "f6162edf-8225-45c1-89cb-79244778a895",
      "meta": {
        "profile": [ "http://hl7.org/fhir/us/qicore/StructureDefinition/qicore-simple-observation" ]
      },
      "status": "final",
      "category": [ {
        "coding": [ {
          "system": "http://terminology.hl7.org/CodeSystem/observation-category",
          "code": "exam",
          "display": "exam",
          "userSelected": true
        } ]
      } ],
      "code": {
        "coding": [ {
          "system": "http://loinc.org",
          "code": "11639-2"
        } ]
      },
      "subject": {
        "reference": "Patient/97e8802a-f6a7-4359-a0ff-ce597741ca0f"
      },
      "effectiveDateTime": "2025-09-19T09:00:00.000+00:00",
      "valueInteger": 0
    },
    "request": {
      "method": "PUT",
      "url": "Observation/f6162edf-8225-45c1-89cb-79244778a895"
    }
  }, {
    "fullUrl": "https://madie.cms.gov/Observation/39cbc7ad-f661-4b79-8706-d395b31c6106",
    "resource": {
      "resourceType": "Observation",
      "id": "39cbc7ad-f661-4b79-8706-d395b31c6106",
      "meta": {
        "profile": [ "http://hl7.org/fhir/us/qicore/StructureDefinition/qicore-simple-observation" ]
      },
      "status": "final",
      "category": [ {
        "coding": [ {
          "system": "http://terminology.hl7.org/CodeSystem/observation-category",
          "code": "exam",
          "display": "exam",
          "userSelected": true
        } ]
      } ],
      "code": {
        "coding": [ {
          "system": "http://loinc.org",
          "code": "11637-6"
        } ]
      },
      "subject": {
        "reference": "Patient/97e8802a-f6a7-4359-a0ff-ce597741ca0f"
      },
      "effectiveDateTime": "2026-06-08T08:00:00.000+00:00",
      "valueInteger": 0
    },
    "request": {
      "method": "PUT",
      "url": "Observation/39cbc7ad-f661-4b79-8706-d395b31c6106"
    }
  }, {
    "fullUrl": "https://madie.cms.gov/Observation/21b724b7-5595-4acc-b6eb-4f687b03ca71",
    "resource": {
      "resourceType": "Observation",
      "id": "21b724b7-5595-4acc-b6eb-4f687b03ca71",
      "meta": {
        "profile": [ "http://hl7.org/fhir/us/qicore/StructureDefinition/qicore-simple-observation" ]
      },
      "status": "final",
      "category": [ {
        "coding": [ {
          "system": "http://terminology.hl7.org/CodeSystem/observation-category",
          "code": "exam",
          "display": "exam",
          "userSelected": true
        } ]
      } ],
      "code": {
        "coding": [ {
          "system": "http://loinc.org",
          "code": "11884-4"
        } ]
      },
      "subject": {
        "reference": "Patient/97e8802a-f6a7-4359-a0ff-ce597741ca0f"
      },
      "effectiveDateTime": "2026-06-08T20:00:00.000+00:00",
      "valueQuantity": {
        "value": 37,
        "system": "http://unitsofmeasure.org",
        "code": "wk"
      }
    },
    "request": {
      "method": "PUT",
      "url": "Observation/21b724b7-5595-4acc-b6eb-4f687b03ca71"
    }
  }, {
    "fullUrl": "https://madie.cms.gov/Observation/993a51ab-1bc8-4f30-817f-e271bd5f88f6",
    "resource": {
      "resourceType": "Observation",
      "id": "993a51ab-1bc8-4f30-817f-e271bd5f88f6",
      "meta": {
        "profile": [ "http://hl7.org/fhir/us/qicore/StructureDefinition/qicore-simple-observation" ]
      },
      "status": "final",
      "category": [ {
        "coding": [ {
          "system": "http://terminology.hl7.org/CodeSystem/observation-category",
          "code": "exam",
          "display": "exam",
          "userSelected": true
        } ]
      } ],
      "code": {
        "coding": [ {
          "system": "http://loinc.org",
          "code": "93857-1"
        } ]
      },
      "subject": {
        "reference": "Patient/97e8802a-f6a7-4359-a0ff-ce597741ca0f"
      },
      "effectiveDateTime": "2026-06-08T20:00:00.000+00:00",
      "valueDateTime": "2026-06-08T20:00:00.000+00:00"
    },
    "request": {
      "method": "PUT",
      "url": "Observation/993a51ab-1bc8-4f30-817f-e271bd5f88f6"
    }
  }, {
    "fullUrl": "https://madie.cms.gov/Observation/29a72f4d-6351-41e3-9185-96dfc9afc87d",
    "resource": {
      "resourceType": "Observation",
      "id": "29a72f4d-6351-41e3-9185-96dfc9afc87d",
      "meta": {
        "profile": [ "http://hl7.org/fhir/us/qicore/StructureDefinition/qicore-simple-observation" ]
      },
      "status": "final",
      "category": [ {
        "coding": [ {
          "system": "http://terminology.hl7.org/CodeSystem/observation-category",
          "code": "exam",
          "display": "exam",
          "userSelected": true
        } ]
      } ],
      "code": {
        "coding": [ {
          "system": "http://loinc.org",
          "code": "11637-6"
        } ]
      },
      "subject": {
        "reference": "Patient/97e8802a-f6a7-4359-a0ff-ce597741ca0f"
      }
    },
    "request": {
      "method": "PUT",
      "url": "Observation/29a72f4d-6351-41e3-9185-96dfc9afc87d"
    }
  }, {
    "fullUrl": "https://madie.cms.gov/Encounter/ca8c4a4e-095b-48d9-8b41-b1cccbf37b70",
    "resource": {
      "resourceType": "Encounter",
      "id": "ca8c4a4e-095b-48d9-8b41-b1cccbf37b70",
      "meta": {
        "profile": [ "http://hl7.org/fhir/us/qicore/StructureDefinition/qicore-encounter" ]
      },
      "status": "finished",
      "class": {
        "system": "http://terminology.hl7.org/CodeSystem/v3-ActCode",
        "code": "IMP",
        "display": "inpatient encounter"
      },
      "type": [ {
        "coding": [ {
          "system": "http://snomed.info/sct",
          "code": "8715000"
        } ]
      } ],
      "subject": {
        "reference": "Patient/97e8802a-f6a7-4359-a0ff-ce597741ca0f"
      },
      "period": {
        "start": "2026-06-08T08:00:00.000+00:00",
        "end": "2026-06-10T08:15:00.000+00:00"
      },
      "length": {
        "value": 2,
        "unit": "days"
      },
      "reasonReference": [ {
        "reference": "Condition/86337727-ef42-46c4-b876-ac9e7bddc3f7"
      } ]
    },
    "request": {
      "method": "PUT",
      "url": "Encounter/ca8c4a4e-095b-48d9-8b41-b1cccbf37b70"
    }
  }, {
    "fullUrl": "https://madie.cms.gov/Coverage/5f5f9e541c76ba674bb033d6",
    "resource": {
      "resourceType": "Coverage",
      "id": "5f5f9e541c76ba674bb033d6",
      "meta": {
        "profile": [ "http://hl7.org/fhir/us/qicore/StructureDefinition/qicore-coverage" ]
      },
      "status": "active",
      "subscriberId": "523435",
      "beneficiary": {
        "reference": "Patient/97e8802a-f6a7-4359-a0ff-ce597741ca0f"
      },
      "relationship": {
        "coding": [ {
          "system": "http://terminology.hl7.org/CodeSystem/subscriber-relationship",
          "code": "self"
        } ]
      },
      "period": {
        "start": "1986-02-14T08:00:00.000+00:00"
      },
      "payor": [ {
        "reference": "Organization/d6239cd5-dd8d-4a63-8749-14930c0cc0b4"
      } ]
    },
    "request": {
      "method": "PUT",
      "url": "Coverage/5f5f9e541c76ba674bb033d6"
    }
  }, {
    "fullUrl": "https://madie.cms.gov/Procedure/0064d69c-588d-4c00-bc06-d3889f44f3e1",
    "resource": {
      "resourceType": "Procedure",
      "id": "0064d69c-588d-4c00-bc06-d3889f44f3e1",
      "meta": {
        "profile": [ "http://hl7.org/fhir/us/qicore/StructureDefinition/qicore-procedure" ]
      },
      "extension": [ {
        "url": "http://hl7.org/fhir/us/qicore/StructureDefinition/qicore-recorded",
        "valueDateTime": "2014-04-05T13:35:00.000+00:00"
      } ],
      "status": "completed",
      "code": {
        "coding": [ {
          "system": "http://www.cms.gov/Medicare/Coding/ICD10",
          "code": "10D00Z0"
        } ]
      },
      "subject": {
        "reference": "Patient/97e8802a-f6a7-4359-a0ff-ce597741ca0f"
      },
      "performedPeriod": {
        "start": "2026-06-08T20:00:00.000+00:00",
        "end": "2026-06-08T20:15:00.000+00:00"
      }
    },
    "request": {
      "method": "PUT",
      "url": "Procedure/0064d69c-588d-4c00-bc06-d3889f44f3e1"
    }
  }, {
    "fullUrl": "https://madie.cms.gov/Condition/86337727-ef42-46c4-b876-ac9e7bddc3f7",
    "resource": {
      "resourceType": "Condition",
      "id": "86337727-ef42-46c4-b876-ac9e7bddc3f7",
      "meta": {
        "profile": [ "http://hl7.org/fhir/us/qicore/StructureDefinition/qicore-condition-encounter-diagnosis" ]
      },
      "category": [ {
        "coding": [ {
          "system": "http://terminology.hl7.org/CodeSystem/condition-category",
          "code": "encounter-diagnosis",
          "display": "Encounter Diagnosis"
        } ]
      } ],
      "code": {
        "coding": [ {
          "system": "http://snomed.info/sct",
          "version": "2022-09",
          "code": "169826009",
          "display": "Single live birth from singleton pregnancy (finding)",
          "userSelected": true
        } ]
      },
      "subject": {
        "reference": "Patient/97e8802a-f6a7-4359-a0ff-ce597741ca0f"
      },
      "encounter": {
        "reference": "Encounter/ca8c4a4e-095b-48d9-8b41-b1cccbf37b70"
      },
      "recordedDate": "2026-10-20T08:00:00.000+00:00"
    },
    "request": {
      "method": "PUT",
      "url": "Condition/86337727-ef42-46c4-b876-ac9e7bddc3f7"
    }
  }, {
    "fullUrl": "https://madie.cms.gov/Organization/d6239cd5-dd8d-4a63-8749-14930c0cc0b4",
    "resource": {
      "resourceType": "Organization",
      "id": "d6239cd5-dd8d-4a63-8749-14930c0cc0b4",
      "meta": {
        "profile": [ "http://hl7.org/fhir/us/qicore/StructureDefinition/qicore-organization" ]
      },
      "identifier": [ {
        "use": "temp",
        "system": "urn:oid:2.16.840.1.113883.4.4",
        "value": "21-3259825"
      } ],
      "active": true,
      "type": [ {
        "coding": [ {
          "system": "http://terminology.hl7.org/CodeSystem/organization-type",
          "code": "pay",
          "display": "Payer"
        } ]
      } ],
      "name": "Blue Cross Blue Shield of Texas",
      "telecom": [ {
        "system": "phone",
        "value": "(+1) 972-766-6900"
      } ],
      "address": [ {
        "use": "billing",
        "type": "postal",
        "line": [ "P.O. Box 660044" ],
        "city": "Dallas",
        "state": "TX",
        "postalCode": "75266-0044",
        "country": "USA"
      } ]
    },
    "request": {
      "method": "PUT",
      "url": "Organization/d6239cd5-dd8d-4a63-8749-14930c0cc0b4"
    }
  }, {
    "fullUrl": "https://madie.cms.gov/Practitioner/9e30beb6-885e-419b-8cb5-decf8f8e99ba",
    "resource": {
      "resourceType": "Practitioner",
      "id": "9e30beb6-885e-419b-8cb5-decf8f8e99ba",
      "meta": {
        "profile": [ "http://hl7.org/fhir/us/qicore/StructureDefinition/qicore-practitioner" ]
      },
      "identifier": [ {
        "system": "http://hl7.org/fhir/sid/us-npi",
        "value": "1234567890"
      } ],
      "name": [ {
        "family": "Evil",
        "prefix": [ "Dr" ]
      } ]
    },
    "request": {
      "method": "PUT",
      "url": "Practitioner/9e30beb6-885e-419b-8cb5-decf8f8e99ba"
    }
  }, {
    "fullUrl": "https://madie.cms.gov/MeasureReport/db2e4045-d2ae-4160-8304-8e77a093cc15",
    "resource": {
      "resourceType": "MeasureReport",
      "id": "db2e4045-d2ae-4160-8304-8e77a093cc15",
      "meta": {
        "profile": [ "http://hl7.org/fhir/us/cqfmeasures/StructureDefinition/test-case-cqfm" ]
      },
      "contained": [ {
        "resourceType": "Parameters",
        "id": "436f6ddf-de64-4f3a-81c3-9a7eb292d271-parameters",
        "parameter": [ {
          "name": "subject",
          "valueString": "97e8802a-f6a7-4359-a0ff-ce597741ca0f"
        } ]
      } ],
      "extension": [ {
        "url": "http://hl7.org/fhir/StructureDefinition/cqf-inputParameters",
        "valueReference": {
          "reference": "#436f6ddf-de64-4f3a-81c3-9a7eb292d271-parameters"
        }
      }, {
        "url": "http://hl7.org/fhir/us/cqfmeasures/StructureDefinition/cqfm-testCaseDescription",
        "valueMarkdown": "\"Two Preterm Births, first=0 but last is missing result, relevant date/time before Asse delivery datetime\nTerm Newborn=0, authored < 42weeks prior to Asse delivery\"\n"
      } ],
      "modifierExtension": [ {
        "url": "http://hl7.org/fhir/us/cqfmeasures/StructureDefinition/cqfm-isTestCase",
        "valueBoolean": true
      } ],
      "status": "complete",
      "type": "individual",
      "measure": "https://madie.cms.gov/Measure/CMS0334FHIRPCCesareanBirth",
      "period": {
        "start": "2026-01-01",
        "end": "2026-12-31"
      },
      "group": [ {
        "id": "Group_1",
        "population": [ {
          "id": "InitialPopulation_1",
          "code": {
            "coding": [ {
              "system": "http://terminology.hl7.org/CodeSystem/measure-population",
              "code": "initial-population",
              "display": "Initial Population"
            } ]
          },
          "count": 1
        }, {
          "id": "Denominator_1",
          "code": {
            "coding": [ {
              "system": "http://terminology.hl7.org/CodeSystem/measure-population",
              "code": "denominator",
              "display": "Denominator"
            } ]
          },
          "count": 1
        }, {
          "id": "DenominatorExclusion_1",
          "code": {
            "coding": [ {
              "system": "http://terminology.hl7.org/CodeSystem/measure-population",
              "code": "denominator-exclusion",
              "display": "Denominator Exclusion"
            } ]
          },
          "count": 0
        }, {
          "id": "Numerator_1",
          "code": {
            "coding": [ {
              "system": "http://terminology.hl7.org/CodeSystem/measure-population",
              "code": "numerator",
              "display": "Numerator"
            } ]
          },
          "count": 1
        } ],
        "measureScore": {
          "value": 0.0
        }
      } ],
      "evaluatedResource": [ {
        "reference": "Patient/97e8802a-f6a7-4359-a0ff-ce597741ca0f"
      }, {
        "reference": "Observation/f6162edf-8225-45c1-89cb-79244778a895"
      }, {
        "reference": "Observation/39cbc7ad-f661-4b79-8706-d395b31c6106"
      }, {
        "reference": "Observation/21b724b7-5595-4acc-b6eb-4f687b03ca71"
      }, {
        "reference": "Observation/993a51ab-1bc8-4f30-817f-e271bd5f88f6"
      }, {
        "reference": "Observation/29a72f4d-6351-41e3-9185-96dfc9afc87d"
      }, {
        "reference": "Encounter/ca8c4a4e-095b-48d9-8b41-b1cccbf37b70"
      }, {
        "reference": "Coverage/5f5f9e541c76ba674bb033d6"
      }, {
        "reference": "Procedure/0064d69c-588d-4c00-bc06-d3889f44f3e1"
      }, {
        "reference": "Condition/86337727-ef42-46c4-b876-ac9e7bddc3f7"
      }, {
        "reference": "Organization/d6239cd5-dd8d-4a63-8749-14930c0cc0b4"
      }, {
        "reference": "Practitioner/9e30beb6-885e-419b-8cb5-decf8f8e99ba"
      } ]
    },
    "request": {
      "method": "PUT",
      "url": "MeasureReport/db2e4045-d2ae-4160-8304-8e77a093cc15"
    }
  } ]
}