{
  "resourceType": "Bundle",
  "id": "DENEXPass-KidneyTransplantRecipientDuringMP",
  "type": "transaction",
  "entry": [ {
    "fullUrl": "https://madie.cms.gov/Patient/4f168366-f0a7-4aad-ab9e-b0bcbecda886",
    "resource": {
      "resourceType": "Patient",
      "id": "4f168366-f0a7-4aad-ab9e-b0bcbecda886",
      "meta": {
        "profile": [ "http://hl7.org/fhir/us/qicore/StructureDefinition/qicore-patient" ]
      },
      "extension": [ {
        "url": "http://hl7.org/fhir/us/core/StructureDefinition/us-core-race",
        "extension": [ {
          "url": "ombCategory",
          "valueCoding": {
            "system": "urn:oid:2.16.840.1.113883.6.238",
            "code": "2028-9",
            "display": "Asian"
          }
        }, {
          "url": "text",
          "valueString": "Asian"
        } ]
      }, {
        "url": "http://hl7.org/fhir/us/core/StructureDefinition/us-core-ethnicity",
        "extension": [ {
          "url": "ombCategory",
          "valueCoding": {
            "system": "urn:oid:2.16.840.1.113883.6.238",
            "code": "2135-2",
            "display": "Hispanic or Latino"
          }
        }, {
          "url": "text",
          "valueString": "Hispanic or Latino"
        } ]
      } ],
      "identifier": [ {
        "system": "http://hospital.smarthealthit.org",
        "value": "999999995"
      } ],
      "name": [ {
        "family": "DENEXPass",
        "given": [ "KidneyTransplantRecipientDuringMP" ]
      } ],
      "gender": "female",
      "birthDate": "2007-12-31"
    },
    "request": {
      "method": "PUT",
      "url": "Patient/4f168366-f0a7-4aad-ab9e-b0bcbecda886"
    }
  }, {
    "fullUrl": "https://madie.cms.gov/Encounter/6d86fce9-f7e2-41a2-a2af-c8517c25061d",
    "resource": {
      "resourceType": "Encounter",
      "id": "6d86fce9-f7e2-41a2-a2af-c8517c25061d",
      "meta": {
        "profile": [ "http://hl7.org/fhir/us/qicore/StructureDefinition/qicore-encounter" ]
      },
      "status": "finished",
      "class": {
        "system": "http://terminology.hl7.org/CodeSystem/v3-ActCode",
        "code": "AMB",
        "display": "ambulatory"
      },
      "type": [ {
        "coding": [ {
          "system": "http://snomed.info/sct",
          "code": "3391000175108",
          "display": "Office visit for pediatric care and assessment (procedure)"
        } ]
      } ],
      "subject": {
        "reference": "Patient/4f168366-f0a7-4aad-ab9e-b0bcbecda886"
      },
      "period": {
        "start": "2026-01-01T00:00:00.000+00:00",
        "end": "2026-01-01T01:00:00.000+00:00"
      }
    },
    "request": {
      "method": "PUT",
      "url": "Encounter/6d86fce9-f7e2-41a2-a2af-c8517c25061d"
    }
  }, {
    "fullUrl": "https://madie.cms.gov/Condition/617c1135-ba37-4212-8e1e-5135ffdcc6b9",
    "resource": {
      "resourceType": "Condition",
      "id": "617c1135-ba37-4212-8e1e-5135ffdcc6b9",
      "meta": {
        "profile": [ "http://hl7.org/fhir/us/qicore/StructureDefinition/qicore-condition-problems-health-concerns" ]
      },
      "clinicalStatus": {
        "coding": [ {
          "system": "http://terminology.hl7.org/CodeSystem/condition-clinical",
          "code": "active"
        } ]
      },
      "category": [ {
        "coding": [ {
          "system": "http://terminology.hl7.org/CodeSystem/condition-category",
          "code": "problem-list-item",
          "display": "Problem List Item"
        } ]
      } ],
      "code": {
        "coding": [ {
          "system": "http://snomed.info/sct",
          "code": "371125006",
          "display": "Labile essential hypertension (disorder)"
        } ]
      },
      "subject": {
        "reference": "Patient/4f168366-f0a7-4aad-ab9e-b0bcbecda886"
      },
      "onsetDateTime": "2026-06-29T23:59:59.000+00:00"
    },
    "request": {
      "method": "PUT",
      "url": "Condition/617c1135-ba37-4212-8e1e-5135ffdcc6b9"
    }
  }, {
    "fullUrl": "https://madie.cms.gov/Condition/0cacc8b5-059e-4317-b8ad-70fdb8372a00",
    "resource": {
      "resourceType": "Condition",
      "id": "0cacc8b5-059e-4317-b8ad-70fdb8372a00",
      "meta": {
        "profile": [ "http://hl7.org/fhir/us/qicore/StructureDefinition/qicore-condition-encounter-diagnosis" ]
      },
      "clinicalStatus": {
        "coding": [ {
          "system": "http://terminology.hl7.org/CodeSystem/condition-clinical",
          "code": "active"
        } ]
      },
      "category": [ {
        "coding": [ {
          "system": "http://terminology.hl7.org/CodeSystem/condition-category",
          "code": "encounter-diagnosis",
          "display": "Encounter Diagnosis"
        } ]
      } ],
      "code": {
        "coding": [ {
          "system": "http://hl7.org/fhir/sid/icd-10-cm",
          "code": "Z94.0",
          "display": "Kidney transplant status"
        } ]
      },
      "subject": {
        "reference": "Patient/4f168366-f0a7-4aad-ab9e-b0bcbecda886"
      },
      "onsetDateTime": "2026-06-30T23:59:59.000+00:00"
    },
    "request": {
      "method": "PUT",
      "url": "Condition/0cacc8b5-059e-4317-b8ad-70fdb8372a00"
    }
  }, {
    "fullUrl": "https://madie.cms.gov/MeasureReport/e4e2a2eb-a35d-4fe7-81cb-bfec1902ea50",
    "resource": {
      "resourceType": "MeasureReport",
      "id": "e4e2a2eb-a35d-4fe7-81cb-bfec1902ea50",
      "meta": {
        "profile": [ "http://hl7.org/fhir/us/cqfmeasures/StructureDefinition/test-case-cqfm" ]
      },
      "contained": [ {
        "resourceType": "Parameters",
        "id": "13ae6241-59e8-4127-9b9f-4454193f1743-parameters",
        "parameter": [ {
          "name": "subject",
          "valueString": "4f168366-f0a7-4aad-ab9e-b0bcbecda886"
        } ]
      } ],
      "extension": [ {
        "url": "http://hl7.org/fhir/StructureDefinition/cqf-inputParameters",
        "valueReference": {
          "reference": "#13ae6241-59e8-4127-9b9f-4454193f1743-parameters"
        }
      }, {
        "url": "http://hl7.org/fhir/us/cqfmeasures/StructureDefinition/cqfm-testCaseDescription",
        "valueMarkdown": "Kidney transplant recipient during MP - ConditionEncounterDiagnosis"
      } ],
      "modifierExtension": [ {
        "url": "http://hl7.org/fhir/us/cqfmeasures/StructureDefinition/cqfm-isTestCase",
        "valueBoolean": true
      } ],
      "status": "complete",
      "type": "individual",
      "measure": "https://madie.cms.gov/Measure/CMS165FHIRControllingHighBP",
      "period": {
        "start": "2026-01-01",
        "end": "2026-12-31"
      },
      "group": [ {
        "id": "Group_1",
        "population": [ {
          "id": "InitialPopulation_1",
          "code": {
            "coding": [ {
              "system": "http://terminology.hl7.org/CodeSystem/measure-population",
              "code": "initial-population",
              "display": "Initial Population"
            } ]
          },
          "count": 1
        }, {
          "id": "Denominator_1",
          "code": {
            "coding": [ {
              "system": "http://terminology.hl7.org/CodeSystem/measure-population",
              "code": "denominator",
              "display": "Denominator"
            } ]
          },
          "count": 1
        }, {
          "id": "DenominatorExclusion_1",
          "code": {
            "coding": [ {
              "system": "http://terminology.hl7.org/CodeSystem/measure-population",
              "code": "denominator-exclusion",
              "display": "Denominator Exclusion"
            } ]
          },
          "count": 1
        }, {
          "id": "Numerator_1",
          "code": {
            "coding": [ {
              "system": "http://terminology.hl7.org/CodeSystem/measure-population",
              "code": "numerator",
              "display": "Numerator"
            } ]
          },
          "count": 0
        } ],
        "measureScore": {
          "value": 1.0
        }
      } ],
      "evaluatedResource": [ {
        "reference": "Patient/4f168366-f0a7-4aad-ab9e-b0bcbecda886"
      }, {
        "reference": "Encounter/6d86fce9-f7e2-41a2-a2af-c8517c25061d"
      }, {
        "reference": "Condition/617c1135-ba37-4212-8e1e-5135ffdcc6b9"
      }, {
        "reference": "Condition/0cacc8b5-059e-4317-b8ad-70fdb8372a00"
      } ]
    },
    "request": {
      "method": "PUT",
      "url": "MeasureReport/e4e2a2eb-a35d-4fe7-81cb-bfec1902ea50"
    }
  } ]
}