{
  "resourceType": "Bundle",
  "id": "6617e30316793f5a4fae16fe",
  "type": "transaction",
  "entry": [ {
    "fullUrl": "https://madie.cms.gov/Patient/11703274-1218-440d-bb98-08502a794179",
    "resource": {
      "resourceType": "Patient",
      "id": "11703274-1218-440d-bb98-08502a794179",
      "meta": {
        "profile": [ "http://hl7.org/fhir/us/qicore/StructureDefinition/qicore-patient" ]
      },
      "extension": [ {
        "url": "http://hl7.org/fhir/us/core/StructureDefinition/us-core-race",
        "extension": [ {
          "url": "ombCategory",
          "valueCoding": {
            "system": "urn:oid:2.16.840.1.113883.6.238",
            "code": "1002-5",
            "display": "American Indian or Alaska Native",
            "userSelected": true
          }
        }, {
          "url": "text",
          "valueString": "American Indian or Alaska Native"
        } ]
      }, {
        "url": "http://hl7.org/fhir/us/core/StructureDefinition/us-core-ethnicity",
        "extension": [ {
          "url": "ombCategory",
          "valueCoding": {
            "system": "urn:oid:2.16.840.1.113883.6.238",
            "code": "2135-2",
            "display": "Hispanic or Latino",
            "userSelected": true
          }
        }, {
          "url": "text",
          "valueString": "Hispanic or Latino"
        } ]
      }, {
        "url": "http://hl7.org/fhir/us/core/StructureDefinition/us-core-sex",
        "valueCode": "248153007"
      } ],
      "identifier": [ {
        "type": {
          "coding": [ {
            "system": "http://terminology.hl7.org/CodeSystem/v2-0203",
            "code": "MR"
          } ]
        },
        "system": "https://bonnie-fhir.healthit.gov/",
        "value": "6617e30316793f5a4fae16fe"
      } ],
      "name": [ {
        "family": "NUMERStrat2Pass",
        "given": [ "BedAssigment" ]
      } ],
      "gender": "male",
      "birthDate": "2009-01-01"
    },
    "request": {
      "method": "PUT",
      "url": "Patient/11703274-1218-440d-bb98-08502a794179"
    }
  }, {
    "fullUrl": "https://madie.cms.gov/Encounter/3eadc620-3b51-4895-aead-18160e0e9718",
    "resource": {
      "resourceType": "Encounter",
      "id": "3eadc620-3b51-4895-aead-18160e0e9718",
      "meta": {
        "profile": [ "http://hl7.org/fhir/us/qicore/StructureDefinition/qicore-encounter" ]
      },
      "status": "finished",
      "class": {
        "system": "http://terminology.hl7.org/CodeSystem/v3-ActCode",
        "code": "AMB",
        "display": "ambulatory"
      },
      "type": [ {
        "coding": [ {
          "system": "http://snomed.info/sct",
          "version": "2023-09",
          "code": "4525004",
          "display": "Emergency department patient visit (procedure)",
          "userSelected": true
        } ]
      } ],
      "subject": {
        "reference": "Patient/11703274-1218-440d-bb98-08502a794179"
      },
      "period": {
        "start": "2027-05-01T00:00:00.000+00:00",
        "end": "2027-05-01T05:00:00.000+00:00"
      },
      "diagnosis": [ {
        "condition": {
          "reference": "Condition/5bfcaba7-bbb0-433f-b74f-38e0cf67306f"
        },
        "use": {
          "coding": [ {
            "system": "http://terminology.hl7.org/CodeSystem/diagnosis-role",
            "code": "billing"
          } ]
        },
        "rank": 1
      } ],
      "location": [ {
        "location": {
          "reference": "Location/19179612-0ab1-4d8c-a699-6c149814ed82"
        },
        "period": {
          "start": "2027-05-01T00:00:00.000+00:00",
          "end": "2027-05-01T05:01:00.000+00:00"
        }
      } ]
    },
    "request": {
      "method": "PUT",
      "url": "Encounter/3eadc620-3b51-4895-aead-18160e0e9718"
    }
  }, {
    "fullUrl": "https://madie.cms.gov/Location/19179612-0ab1-4d8c-a699-6c149814ed82",
    "resource": {
      "resourceType": "Location",
      "id": "19179612-0ab1-4d8c-a699-6c149814ed82",
      "meta": {
        "profile": [ "http://hl7.org/fhir/us/qicore/StructureDefinition/qicore-location" ]
      },
      "identifier": [ {
        "use": "usual",
        "system": "http://exampleoflocation.com",
        "value": "B1-S.F2"
      } ],
      "name": "Medical Surgical East, first floor",
      "type": [ {
        "coding": [ {
          "system": "https://www.cdc.gov/nhsn/cdaportal/terminology/codesystem/hsloc.html",
          "version": "2022",
          "code": "1108-0",
          "display": "Emergency Department",
          "userSelected": true
        } ]
      } ]
    },
    "request": {
      "method": "PUT",
      "url": "Location/19179612-0ab1-4d8c-a699-6c149814ed82"
    }
  }, {
    "fullUrl": "https://madie.cms.gov/ServiceRequest/d0add2f5-9cd7-434e-85fb-3476efb8e8d6",
    "resource": {
      "resourceType": "ServiceRequest",
      "id": "d0add2f5-9cd7-434e-85fb-3476efb8e8d6",
      "meta": {
        "profile": [ "http://hl7.org/fhir/us/qicore/StructureDefinition/qicore-servicerequest" ]
      },
      "status": "active",
      "intent": "order",
      "code": {
        "coding": [ {
          "system": "http://snomed.info/sct",
          "code": "5751000175101",
          "display": "Patient bed assigned (finding)",
          "userSelected": true
        } ]
      },
      "subject": {
        "reference": "Patient/11703274-1218-440d-bb98-08502a794179"
      },
      "authoredOn": "2027-05-01T01:00:00.000+00:00"
    },
    "request": {
      "method": "PUT",
      "url": "ServiceRequest/d0add2f5-9cd7-434e-85fb-3476efb8e8d6"
    }
  }, {
    "fullUrl": "https://madie.cms.gov/Condition/5bfcaba7-bbb0-433f-b74f-38e0cf67306f",
    "resource": {
      "resourceType": "Condition",
      "id": "5bfcaba7-bbb0-433f-b74f-38e0cf67306f",
      "meta": {
        "profile": [ "http://hl7.org/fhir/us/qicore/StructureDefinition/qicore-condition-encounter-diagnosis" ]
      },
      "category": [ {
        "coding": [ {
          "system": "http://terminology.hl7.org/CodeSystem/condition-category",
          "code": "encounter-diagnosis",
          "display": "Encounter Diagnosis"
        } ]
      } ],
      "code": {
        "coding": [ {
          "system": "http://snomed.info/sct",
          "version": "2023-09",
          "code": "10660471000119109",
          "display": "Ulcer of left foot due to type 2 diabetes mellitus (disorder)",
          "userSelected": true
        } ]
      },
      "subject": {
        "reference": "Patient/11703274-1218-440d-bb98-08502a794179"
      },
      "recordedDate": "2027-05-01T08:00:00.000+00:00"
    },
    "request": {
      "method": "PUT",
      "url": "Condition/5bfcaba7-bbb0-433f-b74f-38e0cf67306f"
    }
  }, {
    "fullUrl": "https://madie.cms.gov/ServiceRequest/b9fce90a-6874-4828-aae9-cec03baeb629",
    "resource": {
      "resourceType": "ServiceRequest",
      "id": "b9fce90a-6874-4828-aae9-cec03baeb629",
      "meta": {
        "profile": [ "http://hl7.org/fhir/us/qicore/StructureDefinition/qicore-servicerequest" ]
      },
      "status": "active",
      "intent": "order",
      "code": {
        "coding": [ {
          "system": "http://snomed.info/sct",
          "version": "2023-09",
          "code": "183452005",
          "display": "Emergency hospital admission (procedure)",
          "userSelected": true
        } ]
      },
      "subject": {
        "reference": "Patient/11703274-1218-440d-bb98-08502a794179"
      },
      "authoredOn": "2027-05-01T01:00:00.000+00:00"
    },
    "request": {
      "method": "PUT",
      "url": "ServiceRequest/b9fce90a-6874-4828-aae9-cec03baeb629"
    }
  }, {
    "fullUrl": "https://madie.cms.gov/Claim/1b534071-a268-48f1-adb3-5e8bcb572316",
    "resource": {
      "resourceType": "Claim",
      "id": "1b534071-a268-48f1-adb3-5e8bcb572316",
      "meta": {
        "profile": [ "http://hl7.org/fhir/us/qicore/StructureDefinition/qicore-claim" ]
      },
      "status": "active",
      "type": {
        "coding": [ {
          "system": "http://terminology.hl7.org/CodeSystem/claim-type",
          "code": "institutional"
        } ]
      },
      "use": "claim",
      "patient": {
        "reference": "Patient/11703274-1218-440d-bb98-08502a794179"
      },
      "created": "2027-05-01",
      "provider": {
        "reference": "Practitioner/6131f86c-0960-43e8-9a89-37e0ecc40b24"
      },
      "priority": {
        "coding": [ {
          "system": "http://terminology.hl7.org/CodeSystem/processpriority",
          "code": "normal"
        } ]
      },
      "diagnosis": [ {
        "sequence": 1,
        "diagnosisReference": {
          "reference": "Condition/5bfcaba7-bbb0-433f-b74f-38e0cf67306f"
        },
        "type": [ {
          "coding": [ {
            "system": "http://terminology.hl7.org/CodeSystem/ex-diagnosistype",
            "code": "principal"
          } ]
        } ]
      } ],
      "insurance": [ {
        "sequence": 1,
        "focal": true,
        "coverage": {
          "reference": "Coverage/438e73dc-c63b-490d-ae7c-c9fc4a87bfc0"
        }
      } ],
      "item": [ {
        "sequence": 1,
        "diagnosisSequence": [ 1 ],
        "productOrService": {
          "coding": [ {
            "system": "http://terminology.hl7.org/CodeSystem/ex-USCLS",
            "code": "99555"
          } ]
        },
        "encounter": [ {
          "reference": "Encounter/3eadc620-3b51-4895-aead-18160e0e9718"
        } ]
      } ]
    },
    "request": {
      "method": "PUT",
      "url": "Claim/1b534071-a268-48f1-adb3-5e8bcb572316"
    }
  }, {
    "fullUrl": "https://madie.cms.gov/Coverage/438e73dc-c63b-490d-ae7c-c9fc4a87bfc0",
    "resource": {
      "resourceType": "Coverage",
      "id": "438e73dc-c63b-490d-ae7c-c9fc4a87bfc0",
      "meta": {
        "profile": [ "http://hl7.org/fhir/us/qicore/StructureDefinition/qicore-coverage" ]
      },
      "identifier": [ {
        "type": {
          "coding": [ {
            "system": "http://terminology.hl7.org/CodeSystem/v2-0203",
            "code": "MB"
          } ]
        }
      } ],
      "status": "active",
      "beneficiary": {
        "reference": "Patient/11703274-1218-440d-bb98-08502a794179"
      },
      "relationship": {
        "coding": [ {
          "system": "http://terminology.hl7.org/CodeSystem/subscriber-relationship",
          "code": "self"
        } ]
      },
      "payor": [ {
        "reference": "Organization/71c755ae-6b25-4c35-9cb7-54a21bb16dcc"
      } ]
    },
    "request": {
      "method": "PUT",
      "url": "Coverage/438e73dc-c63b-490d-ae7c-c9fc4a87bfc0"
    }
  }, {
    "fullUrl": "https://madie.cms.gov/Encounter/ad3da1dd-79ad-42b5-b824-0fff9a4a2fea",
    "resource": {
      "resourceType": "Encounter",
      "id": "ad3da1dd-79ad-42b5-b824-0fff9a4a2fea",
      "meta": {
        "profile": [ "http://hl7.org/fhir/us/qicore/StructureDefinition/qicore-encounter" ]
      },
      "status": "finished",
      "class": {
        "system": "http://terminology.hl7.org/CodeSystem/v3-ActCode",
        "code": "IMP",
        "display": "inpatient encounter"
      },
      "type": [ {
        "coding": [ {
          "system": "http://snomed.info/sct",
          "version": "2023-09",
          "code": "183452005",
          "display": "Emergency hospital admission (procedure)",
          "userSelected": true
        } ]
      } ],
      "subject": {
        "reference": "Patient/11703274-1218-440d-bb98-08502a794179"
      },
      "period": {
        "start": "2027-05-01T05:00:00.000+00:00",
        "end": "2027-05-03T06:15:00.000+00:00"
      }
    },
    "request": {
      "method": "PUT",
      "url": "Encounter/ad3da1dd-79ad-42b5-b824-0fff9a4a2fea"
    }
  }, {
    "fullUrl": "https://madie.cms.gov/Organization/71c755ae-6b25-4c35-9cb7-54a21bb16dcc",
    "resource": {
      "resourceType": "Organization",
      "id": "71c755ae-6b25-4c35-9cb7-54a21bb16dcc",
      "meta": {
        "profile": [ "http://hl7.org/fhir/us/qicore/StructureDefinition/qicore-organization" ]
      },
      "identifier": [ {
        "use": "temp",
        "system": "urn:oid:2.16.840.1.113883.4.4",
        "value": "21-3259825"
      } ],
      "active": true,
      "type": [ {
        "coding": [ {
          "system": "http://terminology.hl7.org/CodeSystem/organization-type",
          "code": "pay",
          "display": "Payer"
        } ]
      } ],
      "name": "Blue Cross Blue Shield of Texas",
      "telecom": [ {
        "system": "phone",
        "value": "(+1) 972-766-6900"
      } ],
      "address": [ {
        "use": "billing",
        "type": "postal",
        "line": [ "P.O. Box 660044" ],
        "city": "Dallas",
        "state": "TX",
        "postalCode": "75266-0044",
        "country": "USA"
      } ]
    },
    "request": {
      "method": "PUT",
      "url": "Organization/71c755ae-6b25-4c35-9cb7-54a21bb16dcc"
    }
  }, {
    "fullUrl": "https://madie.cms.gov/Practitioner/6131f86c-0960-43e8-9a89-37e0ecc40b24",
    "resource": {
      "resourceType": "Practitioner",
      "id": "6131f86c-0960-43e8-9a89-37e0ecc40b24",
      "meta": {
        "profile": [ "http://hl7.org/fhir/us/qicore/StructureDefinition/qicore-practitioner" ]
      },
      "identifier": [ {
        "system": "http://hl7.org/fhir/sid/us-npi",
        "value": "9999999896"
      } ],
      "name": [ {
        "family": "Evil",
        "prefix": [ "Dr" ]
      } ]
    },
    "request": {
      "method": "PUT",
      "url": "Practitioner/6131f86c-0960-43e8-9a89-37e0ecc40b24"
    }
  }, {
    "fullUrl": "https://madie.cms.gov/MeasureReport/fd735b38-a544-4d06-aa52-1ae657eb181f",
    "resource": {
      "resourceType": "MeasureReport",
      "id": "fd735b38-a544-4d06-aa52-1ae657eb181f",
      "meta": {
        "profile": [ "http://hl7.org/fhir/us/cqfmeasures/StructureDefinition/test-case-cqfm" ]
      },
      "contained": [ {
        "resourceType": "Parameters",
        "id": "d0f6bb9d-199b-42b0-bc5d-70e3faad90c3-parameters",
        "parameter": [ {
          "name": "subject",
          "valueString": "11703274-1218-440d-bb98-08502a794179"
        } ]
      } ],
      "extension": [ {
        "url": "http://hl7.org/fhir/StructureDefinition/cqf-inputParameters",
        "valueReference": {
          "reference": "#d0f6bb9d-199b-42b0-bc5d-70e3faad90c3-parameters"
        }
      }, {
        "url": "http://hl7.org/fhir/us/cqfmeasures/StructureDefinition/cqfm-testCaseDescription",
        "valueMarkdown": "Adult, age 18 ED first minute of MP,  bed assignment 241 mins before ED departure without psych "
      } ],
      "modifierExtension": [ {
        "url": "http://hl7.org/fhir/us/cqfmeasures/StructureDefinition/cqfm-isTestCase",
        "valueBoolean": true
      } ],
      "status": "complete",
      "type": "individual",
      "measure": "https://madie.cms.gov/Measure/CMS1244FHIRECATHOQR",
      "period": {
        "start": "2027-01-01",
        "end": "2027-12-31"
      },
      "group": [ {
        "id": "Group_1",
        "population": [ {
          "id": "InitialPopulation_1",
          "code": {
            "coding": [ {
              "system": "http://terminology.hl7.org/CodeSystem/measure-population",
              "code": "initial-population",
              "display": "Initial Population"
            } ]
          },
          "count": 1
        }, {
          "id": "Denominator_1",
          "code": {
            "coding": [ {
              "system": "http://terminology.hl7.org/CodeSystem/measure-population",
              "code": "denominator",
              "display": "Denominator"
            } ]
          },
          "count": 1
        }, {
          "id": "Numerator_1",
          "code": {
            "coding": [ {
              "system": "http://terminology.hl7.org/CodeSystem/measure-population",
              "code": "numerator",
              "display": "Numerator"
            } ]
          },
          "count": 1
        } ],
        "measureScore": {
          "value": 0.0
        },
        "stratifier": [ {
          "id": "Stratification_1_1",
          "code": [ {
            "text": "Strata-1"
          } ],
          "stratum": [ {
            "value": {
              "text": "Strata-1"
            },
            "population": [ {
              "id": "InitialPopulation_1",
              "code": {
                "coding": [ {
                  "system": "http://terminology.hl7.org/CodeSystem/measure-population",
                  "code": "initial-population",
                  "display": "Initial Population"
                } ]
              },
              "count": 0
            }, {
              "id": "Denominator_1",
              "code": {
                "coding": [ {
                  "system": "http://terminology.hl7.org/CodeSystem/measure-population",
                  "code": "denominator",
                  "display": "Denominator"
                } ]
              },
              "count": 0
            }, {
              "id": "Numerator_1",
              "code": {
                "coding": [ {
                  "system": "http://terminology.hl7.org/CodeSystem/measure-population",
                  "code": "numerator",
                  "display": "Numerator"
                } ]
              },
              "count": 0
            } ]
          } ]
        }, {
          "id": "Stratification_1_2",
          "code": [ {
            "text": "Strata-2"
          } ],
          "stratum": [ {
            "value": {
              "text": "Strata-2"
            },
            "population": [ {
              "id": "InitialPopulation_1",
              "code": {
                "coding": [ {
                  "system": "http://terminology.hl7.org/CodeSystem/measure-population",
                  "code": "initial-population",
                  "display": "Initial Population"
                } ]
              },
              "count": 1
            }, {
              "id": "Denominator_1",
              "code": {
                "coding": [ {
                  "system": "http://terminology.hl7.org/CodeSystem/measure-population",
                  "code": "denominator",
                  "display": "Denominator"
                } ]
              },
              "count": 1
            }, {
              "id": "Numerator_1",
              "code": {
                "coding": [ {
                  "system": "http://terminology.hl7.org/CodeSystem/measure-population",
                  "code": "numerator",
                  "display": "Numerator"
                } ]
              },
              "count": 1
            } ]
          } ]
        }, {
          "id": "Stratification_1_3",
          "code": [ {
            "text": "Strata-3"
          } ],
          "stratum": [ {
            "value": {
              "text": "Strata-3"
            },
            "population": [ {
              "id": "InitialPopulation_1",
              "code": {
                "coding": [ {
                  "system": "http://terminology.hl7.org/CodeSystem/measure-population",
                  "code": "initial-population",
                  "display": "Initial Population"
                } ]
              },
              "count": 0
            }, {
              "id": "Denominator_1",
              "code": {
                "coding": [ {
                  "system": "http://terminology.hl7.org/CodeSystem/measure-population",
                  "code": "denominator",
                  "display": "Denominator"
                } ]
              },
              "count": 0
            }, {
              "id": "Numerator_1",
              "code": {
                "coding": [ {
                  "system": "http://terminology.hl7.org/CodeSystem/measure-population",
                  "code": "numerator",
                  "display": "Numerator"
                } ]
              },
              "count": 0
            } ]
          } ]
        }, {
          "id": "Stratification_1_4",
          "code": [ {
            "text": "Strata-4"
          } ],
          "stratum": [ {
            "value": {
              "text": "Strata-4"
            },
            "population": [ {
              "id": "InitialPopulation_1",
              "code": {
                "coding": [ {
                  "system": "http://terminology.hl7.org/CodeSystem/measure-population",
                  "code": "initial-population",
                  "display": "Initial Population"
                } ]
              },
              "count": 0
            }, {
              "id": "Denominator_1",
              "code": {
                "coding": [ {
                  "system": "http://terminology.hl7.org/CodeSystem/measure-population",
                  "code": "denominator",
                  "display": "Denominator"
                } ]
              },
              "count": 0
            }, {
              "id": "Numerator_1",
              "code": {
                "coding": [ {
                  "system": "http://terminology.hl7.org/CodeSystem/measure-population",
                  "code": "numerator",
                  "display": "Numerator"
                } ]
              },
              "count": 0
            } ]
          } ]
        } ]
      } ],
      "evaluatedResource": [ {
        "reference": "Patient/11703274-1218-440d-bb98-08502a794179"
      }, {
        "reference": "Encounter/3eadc620-3b51-4895-aead-18160e0e9718"
      }, {
        "reference": "Location/19179612-0ab1-4d8c-a699-6c149814ed82"
      }, {
        "reference": "ServiceRequest/d0add2f5-9cd7-434e-85fb-3476efb8e8d6"
      }, {
        "reference": "Condition/5bfcaba7-bbb0-433f-b74f-38e0cf67306f"
      }, {
        "reference": "ServiceRequest/b9fce90a-6874-4828-aae9-cec03baeb629"
      }, {
        "reference": "Claim/1b534071-a268-48f1-adb3-5e8bcb572316"
      }, {
        "reference": "Coverage/438e73dc-c63b-490d-ae7c-c9fc4a87bfc0"
      }, {
        "reference": "Encounter/ad3da1dd-79ad-42b5-b824-0fff9a4a2fea"
      }, {
        "reference": "Organization/71c755ae-6b25-4c35-9cb7-54a21bb16dcc"
      }, {
        "reference": "Practitioner/6131f86c-0960-43e8-9a89-37e0ecc40b24"
      } ]
    },
    "request": {
      "method": "PUT",
      "url": "MeasureReport/fd735b38-a544-4d06-aa52-1ae657eb181f"
    }
  } ]
}