{
  "resourceType": "Bundle",
  "id": "DENEXPass-FrailtyDeviceRequestNotPerformedFalse",
  "type": "transaction",
  "entry": [ {
    "fullUrl": "https://madie.cms.gov/Patient/ede0ee7a-18ab-4ba7-934c-23618f1270ea",
    "resource": {
      "resourceType": "Patient",
      "id": "ede0ee7a-18ab-4ba7-934c-23618f1270ea",
      "meta": {
        "profile": [ "http://hl7.org/fhir/us/qicore/StructureDefinition/qicore-patient" ]
      },
      "extension": [ {
        "url": "http://hl7.org/fhir/us/core/StructureDefinition/us-core-race",
        "extension": [ {
          "url": "ombCategory",
          "valueCoding": {
            "system": "urn:oid:2.16.840.1.113883.6.238",
            "code": "2028-9",
            "display": "Asian",
            "userSelected": true
          }
        }, {
          "url": "text",
          "valueString": "Asian"
        } ]
      }, {
        "url": "http://hl7.org/fhir/us/core/StructureDefinition/us-core-ethnicity",
        "extension": [ {
          "url": "ombCategory",
          "valueCoding": {
            "system": "urn:oid:2.16.840.1.113883.6.238",
            "code": "2135-2",
            "display": "Hispanic or Latino",
            "userSelected": true
          }
        }, {
          "url": "text",
          "valueString": "Hispanic or Latino"
        } ]
      } ],
      "identifier": [ {
        "type": {
          "coding": [ {
            "system": "http://terminology.hl7.org/CodeSystem/v2-0203",
            "code": "MR"
          } ]
        },
        "system": "http://hospital.smarthealthit.org",
        "value": "999999995"
      } ],
      "name": [ {
        "family": "Bertha",
        "given": [ "Betty" ]
      } ],
      "gender": "female",
      "birthDate": "1955-01-01"
    },
    "request": {
      "method": "PUT",
      "url": "Patient/ede0ee7a-18ab-4ba7-934c-23618f1270ea"
    }
  }, {
    "fullUrl": "https://madie.cms.gov/Encounter/30f39d3a-5e4f-4a86-9ede-a747ec4f392e",
    "resource": {
      "resourceType": "Encounter",
      "id": "30f39d3a-5e4f-4a86-9ede-a747ec4f392e",
      "meta": {
        "profile": [ "http://hl7.org/fhir/us/qicore/StructureDefinition/qicore-encounter" ]
      },
      "status": "finished",
      "class": {
        "system": "http://terminology.hl7.org/CodeSystem/v3-ActCode",
        "code": "AMB",
        "display": "ambulatory"
      },
      "type": [ {
        "coding": [ {
          "system": "http://snomed.info/sct",
          "code": "185460008",
          "display": "Home visit request by patient (procedure)"
        } ]
      } ],
      "subject": {
        "reference": "Patient/ede0ee7a-18ab-4ba7-934c-23618f1270ea"
      },
      "period": {
        "start": "2026-01-01T00:00:00.000+00:00",
        "end": "2026-01-01T00:15:00.000+00:00"
      }
    },
    "request": {
      "method": "PUT",
      "url": "Encounter/30f39d3a-5e4f-4a86-9ede-a747ec4f392e"
    }
  }, {
    "fullUrl": "https://madie.cms.gov/Condition/f8c04f89-533c-4c8e-a454-29b9e926a548",
    "resource": {
      "resourceType": "Condition",
      "id": "f8c04f89-533c-4c8e-a454-29b9e926a548",
      "meta": {
        "profile": [ "http://hl7.org/fhir/us/qicore/StructureDefinition/qicore-condition-encounter-diagnosis" ]
      },
      "clinicalStatus": {
        "coding": [ {
          "system": "http://terminology.hl7.org/CodeSystem/condition-clinical",
          "code": "active"
        } ]
      },
      "category": [ {
        "coding": [ {
          "system": "http://terminology.hl7.org/CodeSystem/condition-category",
          "code": "encounter-diagnosis",
          "display": "Encounter Diagnosis"
        } ]
      } ],
      "code": {
        "coding": [ {
          "system": "http://snomed.info/sct",
          "code": "102781000119107",
          "display": "Sensory neuropathy due to type 1 diabetes mellitus (disorder)"
        } ]
      },
      "subject": {
        "reference": "Patient/ede0ee7a-18ab-4ba7-934c-23618f1270ea"
      },
      "onsetDateTime": "2026-01-01T23:59:00.000+00:00"
    },
    "request": {
      "method": "PUT",
      "url": "Condition/f8c04f89-533c-4c8e-a454-29b9e926a548"
    }
  }, {
    "fullUrl": "https://madie.cms.gov/DeviceRequest/2d18a935-82b8-40b2-b352-f03515dd8822",
    "resource": {
      "resourceType": "DeviceRequest",
      "id": "2d18a935-82b8-40b2-b352-f03515dd8822",
      "meta": {
        "profile": [ "http://hl7.org/fhir/us/qicore/StructureDefinition/qicore-devicerequest" ]
      },
      "modifierExtension": [ {
        "url": "http://hl7.org/fhir/5.0/StructureDefinition/extension-DeviceRequest.doNotPerform",
        "valueBoolean": false
      } ],
      "status": "completed",
      "intent": "order",
      "codeCodeableConcept": {
        "coding": [ {
          "system": "http://snomed.info/sct",
          "code": "183240000",
          "display": "Self-propelled wheelchair (physical object)"
        } ]
      },
      "subject": {
        "reference": "Patient/ede0ee7a-18ab-4ba7-934c-23618f1270ea"
      },
      "authoredOn": "2026-11-01T23:59:00.000+00:00"
    },
    "request": {
      "method": "PUT",
      "url": "DeviceRequest/2d18a935-82b8-40b2-b352-f03515dd8822"
    }
  }, {
    "fullUrl": "https://madie.cms.gov/MedicationRequest/c72cf8e9-d4e8-42a6-a88e-8f567e13d65b",
    "resource": {
      "resourceType": "MedicationRequest",
      "id": "c72cf8e9-d4e8-42a6-a88e-8f567e13d65b",
      "meta": {
        "profile": [ "http://hl7.org/fhir/us/qicore/StructureDefinition/qicore-medicationrequest" ]
      },
      "status": "active",
      "intent": "order",
      "doNotPerform": false,
      "medicationCodeableConcept": {
        "coding": [ {
          "system": "http://www.nlm.nih.gov/research/umls/rxnorm",
          "code": "312836",
          "display": "rivastigmine 6 MG Oral Capsule"
        } ]
      },
      "subject": {
        "reference": "Patient/ede0ee7a-18ab-4ba7-934c-23618f1270ea"
      },
      "authoredOn": "2026-12-30T00:00:00.000+00:00",
      "requester": {
        "reference": "Practitioner/example"
      },
      "dispenseRequest": {
        "expectedSupplyDuration": {
          "value": 90,
          "system": "http://unitsofmeasure.org",
          "code": "days"
        }
      }
    },
    "request": {
      "method": "PUT",
      "url": "MedicationRequest/c72cf8e9-d4e8-42a6-a88e-8f567e13d65b"
    }
  }, {
    "fullUrl": "https://madie.cms.gov/MeasureReport/ac90199a-d913-470f-85f0-801ea59d5f06",
    "resource": {
      "resourceType": "MeasureReport",
      "id": "ac90199a-d913-470f-85f0-801ea59d5f06",
      "meta": {
        "profile": [ "http://hl7.org/fhir/us/cqfmeasures/StructureDefinition/test-case-cqfm" ]
      },
      "contained": [ {
        "resourceType": "Parameters",
        "id": "6f4f9a9f-d993-4464-a672-ce011e728c68-parameters",
        "parameter": [ {
          "name": "subject",
          "valueString": "ede0ee7a-18ab-4ba7-934c-23618f1270ea"
        } ]
      } ],
      "extension": [ {
        "url": "http://hl7.org/fhir/StructureDefinition/cqf-inputParameters",
        "valueReference": {
          "reference": "#6f4f9a9f-d993-4464-a672-ce011e728c68-parameters"
        }
      }, {
        "url": "http://hl7.org/fhir/us/cqfmeasures/StructureDefinition/cqfm-testCaseDescription",
        "valueMarkdown": "Frailty device request not performed is false"
      } ],
      "modifierExtension": [ {
        "url": "http://hl7.org/fhir/us/cqfmeasures/StructureDefinition/cqfm-isTestCase",
        "valueBoolean": true
      } ],
      "status": "complete",
      "type": "individual",
      "measure": "https://madie.cms.gov/Measure/CMS122FHIRDiabetesAssessGT9Pct",
      "period": {
        "start": "2026-01-01",
        "end": "2026-12-31"
      },
      "group": [ {
        "id": "Group_1",
        "population": [ {
          "id": "InitialPopulation_1",
          "code": {
            "coding": [ {
              "system": "http://terminology.hl7.org/CodeSystem/measure-population",
              "code": "initial-population",
              "display": "Initial Population"
            } ]
          },
          "count": 1
        }, {
          "id": "Denominator_1",
          "code": {
            "coding": [ {
              "system": "http://terminology.hl7.org/CodeSystem/measure-population",
              "code": "denominator",
              "display": "Denominator"
            } ]
          },
          "count": 1
        }, {
          "id": "DenominatorExclusion_1",
          "code": {
            "coding": [ {
              "system": "http://terminology.hl7.org/CodeSystem/measure-population",
              "code": "denominator-exclusion",
              "display": "Denominator Exclusion"
            } ]
          },
          "count": 1
        }, {
          "id": "Numerator_1",
          "code": {
            "coding": [ {
              "system": "http://terminology.hl7.org/CodeSystem/measure-population",
              "code": "numerator",
              "display": "Numerator"
            } ]
          },
          "count": 0
        } ],
        "measureScore": {
          "value": 1.0
        }
      } ],
      "evaluatedResource": [ {
        "reference": "Patient/ede0ee7a-18ab-4ba7-934c-23618f1270ea"
      }, {
        "reference": "Encounter/30f39d3a-5e4f-4a86-9ede-a747ec4f392e"
      }, {
        "reference": "Condition/f8c04f89-533c-4c8e-a454-29b9e926a548"
      }, {
        "reference": "DeviceRequest/2d18a935-82b8-40b2-b352-f03515dd8822"
      }, {
        "reference": "MedicationRequest/c72cf8e9-d4e8-42a6-a88e-8f567e13d65b"
      } ]
    },
    "request": {
      "method": "PUT",
      "url": "MeasureReport/ac90199a-d913-470f-85f0-801ea59d5f06"
    }
  } ]
}