{
  "resourceType": "Bundle",
  "id": "DENEXFail-Age80FrailtyOnly",
  "type": "transaction",
  "entry": [ {
    "fullUrl": "https://madie.cms.gov/Patient/6d97c086-8776-45f4-898f-cece9e80990a",
    "resource": {
      "resourceType": "Patient",
      "id": "6d97c086-8776-45f4-898f-cece9e80990a",
      "meta": {
        "profile": [ "http://hl7.org/fhir/us/qicore/StructureDefinition/qicore-patient" ]
      },
      "extension": [ {
        "url": "http://hl7.org/fhir/us/core/StructureDefinition/us-core-race",
        "extension": [ {
          "url": "ombCategory",
          "valueCoding": {
            "system": "urn:oid:2.16.840.1.113883.6.238",
            "code": "2028-9",
            "display": "Asian"
          }
        }, {
          "url": "text",
          "valueString": "Asian"
        } ]
      }, {
        "url": "http://hl7.org/fhir/us/core/StructureDefinition/us-core-ethnicity",
        "extension": [ {
          "url": "ombCategory",
          "valueCoding": {
            "system": "urn:oid:2.16.840.1.113883.6.238",
            "code": "2135-2",
            "display": "Hispanic or Latino"
          }
        }, {
          "url": "text",
          "valueString": "Hispanic or Latino"
        } ]
      } ],
      "identifier": [ {
        "system": "http://hospital.smarthealthit.org",
        "value": "999999995"
      } ],
      "name": [ {
        "family": "DENEXFail",
        "given": [ "Age80FrailtyOnly" ]
      } ],
      "gender": "female",
      "birthDate": "1946-01-01"
    },
    "request": {
      "method": "PUT",
      "url": "Patient/6d97c086-8776-45f4-898f-cece9e80990a"
    }
  }, {
    "fullUrl": "https://madie.cms.gov/Encounter/4f0c0b77-5b28-455b-b555-8509aa47189b",
    "resource": {
      "resourceType": "Encounter",
      "id": "4f0c0b77-5b28-455b-b555-8509aa47189b",
      "meta": {
        "profile": [ "http://hl7.org/fhir/us/qicore/StructureDefinition/qicore-encounter" ]
      },
      "status": "finished",
      "class": {
        "system": "http://terminology.hl7.org/CodeSystem/v3-ActCode",
        "code": "AMB",
        "display": "ambulatory"
      },
      "type": [ {
        "coding": [ {
          "system": "http://snomed.info/sct",
          "code": "3391000175108",
          "display": "Office visit for pediatric care and assessment (procedure)"
        } ]
      } ],
      "subject": {
        "reference": "Patient/6d97c086-8776-45f4-898f-cece9e80990a"
      },
      "period": {
        "start": "2026-01-01T00:00:00.000+00:00",
        "end": "2026-01-01T01:00:00.000+00:00"
      }
    },
    "request": {
      "method": "PUT",
      "url": "Encounter/4f0c0b77-5b28-455b-b555-8509aa47189b"
    }
  }, {
    "fullUrl": "https://madie.cms.gov/Condition/de31b4c9-b19e-4b69-9775-1de77b2b6fed",
    "resource": {
      "resourceType": "Condition",
      "id": "de31b4c9-b19e-4b69-9775-1de77b2b6fed",
      "meta": {
        "profile": [ "http://hl7.org/fhir/us/qicore/StructureDefinition/qicore-condition-problems-health-concerns" ]
      },
      "clinicalStatus": {
        "coding": [ {
          "system": "http://terminology.hl7.org/CodeSystem/condition-clinical",
          "code": "active"
        } ]
      },
      "category": [ {
        "coding": [ {
          "system": "http://terminology.hl7.org/CodeSystem/condition-category",
          "code": "problem-list-item",
          "display": "Problem List Item"
        } ]
      } ],
      "code": {
        "coding": [ {
          "system": "http://snomed.info/sct",
          "code": "371125006",
          "display": "Labile essential hypertension (disorder)"
        } ]
      },
      "subject": {
        "reference": "Patient/6d97c086-8776-45f4-898f-cece9e80990a"
      },
      "onsetDateTime": "2026-06-30T23:59:59.000+00:00"
    },
    "request": {
      "method": "PUT",
      "url": "Condition/de31b4c9-b19e-4b69-9775-1de77b2b6fed"
    }
  }, {
    "fullUrl": "https://madie.cms.gov/DeviceRequest/8e854c73-8311-4842-b969-e48c0758cf83",
    "resource": {
      "resourceType": "DeviceRequest",
      "id": "8e854c73-8311-4842-b969-e48c0758cf83",
      "meta": {
        "profile": [ "http://hl7.org/fhir/us/qicore/StructureDefinition/qicore-devicerequest" ]
      },
      "modifierExtension": [ {
        "url": "http://hl7.org/fhir/5.0/StructureDefinition/extension-DeviceRequest.doNotPerform",
        "valueBoolean": false
      } ],
      "status": "completed",
      "intent": "order",
      "codeCodeableConcept": {
        "coding": [ {
          "system": "http://snomed.info/sct",
          "code": "183240000",
          "display": "Self-propelled wheelchair (physical object)"
        } ]
      },
      "subject": {
        "reference": "Patient/6d97c086-8776-45f4-898f-cece9e80990a"
      },
      "authoredOn": "2026-11-01T23:59:00.000+00:00"
    },
    "request": {
      "method": "PUT",
      "url": "DeviceRequest/8e854c73-8311-4842-b969-e48c0758cf83"
    }
  }, {
    "fullUrl": "https://madie.cms.gov/MeasureReport/71955a26-8189-435a-8ae7-bafae74877d8",
    "resource": {
      "resourceType": "MeasureReport",
      "id": "71955a26-8189-435a-8ae7-bafae74877d8",
      "meta": {
        "profile": [ "http://hl7.org/fhir/us/cqfmeasures/StructureDefinition/test-case-cqfm" ]
      },
      "contained": [ {
        "resourceType": "Parameters",
        "id": "4f618b86-6ba5-413e-af31-d9eafec65e16-parameters",
        "parameter": [ {
          "name": "subject",
          "valueString": "6d97c086-8776-45f4-898f-cece9e80990a"
        } ]
      } ],
      "extension": [ {
        "url": "http://hl7.org/fhir/StructureDefinition/cqf-inputParameters",
        "valueReference": {
          "reference": "#4f618b86-6ba5-413e-af31-d9eafec65e16-parameters"
        }
      }, {
        "url": "http://hl7.org/fhir/us/cqfmeasures/StructureDefinition/cqfm-testCaseDescription",
        "valueMarkdown": "Age 80 with only frailty"
      } ],
      "modifierExtension": [ {
        "url": "http://hl7.org/fhir/us/cqfmeasures/StructureDefinition/cqfm-isTestCase",
        "valueBoolean": true
      } ],
      "status": "complete",
      "type": "individual",
      "measure": "https://madie.cms.gov/Measure/CMS165FHIRControllingHighBP",
      "period": {
        "start": "2026-01-01",
        "end": "2026-12-31"
      },
      "group": [ {
        "id": "Group_1",
        "population": [ {
          "id": "InitialPopulation_1",
          "code": {
            "coding": [ {
              "system": "http://terminology.hl7.org/CodeSystem/measure-population",
              "code": "initial-population",
              "display": "Initial Population"
            } ]
          },
          "count": 1
        }, {
          "id": "Denominator_1",
          "code": {
            "coding": [ {
              "system": "http://terminology.hl7.org/CodeSystem/measure-population",
              "code": "denominator",
              "display": "Denominator"
            } ]
          },
          "count": 1
        }, {
          "id": "DenominatorExclusion_1",
          "code": {
            "coding": [ {
              "system": "http://terminology.hl7.org/CodeSystem/measure-population",
              "code": "denominator-exclusion",
              "display": "Denominator Exclusion"
            } ]
          },
          "count": 0
        }, {
          "id": "Numerator_1",
          "code": {
            "coding": [ {
              "system": "http://terminology.hl7.org/CodeSystem/measure-population",
              "code": "numerator",
              "display": "Numerator"
            } ]
          },
          "count": 0
        } ],
        "measureScore": {
          "value": 1.0
        }
      } ],
      "evaluatedResource": [ {
        "reference": "Patient/6d97c086-8776-45f4-898f-cece9e80990a"
      }, {
        "reference": "Encounter/4f0c0b77-5b28-455b-b555-8509aa47189b"
      }, {
        "reference": "Condition/de31b4c9-b19e-4b69-9775-1de77b2b6fed"
      }, {
        "reference": "DeviceRequest/8e854c73-8311-4842-b969-e48c0758cf83"
      } ]
    },
    "request": {
      "method": "PUT",
      "url": "MeasureReport/71955a26-8189-435a-8ae7-bafae74877d8"
    }
  } ]
}