{
  "resourceType": "Bundle",
  "id": "612e6b0202c62a011f2ec156",
  "type": "transaction",
  "entry": [ {
    "fullUrl": "https://madie.cms.gov/Patient/4e39ae5f-5b8a-4bc2-a550-002d1ba16c33",
    "resource": {
      "resourceType": "Patient",
      "id": "4e39ae5f-5b8a-4bc2-a550-002d1ba16c33",
      "meta": {
        "profile": [ "http://hl7.org/fhir/us/qicore/StructureDefinition/qicore-patient" ]
      },
      "text": {
        "status": "generated",
        "div": "<div xmlns=\"http://www.w3.org/1999/xhtml\"><div class=\"hapiHeaderText\">SCIP_HipFxRank2 <b>DENEXPASS </b></div><table class=\"hapiPropertyTable\"><tbody><tr><td>Identifier</td><td>66c70c125db369967b4b164e75338304</td></tr><tr><td>Date of birth</td><td><span>01 September 2000</span></td></tr></tbody></table></div>"
      },
      "extension": [ {
        "url": "http://hl7.org/fhir/us/core/StructureDefinition/us-core-race",
        "extension": [ {
          "url": "ombCategory",
          "valueCoding": {
            "system": "urn:oid:2.16.840.1.113883.6.238",
            "code": "1002-5",
            "display": "American Indian or Alaska Native",
            "userSelected": true
          }
        }, {
          "url": "text",
          "valueString": "American Indian or Alaska Native"
        } ]
      }, {
        "url": "http://hl7.org/fhir/us/core/StructureDefinition/us-core-ethnicity",
        "extension": [ {
          "url": "ombCategory",
          "valueCoding": {
            "system": "urn:oid:2.16.840.1.113883.6.238",
            "code": "2135-2",
            "display": "Hispanic or Latino",
            "userSelected": true
          }
        }, {
          "url": "text",
          "valueString": "Hispanic or Latino"
        } ]
      } ],
      "identifier": [ {
        "type": {
          "coding": [ {
            "system": "http://terminology.hl7.org/CodeSystem/v2-0203",
            "code": "MR"
          } ]
        },
        "system": "https://bonnie-fhir.healthit.gov/",
        "value": "612e6b0202c62a011f2ec156"
      } ],
      "active": true,
      "name": [ {
        "use": "usual",
        "family": "DENEXPass ",
        "given": [ "SCIP_HipFxRank2" ]
      } ],
      "gender": "male",
      "birthDate": "2001-09-01"
    },
    "request": {
      "method": "PUT",
      "url": "Patient/4e39ae5f-5b8a-4bc2-a550-002d1ba16c33"
    }
  }, {
    "fullUrl": "https://madie.cms.gov/Encounter/e4cd27aa-e8ac-4b43-98a0-010c1362c393",
    "resource": {
      "resourceType": "Encounter",
      "id": "e4cd27aa-e8ac-4b43-98a0-010c1362c393",
      "meta": {
        "profile": [ "http://hl7.org/fhir/us/qicore/StructureDefinition/qicore-encounter" ]
      },
      "extension": [ {
        "url": "http://hl7.org/fhir/us/qicore/StructureDefinition/qicore-encounter-procedure",
        "extension": [ {
          "url": "type",
          "valueCodeableConcept": {
            "coding": [ {
              "system": "http://www.cms.gov/Medicare/Coding/ICD10",
              "code": "0SQ90ZZ"
            } ]
          }
        }, {
          "url": "rank",
          "valuePositiveInt": 2
        }, {
          "url": "procedure",
          "valueReference": {
            "reference": "Procedure/d9390121-ca33-431a-8766-8ca28d30036f"
          }
        } ]
      } ],
      "status": "finished",
      "class": {
        "system": "http://terminology.hl7.org/CodeSystem/v3-ActCode",
        "code": "IMP",
        "display": "inpatient encounter"
      },
      "type": [ {
        "coding": [ {
          "system": "http://snomed.info/sct",
          "code": "183452005"
        } ]
      } ],
      "subject": {
        "reference": "Patient/4e39ae5f-5b8a-4bc2-a550-002d1ba16c33"
      },
      "period": {
        "start": "2026-09-02T06:00:00.000+00:00",
        "end": "2026-12-31T12:59:00.000+00:00"
      },
      "length": {
        "value": 120,
        "unit": "days"
      }
    },
    "request": {
      "method": "PUT",
      "url": "Encounter/e4cd27aa-e8ac-4b43-98a0-010c1362c393"
    }
  }, {
    "fullUrl": "https://madie.cms.gov/Coverage/07b62fa1-15e1-4bb7-b8de-657932f3a99c",
    "resource": {
      "resourceType": "Coverage",
      "id": "07b62fa1-15e1-4bb7-b8de-657932f3a99c",
      "status": "active",
      "beneficiary": {
        "reference": "Patient/4e39ae5f-5b8a-4bc2-a550-002d1ba16c33"
      },
      "period": {
        "start": "2001-09-01T08:00:00.000+00:00"
      },
      "payor": [ {
        "reference": "Organization/961ff378-2b0c-472c-ad41-e0fba0cfb9e0"
      } ]
    },
    "request": {
      "method": "PUT",
      "url": "Coverage/07b62fa1-15e1-4bb7-b8de-657932f3a99c"
    }
  }, {
    "fullUrl": "https://madie.cms.gov/Procedure/d9390121-ca33-431a-8766-8ca28d30036f",
    "resource": {
      "resourceType": "Procedure",
      "id": "d9390121-ca33-431a-8766-8ca28d30036f",
      "meta": {
        "profile": [ "http://hl7.org/fhir/us/qicore/StructureDefinition/qicore-procedure" ]
      },
      "status": "completed",
      "code": {
        "coding": [ {
          "system": "http://www.cms.gov/Medicare/Coding/ICD10",
          "code": "0SQ90ZZ"
        } ]
      },
      "subject": {
        "reference": "Patient/4e39ae5f-5b8a-4bc2-a550-002d1ba16c33"
      },
      "performedPeriod": {
        "start": "2026-09-02T09:00:00.000+00:00",
        "end": "2026-09-02T12:59:00.000+00:00"
      }
    },
    "request": {
      "method": "PUT",
      "url": "Procedure/d9390121-ca33-431a-8766-8ca28d30036f"
    }
  }, {
    "fullUrl": "https://madie.cms.gov/claim/5ca62962b8484628b8de1ec5",
    "resource": {
      "resourceType": "Claim",
      "id": "5ca62962b8484628b8de1ec5",
      "meta": {
        "profile": [ "http://hl7.org/fhir/us/qicore/StructureDefinition/qicore-claim" ]
      },
      "status": "active",
      "type": {
        "coding": [ {
          "system": "http://terminology.hl7.org/CodeSystem/claim-type",
          "code": "institutional"
        } ]
      },
      "use": "claim",
      "patient": {
        "reference": "Patient/4e39ae5f-5b8a-4bc2-a550-002d1ba16c33"
      },
      "created": "2026-12-01",
      "provider": {
        "reference": "Practitioner/fcf2cdff-b54b-42b0-ac77-c43b5249c772"
      },
      "priority": {
        "coding": [ {
          "system": "http://terminology.hl7.org/CodeSystem/processpriority",
          "code": "normal"
        } ]
      },
      "procedure": [ {
        "sequence": 1,
        "type": [ {
          "coding": [ {
            "system": "http://terminology.hl7.org/CodeSystem/ex-procedure-type",
            "code": "secondary"
          } ]
        } ],
        "procedureCodeableConcept": {
          "coding": [ {
            "system": "http://www.cms.gov/Medicare/Coding/ICD10",
            "code": "0SQ90ZZ"
          } ]
        }
      } ],
      "insurance": [ {
        "sequence": 1,
        "focal": true,
        "coverage": {
          "reference": "Coverage/5fa041661c76ba66d995937"
        }
      } ],
      "item": [ {
        "sequence": 1,
        "procedureSequence": [ 1 ],
        "productOrService": {
          "coding": [ {
            "system": "http://terminology.hl7.org/CodeSystem/ex-USCLS",
            "code": "99555"
          } ]
        },
        "encounter": [ {
          "reference": "Encounter/e4cd27aa-e8ac-4b43-98a0-010c1362c393"
        } ]
      } ]
    },
    "request": {
      "method": "PUT",
      "url": "Claim/5ca62962b8484628b8de1ec5"
    }
  }, {
    "fullUrl": "https://madie.cms.gov/Organization/961ff378-2b0c-472c-ad41-e0fba0cfb9e0",
    "resource": {
      "resourceType": "Organization",
      "id": "961ff378-2b0c-472c-ad41-e0fba0cfb9e0",
      "meta": {
        "profile": [ "http://hl7.org/fhir/us/qicore/StructureDefinition/qicore-organization" ]
      },
      "identifier": [ {
        "use": "temp",
        "system": "urn:oid:2.16.840.1.113883.4.4",
        "value": "21-3259825"
      } ],
      "active": true,
      "type": [ {
        "coding": [ {
          "system": "http://terminology.hl7.org/CodeSystem/organization-type",
          "code": "pay",
          "display": "Payer"
        } ]
      } ],
      "name": "Blue Cross Blue Shield of Texas",
      "telecom": [ {
        "system": "phone",
        "value": "(+1) 972-766-6900"
      } ],
      "address": [ {
        "use": "billing",
        "type": "postal",
        "line": [ "P.O. Box 660044" ],
        "city": "Dallas",
        "state": "TX",
        "postalCode": "75266-0044",
        "country": "USA"
      } ]
    },
    "request": {
      "method": "PUT",
      "url": "Organization/961ff378-2b0c-472c-ad41-e0fba0cfb9e0"
    }
  }, {
    "fullUrl": "https://madie.cms.gov/Practitioner/fcf2cdff-b54b-42b0-ac77-c43b5249c772",
    "resource": {
      "resourceType": "Practitioner",
      "id": "fcf2cdff-b54b-42b0-ac77-c43b5249c772",
      "identifier": [ {
        "system": "http://hl7.org/fhir/sid/us-npi",
        "value": "123456"
      } ],
      "name": [ {
        "family": "Evil",
        "prefix": [ "Dr" ]
      } ]
    },
    "request": {
      "method": "PUT",
      "url": "Practitioner/fcf2cdff-b54b-42b0-ac77-c43b5249c772"
    }
  }, {
    "fullUrl": "https://madie.cms.gov/MeasureReport/2a38632f-97a0-4caf-8893-6468b377e236",
    "resource": {
      "resourceType": "MeasureReport",
      "id": "2a38632f-97a0-4caf-8893-6468b377e236",
      "meta": {
        "profile": [ "http://hl7.org/fhir/us/cqfmeasures/StructureDefinition/test-case-cqfm" ]
      },
      "contained": [ {
        "resourceType": "Parameters",
        "id": "4f0de347-80b2-4e6c-8e8e-87bf169ae530-parameters",
        "parameter": [ {
          "name": "subject",
          "valueString": "4e39ae5f-5b8a-4bc2-a550-002d1ba16c33"
        } ]
      } ],
      "extension": [ {
        "url": "http://hl7.org/fhir/StructureDefinition/cqf-inputParameters",
        "valueReference": {
          "reference": "#4f0de347-80b2-4e6c-8e8e-87bf169ae530-parameters"
        }
      }, {
        "url": "http://hl7.org/fhir/us/cqfmeasures/StructureDefinition/cqfm-testCaseDescription",
        "valueMarkdown": "Failed Exclusions for SCIP hipFx due to Rank=2"
      } ],
      "modifierExtension": [ {
        "url": "http://hl7.org/fhir/us/cqfmeasures/StructureDefinition/cqfm-isTestCase",
        "valueBoolean": true
      } ],
      "status": "complete",
      "type": "individual",
      "measure": "https://madie.cms.gov/Measure/CMS108FHIRVTEProphylaxis",
      "period": {
        "start": "2026-01-01",
        "end": "2026-12-31"
      },
      "group": [ {
        "id": "Group_1",
        "population": [ {
          "id": "InitialPopulation_1",
          "code": {
            "coding": [ {
              "system": "http://terminology.hl7.org/CodeSystem/measure-population",
              "code": "initial-population",
              "display": "Initial Population"
            } ]
          },
          "count": 1
        }, {
          "id": "Denominator_1",
          "code": {
            "coding": [ {
              "system": "http://terminology.hl7.org/CodeSystem/measure-population",
              "code": "denominator",
              "display": "Denominator"
            } ]
          },
          "count": 1
        }, {
          "id": "DenominatorExclusion_1",
          "code": {
            "coding": [ {
              "system": "http://terminology.hl7.org/CodeSystem/measure-population",
              "code": "denominator-exclusion",
              "display": "Denominator Exclusion"
            } ]
          },
          "count": 0
        }, {
          "id": "Numerator_1",
          "code": {
            "coding": [ {
              "system": "http://terminology.hl7.org/CodeSystem/measure-population",
              "code": "numerator",
              "display": "Numerator"
            } ]
          },
          "count": 0
        } ],
        "measureScore": {
          "value": 0.0
        }
      } ],
      "evaluatedResource": [ {
        "reference": "Patient/4e39ae5f-5b8a-4bc2-a550-002d1ba16c33"
      }, {
        "reference": "Encounter/e4cd27aa-e8ac-4b43-98a0-010c1362c393"
      }, {
        "reference": "Coverage/07b62fa1-15e1-4bb7-b8de-657932f3a99c"
      }, {
        "reference": "Procedure/d9390121-ca33-431a-8766-8ca28d30036f"
      }, {
        "reference": "Claim/5ca62962b8484628b8de1ec5"
      }, {
        "reference": "Organization/961ff378-2b0c-472c-ad41-e0fba0cfb9e0"
      }, {
        "reference": "Practitioner/fcf2cdff-b54b-42b0-ac77-c43b5249c772"
      } ]
    },
    "request": {
      "method": "PUT",
      "url": "MeasureReport/2a38632f-97a0-4caf-8893-6468b377e236"
    }
  } ]
}