{
  "resourceType": "Bundle",
  "id": "62df28020056b6e23ec675a5",
  "type": "collection",
  "entry": [ {
    "fullUrl": "https://madie.cms.gov/Patient/1b102c21-830a-41a5-ac27-9aa77ea5adfe",
    "resource": {
      "resourceType": "Patient",
      "id": "1b102c21-830a-41a5-ac27-9aa77ea5adfe",
      "meta": {
        "profile": [ "http://hl7.org/fhir/us/qicore/StructureDefinition/qicore-patient" ]
      },
      "extension": [ {
        "url": "http://hl7.org/fhir/us/core/StructureDefinition/us-core-race",
        "extension": [ {
          "url": "ombCategory",
          "valueCoding": {
            "system": "urn:oid:2.16.840.1.113883.6.238",
            "code": "2028-9",
            "display": "Asian",
            "userSelected": true
          }
        }, {
          "url": "text",
          "valueString": "Asian"
        } ]
      }, {
        "url": "http://hl7.org/fhir/us/core/StructureDefinition/us-core-ethnicity",
        "extension": [ {
          "url": "ombCategory",
          "valueCoding": {
            "system": "urn:oid:2.16.840.1.113883.6.238",
            "code": "2186-5",
            "display": "Not Hispanic or Latino",
            "userSelected": true
          }
        }, {
          "url": "text",
          "valueString": "Not Hispanic or Latino"
        } ]
      } ],
      "identifier": [ {
        "type": {
          "coding": [ {
            "system": "http://terminology.hl7.org/CodeSystem/v2-0203",
            "code": "MR"
          } ]
        },
        "system": "https://bonnie-fhir.healthit.gov/",
        "value": "62df28020056b6e23ec675a5"
      } ],
      "name": [ {
        "family": "DENEXPass",
        "given": [ "HospicePerformedDuringMP" ]
      } ],
      "gender": "female",
      "birthDate": "2001-01-01"
    }
  }, {
    "fullUrl": "https://madie.cms.gov/Encounter/f7d009c1-dfa5-4f3a-af2f-7e550f27861a",
    "resource": {
      "resourceType": "Encounter",
      "id": "f7d009c1-dfa5-4f3a-af2f-7e550f27861a",
      "meta": {
        "profile": [ "http://hl7.org/fhir/us/qicore/StructureDefinition/qicore-encounter" ]
      },
      "status": "finished",
      "class": {
        "system": "http://terminology.hl7.org/CodeSystem/v3-ActCode",
        "code": "AMB",
        "display": "ambulatory"
      },
      "type": [ {
        "coding": [ {
          "system": "http://snomed.info/sct",
          "code": "10197000",
          "display": "Psychiatric interview and evaluation (procedure)",
          "userSelected": true
        } ]
      } ],
      "subject": {
        "reference": "Patient/1b102c21-830a-41a5-ac27-9aa77ea5adfe"
      },
      "period": {
        "start": "2026-01-01T00:00:00.000+00:00",
        "end": "2026-01-01T00:30:00.000+00:00"
      }
    }
  }, {
    "fullUrl": "https://madie.cms.gov/ServiceRequest/fd556a5f-e8b5-4bcd-9b71-6fce6a77d80c",
    "resource": {
      "resourceType": "ServiceRequest",
      "id": "fd556a5f-e8b5-4bcd-9b71-6fce6a77d80c",
      "meta": {
        "profile": [ "http://hl7.org/fhir/us/qicore/StructureDefinition/qicore-servicerequest" ]
      },
      "status": "active",
      "intent": "order",
      "code": {
        "coding": [ {
          "system": "http://snomed.info/sct",
          "code": "385763009",
          "display": "Hospice care (regime/therapy)",
          "userSelected": true
        } ]
      },
      "subject": {
        "reference": "Patient/1b102c21-830a-41a5-ac27-9aa77ea5adfe"
      },
      "authoredOn": "2026-01-01T00:30:00.000+00:00"
    }
  }, {
    "fullUrl": "https://madie.cms.gov/Procedure/037564d2-df8a-40cc-bf59-4ae72e20bc75",
    "resource": {
      "resourceType": "Procedure",
      "id": "037564d2-df8a-40cc-bf59-4ae72e20bc75",
      "meta": {
        "profile": [ "http://hl7.org/fhir/us/qicore/StructureDefinition/qicore-procedure" ]
      },
      "extension": [ {
        "url": "http://hl7.org/fhir/us/qicore/StructureDefinition/qicore-recorded",
        "valueDateTime": "2026-01-01T00:30:00.000+00:00"
      } ],
      "status": "completed",
      "code": {
        "coding": [ {
          "system": "http://snomed.info/sct",
          "code": "170935008",
          "display": "Full care by hospice (finding)",
          "userSelected": true
        } ]
      },
      "subject": {
        "reference": "Patient/1b102c21-830a-41a5-ac27-9aa77ea5adfe"
      },
      "performedDateTime": "2026-12-31T20:00:00.000+00:00"
    }
  }, {
    "fullUrl": "https://madie.cms.gov/Coverage/976bdd05-92c7-44ba-b20b-5233d90e8d3c",
    "resource": {
      "resourceType": "Coverage",
      "id": "976bdd05-92c7-44ba-b20b-5233d90e8d3c",
      "meta": {
        "profile": [ "http://hl7.org/fhir/us/qicore/StructureDefinition/qicore-coverage" ]
      },
      "status": "active",
      "subscriberId": "123456",
      "beneficiary": {
        "reference": "Patient/1b102c21-830a-41a5-ac27-9aa77ea5adfe"
      },
      "relationship": {
        "coding": [ {
          "system": "http://terminology.hl7.org/CodeSystem/subscriber-relationship",
          "code": "self",
          "display": "Self",
          "userSelected": true
        } ]
      },
      "payor": [ {
        "reference": "Organization/ec137ee0-e186-4aff-8acd-891a2e12c119"
      } ]
    }
  }, {
    "fullUrl": "https://madie.cms.gov/Organization/ec137ee0-e186-4aff-8acd-891a2e12c119",
    "resource": {
      "resourceType": "Organization",
      "id": "ec137ee0-e186-4aff-8acd-891a2e12c119",
      "meta": {
        "profile": [ "http://hl7.org/fhir/us/qicore/StructureDefinition/qicore-organization" ]
      },
      "identifier": [ {
        "use": "temp",
        "system": "urn:oid:2.16.840.1.113883.4.4",
        "value": "21-3259825"
      } ],
      "active": true,
      "type": [ {
        "coding": [ {
          "system": "http://terminology.hl7.org/CodeSystem/organization-type",
          "code": "pay",
          "display": "Payer"
        } ]
      } ],
      "name": "Blue Cross Blue Shield of Texas",
      "telecom": [ {
        "system": "phone",
        "value": "(+1) 972-766-6900"
      } ],
      "address": [ {
        "use": "billing",
        "type": "postal",
        "line": [ "P.O. Box 660044" ],
        "city": "Dallas",
        "state": "TX",
        "postalCode": "75266-0044",
        "country": "USA"
      } ]
    }
  }, {
    "fullUrl": "https://madie.cms.gov/MeasureReport/3ad40e5e-bf9c-4875-9440-95cfa52942fa",
    "resource": {
      "resourceType": "MeasureReport",
      "id": "3ad40e5e-bf9c-4875-9440-95cfa52942fa",
      "meta": {
        "profile": [ "http://hl7.org/fhir/us/cqfmeasures/StructureDefinition/test-case-cqfm" ]
      },
      "contained": [ {
        "resourceType": "Parameters",
        "id": "15465e86-6044-4b72-bb9e-0896a89af240-parameters",
        "parameter": [ {
          "name": "subject",
          "valueString": "1b102c21-830a-41a5-ac27-9aa77ea5adfe"
        } ]
      } ],
      "extension": [ {
        "url": "http://hl7.org/fhir/StructureDefinition/cqf-inputParameters",
        "valueReference": {
          "reference": "#15465e86-6044-4b72-bb9e-0896a89af240-parameters"
        }
      }, {
        "url": "http://hl7.org/fhir/us/cqfmeasures/StructureDefinition/cqfm-testCaseDescription",
        "valueMarkdown": "Enc first day of MP, hospice ordered day of enc., and hospice performed last day of MP. expected to pass the denex d/t has hospice"
      } ],
      "modifierExtension": [ {
        "url": "http://hl7.org/fhir/us/cqfmeasures/StructureDefinition/cqfm-isTestCase",
        "valueBoolean": true
      } ],
      "status": "complete",
      "type": "individual",
      "measure": "https://madie.cms.gov/Measure/CMS69FHIRPCSBMIScreenAndFollowUp",
      "period": {
        "start": "2026-01-01",
        "end": "2026-12-31"
      },
      "group": [ {
        "id": "Group_1",
        "population": [ {
          "id": "InitialPopulation_1",
          "code": {
            "coding": [ {
              "system": "http://terminology.hl7.org/CodeSystem/measure-population",
              "code": "initial-population",
              "display": "Initial Population"
            } ]
          },
          "count": 1
        }, {
          "id": "Denominator_1",
          "code": {
            "coding": [ {
              "system": "http://terminology.hl7.org/CodeSystem/measure-population",
              "code": "denominator",
              "display": "Denominator"
            } ]
          },
          "count": 1
        }, {
          "id": "DenominatorExclusion_1",
          "code": {
            "coding": [ {
              "system": "http://terminology.hl7.org/CodeSystem/measure-population",
              "code": "denominator-exclusion",
              "display": "Denominator Exclusion"
            } ]
          },
          "count": 1
        }, {
          "id": "Numerator_1",
          "code": {
            "coding": [ {
              "system": "http://terminology.hl7.org/CodeSystem/measure-population",
              "code": "numerator",
              "display": "Numerator"
            } ]
          },
          "count": 0
        }, {
          "id": "DenominatorException_1",
          "code": {
            "coding": [ {
              "system": "http://terminology.hl7.org/CodeSystem/measure-population",
              "code": "denominator-exception",
              "display": "Denominator Exception"
            } ]
          },
          "count": 0
        } ],
        "measureScore": {
          "value": 1.0
        }
      } ],
      "evaluatedResource": [ {
        "reference": "Patient/1b102c21-830a-41a5-ac27-9aa77ea5adfe"
      }, {
        "reference": "Encounter/f7d009c1-dfa5-4f3a-af2f-7e550f27861a"
      }, {
        "reference": "ServiceRequest/fd556a5f-e8b5-4bcd-9b71-6fce6a77d80c"
      }, {
        "reference": "Procedure/037564d2-df8a-40cc-bf59-4ae72e20bc75"
      }, {
        "reference": "Coverage/976bdd05-92c7-44ba-b20b-5233d90e8d3c"
      }, {
        "reference": "Organization/ec137ee0-e186-4aff-8acd-891a2e12c119"
      } ]
    }
  } ]
}