{
  "resourceType": "Bundle",
  "id": "62c880ed0111a60120dc2215",
  "type": "transaction",
  "entry": [ {
    "fullUrl": "https://madie.cms.gov/Patient/51d8547c-f07f-4441-b616-f458f38e4506",
    "resource": {
      "resourceType": "Patient",
      "id": "51d8547c-f07f-4441-b616-f458f38e4506",
      "meta": {
        "profile": [ "http://hl7.org/fhir/us/qicore/StructureDefinition/qicore-patient" ]
      },
      "extension": [ {
        "url": "http://hl7.org/fhir/us/core/StructureDefinition/us-core-race",
        "extension": [ {
          "url": "ombCategory",
          "valueCoding": {
            "system": "urn:oid:2.16.840.1.113883.6.238",
            "code": "1002-5",
            "display": "American Indian or Alaska Native",
            "userSelected": true
          }
        }, {
          "url": "text",
          "valueString": "American Indian or Alaska Native"
        } ]
      }, {
        "url": "http://hl7.org/fhir/us/core/StructureDefinition/us-core-ethnicity",
        "extension": [ {
          "url": "ombCategory",
          "valueCoding": {
            "system": "urn:oid:2.16.840.1.113883.6.238",
            "code": "2135-2",
            "display": "Hispanic or Latino",
            "userSelected": true
          }
        }, {
          "url": "text",
          "valueString": "Hispanic or Latino"
        } ]
      } ],
      "identifier": [ {
        "type": {
          "coding": [ {
            "system": "http://terminology.hl7.org/CodeSystem/v2-0203",
            "code": "MR"
          } ]
        },
        "system": "https://bonnie-fhir.healthit.gov/",
        "value": "62c880ed0111a60120dc2215"
      } ],
      "active": true,
      "name": [ {
        "use": "usual",
        "family": "NUMERPassPop2",
        "given": [ "PainAssessSameDateTimeAsEndofRadTx" ]
      } ],
      "gender": "male",
      "birthDate": "1976-04-25"
    },
    "request": {
      "method": "PUT",
      "url": "Patient/51d8547c-f07f-4441-b616-f458f38e4506"
    }
  }, {
    "fullUrl": "https://madie.cms.gov/Observation/aa4e253e-2f62-414b-9069-873afa307e0c",
    "resource": {
      "resourceType": "Observation",
      "id": "aa4e253e-2f62-414b-9069-873afa307e0c",
      "meta": {
        "profile": [ "http://hl7.org/fhir/us/qicore/StructureDefinition/qicore-observation-screening-assessment" ]
      },
      "status": "final",
      "category": [ {
        "coding": [ {
          "system": "http://terminology.hl7.org/CodeSystem/observation-category",
          "code": "survey",
          "display": "Survey"
        } ],
        "text": "Survey"
      } ],
      "code": {
        "coding": [ {
          "system": "http://loinc.org",
          "code": "38208-5"
        } ]
      },
      "subject": {
        "reference": "Patient/51d8547c-f07f-4441-b616-f458f38e4506"
      },
      "effectiveDateTime": "2026-05-06T13:00:00.000+00:00",
      "valueInteger": 9
    },
    "request": {
      "method": "PUT",
      "url": "Observation/aa4e253e-2f62-414b-9069-873afa307e0c"
    }
  }, {
    "fullUrl": "https://madie.cms.gov/Condition/847f6f5f-afc1-47d1-ac23-cdd309ff8009",
    "resource": {
      "resourceType": "Condition",
      "id": "847f6f5f-afc1-47d1-ac23-cdd309ff8009",
      "meta": {
        "profile": [ "http://hl7.org/fhir/us/qicore/StructureDefinition/qicore-condition-problems-health-concerns" ]
      },
      "clinicalStatus": {
        "coding": [ {
          "system": "http://terminology.hl7.org/CodeSystem/condition-clinical",
          "code": "active",
          "display": "active",
          "userSelected": true
        } ]
      },
      "verificationStatus": {
        "coding": [ {
          "system": "http://terminology.hl7.org/CodeSystem/condition-ver-status",
          "code": "confirmed",
          "display": "Confirmed"
        } ]
      },
      "category": [ {
        "coding": [ {
          "system": "http://terminology.hl7.org/CodeSystem/condition-category",
          "code": "problem-list-item",
          "display": "Problem List Item"
        } ]
      } ],
      "code": {
        "coding": [ {
          "system": "http://hl7.org/fhir/sid/icd-10-cm",
          "code": "C22.0"
        } ]
      },
      "subject": {
        "reference": "Patient/51d8547c-f07f-4441-b616-f458f38e4506"
      },
      "onsetDateTime": "2022-05-06T12:45:00.000+00:00"
    },
    "request": {
      "method": "PUT",
      "url": "Condition/847f6f5f-afc1-47d1-ac23-cdd309ff8009"
    }
  }, {
    "fullUrl": "https://madie.cms.gov/Coverage/d3cff582-443f-4dc2-a9b9-79ae0db3feb2",
    "resource": {
      "resourceType": "Coverage",
      "id": "d3cff582-443f-4dc2-a9b9-79ae0db3feb2",
      "meta": {
        "profile": [ "http://hl7.org/fhir/us/qicore/StructureDefinition/qicore-coverage" ]
      },
      "status": "active",
      "beneficiary": {
        "reference": "Patient/51d8547c-f07f-4441-b616-f458f38e4506"
      },
      "period": {
        "start": "1976-04-25T08:00:00.000+00:00"
      },
      "payor": [ {
        "reference": "Organization/666f7598-5adb-4ca3-b764-53f385f494d3"
      } ]
    },
    "request": {
      "method": "PUT",
      "url": "Coverage/d3cff582-443f-4dc2-a9b9-79ae0db3feb2"
    }
  }, {
    "fullUrl": "https://madie.cms.gov/Encounter/b9090751-2384-4d26-9968-8d38c011a1ce",
    "resource": {
      "resourceType": "Encounter",
      "id": "b9090751-2384-4d26-9968-8d38c011a1ce",
      "meta": {
        "profile": [ "http://hl7.org/fhir/us/qicore/StructureDefinition/qicore-encounter" ]
      },
      "status": "finished",
      "class": {
        "system": "http://terminology.hl7.org/CodeSystem/v3-ActCode",
        "code": "AMB",
        "display": "ambulatory",
        "userSelected": true
      },
      "type": [ {
        "coding": [ {
          "system": "http://www.ama-assn.org/go/cpt",
          "version": "2023",
          "code": "77427",
          "display": "Radiation treatment management, 5 treatments",
          "userSelected": true
        } ]
      } ],
      "subject": {
        "reference": "Patient/51d8547c-f07f-4441-b616-f458f38e4506"
      },
      "period": {
        "start": "2026-05-06T12:45:00.000+00:00",
        "end": "2026-05-06T13:00:00.000+00:00"
      }
    },
    "request": {
      "method": "PUT",
      "url": "Encounter/b9090751-2384-4d26-9968-8d38c011a1ce"
    }
  }, {
    "fullUrl": "https://madie.cms.gov/Organization/666f7598-5adb-4ca3-b764-53f385f494d3",
    "resource": {
      "resourceType": "Organization",
      "id": "666f7598-5adb-4ca3-b764-53f385f494d3",
      "meta": {
        "profile": [ "http://hl7.org/fhir/us/qicore/StructureDefinition/qicore-organization" ]
      },
      "identifier": [ {
        "use": "temp",
        "system": "urn:oid:2.16.840.1.113883.4.4",
        "value": "21-3259825"
      } ],
      "active": true,
      "type": [ {
        "coding": [ {
          "system": "http://terminology.hl7.org/CodeSystem/organization-type",
          "code": "pay",
          "display": "Payer"
        } ]
      } ],
      "name": "Blue Cross Blue Shield of Texas",
      "telecom": [ {
        "system": "phone",
        "value": "(+1) 972-766-6900"
      } ],
      "address": [ {
        "use": "billing",
        "type": "postal",
        "line": [ "P.O. Box 660044" ],
        "city": "Dallas",
        "state": "TX",
        "postalCode": "75266-0044",
        "country": "USA"
      } ]
    },
    "request": {
      "method": "PUT",
      "url": "Organization/666f7598-5adb-4ca3-b764-53f385f494d3"
    }
  }, {
    "fullUrl": "https://madie.cms.gov/Practitioner/c7e47f56-f2cd-411b-8ed8-f97b55e10a39",
    "resource": {
      "resourceType": "Practitioner",
      "id": "c7e47f56-f2cd-411b-8ed8-f97b55e10a39",
      "meta": {
        "profile": [ "http://hl7.org/fhir/us/qicore/StructureDefinition/qicore-practitioner" ]
      },
      "identifier": [ {
        "system": "http://hl7.org/fhir/sid/us-npi",
        "value": "1234567890"
      } ],
      "name": [ {
        "family": "Evil",
        "prefix": [ "Dr" ]
      } ]
    },
    "request": {
      "method": "PUT",
      "url": "Practitioner/c7e47f56-f2cd-411b-8ed8-f97b55e10a39"
    }
  }, {
    "fullUrl": "https://madie.cms.gov/MeasureReport/54825fed-8c96-4302-90ae-f0b99310d3dd",
    "resource": {
      "resourceType": "MeasureReport",
      "id": "54825fed-8c96-4302-90ae-f0b99310d3dd",
      "meta": {
        "profile": [ "http://hl7.org/fhir/us/cqfmeasures/StructureDefinition/test-case-cqfm" ]
      },
      "contained": [ {
        "resourceType": "Parameters",
        "id": "2530cc30-109c-4e67-8ab6-917ba294a140-parameters",
        "parameter": [ {
          "name": "subject",
          "valueString": "51d8547c-f07f-4441-b616-f458f38e4506"
        } ]
      } ],
      "extension": [ {
        "url": "http://hl7.org/fhir/StructureDefinition/cqf-inputParameters",
        "valueReference": {
          "reference": "#2530cc30-109c-4e67-8ab6-917ba294a140-parameters"
        }
      }, {
        "url": "http://hl7.org/fhir/us/cqfmeasures/StructureDefinition/cqfm-testCaseDescription",
        "valueMarkdown": "Patient with cancer diagnosis that overlaps radiation treatment management during measurement period. Pain intensity assessment was performed same day and time as the end of radiation treatment management encounter. "
      } ],
      "modifierExtension": [ {
        "url": "http://hl7.org/fhir/us/cqfmeasures/StructureDefinition/cqfm-isTestCase",
        "valueBoolean": true
      } ],
      "status": "complete",
      "type": "individual",
      "measure": "https://madie.cms.gov/Measure/CMS157FHIRPainIntensityQuantified",
      "period": {
        "start": "2026-01-01",
        "end": "2026-12-31"
      },
      "group": [ {
        "id": "Group_1",
        "population": [ {
          "id": "InitialPopulation_1",
          "code": {
            "coding": [ {
              "system": "http://terminology.hl7.org/CodeSystem/measure-population",
              "code": "initial-population",
              "display": "Initial Population"
            } ]
          },
          "count": 0
        }, {
          "id": "Denominator_1",
          "code": {
            "coding": [ {
              "system": "http://terminology.hl7.org/CodeSystem/measure-population",
              "code": "denominator",
              "display": "Denominator"
            } ]
          },
          "count": 0
        }, {
          "id": "Numerator_1",
          "code": {
            "coding": [ {
              "system": "http://terminology.hl7.org/CodeSystem/measure-population",
              "code": "numerator",
              "display": "Numerator"
            } ]
          },
          "count": 0
        } ],
        "measureScore": {
          "value": 0.0
        }
      }, {
        "id": "Group_2",
        "population": [ {
          "id": "InitialPopulation_2",
          "code": {
            "coding": [ {
              "system": "http://terminology.hl7.org/CodeSystem/measure-population",
              "code": "initial-population",
              "display": "Initial Population"
            } ]
          },
          "count": 1
        }, {
          "id": "Denominator_2",
          "code": {
            "coding": [ {
              "system": "http://terminology.hl7.org/CodeSystem/measure-population",
              "code": "denominator",
              "display": "Denominator"
            } ]
          },
          "count": 1
        }, {
          "id": "Numerator_2",
          "code": {
            "coding": [ {
              "system": "http://terminology.hl7.org/CodeSystem/measure-population",
              "code": "numerator",
              "display": "Numerator"
            } ]
          },
          "count": 1
        } ],
        "measureScore": {
          "value": 0.0
        }
      } ],
      "evaluatedResource": [ {
        "reference": "Patient/51d8547c-f07f-4441-b616-f458f38e4506"
      }, {
        "reference": "Observation/aa4e253e-2f62-414b-9069-873afa307e0c"
      }, {
        "reference": "Condition/847f6f5f-afc1-47d1-ac23-cdd309ff8009"
      }, {
        "reference": "Coverage/d3cff582-443f-4dc2-a9b9-79ae0db3feb2"
      }, {
        "reference": "Encounter/b9090751-2384-4d26-9968-8d38c011a1ce"
      }, {
        "reference": "Organization/666f7598-5adb-4ca3-b764-53f385f494d3"
      }, {
        "reference": "Practitioner/c7e47f56-f2cd-411b-8ed8-f97b55e10a39"
      } ]
    },
    "request": {
      "method": "PUT",
      "url": "MeasureReport/54825fed-8c96-4302-90ae-f0b99310d3dd"
    }
  } ]
}