{
  "resourceType": "Bundle",
  "id": "tests-NumerPass-RVwithAnticoagulantPlanAtAdmission-bundle",
  "type": "transaction",
  "entry": [ {
    "fullUrl": "https://madie.cms.gov/Encounter/bcdc9977-76d0-4083-8265-9a49417716a2",
    "resource": {
      "resourceType": "Encounter",
      "id": "bcdc9977-76d0-4083-8265-9a49417716a2",
      "meta": {
        "profile": [ "http://hl7.org/fhir/us/qicore/StructureDefinition/qicore-encounter" ]
      },
      "status": "finished",
      "class": {
        "system": "http://terminology.hl7.org/CodeSystem/v3-ActCode",
        "code": "IMP",
        "display": "inpatient encounter"
      },
      "type": [ {
        "coding": [ {
          "system": "http://snomed.info/sct",
          "code": "183452005"
        } ]
      } ],
      "subject": {
        "reference": "Patient/25c753a7-b6b4-4335-bd7c-05b68b0324a4"
      },
      "period": {
        "start": "2026-10-19T08:30:00.000Z",
        "end": "2026-10-21T08:15:00.000Z"
      },
      "reasonCode": [ {
        "coding": [ {
          "system": "http://snomed.info/sct",
          "code": "14047009"
        } ]
      }, {
        "coding": [ {
          "system": "http://snomed.info/sct",
          "code": "64859006"
        } ]
      } ]
    },
    "request": {
      "method": "PUT",
      "url": "Encounter/bcdc9977-76d0-4083-8265-9a49417716a2"
    }
  }, {
    "fullUrl": "https://madie.cms.gov/Encounter/5028c20e-50ed-4a6d-89e7-fe79543b6c75",
    "resource": {
      "resourceType": "Encounter",
      "id": "5028c20e-50ed-4a6d-89e7-fe79543b6c75",
      "meta": {
        "profile": [ "http://hl7.org/fhir/us/qicore/StructureDefinition/qicore-encounter" ]
      },
      "status": "finished",
      "class": {
        "system": "http://terminology.hl7.org/CodeSystem/v3-ActCode",
        "code": "EMER",
        "display": "emergency encounter"
      },
      "type": [ {
        "coding": [ {
          "system": "http://snomed.info/sct",
          "code": "4525004"
        } ]
      } ],
      "subject": {
        "reference": "Patient/25c753a7-b6b4-4335-bd7c-05b68b0324a4"
      },
      "period": {
        "start": "2026-10-18T09:15:00.000Z",
        "end": "2026-10-19T08:15:00.000Z"
      }
    },
    "request": {
      "method": "PUT",
      "url": "Encounter/5028c20e-50ed-4a6d-89e7-fe79543b6c75"
    }
  }, {
    "fullUrl": "https://madie.cms.gov/Patient/25c753a7-b6b4-4335-bd7c-05b68b0324a4",
    "resource": {
      "resourceType": "Patient",
      "id": "25c753a7-b6b4-4335-bd7c-05b68b0324a4",
      "meta": {
        "profile": [ "http://hl7.org/fhir/us/qicore/StructureDefinition/qicore-patient" ]
      },
      "extension": [ {
        "url": "http://hl7.org/fhir/us/core/StructureDefinition/us-core-race",
        "extension": [ {
          "url": "ombCategory",
          "valueCoding": {
            "system": "urn:oid:2.16.840.1.113883.6.238",
            "code": "2106-3",
            "display": "White"
          }
        }, {
          "url": "text",
          "valueString": "White"
        } ]
      }, {
        "url": "http://hl7.org/fhir/us/core/StructureDefinition/us-core-ethnicity",
        "extension": [ {
          "url": "ombCategory",
          "valueCoding": {
            "system": "urn:oid:2.16.840.1.113883.6.238",
            "code": "2135-2",
            "display": "Hispanic or Latino"
          }
        }, {
          "url": "text",
          "valueString": "Hispanic or Latino"
        } ]
      }, {
        "url": "http://hl7.org/fhir/us/core/StructureDefinition/us-core-sex",
        "valueCode": "248153007"
      } ],
      "identifier": [ {
        "system": "http://hospital.smarthealthit.org",
        "value": "999999999"
      } ],
      "name": [ {
        "family": "Example",
        "given": [ "Patient" ]
      } ],
      "gender": "female",
      "birthDate": "1956-01-01"
    },
    "request": {
      "method": "PUT",
      "url": "Patient/25c753a7-b6b4-4335-bd7c-05b68b0324a4"
    }
  }, {
    "fullUrl": "https://madie.cms.gov/Claim/bce4935f-1112-4719-885d-4a04ac4650fe",
    "resource": {
      "resourceType": "Claim",
      "id": "bce4935f-1112-4719-885d-4a04ac4650fe",
      "meta": {
        "profile": [ "http://hl7.org/fhir/us/qicore/StructureDefinition/qicore-claim" ]
      },
      "status": "active",
      "type": {
        "coding": [ {
          "system": "http://terminology.hl7.org/CodeSystem/claim-type",
          "code": "institutional",
          "display": "Institutional"
        } ]
      },
      "use": "claim",
      "patient": {
        "reference": "Patient/25c753a7-b6b4-4335-bd7c-05b68b0324a4"
      },
      "created": "2026-10-22",
      "provider": {
        "reference": "Practitioner/f260be62-a45f-4303-95ea-f1e49ff14c08"
      },
      "priority": {
        "coding": [ {
          "system": "http://terminology.hl7.org/CodeSystem/processpriority",
          "code": "normal"
        } ]
      },
      "diagnosis": [ {
        "sequence": 1,
        "diagnosisCodeableConcept": {
          "coding": [ {
            "system": "http://snomed.info/sct",
            "code": "14047009"
          } ]
        }
      } ],
      "insurance": [ {
        "sequence": 1,
        "focal": true,
        "coverage": {
          "reference": "Coverage/64303b42-05d4-49b0-ac8a-f049bc48f348"
        }
      } ],
      "item": [ {
        "sequence": 1,
        "diagnosisSequence": [ 1, 2 ],
        "productOrService": {
          "coding": [ {
            "system": "http://terminology.hl7.org/CodeSystem/ex-USCLS",
            "code": "1101"
          } ]
        },
        "encounter": [ {
          "reference": "Encounter/bcdc9977-76d0-4083-8265-9a49417716a2"
        } ]
      } ]
    },
    "request": {
      "method": "PUT",
      "url": "Claim/bce4935f-1112-4719-885d-4a04ac4650fe"
    }
  }, {
    "fullUrl": "https://madie.cms.gov/Claim/f624f064-1499-433f-be49-912482938599",
    "resource": {
      "resourceType": "Claim",
      "id": "f624f064-1499-433f-be49-912482938599",
      "meta": {
        "profile": [ "http://hl7.org/fhir/us/qicore/StructureDefinition/qicore-claim" ]
      },
      "status": "active",
      "type": {
        "coding": [ {
          "system": "http://terminology.hl7.org/CodeSystem/claim-type",
          "code": "institutional",
          "display": "Institutional"
        } ]
      },
      "use": "claim",
      "patient": {
        "reference": "Patient/25c753a7-b6b4-4335-bd7c-05b68b0324a4"
      },
      "created": "2026-11-01",
      "provider": {
        "reference": "Practitioner/practitioner-1"
      },
      "priority": {
        "coding": [ {
          "system": "http://terminology.hl7.org/CodeSystem/processpriority",
          "code": "normal"
        } ]
      },
      "diagnosis": [ {
        "sequence": 1,
        "diagnosisCodeableConcept": {
          "coding": [ {
            "system": "http://hl7.org/fhir/sid/icd-10-cm",
            "code": "M80.00XA",
            "display": "Age-related osteoporosis with current pathological fracture, unspecified site, initial encounter for fracture"
          } ]
        }
      } ],
      "insurance": [ {
        "sequence": 1,
        "focal": true,
        "coverage": {
          "reference": "Coverage/coverage-1"
        }
      } ],
      "item": [ {
        "sequence": 1,
        "diagnosisSequence": [ 1, 2 ],
        "productOrService": {
          "coding": [ {
            "system": "http://terminology.hl7.org/CodeSystem/ex-USCLS",
            "code": "1101"
          } ]
        },
        "encounter": [ {
          "reference": "Encounter/bcdc9977-76d0-4083-8265-9a49417716a2"
        } ]
      } ]
    },
    "request": {
      "method": "PUT",
      "url": "Claim/f624f064-1499-433f-be49-912482938599"
    }
  }, {
    "fullUrl": "https://madie.cms.gov/MedicationRequest/21317adb-b184-4d32-a0e0-d6476d3c64ab",
    "resource": {
      "resourceType": "MedicationRequest",
      "id": "21317adb-b184-4d32-a0e0-d6476d3c64ab",
      "meta": {
        "profile": [ "http://hl7.org/fhir/us/qicore/StructureDefinition/qicore-medicationrequest" ]
      },
      "status": "active",
      "intent": "plan",
      "category": [ {
        "coding": [ {
          "system": "http://terminology.hl7.org/CodeSystem/medicationrequest-category",
          "code": "community",
          "display": "Community"
        } ]
      } ],
      "reportedReference": {
        "reference": "Patient/25c753a7-b6b4-4335-bd7c-05b68b0324a4"
      },
      "medicationCodeableConcept": {
        "coding": [ {
          "system": "http://www.nlm.nih.gov/research/umls/rxnorm",
          "code": "1364435",
          "display": "apixaban 2.5 mg oral tablet"
        } ]
      },
      "subject": {
        "reference": "Patient/25c753a7-b6b4-4335-bd7c-05b68b0324a4"
      },
      "authoredOn": "2026-10-15",
      "requester": {
        "reference": "Practitioner/f260be62-a45f-4303-95ea-f1e49ff14c08"
      },
      "dispenseRequest": {
        "quantity": {
          "value": 14,
          "unit": "tablet",
          "system": "http://unitsofmeasure.org",
          "code": "{tablet}"
        },
        "expectedSupplyDuration": {
          "value": 14,
          "unit": "days",
          "system": "http://unitsofmeasure.org",
          "code": "d"
        }
      }
    },
    "request": {
      "method": "PUT",
      "url": "MedicationRequest/21317adb-b184-4d32-a0e0-d6476d3c64ab"
    }
  }, {
    "fullUrl": "https://madie.cms.gov/Observation/aad6aae5-f53f-442a-8e2d-4ca7fb92dc1b",
    "resource": {
      "resourceType": "Observation",
      "id": "aad6aae5-f53f-442a-8e2d-4ca7fb92dc1b",
      "meta": {
        "profile": [ "http://hl7.org/fhir/us/core/StructureDefinition/us-core-bmi" ]
      },
      "status": "final",
      "category": [ {
        "coding": [ {
          "system": "http://terminology.hl7.org/CodeSystem/observation-category",
          "code": "vital-signs",
          "display": "Vital Signs"
        } ]
      } ],
      "code": {
        "coding": [ {
          "system": "http://loinc.org",
          "code": "39156-5",
          "display": "Body mass index (BMI) [Ratio]"
        } ],
        "text": "BMI"
      },
      "subject": {
        "reference": "Patient/25c753a7-b6b4-4335-bd7c-05b68b0324a4"
      },
      "effectiveDateTime": "2026-10-20T08:00:00.000Z",
      "valueQuantity": {
        "value": 28.3,
        "unit": "kg/m2",
        "system": "http://unitsofmeasure.org",
        "code": "kg/m2"
      }
    },
    "request": {
      "method": "PUT",
      "url": "Observation/aad6aae5-f53f-442a-8e2d-4ca7fb92dc1b"
    }
  }, {
    "fullUrl": "https://madie.cms.gov/Practitioner/f260be62-a45f-4303-95ea-f1e49ff14c08",
    "resource": {
      "resourceType": "Practitioner",
      "id": "f260be62-a45f-4303-95ea-f1e49ff14c08",
      "identifier": [ {
        "system": "http://www.cms.gov/identifiers/pracitioners",
        "value": "P12345"
      } ],
      "name": [ {
        "use": "official",
        "family": "Smith",
        "given": [ "John" ]
      } ],
      "qualification": [ {
        "identifier": [ {
          "system": "http://hl7.org/fhir/sid/us-npi",
          "value": "1234567890"
        } ],
        "code": {
          "coding": [ {
            "system": "http://terminology.hl7.org/CodeSystem/v2-0203",
            "code": "MD",
            "display": "Medical License number"
          } ]
        }
      } ]
    },
    "request": {
      "method": "PUT",
      "url": "Practitioner/f260be62-a45f-4303-95ea-f1e49ff14c08"
    }
  }, {
    "fullUrl": "https://madie.cms.gov/Coverage/64303b42-05d4-49b0-ac8a-f049bc48f348",
    "resource": {
      "resourceType": "Coverage",
      "id": "64303b42-05d4-49b0-ac8a-f049bc48f348",
      "status": "active",
      "beneficiary": {
        "reference": "Patient/25c753a7-b6b4-4335-bd7c-05b68b0324a4"
      },
      "payor": [ {
        "reference": "Organization/9a99d377-3916-493d-8610-29d7d1915a7a"
      } ]
    },
    "request": {
      "method": "PUT",
      "url": "Coverage/64303b42-05d4-49b0-ac8a-f049bc48f348"
    }
  }, {
    "fullUrl": "https://madie.cms.gov/Organization/9a99d377-3916-493d-8610-29d7d1915a7a",
    "resource": {
      "resourceType": "Organization",
      "id": "9a99d377-3916-493d-8610-29d7d1915a7a",
      "identifier": [ {
        "system": "http://cms.gov/insurance-ids",
        "value": "AET12345"
      } ],
      "type": [ {
        "coding": [ {
          "system": "http://terminology.hl7.org/CodeSystem/organization-type",
          "code": "prov",
          "display": "Healthcare Provider"
        } ]
      } ],
      "name": "Aetna Insurance",
      "telecom": [ {
        "system": "phone",
        "value": "+1-800-123-4567"
      } ],
      "address": [ {
        "line": [ "123 Main Street" ],
        "city": "Cityville",
        "state": "CA",
        "postalCode": "12345",
        "country": "USA"
      } ]
    },
    "request": {
      "method": "PUT",
      "url": "Organization/9a99d377-3916-493d-8610-29d7d1915a7a"
    }
  }, {
    "fullUrl": "https://madie.cms.gov/MeasureReport/5e77fa9f-873a-42e3-a0a5-76183c60a3a6",
    "resource": {
      "resourceType": "MeasureReport",
      "id": "5e77fa9f-873a-42e3-a0a5-76183c60a3a6",
      "meta": {
        "profile": [ "http://hl7.org/fhir/us/cqfmeasures/StructureDefinition/test-case-cqfm" ]
      },
      "contained": [ {
        "resourceType": "Parameters",
        "id": "3cd06b6a-4381-4e5e-b58c-f7c418a6732e-parameters",
        "parameter": [ {
          "name": "subject",
          "valueString": "25c753a7-b6b4-4335-bd7c-05b68b0324a4"
        } ]
      } ],
      "extension": [ {
        "url": "http://hl7.org/fhir/StructureDefinition/cqf-inputParameters",
        "valueReference": {
          "reference": "#3cd06b6a-4381-4e5e-b58c-f7c418a6732e-parameters"
        }
      }, {
        "url": "http://hl7.org/fhir/us/cqfmeasures/StructureDefinition/cqfm-testCaseDescription",
        "valueMarkdown": "RVariable Encounter With Anticoagulant Plan At Admission"
      } ],
      "modifierExtension": [ {
        "url": "http://hl7.org/fhir/us/cqfmeasures/StructureDefinition/cqfm-isTestCase",
        "valueBoolean": true
      } ],
      "status": "complete",
      "type": "individual",
      "measure": "https://madie.cms.gov/Measure/CMS1017FHIRHHFI",
      "period": {
        "start": "2026-01-01",
        "end": "2026-12-31"
      },
      "group": [ {
        "id": "Group_1",
        "population": [ {
          "id": "InitialPopulation_1",
          "code": {
            "coding": [ {
              "system": "http://terminology.hl7.org/CodeSystem/measure-population",
              "code": "initial-population",
              "display": "Initial Population"
            } ]
          },
          "count": 1
        }, {
          "id": "Denominator_1",
          "code": {
            "coding": [ {
              "system": "http://terminology.hl7.org/CodeSystem/measure-population",
              "code": "denominator",
              "display": "Denominator"
            } ]
          },
          "count": 1
        }, {
          "id": "MeasureObservation_1_1_1",
          "code": {
            "coding": [ {
              "system": "http://terminology.hl7.org/CodeSystem/measure-population",
              "code": "measure-observation",
              "display": "Measure Observation"
            } ]
          },
          "count": 2
        }, {
          "id": "DenominatorExclusion_1",
          "code": {
            "coding": [ {
              "system": "http://terminology.hl7.org/CodeSystem/measure-population",
              "code": "denominator-exclusion",
              "display": "Denominator Exclusion"
            } ]
          },
          "count": 0
        }, {
          "id": "Numerator_1",
          "code": {
            "coding": [ {
              "system": "http://terminology.hl7.org/CodeSystem/measure-population",
              "code": "numerator",
              "display": "Numerator"
            } ]
          },
          "count": 1
        }, {
          "id": "MeasureObservation_1_2_1",
          "code": {
            "coding": [ {
              "system": "http://terminology.hl7.org/CodeSystem/measure-population",
              "code": "measure-observation",
              "display": "Measure Observation"
            } ]
          },
          "count": 1
        }, {
          "id": "NumeratorExclusion_1",
          "code": {
            "coding": [ {
              "system": "http://terminology.hl7.org/CodeSystem/measure-population",
              "code": "numerator-exclusion",
              "display": "Numerator Exclusion"
            } ]
          },
          "count": 0
        } ],
        "measureScore": {
          "value": 0.0
        }
      } ],
      "evaluatedResource": [ {
        "reference": "Encounter/bcdc9977-76d0-4083-8265-9a49417716a2"
      }, {
        "reference": "Encounter/5028c20e-50ed-4a6d-89e7-fe79543b6c75"
      }, {
        "reference": "Patient/25c753a7-b6b4-4335-bd7c-05b68b0324a4"
      }, {
        "reference": "Claim/bce4935f-1112-4719-885d-4a04ac4650fe"
      }, {
        "reference": "Claim/f624f064-1499-433f-be49-912482938599"
      }, {
        "reference": "MedicationRequest/21317adb-b184-4d32-a0e0-d6476d3c64ab"
      }, {
        "reference": "Observation/aad6aae5-f53f-442a-8e2d-4ca7fb92dc1b"
      }, {
        "reference": "Practitioner/f260be62-a45f-4303-95ea-f1e49ff14c08"
      }, {
        "reference": "Coverage/64303b42-05d4-49b0-ac8a-f049bc48f348"
      }, {
        "reference": "Organization/9a99d377-3916-493d-8610-29d7d1915a7a"
      } ]
    },
    "request": {
      "method": "PUT",
      "url": "MeasureReport/5e77fa9f-873a-42e3-a0a5-76183c60a3a6"
    }
  } ]
}