{
  "resourceType": "Bundle",
  "id": "657cbdc9b4f1f0343662347a",
  "type": "transaction",
  "entry": [ {
    "fullUrl": "https://madie.cms.gov/Patient/2f5f0d25-506b-482a-9465-91137ed0e845",
    "resource": {
      "resourceType": "Patient",
      "id": "2f5f0d25-506b-482a-9465-91137ed0e845",
      "meta": {
        "profile": [ "http://hl7.org/fhir/us/qicore/StructureDefinition/qicore-patient" ]
      },
      "extension": [ {
        "url": "http://hl7.org/fhir/us/core/StructureDefinition/us-core-race",
        "extension": [ {
          "url": "ombCategory",
          "valueCoding": {
            "system": "urn:oid:2.16.840.1.113883.6.238",
            "code": "2106-3",
            "display": "White",
            "userSelected": true
          }
        }, {
          "url": "text",
          "valueString": "White"
        } ]
      }, {
        "url": "http://hl7.org/fhir/us/core/StructureDefinition/us-core-ethnicity",
        "extension": [ {
          "url": "ombCategory",
          "valueCoding": {
            "system": "urn:oid:2.16.840.1.113883.6.238",
            "code": "2186-5",
            "display": "Not Hispanic or Latino",
            "userSelected": true
          }
        }, {
          "url": "text",
          "valueString": "Not Hispanic or Latino"
        } ]
      } ],
      "identifier": [ {
        "type": {
          "coding": [ {
            "system": "http://terminology.hl7.org/CodeSystem/v2-0203",
            "code": "MR"
          } ]
        },
        "system": "https://bonnie-fhir.healthit.gov/",
        "value": "657cbdc9b4f1f0343662347a"
      } ],
      "name": [ {
        "family": "InitialPopulationEncountersPass",
        "given": [ "InitialPopulationEncounters" ]
      } ],
      "gender": "female",
      "birthDate": "2008-01-01"
    },
    "request": {
      "method": "PUT",
      "url": "Patient/2f5f0d25-506b-482a-9465-91137ed0e845"
    }
  }, {
    "fullUrl": "https://madie.cms.gov/Encounter/4ca6fc46-3172-4184-9eb3-f04b167fdfbc",
    "resource": {
      "resourceType": "Encounter",
      "id": "4ca6fc46-3172-4184-9eb3-f04b167fdfbc",
      "meta": {
        "profile": [ "http://hl7.org/fhir/us/qicore/StructureDefinition/qicore-encounter" ]
      },
      "status": "finished",
      "class": {
        "system": "http://terminology.hl7.org/CodeSystem/v3-ActCode",
        "code": "ACUTE",
        "display": "inpatient acute"
      },
      "type": [ {
        "coding": [ {
          "system": "http://snomed.info/sct",
          "version": "2024",
          "code": "32485007",
          "display": "Hospital admission (procedure)",
          "userSelected": true
        } ]
      } ],
      "subject": {
        "reference": "Patient/2f5f0d25-506b-482a-9465-91137ed0e845"
      },
      "period": {
        "start": "2026-01-01T08:00:00.000+00:00",
        "end": "2026-01-02T09:15:00.000+00:00"
      },
      "diagnosis": [ {
        "condition": {
          "reference": "Condition/96515cbe-4dfe-43a9-97c9-49bf5aab7b66"
        },
        "use": {
          "coding": [ {
            "system": "http://terminology.hl7.org/CodeSystem/diagnosis-role",
            "code": "billing"
          } ]
        },
        "rank": 1
      } ]
    },
    "request": {
      "method": "PUT",
      "url": "Encounter/4ca6fc46-3172-4184-9eb3-f04b167fdfbc"
    }
  }, {
    "fullUrl": "https://madie.cms.gov/Location/07c273f0-88c4-4524-b592-f32f92f855dc",
    "resource": {
      "resourceType": "Location",
      "id": "07c273f0-88c4-4524-b592-f32f92f855dc",
      "meta": {
        "profile": [ "http://hl7.org/fhir/us/qicore/StructureDefinition/qicore-location" ]
      },
      "identifier": [ {
        "use": "usual",
        "system": "http://exampleoflocation.com",
        "value": "B1-S.F2"
      } ],
      "name": "Medical Surgical East, first floor",
      "type": [ {
        "coding": [ {
          "system": "https://www.cdc.gov/nhsn/cdaportal/terminology/codesystem/hsloc.html",
          "code": "1028-0",
          "display": "Medical Cardiac Critical Care",
          "userSelected": true
        } ]
      } ]
    },
    "request": {
      "method": "PUT",
      "url": "Location/07c273f0-88c4-4524-b592-f32f92f855dc"
    }
  }, {
    "fullUrl": "https://madie.cms.gov/MedicationRequest/a85cfb41-e37e-411a-943f-31f590ea312e",
    "resource": {
      "resourceType": "MedicationRequest",
      "id": "a85cfb41-e37e-411a-943f-31f590ea312e",
      "meta": {
        "profile": [ "http://hl7.org/fhir/us/qicore/StructureDefinition/qicore-medicationrequest" ]
      },
      "status": "completed",
      "intent": "order",
      "medicationCodeableConcept": {
        "coding": [ {
          "system": "http://www.nlm.nih.gov/research/umls/rxnorm",
          "version": "06052023",
          "code": "1007184"
        } ]
      },
      "subject": {
        "reference": "Patient/2f5f0d25-506b-482a-9465-91137ed0e845"
      },
      "authoredOn": "2026-01-01T08:15:00.000+00:00",
      "requester": {
        "reference": "Practitioner/33d87640-6b2a-40b0-ab11-542478a88d5a"
      },
      "dosageInstruction": [ {
        "timing": {
          "repeat": {
            "boundsPeriod": {
              "start": "2025-01-01T08:15:00.000+00:00"
            }
          }
        }
      } ]
    },
    "request": {
      "method": "PUT",
      "url": "MedicationRequest/a85cfb41-e37e-411a-943f-31f590ea312e"
    }
  }, {
    "fullUrl": "https://madie.cms.gov/Coverage/6fa3b8f8-5cb0-48f1-bc72-f36bc23b142a",
    "resource": {
      "resourceType": "Coverage",
      "id": "6fa3b8f8-5cb0-48f1-bc72-f36bc23b142a",
      "meta": {
        "profile": [ "http://hl7.org/fhir/us/qicore/StructureDefinition/qicore-coverage" ]
      },
      "identifier": [ {
        "system": "http://benefitsinc.com/certificate",
        "value": "12345"
      } ],
      "status": "active",
      "type": {
        "coding": [ {
          "system": "https://nahdo.org/sopt",
          "version": "1.0.1",
          "code": "1",
          "display": "MEDICARE",
          "userSelected": true
        } ]
      },
      "subscriberId": "AB9876",
      "beneficiary": {
        "reference": "Patient/2f5f0d25-506b-482a-9465-91137ed0e845"
      },
      "relationship": {
        "coding": [ {
          "system": "http://terminology.hl7.org/CodeSystem/subscriber-relationship",
          "code": "self"
        } ]
      },
      "payor": [ {
        "reference": "Organization/7a927789-ce0c-44b6-8208-4e840286bdd9"
      } ]
    },
    "request": {
      "method": "PUT",
      "url": "Coverage/6fa3b8f8-5cb0-48f1-bc72-f36bc23b142a"
    }
  }, {
    "fullUrl": "https://madie.cms.gov/Organization/7a927789-ce0c-44b6-8208-4e840286bdd9",
    "resource": {
      "resourceType": "Organization",
      "id": "7a927789-ce0c-44b6-8208-4e840286bdd9",
      "meta": {
        "profile": [ "http://hl7.org/fhir/us/qicore/StructureDefinition/qicore-organization" ]
      },
      "identifier": [ {
        "use": "temp",
        "system": "urn:oid:2.16.840.1.113883.4.4",
        "value": "21-3259825"
      } ],
      "active": true,
      "type": [ {
        "coding": [ {
          "system": "http://terminology.hl7.org/CodeSystem/organization-type",
          "code": "pay",
          "display": "Payer"
        } ]
      } ],
      "name": "Blue Cross Blue Shield of Texas",
      "telecom": [ {
        "system": "phone",
        "value": "(+1) 972-766-6900"
      } ],
      "address": [ {
        "use": "billing",
        "type": "postal",
        "line": [ "P.O. Box 660044" ],
        "city": "Dallas",
        "state": "TX",
        "postalCode": "75266-0044",
        "country": "USA"
      } ]
    },
    "request": {
      "method": "PUT",
      "url": "Organization/7a927789-ce0c-44b6-8208-4e840286bdd9"
    }
  }, {
    "fullUrl": "https://madie.cms.gov/Practitioner/98e9768d-cccf-4bb7-8ce3-054c9a3584cb",
    "resource": {
      "resourceType": "Practitioner",
      "id": "98e9768d-cccf-4bb7-8ce3-054c9a3584cb",
      "meta": {
        "profile": [ "http://hl7.org/fhir/us/qicore/StructureDefinition/qicore-practitioner" ]
      },
      "identifier": [ {
        "system": "http://hl7.org/fhir/sid/us-npi",
        "value": "0723660813"
      } ],
      "name": [ {
        "family": "Evil",
        "prefix": [ "Dr" ]
      } ]
    },
    "request": {
      "method": "PUT",
      "url": "Practitioner/98e9768d-cccf-4bb7-8ce3-054c9a3584cb"
    }
  }, {
    "fullUrl": "https://madie.cms.gov/MeasureReport/11984950-a130-4238-b00e-a3463f584514",
    "resource": {
      "resourceType": "MeasureReport",
      "id": "11984950-a130-4238-b00e-a3463f584514",
      "meta": {
        "profile": [ "http://hl7.org/fhir/us/cqfmeasures/StructureDefinition/test-case-cqfm" ]
      },
      "contained": [ {
        "resourceType": "Parameters",
        "id": "c64fa9f7-099e-471a-87f4-ecc0cbad3700-parameters",
        "parameter": [ {
          "name": "subject",
          "valueString": "2f5f0d25-506b-482a-9465-91137ed0e845"
        } ]
      } ],
      "extension": [ {
        "url": "http://hl7.org/fhir/StructureDefinition/cqf-inputParameters",
        "valueReference": {
          "reference": "#c64fa9f7-099e-471a-87f4-ecc0cbad3700-parameters"
        }
      }, {
        "url": "http://hl7.org/fhir/us/cqfmeasures/StructureDefinition/cqfm-testCaseDescription",
        "valueMarkdown": "Inpatient encounter with diabetic medication during MP with SDE initial population encounters"
      } ],
      "modifierExtension": [ {
        "url": "http://hl7.org/fhir/us/cqfmeasures/StructureDefinition/cqfm-isTestCase",
        "valueBoolean": true
      } ],
      "status": "complete",
      "type": "individual",
      "measure": "https://madie.cms.gov/Measure/NHSNGlycemicControlHypoglycemiaInitialPopulation",
      "period": {
        "start": "2026-01-01",
        "end": "2026-12-31"
      },
      "group": [ {
        "id": "Group_1",
        "population": [ {
          "id": "InitialPopulation_1",
          "code": {
            "coding": [ {
              "system": "http://terminology.hl7.org/CodeSystem/measure-population",
              "code": "initial-population",
              "display": "Initial Population"
            } ]
          },
          "count": 1
        } ],
        "measureScore": {
          "value": 0.0
        }
      } ],
      "evaluatedResource": [ {
        "reference": "Patient/2f5f0d25-506b-482a-9465-91137ed0e845"
      }, {
        "reference": "Encounter/4ca6fc46-3172-4184-9eb3-f04b167fdfbc"
      }, {
        "reference": "Location/07c273f0-88c4-4524-b592-f32f92f855dc"
      }, {
        "reference": "MedicationRequest/a85cfb41-e37e-411a-943f-31f590ea312e"
      }, {
        "reference": "Coverage/6fa3b8f8-5cb0-48f1-bc72-f36bc23b142a"
      }, {
        "reference": "Organization/7a927789-ce0c-44b6-8208-4e840286bdd9"
      }, {
        "reference": "Practitioner/98e9768d-cccf-4bb7-8ce3-054c9a3584cb"
      } ]
    },
    "request": {
      "method": "PUT",
      "url": "MeasureReport/11984950-a130-4238-b00e-a3463f584514"
    }
  } ]
}