{
  "resourceType": "Bundle",
  "id": "64134616313131",
  "type": "collection",
  "entry": [ {
    "fullUrl": "https://madie.cms.gov/Patient/342d2bec-0acc-43e5-aaf7-3c9a65b09f91",
    "resource": {
      "resourceType": "Patient",
      "id": "342d2bec-0acc-43e5-aaf7-3c9a65b09f91",
      "meta": {
        "profile": [ "http://hl7.org/fhir/us/qicore/StructureDefinition/qicore-patient" ]
      },
      "extension": [ {
        "url": "http://hl7.org/fhir/us/core/StructureDefinition/us-core-race",
        "extension": [ {
          "url": "ombCategory",
          "valueCoding": {
            "system": "urn:oid:2.16.840.1.113883.6.238",
            "code": "2106-3",
            "display": "White"
          }
        }, {
          "url": "detailed",
          "valueCoding": {
            "system": "urn:oid:2.16.840.1.113883.6.238",
            "code": "2036-2",
            "display": "Filipino"
          }
        }, {
          "url": "text",
          "valueString": "mixed"
        } ]
      }, {
        "url": "http://hl7.org/fhir/us/core/StructureDefinition/us-core-ethnicity",
        "extension": [ {
          "url": "ombCategory",
          "valueCoding": {
            "system": "urn:oid:2.16.840.1.113883.6.238",
            "code": "2135-2",
            "display": "Hispanic or Latino"
          }
        }, {
          "url": "detailed",
          "valueCoding": {
            "system": "urn:oid:2.16.840.1.113883.6.238",
            "code": "2148-5",
            "display": "Mexican"
          }
        }, {
          "url": "text",
          "valueString": "Hispanic or Latino"
        } ]
      } ],
      "identifier": [ {
        "type": {
          "coding": [ {
            "system": "http://terminology.hl7.org/CodeSystem/v2-0203",
            "code": "MR"
          } ]
        },
        "system": "https://bonnie-fhir.healthit.gov/",
        "value": "98465413516846513641"
      } ],
      "name": [ {
        "family": "DENEXPass",
        "given": [ "ImmunosuppresiveMedEventB4BCS" ]
      } ],
      "gender": "female",
      "birthDate": "1947-11-03"
    }
  }, {
    "fullUrl": "https://madie.cms.gov/Encounter/29537cc4-5acd-4b2d-aefe-a20346c123ee",
    "resource": {
      "resourceType": "Encounter",
      "id": "29537cc4-5acd-4b2d-aefe-a20346c123ee",
      "meta": {
        "profile": [ "http://hl7.org/fhir/us/qicore/StructureDefinition/qicore-encounter" ]
      },
      "status": "finished",
      "class": {
        "system": "http://terminology.hl7.org/CodeSystem/v3-ActCode",
        "code": "AMB",
        "display": "ambulatory"
      },
      "type": [ {
        "coding": [ {
          "system": "http://snomed.info/sct",
          "version": "http://snomed.info/sct/731000124108/version/20240301",
          "code": "185463005",
          "display": "Visit out of hours (procedure)"
        } ]
      } ],
      "subject": {
        "reference": "Patient/342d2bec-0acc-43e5-aaf7-3c9a65b09f91"
      },
      "period": {
        "start": "2026-04-06T08:00:00.000+00:00",
        "end": "2026-04-06T09:15:00.000+00:00"
      }
    }
  }, {
    "fullUrl": "https://madie.cms.gov/Condition/faf0e275-146c-4806-9670-bcf67b75949b",
    "resource": {
      "resourceType": "Condition",
      "id": "faf0e275-146c-4806-9670-bcf67b75949b",
      "meta": {
        "profile": [ "http://hl7.org/fhir/us/qicore/StructureDefinition/qicore-condition-problems-health-concerns" ]
      },
      "clinicalStatus": {
        "coding": [ {
          "system": "http://terminology.hl7.org/CodeSystem/condition-clinical",
          "code": "active",
          "display": "Active"
        } ]
      },
      "verificationStatus": {
        "coding": [ {
          "system": "http://terminology.hl7.org/CodeSystem/condition-ver-status",
          "code": "confirmed",
          "display": "Confirmed"
        } ]
      },
      "category": [ {
        "coding": [ {
          "system": "http://terminology.hl7.org/CodeSystem/condition-category",
          "code": "problem-list-item",
          "display": "Problem List Item"
        } ]
      } ],
      "code": {
        "coding": [ {
          "system": "http://hl7.org/fhir/sid/icd-10-cm",
          "version": "2024",
          "code": "C67.1",
          "display": "Malignant neoplasm of dome of bladder"
        } ]
      },
      "subject": {
        "reference": "Patient/342d2bec-0acc-43e5-aaf7-3c9a65b09f91"
      },
      "onsetPeriod": {
        "start": "2026-04-06T08:00:00.000+00:00"
      }
    }
  }, {
    "fullUrl": "https://madie.cms.gov/MedicationRequest/5946d12d-c284-4914-a0b0-ef7c850be67d",
    "resource": {
      "resourceType": "MedicationRequest",
      "id": "5946d12d-c284-4914-a0b0-ef7c850be67d",
      "meta": {
        "profile": [ "http://hl7.org/fhir/us/qicore/StructureDefinition/qicore-medicationrequest" ]
      },
      "status": "completed",
      "intent": "order",
      "medicationCodeableConcept": {
        "coding": [ {
          "system": "http://www.nlm.nih.gov/research/umls/rxnorm",
          "version": "06052023",
          "code": "1303125",
          "display": "prednisone 1 MG Delayed Release Oral Tablet"
        } ]
      },
      "subject": {
        "reference": "Patient/342d2bec-0acc-43e5-aaf7-3c9a65b09f91"
      },
      "authoredOn": "2026-03-03T14:00:00.000+00:00",
      "requester": {
        "reference": "Practitioner/1351644115135131"
      },
      "dosageInstruction": [ {
        "timing": {
          "event": [ "2026-03-03T14:00:00.000+00:00", "2026-06-03T14:00:00.000+00:00" ]
        }
      } ]
    }
  }, {
    "fullUrl": "https://madie.cms.gov/Procedure/8f529f69-8695-4946-9724-735562413e47",
    "resource": {
      "resourceType": "Procedure",
      "id": "8f529f69-8695-4946-9724-735562413e47",
      "meta": {
        "profile": [ "http://hl7.org/fhir/us/qicore/StructureDefinition/qicore-procedure" ]
      },
      "extension": [ {
        "url": "http://hl7.org/fhir/us/qicore/StructureDefinition/qicore-recorded",
        "valueDateTime": "2026-04-06T08:00:00.000+00:00"
      } ],
      "status": "completed",
      "code": {
        "coding": [ {
          "system": "http://snomed.info/sct",
          "version": "http://snomed.info/sct/731000124108/version/20250301",
          "code": "254292007",
          "display": "Tumor staging"
        } ]
      },
      "subject": {
        "reference": "Patient/342d2bec-0acc-43e5-aaf7-3c9a65b09f91"
      },
      "performedDateTime": "2026-04-06T08:00:00.000+00:00"
    }
  }, {
    "fullUrl": "https://madie.cms.gov/Coverage/1188193f-36aa-4212-9b57-650b187c8c35",
    "resource": {
      "resourceType": "Coverage",
      "id": "1188193f-36aa-4212-9b57-650b187c8c35",
      "meta": {
        "profile": [ "http://hl7.org/fhir/us/qicore/StructureDefinition/qicore-coverage" ]
      },
      "status": "active",
      "type": {
        "coding": [ {
          "system": "https://nahdo.org/sopt",
          "code": "59",
          "display": "Other Private Insurance"
        } ]
      },
      "subscriberId": "123456",
      "beneficiary": {
        "reference": "Patient/342d2bec-0acc-43e5-aaf7-3c9a65b09f91"
      },
      "relationship": {
        "coding": [ {
          "system": "http://terminology.hl7.org/CodeSystem/subscriber-relationship",
          "code": "self",
          "display": "Self"
        } ]
      },
      "period": {
        "start": "2025-05-01",
        "end": "2026-04-27"
      },
      "payor": [ {
        "reference": "Organization/459b6273-505d-4241-99b7-1c55a7f4f2c3"
      } ]
    }
  }, {
    "fullUrl": "https://madie.cms.gov/Organization/459b6273-505d-4241-99b7-1c55a7f4f2c3",
    "resource": {
      "resourceType": "Organization",
      "id": "459b6273-505d-4241-99b7-1c55a7f4f2c3",
      "meta": {
        "profile": [ "http://hl7.org/fhir/us/qicore/StructureDefinition/qicore-organization" ]
      },
      "identifier": [ {
        "use": "temp",
        "system": "urn:oid:2.16.840.1.113883.4.4",
        "value": "21-3259825"
      } ],
      "active": true,
      "type": [ {
        "coding": [ {
          "system": "http://terminology.hl7.org/CodeSystem/organization-type",
          "code": "pay",
          "display": "Payer"
        } ]
      } ],
      "name": "Blue Cross Blue Shield of Texas",
      "telecom": [ {
        "system": "phone",
        "value": "(+1) 972-766-6900"
      } ],
      "address": [ {
        "use": "billing",
        "type": "postal",
        "line": [ "P.O. Box 660044" ],
        "city": "Dallas",
        "state": "TX",
        "postalCode": "75266-0044",
        "country": "USA"
      } ]
    }
  }, {
    "fullUrl": "https://madie.cms.gov/Practitioner/010f5cca-53a4-400e-8d4a-e2dd4b865af6",
    "resource": {
      "resourceType": "Practitioner",
      "id": "010f5cca-53a4-400e-8d4a-e2dd4b865af6",
      "meta": {
        "profile": [ "http://hl7.org/fhir/us/qicore/StructureDefinition/qicore-practitioner" ]
      },
      "identifier": [ {
        "system": "http://hl7.org/fhir/sid/us-npi",
        "value": "1689411712"
      } ],
      "name": [ {
        "family": "Evil",
        "prefix": [ "Dr" ]
      } ]
    }
  }, {
    "fullUrl": "https://madie.cms.gov/Observation/9653bc3d-407d-42de-bbbe-aeac4235d26f",
    "resource": {
      "resourceType": "Observation",
      "id": "9653bc3d-407d-42de-bbbe-aeac4235d26f",
      "meta": {
        "profile": [ "http://hl7.org/fhir/us/qicore/StructureDefinition/qicore-observation-lab" ]
      },
      "partOf": [ {
        "reference": "Procedure/8f529f69-8695-4946-9724-735562413e47"
      } ],
      "status": "final",
      "category": [ {
        "coding": [ {
          "system": "http://terminology.hl7.org/CodeSystem/observation-category",
          "code": "procedure",
          "display": "Procedure"
        } ]
      }, {
        "coding": [ {
          "system": "http://terminology.hl7.org/CodeSystem/observation-category",
          "code": "laboratory",
          "display": "Laboratory"
        } ]
      } ],
      "code": {
        "coding": [ {
          "system": "http://loinc.org",
          "version": "2.76",
          "code": "21902-2",
          "display": "Stage group.pathology Cancer"
        } ]
      },
      "subject": {
        "reference": "Patient/342d2bec-0acc-43e5-aaf7-3c9a65b09f91"
      },
      "effectiveDateTime": "2026-04-06T08:00:00.000+00:00",
      "issued": "2026-04-06T08:10:00.000+00:00",
      "valueCodeableConcept": {
        "coding": [ {
          "system": "http://snomed.info/sct",
          "version": "http://snomed.info/sct/731000124108/version/20240301",
          "code": "1228884006",
          "display": "American Joint Committee on Cancer cTis (qualifier value)"
        } ]
      }
    }
  }, {
    "fullUrl": "https://madie.cms.gov/MeasureReport/12cd358b-deb0-4130-a045-4c6b61e110c0",
    "resource": {
      "resourceType": "MeasureReport",
      "id": "12cd358b-deb0-4130-a045-4c6b61e110c0",
      "meta": {
        "profile": [ "http://hl7.org/fhir/us/cqfmeasures/StructureDefinition/test-case-cqfm" ]
      },
      "contained": [ {
        "resourceType": "Parameters",
        "id": "6ca9bbc9-bfa2-454e-a99d-66c23e7c5ec1-parameters",
        "parameter": [ {
          "name": "subject",
          "valueString": "342d2bec-0acc-43e5-aaf7-3c9a65b09f91"
        } ]
      } ],
      "extension": [ {
        "url": "http://hl7.org/fhir/StructureDefinition/cqf-inputParameters",
        "valueReference": {
          "reference": "#6ca9bbc9-bfa2-454e-a99d-66c23e7c5ec1-parameters"
        }
      }, {
        "url": "http://hl7.org/fhir/us/cqfmeasures/StructureDefinition/cqfm-testCaseDescription",
        "valueMarkdown": "Patient's most recent bladder cancer tumor staging is Tis. Patient has Medication Request for prednisone before BCS which qualifies for denominator exclusion. Uses Event timing."
      } ],
      "modifierExtension": [ {
        "url": "http://hl7.org/fhir/us/cqfmeasures/StructureDefinition/cqfm-isTestCase",
        "valueBoolean": true
      } ],
      "status": "complete",
      "type": "individual",
      "measure": "https://madie.cms.gov/Measure/CMS646FHIRIntravesicalBCGTherapy",
      "period": {
        "start": "2026-01-01",
        "end": "2026-12-31"
      },
      "group": [ {
        "id": "Group_1",
        "population": [ {
          "id": "InitialPopulation_1",
          "code": {
            "coding": [ {
              "system": "http://terminology.hl7.org/CodeSystem/measure-population",
              "code": "initial-population",
              "display": "Initial Population"
            } ]
          },
          "count": 1
        }, {
          "id": "Denominator_1",
          "code": {
            "coding": [ {
              "system": "http://terminology.hl7.org/CodeSystem/measure-population",
              "code": "denominator",
              "display": "Denominator"
            } ]
          },
          "count": 1
        }, {
          "id": "DenominatorExclusion_1",
          "code": {
            "coding": [ {
              "system": "http://terminology.hl7.org/CodeSystem/measure-population",
              "code": "denominator-exclusion",
              "display": "Denominator Exclusion"
            } ]
          },
          "count": 1
        }, {
          "id": "Numerator_1",
          "code": {
            "coding": [ {
              "system": "http://terminology.hl7.org/CodeSystem/measure-population",
              "code": "numerator",
              "display": "Numerator"
            } ]
          },
          "count": 0
        }, {
          "id": "DenominatorException_1",
          "code": {
            "coding": [ {
              "system": "http://terminology.hl7.org/CodeSystem/measure-population",
              "code": "denominator-exception",
              "display": "Denominator Exception"
            } ]
          },
          "count": 0
        } ],
        "measureScore": {
          "value": 1.0
        }
      } ],
      "evaluatedResource": [ {
        "reference": "Patient/342d2bec-0acc-43e5-aaf7-3c9a65b09f91"
      }, {
        "reference": "Encounter/29537cc4-5acd-4b2d-aefe-a20346c123ee"
      }, {
        "reference": "Condition/faf0e275-146c-4806-9670-bcf67b75949b"
      }, {
        "reference": "MedicationRequest/5946d12d-c284-4914-a0b0-ef7c850be67d"
      }, {
        "reference": "Procedure/8f529f69-8695-4946-9724-735562413e47"
      }, {
        "reference": "Coverage/1188193f-36aa-4212-9b57-650b187c8c35"
      }, {
        "reference": "Organization/459b6273-505d-4241-99b7-1c55a7f4f2c3"
      }, {
        "reference": "Practitioner/010f5cca-53a4-400e-8d4a-e2dd4b865af6"
      }, {
        "reference": "Observation/9653bc3d-407d-42de-bbbe-aeac4235d26f"
      } ]
    }
  } ]
}