{
  "resourceType": "Bundle",
  "id": "tests-DENEX-Pass-UnstageableInjury-with-POA-bundle",
  "type": "transaction",
  "entry": [ {
    "fullUrl": "https://madie.cms.gov/Encounter/daefe6bc-1709-4f9a-99dc-a552905d081f",
    "resource": {
      "resourceType": "Encounter",
      "id": "daefe6bc-1709-4f9a-99dc-a552905d081f",
      "meta": {
        "profile": [ "http://hl7.org/fhir/us/qicore/StructureDefinition/qicore-encounter" ]
      },
      "status": "finished",
      "class": {
        "system": "http://terminology.hl7.org/CodeSystem/v3-ActCode",
        "code": "IMP",
        "display": "inpatient encounter"
      },
      "type": [ {
        "coding": [ {
          "system": "http://snomed.info/sct",
          "version": "2022-09",
          "code": "183452005",
          "display": "Emergency hospital admission (procedure)",
          "userSelected": true
        } ]
      } ],
      "subject": {
        "reference": "Patient/865b3218-9d2a-4512-b76e-ed70c25324e6"
      },
      "period": {
        "start": "2026-02-01T08:30:00.000+00:00",
        "end": "2026-02-06T08:15:00.000+00:00"
      }
    },
    "request": {
      "method": "PUT",
      "url": "Encounter/daefe6bc-1709-4f9a-99dc-a552905d081f"
    }
  }, {
    "fullUrl": "https://madie.cms.gov/Claim/0741f2d4-e3cd-4582-b223-139449606cda",
    "resource": {
      "resourceType": "Claim",
      "id": "0741f2d4-e3cd-4582-b223-139449606cda",
      "meta": {
        "profile": [ "http://hl7.org/fhir/us/qicore/StructureDefinition/qicore-claim" ]
      },
      "status": "active",
      "type": {
        "coding": [ {
          "system": "http://terminology.hl7.org/CodeSystem/claim-type",
          "code": "professional"
        } ]
      },
      "use": "claim",
      "patient": {
        "reference": "Patient/865b3218-9d2a-4512-b76e-ed70c25324e6"
      },
      "created": "2026-05-16",
      "priority": {
        "coding": [ {
          "system": "http://terminology.hl7.org/CodeSystem/processpriority",
          "code": "normal"
        } ]
      },
      "diagnosis": [ {
        "sequence": 1,
        "diagnosisCodeableConcept": {
          "coding": [ {
            "system": "http://hl7.org/fhir/sid/icd-10-cm",
            "code": "L89.000",
            "display": "Pressure ulcer of unspecified elbow, unstageable"
          } ]
        },
        "type": [ {
          "coding": [ {
            "system": "http://terminology.hl7.org/CodeSystem/ex-diagnosistype",
            "code": "principal"
          } ]
        } ],
        "onAdmission": {
          "coding": [ {
            "system": "https://www.cms.gov/Medicare/Medicare-Fee-for-Service-Payment/HospitalAcqCond/Coding",
            "code": "Y"
          } ]
        }
      } ],
      "item": [ {
        "sequence": 1,
        "diagnosisSequence": [ 1, 5, 7 ],
        "productOrService": {
          "coding": [ {
            "system": "http://example.org/fhir/CodeSystem/ex-professionalservice",
            "code": "anesthesia"
          } ]
        },
        "servicedDate": "2026-04-11",
        "encounter": [ {
          "reference": "Encounter/daefe6bc-1709-4f9a-99dc-a552905d081f"
        } ]
      } ]
    },
    "request": {
      "method": "PUT",
      "url": "Claim/0741f2d4-e3cd-4582-b223-139449606cda"
    }
  }, {
    "fullUrl": "https://madie.cms.gov/Encounter/2298b27e-27d7-4816-8afc-f9b2b5e27d54",
    "resource": {
      "resourceType": "Encounter",
      "id": "2298b27e-27d7-4816-8afc-f9b2b5e27d54",
      "meta": {
        "profile": [ "http://hl7.org/fhir/us/qicore/StructureDefinition/qicore-encounter" ]
      },
      "status": "finished",
      "class": {
        "system": "http://terminology.hl7.org/CodeSystem/v3-ActCode",
        "code": "EMER",
        "display": "emergency"
      },
      "type": [ {
        "coding": [ {
          "system": "http://snomed.info/sct",
          "version": "2022-09",
          "code": "4525004",
          "display": "Emergency department patient visit (procedure)",
          "userSelected": true
        } ]
      } ],
      "subject": {
        "reference": "Patient/865b3218-9d2a-4512-b76e-ed70c25324e6"
      },
      "period": {
        "start": "2026-01-31T08:00:00.000+00:00",
        "end": "2026-02-01T08:15:00.000+00:00"
      }
    },
    "request": {
      "method": "PUT",
      "url": "Encounter/2298b27e-27d7-4816-8afc-f9b2b5e27d54"
    }
  }, {
    "fullUrl": "https://madie.cms.gov/Patient/865b3218-9d2a-4512-b76e-ed70c25324e6",
    "resource": {
      "resourceType": "Patient",
      "id": "865b3218-9d2a-4512-b76e-ed70c25324e6",
      "meta": {
        "profile": [ "http://hl7.org/fhir/us/qicore/StructureDefinition/qicore-patient" ]
      },
      "extension": [ {
        "url": "http://hl7.org/fhir/us/core/StructureDefinition/us-core-race",
        "extension": [ {
          "url": "ombCategory",
          "valueCoding": {
            "system": "urn:oid:2.16.840.1.113883.6.238",
            "code": "2028-9",
            "display": "Asian",
            "userSelected": true
          }
        }, {
          "url": "text",
          "valueString": "Asian"
        } ]
      }, {
        "url": "http://hl7.org/fhir/us/core/StructureDefinition/us-core-ethnicity",
        "extension": [ {
          "url": "ombCategory",
          "valueCoding": {
            "system": "urn:oid:2.16.840.1.113883.6.238",
            "code": "2186-5",
            "display": "Not Hispanic or Latino",
            "userSelected": true
          }
        }, {
          "url": "text",
          "valueString": "Not Hispanic or Latino"
        } ]
      } ],
      "identifier": [ {
        "type": {
          "coding": [ {
            "system": "http://terminology.hl7.org/CodeSystem/v2-0203",
            "code": "MR"
          } ]
        },
        "system": "https://bonnie-fhir.healthit.gov/",
        "value": "647f51ab5e6d159b6e36ee31"
      } ],
      "name": [ {
        "family": "DENEXPass",
        "given": [ "UnstageableInjuryPOAY" ]
      } ],
      "gender": "other",
      "birthDate": "2006-02-01"
    },
    "request": {
      "method": "PUT",
      "url": "Patient/865b3218-9d2a-4512-b76e-ed70c25324e6"
    }
  }, {
    "fullUrl": "https://madie.cms.gov/MeasureReport/baa1ffcf-677c-483f-84ac-9e2a07780d35",
    "resource": {
      "resourceType": "MeasureReport",
      "id": "baa1ffcf-677c-483f-84ac-9e2a07780d35",
      "meta": {
        "profile": [ "http://hl7.org/fhir/us/cqfmeasures/StructureDefinition/test-case-cqfm" ]
      },
      "contained": [ {
        "resourceType": "Parameters",
        "id": "a65d25f3-eaf2-4aaa-9bef-08f8ae150818-parameters",
        "parameter": [ {
          "name": "subject",
          "valueString": "865b3218-9d2a-4512-b76e-ed70c25324e6"
        } ]
      } ],
      "extension": [ {
        "url": "http://hl7.org/fhir/StructureDefinition/cqf-inputParameters",
        "valueReference": {
          "reference": "#a65d25f3-eaf2-4aaa-9bef-08f8ae150818-parameters"
        }
      }, {
        "url": "http://hl7.org/fhir/us/cqfmeasures/StructureDefinition/cqfm-testCaseDescription",
        "valueMarkdown": "Inpatient encounter during MP.Unstageable injury present on Admission = Y, DENEXPass"
      } ],
      "modifierExtension": [ {
        "url": "http://hl7.org/fhir/us/cqfmeasures/StructureDefinition/cqfm-isTestCase",
        "valueBoolean": true
      } ],
      "status": "complete",
      "type": "individual",
      "measure": "https://madie.cms.gov/Measure/CMS826FHIRHHPI",
      "period": {
        "start": "2026-01-01",
        "end": "2026-12-31"
      },
      "group": [ {
        "id": "Group_1",
        "population": [ {
          "id": "InitialPopulation_1",
          "code": {
            "coding": [ {
              "system": "http://terminology.hl7.org/CodeSystem/measure-population",
              "code": "initial-population",
              "display": "Initial Population"
            } ]
          },
          "count": 1
        }, {
          "id": "Denominator_1",
          "code": {
            "coding": [ {
              "system": "http://terminology.hl7.org/CodeSystem/measure-population",
              "code": "denominator",
              "display": "Denominator"
            } ]
          },
          "count": 1
        }, {
          "id": "DenominatorExclusion_1",
          "code": {
            "coding": [ {
              "system": "http://terminology.hl7.org/CodeSystem/measure-population",
              "code": "denominator-exclusion",
              "display": "Denominator Exclusion"
            } ]
          },
          "count": 1
        }, {
          "id": "Numerator_1",
          "code": {
            "coding": [ {
              "system": "http://terminology.hl7.org/CodeSystem/measure-population",
              "code": "numerator",
              "display": "Numerator"
            } ]
          },
          "count": 0
        } ],
        "measureScore": {
          "value": 0.0
        }
      } ],
      "evaluatedResource": [ {
        "reference": "Encounter/daefe6bc-1709-4f9a-99dc-a552905d081f"
      }, {
        "reference": "Claim/0741f2d4-e3cd-4582-b223-139449606cda"
      }, {
        "reference": "Encounter/2298b27e-27d7-4816-8afc-f9b2b5e27d54"
      }, {
        "reference": "Patient/865b3218-9d2a-4512-b76e-ed70c25324e6"
      } ]
    },
    "request": {
      "method": "PUT",
      "url": "MeasureReport/baa1ffcf-677c-483f-84ac-9e2a07780d35"
    }
  } ]
}