{
  "resourceType": "Bundle",
  "id": "6109650498086b538055a0d0",
  "type": "transaction",
  "entry": [ {
    "fullUrl": "https://madie.cms.gov/Patient/70955eff-a715-4012-8212-dd03468cb783",
    "resource": {
      "resourceType": "Patient",
      "id": "70955eff-a715-4012-8212-dd03468cb783",
      "meta": {
        "profile": [ "http://hl7.org/fhir/us/qicore/StructureDefinition/qicore-patient" ]
      },
      "text": {
        "status": "generated",
        "div": "<div xmlns=\"http://www.w3.org/1999/xhtml\"><div class=\"hapiHeaderText\">Agelessthan6OVEnc <b>IPPFAIL </b></div><table class=\"hapiPropertyTable\"><tbody><tr><td>Identifier</td><td>0fbb071658cdbe62eb7c50beae762e71</td></tr><tr><td>Date of birth</td><td><span>01 January 2007</span></td></tr></tbody></table></div>"
      },
      "extension": [ {
        "url": "http://hl7.org/fhir/us/core/StructureDefinition/us-core-race",
        "extension": [ {
          "url": "ombCategory",
          "valueCoding": {
            "system": "urn:oid:2.16.840.1.113883.6.238",
            "code": "1002-5",
            "display": "American Indian or Alaska Native",
            "userSelected": true
          }
        }, {
          "url": "text",
          "valueString": "American Indian or Alaska Native"
        } ]
      }, {
        "url": "http://hl7.org/fhir/us/core/StructureDefinition/us-core-ethnicity",
        "extension": [ {
          "url": "ombCategory",
          "valueCoding": {
            "system": "urn:oid:2.16.840.1.113883.6.238",
            "code": "2186-5",
            "display": "Not Hispanic or Latino",
            "userSelected": true
          }
        }, {
          "url": "text",
          "valueString": "Not Hispanic or Latino"
        } ]
      } ],
      "identifier": [ {
        "type": {
          "coding": [ {
            "system": "http://terminology.hl7.org/CodeSystem/v2-0203",
            "code": "MR"
          } ]
        },
        "system": "https://bonnie-fhir.healthit.gov/",
        "value": "6109650498086b538055a0d0"
      } ],
      "active": true,
      "name": [ {
        "use": "usual",
        "family": "IPFail",
        "given": [ "AgeUnder6WEnc" ]
      } ],
      "gender": "female",
      "birthDate": "2021-01-06"
    },
    "request": {
      "method": "PUT",
      "url": "Patient/70955eff-a715-4012-8212-dd03468cb783"
    }
  }, {
    "fullUrl": "https://madie.cms.gov/Encounter/c7453770-c1d2-423c-9f9c-08f4416d2fc9",
    "resource": {
      "resourceType": "Encounter",
      "id": "c7453770-c1d2-423c-9f9c-08f4416d2fc9",
      "status": "finished",
      "class": {
        "system": "http://terminology.hl7.org/CodeSystem/v3-ActCode",
        "code": "AMB",
        "display": "ambulatory",
        "userSelected": true
      },
      "type": [ {
        "coding": [ {
          "system": "http://www.ama-assn.org/go/cpt",
          "code": "99205"
        } ]
      } ],
      "subject": {
        "reference": "Patient/70955eff-a715-4012-8212-dd03468cb783"
      },
      "period": {
        "start": "2027-01-25T14:30:00.000+00:00",
        "end": "2027-01-25T15:17:00.000+00:00"
      },
      "reasonCode": [ {
        "coding": [ {
          "system": "http://hl7.org/fhir/sid/icd-10-cm",
          "code": "F32.0",
          "display": "Major depressive disorder, single episode, mild",
          "userSelected": true
        } ]
      } ],
      "diagnosis": [ {
        "condition": {
          "reference": "Condition/dbb851f3-e937-44f9-9f99-7b3671f7decf"
        },
        "use": {
          "coding": [ {
            "system": "http://snomed.info/sct",
            "version": "2022-09",
            "code": "10811161000119107",
            "display": "Major depressive disorder in mother complicating pregnancy (disorder)",
            "userSelected": true
          } ]
        }
      } ]
    },
    "request": {
      "method": "PUT",
      "url": "Encounter/c7453770-c1d2-423c-9f9c-08f4416d2fc9"
    }
  }, {
    "fullUrl": "https://madie.cms.gov/Condition/dbb851f3-e937-44f9-9f99-7b3671f7decf",
    "resource": {
      "resourceType": "Condition",
      "id": "dbb851f3-e937-44f9-9f99-7b3671f7decf",
      "category": [ {
        "coding": [ {
          "system": "http://terminology.hl7.org/CodeSystem/condition-category",
          "code": "encounter-diagnosis",
          "display": "Encounter Diagnosis"
        } ]
      } ],
      "code": {
        "coding": [ {
          "system": "http://snomed.info/sct",
          "version": "2022-09",
          "code": "10811121000119102",
          "display": "Major depressive disorder in mother complicating childbirth (disorder)",
          "userSelected": true
        } ]
      },
      "subject": {
        "reference": "Patient/70955eff-a715-4012-8212-dd03468cb783"
      },
      "recordedDate": "2027-01-25T14:30:00.000+00:00"
    },
    "request": {
      "method": "PUT",
      "url": "Condition/dbb851f3-e937-44f9-9f99-7b3671f7decf"
    }
  }, {
    "fullUrl": "https://madie.cms.gov/Coverage/8db83cc2-d415-40cf-96b6-575715c6a822",
    "resource": {
      "resourceType": "Coverage",
      "id": "8db83cc2-d415-40cf-96b6-575715c6a822",
      "status": "active",
      "type": {
        "coding": [ {
          "system": "http://www.nlm.nih.gov/research/umls/sop",
          "version": "9.2",
          "code": "1",
          "display": "MEDICARE",
          "userSelected": true
        } ]
      },
      "beneficiary": {
        "reference": "Patient/70955eff-a715-4012-8212-dd03468cb783"
      },
      "period": {
        "start": "2027-01-01T08:00:00.000+00:00",
        "end": "2027-03-29T08:15:00.000+00:00"
      },
      "payor": [ {
        "reference": "Organization/569628fc-dc89-4ca7-bf2c-10673f4a45f7"
      } ]
    },
    "request": {
      "method": "PUT",
      "url": "Coverage/8db83cc2-d415-40cf-96b6-575715c6a822"
    }
  }, {
    "fullUrl": "https://madie.cms.gov/Organization/569628fc-dc89-4ca7-bf2c-10673f4a45f7",
    "resource": {
      "resourceType": "Organization",
      "id": "569628fc-dc89-4ca7-bf2c-10673f4a45f7",
      "meta": {
        "profile": [ "http://hl7.org/fhir/us/qicore/StructureDefinition/qicore-organization" ]
      },
      "identifier": [ {
        "use": "temp",
        "system": "urn:oid:2.16.840.1.113883.4.4",
        "value": "21-3259825"
      } ],
      "active": true,
      "type": [ {
        "coding": [ {
          "system": "http://terminology.hl7.org/CodeSystem/organization-type",
          "code": "pay",
          "display": "Payer"
        } ]
      } ],
      "name": "Blue Cross Blue Shield of Texas",
      "telecom": [ {
        "system": "phone",
        "value": "(+1) 972-766-6900"
      } ],
      "address": [ {
        "use": "billing",
        "type": "postal",
        "line": [ "P.O. Box 660044" ],
        "city": "Dallas",
        "state": "TX",
        "postalCode": "75266-0044",
        "country": "USA"
      } ]
    },
    "request": {
      "method": "PUT",
      "url": "Organization/569628fc-dc89-4ca7-bf2c-10673f4a45f7"
    }
  }, {
    "fullUrl": "https://madie.cms.gov/Practitioner/2cc27fb1-54a8-4cea-88a7-67ed84f7c393",
    "resource": {
      "resourceType": "Practitioner",
      "id": "2cc27fb1-54a8-4cea-88a7-67ed84f7c393",
      "identifier": [ {
        "system": "http://hl7.org/fhir/sid/us-npi",
        "value": "123456"
      } ],
      "name": [ {
        "family": "Evil",
        "prefix": [ "Dr" ]
      } ]
    },
    "request": {
      "method": "PUT",
      "url": "Practitioner/2cc27fb1-54a8-4cea-88a7-67ed84f7c393"
    }
  }, {
    "fullUrl": "https://madie.cms.gov/MeasureReport/74258384-e3c5-4898-886a-b447ca2f0579",
    "resource": {
      "resourceType": "MeasureReport",
      "id": "74258384-e3c5-4898-886a-b447ca2f0579",
      "meta": {
        "profile": [ "http://hl7.org/fhir/us/cqfmeasures/StructureDefinition/test-case-cqfm" ]
      },
      "contained": [ {
        "resourceType": "Parameters",
        "id": "546fffc7-37bc-4ec3-8ca6-428072d31cc1-parameters",
        "parameter": [ {
          "name": "subject",
          "valueString": "70955eff-a715-4012-8212-dd03468cb783"
        } ]
      } ],
      "extension": [ {
        "url": "http://hl7.org/fhir/StructureDefinition/cqf-inputParameters",
        "valueReference": {
          "reference": "#546fffc7-37bc-4ec3-8ca6-428072d31cc1-parameters"
        }
      }, {
        "url": "http://hl7.org/fhir/us/cqfmeasures/StructureDefinition/cqfm-testCaseDescription",
        "valueMarkdown": "Patient is less that 6 years old with office visit encounter and depression diagnosis."
      } ],
      "modifierExtension": [ {
        "url": "http://hl7.org/fhir/us/cqfmeasures/StructureDefinition/cqfm-isTestCase",
        "valueBoolean": true
      } ],
      "status": "complete",
      "type": "individual",
      "measure": "https://madie.cms.gov/Measure/CMS177FHIRChildMDDSuicideAssmt",
      "period": {
        "start": "2026-01-01",
        "end": "2026-12-31"
      },
      "group": [ {
        "id": "Group_1",
        "population": [ {
          "id": "InitialPopulation_1",
          "code": {
            "coding": [ {
              "system": "http://terminology.hl7.org/CodeSystem/measure-population",
              "code": "initial-population",
              "display": "Initial Population"
            } ]
          },
          "count": 0
        }, {
          "id": "Denominator_1",
          "code": {
            "coding": [ {
              "system": "http://terminology.hl7.org/CodeSystem/measure-population",
              "code": "denominator",
              "display": "Denominator"
            } ]
          },
          "count": 0
        }, {
          "id": "Numerator_1",
          "code": {
            "coding": [ {
              "system": "http://terminology.hl7.org/CodeSystem/measure-population",
              "code": "numerator",
              "display": "Numerator"
            } ]
          },
          "count": 0
        } ],
        "measureScore": {
          "value": 0.0
        }
      } ],
      "evaluatedResource": [ {
        "reference": "Patient/70955eff-a715-4012-8212-dd03468cb783"
      }, {
        "reference": "Encounter/c7453770-c1d2-423c-9f9c-08f4416d2fc9"
      }, {
        "reference": "Condition/dbb851f3-e937-44f9-9f99-7b3671f7decf"
      }, {
        "reference": "Coverage/8db83cc2-d415-40cf-96b6-575715c6a822"
      }, {
        "reference": "Organization/569628fc-dc89-4ca7-bf2c-10673f4a45f7"
      }, {
        "reference": "Practitioner/2cc27fb1-54a8-4cea-88a7-67ed84f7c393"
      } ]
    },
    "request": {
      "method": "PUT",
      "url": "MeasureReport/74258384-e3c5-4898-886a-b447ca2f0579"
    }
  } ]
}