{
  "resourceType": "Bundle",
  "id": "63487c300968f801225401b6",
  "type": "transaction",
  "entry": [ {
    "fullUrl": "https://madie.cms.gov/Patient/c644afae-8da8-4ad7-bc4f-56fb79392497",
    "resource": {
      "resourceType": "Patient",
      "id": "c644afae-8da8-4ad7-bc4f-56fb79392497",
      "meta": {
        "profile": [ "http://hl7.org/fhir/us/qicore/StructureDefinition/qicore-patient" ]
      },
      "text": {
        "status": "generated",
        "div": "<div xmlns=\"http://www.w3.org/1999/xhtml\"><div class=\"hapiHeaderText\">AssessG2P1PreTerm0Term0 <b>DENPASS </b></div><table class=\"hapiPropertyTable\"><tbody><tr><td>Identifier</td><td>68ae6e24f0fface97c058e998841dc5fd1e621f11f5d5bc2aeef1a3a248ebc14</td></tr><tr><td>Date of birth</td><td><span>14 February 1985</span></td></tr></tbody></table></div>"
      },
      "extension": [ {
        "url": "http://hl7.org/fhir/us/core/StructureDefinition/us-core-race",
        "extension": [ {
          "url": "ombCategory",
          "valueCoding": {
            "system": "urn:oid:2.16.840.1.113883.6.238",
            "code": "1002-5",
            "display": "American Indian or Alaska Native",
            "userSelected": true
          }
        }, {
          "url": "text",
          "valueString": "American Indian or Alaska Native"
        } ]
      }, {
        "url": "http://hl7.org/fhir/us/core/StructureDefinition/us-core-ethnicity",
        "extension": [ {
          "url": "ombCategory",
          "valueCoding": {
            "system": "urn:oid:2.16.840.1.113883.6.238",
            "code": "2135-2",
            "display": "Hispanic or Latino",
            "userSelected": true
          }
        }, {
          "url": "text",
          "valueString": "Hispanic or Latino"
        } ]
      } ],
      "identifier": [ {
        "type": {
          "coding": [ {
            "system": "http://terminology.hl7.org/CodeSystem/v2-0203",
            "code": "MR"
          } ]
        },
        "system": "https://bonnie-fhir.healthit.gov/",
        "value": "63487c300968f801225401b6"
      } ],
      "active": true,
      "name": [ {
        "use": "usual",
        "family": "DENPass",
        "given": [ "AssessG2P1PreTerm0Term0" ]
      } ],
      "gender": "female",
      "birthDate": "1998-02-14"
    },
    "request": {
      "method": "PUT",
      "url": "Patient/c644afae-8da8-4ad7-bc4f-56fb79392497"
    }
  }, {
    "fullUrl": "https://madie.cms.gov/Observation/25e7ca78-6d20-4e06-bbda-a22d23f75165",
    "resource": {
      "resourceType": "Observation",
      "id": "25e7ca78-6d20-4e06-bbda-a22d23f75165",
      "meta": {
        "profile": [ "http://hl7.org/fhir/us/qicore/StructureDefinition/qicore-simple-observation" ]
      },
      "status": "final",
      "category": [ {
        "coding": [ {
          "system": "http://terminology.hl7.org/CodeSystem/observation-category",
          "code": "exam",
          "display": "exam",
          "userSelected": true
        } ]
      } ],
      "code": {
        "coding": [ {
          "system": "http://loinc.org",
          "code": "11639-2"
        } ]
      },
      "subject": {
        "reference": "Patient/c644afae-8da8-4ad7-bc4f-56fb79392497"
      },
      "effectiveDateTime": "2025-09-19T09:00:00.000+00:00",
      "valueInteger": 0
    },
    "request": {
      "method": "PUT",
      "url": "Observation/25e7ca78-6d20-4e06-bbda-a22d23f75165"
    }
  }, {
    "fullUrl": "https://madie.cms.gov/Observation/598ba67c-46d6-44c3-b257-b8eb941d8c9f",
    "resource": {
      "resourceType": "Observation",
      "id": "598ba67c-46d6-44c3-b257-b8eb941d8c9f",
      "meta": {
        "profile": [ "http://hl7.org/fhir/us/qicore/StructureDefinition/qicore-simple-observation" ]
      },
      "status": "final",
      "category": [ {
        "coding": [ {
          "system": "http://terminology.hl7.org/CodeSystem/observation-category",
          "code": "exam",
          "display": "exam",
          "userSelected": true
        } ]
      } ],
      "code": {
        "coding": [ {
          "system": "http://loinc.org",
          "code": "11637-6"
        } ]
      },
      "subject": {
        "reference": "Patient/c644afae-8da8-4ad7-bc4f-56fb79392497"
      },
      "effectiveDateTime": "2026-06-08T09:00:00.000+00:00",
      "valueInteger": 0
    },
    "request": {
      "method": "PUT",
      "url": "Observation/598ba67c-46d6-44c3-b257-b8eb941d8c9f"
    }
  }, {
    "fullUrl": "https://madie.cms.gov/Observation/f96eedfa-19bf-43ae-b5a3-53b2f349246d",
    "resource": {
      "resourceType": "Observation",
      "id": "f96eedfa-19bf-43ae-b5a3-53b2f349246d",
      "meta": {
        "profile": [ "http://hl7.org/fhir/us/qicore/StructureDefinition/qicore-simple-observation" ]
      },
      "status": "final",
      "category": [ {
        "coding": [ {
          "system": "http://terminology.hl7.org/CodeSystem/observation-category",
          "code": "exam",
          "display": "exam",
          "userSelected": true
        } ]
      } ],
      "code": {
        "coding": [ {
          "system": "http://loinc.org",
          "code": "11884-4"
        } ]
      },
      "subject": {
        "reference": "Patient/c644afae-8da8-4ad7-bc4f-56fb79392497"
      },
      "effectiveDateTime": "2026-06-08T20:00:00.000+00:00",
      "valueQuantity": {
        "value": 37,
        "system": "http://unitsofmeasure.org",
        "code": "wk"
      }
    },
    "request": {
      "method": "PUT",
      "url": "Observation/f96eedfa-19bf-43ae-b5a3-53b2f349246d"
    }
  }, {
    "fullUrl": "https://madie.cms.gov/Observation/c41ea8f9-0985-4670-a459-eaf5a6053bfe",
    "resource": {
      "resourceType": "Observation",
      "id": "c41ea8f9-0985-4670-a459-eaf5a6053bfe",
      "meta": {
        "profile": [ "http://hl7.org/fhir/us/qicore/StructureDefinition/qicore-simple-observation" ]
      },
      "status": "final",
      "category": [ {
        "coding": [ {
          "system": "http://terminology.hl7.org/CodeSystem/observation-category",
          "code": "exam",
          "display": "exam",
          "userSelected": true
        } ]
      } ],
      "code": {
        "coding": [ {
          "system": "http://loinc.org",
          "code": "93857-1"
        } ]
      },
      "subject": {
        "reference": "Patient/c644afae-8da8-4ad7-bc4f-56fb79392497"
      },
      "effectiveDateTime": "2026-06-08T20:00:00.000+00:00",
      "valueDateTime": "2026-06-08T20:00:00.000+00:00"
    },
    "request": {
      "method": "PUT",
      "url": "Observation/c41ea8f9-0985-4670-a459-eaf5a6053bfe"
    }
  }, {
    "fullUrl": "https://madie.cms.gov/Observation/cb0ac884-fbee-4845-b837-cac65b560aff",
    "resource": {
      "resourceType": "Observation",
      "id": "cb0ac884-fbee-4845-b837-cac65b560aff",
      "meta": {
        "profile": [ "http://hl7.org/fhir/us/qicore/StructureDefinition/qicore-simple-observation" ]
      },
      "status": "final",
      "category": [ {
        "coding": [ {
          "system": "http://terminology.hl7.org/CodeSystem/observation-category",
          "code": "exam",
          "display": "exam",
          "userSelected": true
        } ]
      } ],
      "code": {
        "coding": [ {
          "system": "http://loinc.org",
          "code": "11996-6"
        } ]
      },
      "subject": {
        "reference": "Patient/c644afae-8da8-4ad7-bc4f-56fb79392497"
      },
      "effectiveDateTime": "2026-06-08T08:00:00.000+00:00",
      "valueInteger": 2
    },
    "request": {
      "method": "PUT",
      "url": "Observation/cb0ac884-fbee-4845-b837-cac65b560aff"
    }
  }, {
    "fullUrl": "https://madie.cms.gov/Observation/2888ac92-4c0d-409c-930f-881ff3987ccc",
    "resource": {
      "resourceType": "Observation",
      "id": "2888ac92-4c0d-409c-930f-881ff3987ccc",
      "meta": {
        "profile": [ "http://hl7.org/fhir/us/qicore/StructureDefinition/qicore-simple-observation" ]
      },
      "status": "final",
      "category": [ {
        "coding": [ {
          "system": "http://terminology.hl7.org/CodeSystem/observation-category",
          "code": "exam",
          "display": "exam",
          "userSelected": true
        } ]
      } ],
      "code": {
        "coding": [ {
          "system": "http://loinc.org",
          "code": "11977-6"
        } ]
      },
      "subject": {
        "reference": "Patient/c644afae-8da8-4ad7-bc4f-56fb79392497"
      },
      "effectiveDateTime": "2026-06-08T08:00:00.000+00:00",
      "valueInteger": 1
    },
    "request": {
      "method": "PUT",
      "url": "Observation/2888ac92-4c0d-409c-930f-881ff3987ccc"
    }
  }, {
    "fullUrl": "https://madie.cms.gov/Encounter/c6022517-8c5d-49dd-ae33-7e5d35687349",
    "resource": {
      "resourceType": "Encounter",
      "id": "c6022517-8c5d-49dd-ae33-7e5d35687349",
      "meta": {
        "profile": [ "http://hl7.org/fhir/us/qicore/StructureDefinition/qicore-encounter" ]
      },
      "status": "finished",
      "class": {
        "system": "http://terminology.hl7.org/CodeSystem/v3-ActCode",
        "code": "IMP",
        "display": "inpatient encounter"
      },
      "type": [ {
        "coding": [ {
          "system": "http://snomed.info/sct",
          "code": "8715000"
        } ]
      } ],
      "subject": {
        "reference": "Patient/c644afae-8da8-4ad7-bc4f-56fb79392497"
      },
      "period": {
        "start": "2026-06-08T08:00:00.000+00:00",
        "end": "2026-06-10T08:15:00.000+00:00"
      },
      "length": {
        "value": 2,
        "unit": "days"
      },
      "reasonReference": [ {
        "reference": "Condition/2e428e44-c04f-41b4-ad7d-e3b875d6e6a3"
      } ]
    },
    "request": {
      "method": "PUT",
      "url": "Encounter/c6022517-8c5d-49dd-ae33-7e5d35687349"
    }
  }, {
    "fullUrl": "https://madie.cms.gov/Coverage/5f5f9e531c76ba674bb033c4",
    "resource": {
      "resourceType": "Coverage",
      "id": "5f5f9e531c76ba674bb033c4",
      "meta": {
        "profile": [ "http://hl7.org/fhir/us/qicore/StructureDefinition/qicore-coverage" ]
      },
      "status": "active",
      "subscriberId": "523435",
      "beneficiary": {
        "reference": "Patient/c644afae-8da8-4ad7-bc4f-56fb79392497"
      },
      "relationship": {
        "coding": [ {
          "system": "http://terminology.hl7.org/CodeSystem/subscriber-relationship",
          "code": "self"
        } ]
      },
      "period": {
        "start": "1986-02-14T08:00:00.000+00:00"
      },
      "payor": [ {
        "reference": "Organization/b7b73c42-b99a-461e-9808-f6057918af4f"
      } ]
    },
    "request": {
      "method": "PUT",
      "url": "Coverage/5f5f9e531c76ba674bb033c4"
    }
  }, {
    "fullUrl": "https://madie.cms.gov/Procedure/528dc05d-c949-4e4a-92c5-223bc3c63ead",
    "resource": {
      "resourceType": "Procedure",
      "id": "528dc05d-c949-4e4a-92c5-223bc3c63ead",
      "meta": {
        "profile": [ "http://hl7.org/fhir/us/qicore/StructureDefinition/qicore-procedure" ]
      },
      "extension": [ {
        "url": "http://hl7.org/fhir/us/qicore/StructureDefinition/qicore-recorded",
        "valueDateTime": "2014-04-05T13:35:00.000+00:00"
      } ],
      "status": "completed",
      "code": {
        "coding": [ {
          "system": "http://www.cms.gov/Medicare/Coding/ICD10",
          "code": "10D00Z0"
        }, {
          "system": "http://snomed.info/sct",
          "code": "4504004"
        } ]
      },
      "subject": {
        "reference": "Patient/c644afae-8da8-4ad7-bc4f-56fb79392497"
      },
      "performedPeriod": {
        "start": "2026-06-08T20:00:00.000+00:00",
        "end": "2026-06-08T20:15:00.000+00:00"
      }
    },
    "request": {
      "method": "PUT",
      "url": "Procedure/528dc05d-c949-4e4a-92c5-223bc3c63ead"
    }
  }, {
    "fullUrl": "https://madie.cms.gov/Condition/2e428e44-c04f-41b4-ad7d-e3b875d6e6a3",
    "resource": {
      "resourceType": "Condition",
      "id": "2e428e44-c04f-41b4-ad7d-e3b875d6e6a3",
      "meta": {
        "profile": [ "http://hl7.org/fhir/us/qicore/StructureDefinition/qicore-condition-encounter-diagnosis" ]
      },
      "category": [ {
        "coding": [ {
          "system": "http://terminology.hl7.org/CodeSystem/condition-category",
          "code": "encounter-diagnosis",
          "display": "Encounter Diagnosis"
        } ]
      } ],
      "code": {
        "coding": [ {
          "system": "http://snomed.info/sct",
          "version": "2022-09",
          "code": "169826009",
          "display": "Single live birth from singleton pregnancy (finding)",
          "userSelected": true
        } ]
      },
      "subject": {
        "reference": "Patient/c644afae-8da8-4ad7-bc4f-56fb79392497"
      },
      "encounter": {
        "reference": "Encounter/c6022517-8c5d-49dd-ae33-7e5d35687349"
      },
      "recordedDate": "2026-10-18T08:00:00.000+00:00"
    },
    "request": {
      "method": "PUT",
      "url": "Condition/2e428e44-c04f-41b4-ad7d-e3b875d6e6a3"
    }
  }, {
    "fullUrl": "https://madie.cms.gov/Organization/b7b73c42-b99a-461e-9808-f6057918af4f",
    "resource": {
      "resourceType": "Organization",
      "id": "b7b73c42-b99a-461e-9808-f6057918af4f",
      "meta": {
        "profile": [ "http://hl7.org/fhir/us/qicore/StructureDefinition/qicore-organization" ]
      },
      "identifier": [ {
        "use": "temp",
        "system": "urn:oid:2.16.840.1.113883.4.4",
        "value": "21-3259825"
      } ],
      "active": true,
      "type": [ {
        "coding": [ {
          "system": "http://terminology.hl7.org/CodeSystem/organization-type",
          "code": "pay",
          "display": "Payer"
        } ]
      } ],
      "name": "Blue Cross Blue Shield of Texas",
      "telecom": [ {
        "system": "phone",
        "value": "(+1) 972-766-6900"
      } ],
      "address": [ {
        "use": "billing",
        "type": "postal",
        "line": [ "P.O. Box 660044" ],
        "city": "Dallas",
        "state": "TX",
        "postalCode": "75266-0044",
        "country": "USA"
      } ]
    },
    "request": {
      "method": "PUT",
      "url": "Organization/b7b73c42-b99a-461e-9808-f6057918af4f"
    }
  }, {
    "fullUrl": "https://madie.cms.gov/Practitioner/1a85f059-ce99-4d9f-bc73-b510b3f264bd",
    "resource": {
      "resourceType": "Practitioner",
      "id": "1a85f059-ce99-4d9f-bc73-b510b3f264bd",
      "meta": {
        "profile": [ "http://hl7.org/fhir/us/qicore/StructureDefinition/qicore-practitioner" ]
      },
      "identifier": [ {
        "system": "http://hl7.org/fhir/sid/us-npi",
        "value": "1234567890"
      } ],
      "name": [ {
        "family": "Evil",
        "prefix": [ "Dr" ]
      } ]
    },
    "request": {
      "method": "PUT",
      "url": "Practitioner/1a85f059-ce99-4d9f-bc73-b510b3f264bd"
    }
  }, {
    "fullUrl": "https://madie.cms.gov/MeasureReport/98cec88d-ae4a-4ae2-b24a-105274bc95d2",
    "resource": {
      "resourceType": "MeasureReport",
      "id": "98cec88d-ae4a-4ae2-b24a-105274bc95d2",
      "meta": {
        "profile": [ "http://hl7.org/fhir/us/cqfmeasures/StructureDefinition/test-case-cqfm" ]
      },
      "contained": [ {
        "resourceType": "Parameters",
        "id": "ba981c1a-9c35-4291-814e-8b4d76152e0d-parameters",
        "parameter": [ {
          "name": "subject",
          "valueString": "c644afae-8da8-4ad7-bc4f-56fb79392497"
        } ]
      } ],
      "extension": [ {
        "url": "http://hl7.org/fhir/StructureDefinition/cqf-inputParameters",
        "valueReference": {
          "reference": "#ba981c1a-9c35-4291-814e-8b4d76152e0d-parameters"
        }
      }, {
        "url": "http://hl7.org/fhir/us/cqfmeasures/StructureDefinition/cqfm-testCaseDescription",
        "valueMarkdown": "\"Preterm Births=0, relevant date/time before Asse delivery datetime\nTerm Newborn=0, authored < 42weeks prior to Asse delivery, P2, G1\"\n"
      } ],
      "modifierExtension": [ {
        "url": "http://hl7.org/fhir/us/cqfmeasures/StructureDefinition/cqfm-isTestCase",
        "valueBoolean": true
      } ],
      "status": "complete",
      "type": "individual",
      "measure": "https://madie.cms.gov/Measure/CMS0334FHIRPCCesareanBirth",
      "period": {
        "start": "2026-01-01",
        "end": "2026-12-31"
      },
      "group": [ {
        "id": "Group_1",
        "population": [ {
          "id": "InitialPopulation_1",
          "code": {
            "coding": [ {
              "system": "http://terminology.hl7.org/CodeSystem/measure-population",
              "code": "initial-population",
              "display": "Initial Population"
            } ]
          },
          "count": 1
        }, {
          "id": "Denominator_1",
          "code": {
            "coding": [ {
              "system": "http://terminology.hl7.org/CodeSystem/measure-population",
              "code": "denominator",
              "display": "Denominator"
            } ]
          },
          "count": 1
        }, {
          "id": "DenominatorExclusion_1",
          "code": {
            "coding": [ {
              "system": "http://terminology.hl7.org/CodeSystem/measure-population",
              "code": "denominator-exclusion",
              "display": "Denominator Exclusion"
            } ]
          },
          "count": 0
        }, {
          "id": "Numerator_1",
          "code": {
            "coding": [ {
              "system": "http://terminology.hl7.org/CodeSystem/measure-population",
              "code": "numerator",
              "display": "Numerator"
            } ]
          },
          "count": 1
        } ],
        "measureScore": {
          "value": 0.0
        }
      } ],
      "evaluatedResource": [ {
        "reference": "Patient/c644afae-8da8-4ad7-bc4f-56fb79392497"
      }, {
        "reference": "Observation/25e7ca78-6d20-4e06-bbda-a22d23f75165"
      }, {
        "reference": "Observation/598ba67c-46d6-44c3-b257-b8eb941d8c9f"
      }, {
        "reference": "Observation/f96eedfa-19bf-43ae-b5a3-53b2f349246d"
      }, {
        "reference": "Observation/c41ea8f9-0985-4670-a459-eaf5a6053bfe"
      }, {
        "reference": "Observation/cb0ac884-fbee-4845-b837-cac65b560aff"
      }, {
        "reference": "Observation/2888ac92-4c0d-409c-930f-881ff3987ccc"
      }, {
        "reference": "Encounter/c6022517-8c5d-49dd-ae33-7e5d35687349"
      }, {
        "reference": "Coverage/5f5f9e531c76ba674bb033c4"
      }, {
        "reference": "Procedure/528dc05d-c949-4e4a-92c5-223bc3c63ead"
      }, {
        "reference": "Condition/2e428e44-c04f-41b4-ad7d-e3b875d6e6a3"
      }, {
        "reference": "Organization/b7b73c42-b99a-461e-9808-f6057918af4f"
      }, {
        "reference": "Practitioner/1a85f059-ce99-4d9f-bc73-b510b3f264bd"
      } ]
    },
    "request": {
      "method": "PUT",
      "url": "MeasureReport/98cec88d-ae4a-4ae2-b24a-105274bc95d2"
    }
  } ]
}