{
  "resourceType": "Bundle",
  "id": "62fbef57bf5132f90ee35d41",
  "type": "collection",
  "entry": [ {
    "fullUrl": "https://madie.cms.gov/Patient/ca6deaeb-459d-4d1a-9daf-e454ff76a6f0",
    "resource": {
      "resourceType": "Patient",
      "id": "ca6deaeb-459d-4d1a-9daf-e454ff76a6f0",
      "meta": {
        "profile": [ "http://hl7.org/fhir/us/qicore/StructureDefinition/qicore-patient" ]
      },
      "extension": [ {
        "url": "http://hl7.org/fhir/us/core/StructureDefinition/us-core-race",
        "extension": [ {
          "url": "ombCategory",
          "valueCoding": {
            "system": "urn:oid:2.16.840.1.113883.6.238",
            "code": "2106-3",
            "display": "White",
            "userSelected": true
          }
        }, {
          "url": "text",
          "valueString": "White"
        } ]
      }, {
        "url": "http://hl7.org/fhir/us/core/StructureDefinition/us-core-ethnicity",
        "extension": [ {
          "url": "ombCategory",
          "valueCoding": {
            "system": "urn:oid:2.16.840.1.113883.6.238",
            "code": "2186-5",
            "display": "Not Hispanic or Latino",
            "userSelected": true
          }
        }, {
          "url": "text",
          "valueString": "Not Hispanic or Latino"
        } ]
      } ],
      "identifier": [ {
        "type": {
          "coding": [ {
            "system": "http://terminology.hl7.org/CodeSystem/v2-0203",
            "code": "MR"
          } ]
        },
        "system": "https://bonnie-fhir.healthit.gov/",
        "value": "62fbef57bf5132f90ee35d41"
      } ],
      "name": [ {
        "family": "DENEXPass",
        "given": [ "HospiceCondition" ]
      } ],
      "gender": "unknown",
      "birthDate": "1957-11-07"
    }
  }, {
    "fullUrl": "https://madie.cms.gov/Encounter/f0d7bdf3-4a50-4b6b-a34c-44c74c53567b",
    "resource": {
      "resourceType": "Encounter",
      "id": "f0d7bdf3-4a50-4b6b-a34c-44c74c53567b",
      "meta": {
        "profile": [ "http://hl7.org/fhir/us/qicore/StructureDefinition/qicore-encounter" ]
      },
      "status": "finished",
      "class": {
        "system": "http://terminology.hl7.org/CodeSystem/v3-ActCode",
        "code": "AMB",
        "display": "ambulatory"
      },
      "type": [ {
        "coding": [ {
          "system": "http://snomed.info/sct",
          "code": "10197000",
          "display": "Psychiatric interview and evaluation (procedure)",
          "userSelected": true
        } ]
      } ],
      "subject": {
        "reference": "Patient/ca6deaeb-459d-4d1a-9daf-e454ff76a6f0"
      },
      "period": {
        "start": "2026-12-31T23:30:00.000+00:00",
        "end": "2026-12-31T23:59:00.000+00:00"
      }
    }
  }, {
    "fullUrl": "https://madie.cms.gov/Procedure/c7197dae-b248-497c-aa20-5cfc43b3f7eb",
    "resource": {
      "resourceType": "Procedure",
      "id": "c7197dae-b248-497c-aa20-5cfc43b3f7eb",
      "meta": {
        "profile": [ "http://hl7.org/fhir/us/qicore/StructureDefinition/qicore-procedure" ]
      },
      "extension": [ {
        "url": "http://hl7.org/fhir/us/qicore/StructureDefinition/qicore-recorded",
        "valueDateTime": "2026-12-31T23:59:00.000+00:00"
      } ],
      "status": "completed",
      "code": {
        "coding": [ {
          "system": "http://snomed.info/sct",
          "code": "182922004",
          "display": "Dietary regime (regime/therapy)",
          "userSelected": true
        } ]
      },
      "subject": {
        "reference": "Patient/ca6deaeb-459d-4d1a-9daf-e454ff76a6f0"
      },
      "performedDateTime": "2026-12-31T23:59:00.000+00:00"
    }
  }, {
    "fullUrl": "https://madie.cms.gov/Condition/329e0cec-664a-4d16-9af7-0be2da61a652",
    "resource": {
      "resourceType": "Condition",
      "id": "329e0cec-664a-4d16-9af7-0be2da61a652",
      "meta": {
        "profile": [ "http://hl7.org/fhir/us/qicore/StructureDefinition/qicore-condition-encounter-diagnosis" ]
      },
      "clinicalStatus": {
        "coding": [ {
          "system": "http://terminology.hl7.org/CodeSystem/condition-clinical",
          "code": "active",
          "display": "Active",
          "userSelected": true
        } ]
      },
      "category": [ {
        "coding": [ {
          "system": "http://terminology.hl7.org/CodeSystem/condition-category",
          "code": "encounter-diagnosis",
          "display": "Encounter Diagnosis"
        }, {
          "system": "http://snomed.info/sct",
          "code": "439401001",
          "display": "Diagnosis"
        } ]
      } ],
      "code": {
        "coding": [ {
          "system": "http://snomed.info/sct",
          "code": "170936009",
          "display": "Shared care - hospice and general practitioner (finding)",
          "userSelected": true
        } ]
      },
      "subject": {
        "reference": "Patient/ca6deaeb-459d-4d1a-9daf-e454ff76a6f0"
      },
      "onsetDateTime": "2024-07-25T08:00:00.000+00:00"
    }
  }, {
    "fullUrl": "https://madie.cms.gov/Coverage/ad0efaad-a02d-4cfa-ad3c-020b943981fe",
    "resource": {
      "resourceType": "Coverage",
      "id": "ad0efaad-a02d-4cfa-ad3c-020b943981fe",
      "meta": {
        "profile": [ "http://hl7.org/fhir/us/qicore/StructureDefinition/qicore-coverage" ]
      },
      "status": "active",
      "subscriberId": "123456",
      "beneficiary": {
        "reference": "Patient/ca6deaeb-459d-4d1a-9daf-e454ff76a6f0"
      },
      "relationship": {
        "coding": [ {
          "system": "http://terminology.hl7.org/CodeSystem/subscriber-relationship",
          "code": "self",
          "display": "Self",
          "userSelected": true
        } ]
      },
      "payor": [ {
        "reference": "Organization/2c691e73-3c61-491e-8a39-ca1bb37bb589"
      } ]
    }
  }, {
    "fullUrl": "https://madie.cms.gov/Organization/2c691e73-3c61-491e-8a39-ca1bb37bb589",
    "resource": {
      "resourceType": "Organization",
      "id": "2c691e73-3c61-491e-8a39-ca1bb37bb589",
      "meta": {
        "profile": [ "http://hl7.org/fhir/us/qicore/StructureDefinition/qicore-organization" ]
      },
      "identifier": [ {
        "use": "temp",
        "system": "urn:oid:2.16.840.1.113883.4.4",
        "value": "21-3259825"
      } ],
      "active": true,
      "type": [ {
        "coding": [ {
          "system": "http://terminology.hl7.org/CodeSystem/organization-type",
          "code": "pay",
          "display": "Payer"
        } ]
      } ],
      "name": "Blue Cross Blue Shield of Texas",
      "telecom": [ {
        "system": "phone",
        "value": "(+1) 972-766-6900"
      } ],
      "address": [ {
        "use": "billing",
        "type": "postal",
        "line": [ "P.O. Box 660044" ],
        "city": "Dallas",
        "state": "TX",
        "postalCode": "75266-0044",
        "country": "USA"
      } ]
    }
  }, {
    "fullUrl": "https://madie.cms.gov/MeasureReport/728faa06-3efd-4d80-bcbe-f4c7217e36fb",
    "resource": {
      "resourceType": "MeasureReport",
      "id": "728faa06-3efd-4d80-bcbe-f4c7217e36fb",
      "meta": {
        "profile": [ "http://hl7.org/fhir/us/cqfmeasures/StructureDefinition/test-case-cqfm" ]
      },
      "contained": [ {
        "resourceType": "Parameters",
        "id": "6c983ed7-e606-4539-b6e4-eeccba5c5806-parameters",
        "parameter": [ {
          "name": "subject",
          "valueString": "ca6deaeb-459d-4d1a-9daf-e454ff76a6f0"
        } ]
      } ],
      "extension": [ {
        "url": "http://hl7.org/fhir/StructureDefinition/cqf-inputParameters",
        "valueReference": {
          "reference": "#6c983ed7-e606-4539-b6e4-eeccba5c5806-parameters"
        }
      }, {
        "url": "http://hl7.org/fhir/us/cqfmeasures/StructureDefinition/cqfm-testCaseDescription",
        "valueMarkdown": "Enc last day of MP, pt has hospice condition"
      } ],
      "modifierExtension": [ {
        "url": "http://hl7.org/fhir/us/cqfmeasures/StructureDefinition/cqfm-isTestCase",
        "valueBoolean": true
      } ],
      "status": "complete",
      "type": "individual",
      "measure": "https://madie.cms.gov/Measure/CMS69FHIRPCSBMIScreenAndFollowUp",
      "period": {
        "start": "2026-01-01",
        "end": "2026-12-31"
      },
      "group": [ {
        "id": "Group_1",
        "population": [ {
          "id": "InitialPopulation_1",
          "code": {
            "coding": [ {
              "system": "http://terminology.hl7.org/CodeSystem/measure-population",
              "code": "initial-population",
              "display": "Initial Population"
            } ]
          },
          "count": 1
        }, {
          "id": "Denominator_1",
          "code": {
            "coding": [ {
              "system": "http://terminology.hl7.org/CodeSystem/measure-population",
              "code": "denominator",
              "display": "Denominator"
            } ]
          },
          "count": 1
        }, {
          "id": "DenominatorExclusion_1",
          "code": {
            "coding": [ {
              "system": "http://terminology.hl7.org/CodeSystem/measure-population",
              "code": "denominator-exclusion",
              "display": "Denominator Exclusion"
            } ]
          },
          "count": 1
        }, {
          "id": "Numerator_1",
          "code": {
            "coding": [ {
              "system": "http://terminology.hl7.org/CodeSystem/measure-population",
              "code": "numerator",
              "display": "Numerator"
            } ]
          },
          "count": 0
        }, {
          "id": "DenominatorException_1",
          "code": {
            "coding": [ {
              "system": "http://terminology.hl7.org/CodeSystem/measure-population",
              "code": "denominator-exception",
              "display": "Denominator Exception"
            } ]
          },
          "count": 0
        } ],
        "measureScore": {
          "value": 1.0
        }
      } ],
      "evaluatedResource": [ {
        "reference": "Patient/ca6deaeb-459d-4d1a-9daf-e454ff76a6f0"
      }, {
        "reference": "Encounter/f0d7bdf3-4a50-4b6b-a34c-44c74c53567b"
      }, {
        "reference": "Procedure/c7197dae-b248-497c-aa20-5cfc43b3f7eb"
      }, {
        "reference": "Condition/329e0cec-664a-4d16-9af7-0be2da61a652"
      }, {
        "reference": "Coverage/ad0efaad-a02d-4cfa-ad3c-020b943981fe"
      }, {
        "reference": "Organization/2c691e73-3c61-491e-8a39-ca1bb37bb589"
      } ]
    }
  } ]
}