{
  "resourceType": "Bundle",
  "id": "63487c2f0968f8012254019f",
  "type": "transaction",
  "entry": [ {
    "fullUrl": "https://madie.cms.gov/Patient/c7cb1c01-711f-4c40-8242-5828e7ed7807",
    "resource": {
      "resourceType": "Patient",
      "id": "c7cb1c01-711f-4c40-8242-5828e7ed7807",
      "meta": {
        "profile": [ "http://hl7.org/fhir/us/qicore/StructureDefinition/qicore-patient" ]
      },
      "text": {
        "status": "generated",
        "div": "<div xmlns=\"http://www.w3.org/1999/xhtml\"><div class=\"hapiHeaderText\">CalcEGA36Weeks6Days<b>DENOMFail</b></div><table class=\"hapiPropertyTable\"><tbody><tr><td>Identifier</td><td>c6b51506d3a7092894a3f06af44f7ab397fd257a35f97f16644057feff48ec70</td></tr><tr><td>Date of birth</td><td><span>14 February 1985</span></td></tr></tbody></table></div>"
      },
      "extension": [ {
        "url": "http://hl7.org/fhir/us/core/StructureDefinition/us-core-race",
        "extension": [ {
          "url": "ombCategory",
          "valueCoding": {
            "system": "urn:oid:2.16.840.1.113883.6.238",
            "code": "1002-5",
            "display": "American Indian or Alaska Native",
            "userSelected": true
          }
        }, {
          "url": "text",
          "valueString": "American Indian or Alaska Native"
        } ]
      }, {
        "url": "http://hl7.org/fhir/us/core/StructureDefinition/us-core-ethnicity",
        "extension": [ {
          "url": "ombCategory",
          "valueCoding": {
            "system": "urn:oid:2.16.840.1.113883.6.238",
            "code": "2135-2",
            "display": "Hispanic or Latino",
            "userSelected": true
          }
        }, {
          "url": "text",
          "valueString": "Hispanic or Latino"
        } ]
      } ],
      "identifier": [ {
        "type": {
          "coding": [ {
            "system": "http://terminology.hl7.org/CodeSystem/v2-0203",
            "code": "MR"
          } ]
        },
        "system": "https://bonnie-fhir.healthit.gov/",
        "value": "63487c2f0968f8012254019f"
      } ],
      "active": true,
      "name": [ {
        "use": "usual",
        "family": "DENOMFail",
        "given": [ "CalcEGA36Weeks6Days" ]
      } ],
      "gender": "female",
      "birthDate": "1998-02-14"
    },
    "request": {
      "method": "PUT",
      "url": "Patient/c7cb1c01-711f-4c40-8242-5828e7ed7807"
    }
  }, {
    "fullUrl": "https://madie.cms.gov/Observation/9d027a17-f834-4689-9353-cb3569959f9c",
    "resource": {
      "resourceType": "Observation",
      "id": "9d027a17-f834-4689-9353-cb3569959f9c",
      "meta": {
        "profile": [ "http://hl7.org/fhir/us/qicore/StructureDefinition/qicore-simple-observation" ]
      },
      "status": "final",
      "category": [ {
        "coding": [ {
          "system": "http://terminology.hl7.org/CodeSystem/observation-category",
          "code": "exam",
          "display": "exam",
          "userSelected": true
        } ]
      } ],
      "code": {
        "coding": [ {
          "system": "http://loinc.org",
          "code": "11996-6"
        } ]
      },
      "subject": {
        "reference": "Patient/c7cb1c01-711f-4c40-8242-5828e7ed7807"
      },
      "effectiveDateTime": "2025-08-19T19:00:00.000+00:00",
      "performer": [ {
        "reference": "Organization/example1",
        "display": "Hendricks Country Hospital"
      } ],
      "valueInteger": 1
    },
    "request": {
      "method": "PUT",
      "url": "Observation/9d027a17-f834-4689-9353-cb3569959f9c"
    }
  }, {
    "fullUrl": "https://madie.cms.gov/Observation/5b8ece31-b25b-4a76-b6ee-3c419089db74",
    "resource": {
      "resourceType": "Observation",
      "id": "5b8ece31-b25b-4a76-b6ee-3c419089db74",
      "meta": {
        "profile": [ "http://hl7.org/fhir/us/qicore/StructureDefinition/qicore-simple-observation" ]
      },
      "status": "final",
      "category": [ {
        "coding": [ {
          "system": "http://terminology.hl7.org/CodeSystem/observation-category",
          "code": "exam",
          "display": "exam",
          "userSelected": true
        } ]
      } ],
      "code": {
        "coding": [ {
          "system": "http://loinc.org",
          "code": "93857-1"
        } ]
      },
      "subject": {
        "reference": "Patient/c7cb1c01-711f-4c40-8242-5828e7ed7807"
      },
      "effectiveDateTime": "2026-01-15T19:00:00.000+00:00",
      "performer": [ {
        "reference": "Organization/example1",
        "display": "Hendricks Country Hospital"
      } ],
      "valueDateTime": "2026-01-15T19:00:00.000+00:00"
    },
    "request": {
      "method": "PUT",
      "url": "Observation/5b8ece31-b25b-4a76-b6ee-3c419089db74"
    }
  }, {
    "fullUrl": "https://madie.cms.gov/Observation/e5197221-dce8-425f-bc07-9a9433f11f7a",
    "resource": {
      "resourceType": "Observation",
      "id": "e5197221-dce8-425f-bc07-9a9433f11f7a",
      "meta": {
        "profile": [ "http://hl7.org/fhir/us/qicore/StructureDefinition/qicore-simple-observation" ]
      },
      "status": "final",
      "category": [ {
        "coding": [ {
          "system": "http://terminology.hl7.org/CodeSystem/observation-category",
          "code": "exam",
          "display": "exam",
          "userSelected": true
        } ]
      } ],
      "code": {
        "coding": [ {
          "system": "http://loinc.org",
          "code": "11778-8"
        } ]
      },
      "subject": {
        "reference": "Patient/c7cb1c01-711f-4c40-8242-5828e7ed7807"
      },
      "effectiveDateTime": "2026-01-15T19:00:00.000+00:00",
      "performer": [ {
        "reference": "Organization/example1",
        "display": "Hendricks Country Hospital"
      } ],
      "valueDateTime": "2026-02-06T08:00:00.000+00:00"
    },
    "request": {
      "method": "PUT",
      "url": "Observation/e5197221-dce8-425f-bc07-9a9433f11f7a"
    }
  }, {
    "fullUrl": "https://madie.cms.gov/Encounter/092b7791-5d9b-4c0b-afeb-17c4a37d1465",
    "resource": {
      "resourceType": "Encounter",
      "id": "092b7791-5d9b-4c0b-afeb-17c4a37d1465",
      "meta": {
        "profile": [ "http://hl7.org/fhir/us/qicore/StructureDefinition/qicore-encounter" ]
      },
      "status": "finished",
      "class": {
        "system": "http://terminology.hl7.org/CodeSystem/v3-ActCode",
        "code": "IMP",
        "display": "inpatient encounter"
      },
      "type": [ {
        "coding": [ {
          "system": "http://snomed.info/sct",
          "code": "183452005"
        } ]
      } ],
      "subject": {
        "reference": "Patient/c7cb1c01-711f-4c40-8242-5828e7ed7807"
      },
      "period": {
        "start": "2026-01-15T08:00:00.000+00:00",
        "end": "2026-01-20T08:15:00.000+00:00"
      },
      "length": {
        "value": 2,
        "unit": "days"
      },
      "reasonCode": [ {
        "coding": [ {
          "system": "http://snomed.info/sct",
          "code": "169826009",
          "display": "Single live birth from singleton pregnancy (finding)"
        } ]
      } ]
    },
    "request": {
      "method": "PUT",
      "url": "Encounter/092b7791-5d9b-4c0b-afeb-17c4a37d1465"
    }
  }, {
    "fullUrl": "https://madie.cms.gov/Procedure/a204434b-5a40-41cd-9816-6e1778fd1e2c",
    "resource": {
      "resourceType": "Procedure",
      "id": "a204434b-5a40-41cd-9816-6e1778fd1e2c",
      "meta": {
        "profile": [ "http://hl7.org/fhir/us/qicore/StructureDefinition/qicore-procedure" ]
      },
      "extension": [ {
        "url": "http://hl7.org/fhir/us/qicore/StructureDefinition/qicore-recorded",
        "valueDateTime": "2014-04-05T13:35:00.000+00:00"
      } ],
      "status": "completed",
      "code": {
        "coding": [ {
          "system": "http://www.cms.gov/Medicare/Coding/ICD10",
          "code": "10D07Z3"
        } ]
      },
      "subject": {
        "reference": "Patient/c7cb1c01-711f-4c40-8242-5828e7ed7807"
      },
      "performedPeriod": {
        "start": "2026-01-15T08:10:00.000+00:00",
        "end": "2026-01-15T09:14:00.000+00:00"
      }
    },
    "request": {
      "method": "PUT",
      "url": "Procedure/a204434b-5a40-41cd-9816-6e1778fd1e2c"
    }
  }, {
    "fullUrl": "https://madie.cms.gov/Condition/401ef97b-afcb-4957-ab49-f48ee5293695",
    "resource": {
      "resourceType": "Condition",
      "id": "401ef97b-afcb-4957-ab49-f48ee5293695",
      "meta": {
        "profile": [ "http://hl7.org/fhir/us/qicore/StructureDefinition/qicore-condition" ]
      },
      "category": [ {
        "coding": [ {
          "system": "http://terminology.hl7.org/CodeSystem/condition-category",
          "code": "encounter-diagnosis",
          "display": "Encounter Diagnosis"
        } ]
      } ],
      "code": {
        "coding": [ {
          "system": "http://snomed.info/sct",
          "version": "2022-09",
          "code": "169826009",
          "display": "Single live birth (finding)",
          "userSelected": true
        } ]
      },
      "subject": {
        "reference": "Patient/c7cb1c01-711f-4c40-8242-5828e7ed7807"
      },
      "recordedDate": "2026-10-21T08:00:00.000+00:00"
    },
    "request": {
      "method": "PUT",
      "url": "Condition/401ef97b-afcb-4957-ab49-f48ee5293695"
    }
  }, {
    "fullUrl": "https://madie.cms.gov/Coverage/db330d5f-ab05-4502-8919-e716021f6cd2",
    "resource": {
      "resourceType": "Coverage",
      "id": "db330d5f-ab05-4502-8919-e716021f6cd2",
      "meta": {
        "profile": [ "http://hl7.org/fhir/us/qicore/StructureDefinition/qicore-coverage" ]
      },
      "status": "active",
      "subscriberId": "523435",
      "beneficiary": {
        "reference": "Patient/c7cb1c01-711f-4c40-8242-5828e7ed7807"
      },
      "relationship": {
        "coding": [ {
          "system": "http://terminology.hl7.org/CodeSystem/subscriber-relationship",
          "code": "self"
        } ]
      },
      "payor": [ {
        "reference": "Organization/817b6be3-14c0-43ef-ac42-3dc9f4d579e9"
      } ]
    },
    "request": {
      "method": "PUT",
      "url": "Coverage/db330d5f-ab05-4502-8919-e716021f6cd2"
    }
  }, {
    "fullUrl": "https://madie.cms.gov/Organization/817b6be3-14c0-43ef-ac42-3dc9f4d579e9",
    "resource": {
      "resourceType": "Organization",
      "id": "817b6be3-14c0-43ef-ac42-3dc9f4d579e9",
      "meta": {
        "profile": [ "http://hl7.org/fhir/us/qicore/StructureDefinition/qicore-organization" ]
      },
      "identifier": [ {
        "use": "temp",
        "system": "urn:oid:2.16.840.1.113883.4.4",
        "value": "21-3259825"
      } ],
      "active": true,
      "type": [ {
        "coding": [ {
          "system": "http://terminology.hl7.org/CodeSystem/organization-type",
          "code": "pay",
          "display": "Payer"
        } ]
      } ],
      "name": "Blue Cross Blue Shield of Texas",
      "telecom": [ {
        "system": "phone",
        "value": "(+1) 972-766-6900"
      } ],
      "address": [ {
        "use": "billing",
        "type": "postal",
        "line": [ "P.O. Box 660044" ],
        "city": "Dallas",
        "state": "TX",
        "postalCode": "75266-0044",
        "country": "USA"
      } ]
    },
    "request": {
      "method": "PUT",
      "url": "Organization/817b6be3-14c0-43ef-ac42-3dc9f4d579e9"
    }
  }, {
    "fullUrl": "https://madie.cms.gov/Practitioner/44758eab-18bb-449b-bf2d-b089ec1d3f4d",
    "resource": {
      "resourceType": "Practitioner",
      "id": "44758eab-18bb-449b-bf2d-b089ec1d3f4d",
      "meta": {
        "profile": [ "http://hl7.org/fhir/us/qicore/StructureDefinition/qicore-practitioner" ]
      },
      "identifier": [ {
        "system": "http://hl7.org/fhir/sid/us-npi",
        "value": "1234567890"
      } ],
      "name": [ {
        "family": "Evil",
        "prefix": [ "Dr" ]
      } ]
    },
    "request": {
      "method": "PUT",
      "url": "Practitioner/44758eab-18bb-449b-bf2d-b089ec1d3f4d"
    }
  }, {
    "fullUrl": "https://madie.cms.gov/MeasureReport/410a9e14-4a6a-4466-9fa5-777c09d8d18f",
    "resource": {
      "resourceType": "MeasureReport",
      "id": "410a9e14-4a6a-4466-9fa5-777c09d8d18f",
      "meta": {
        "profile": [ "http://hl7.org/fhir/us/cqfmeasures/StructureDefinition/test-case-cqfm" ]
      },
      "contained": [ {
        "resourceType": "Parameters",
        "id": "840565dc-a2b3-47e2-80b1-1550753dd0db-parameters",
        "parameter": [ {
          "name": "subject",
          "valueString": "c7cb1c01-711f-4c40-8242-5828e7ed7807"
        } ]
      } ],
      "extension": [ {
        "url": "http://hl7.org/fhir/StructureDefinition/cqf-inputParameters",
        "valueReference": {
          "reference": "#840565dc-a2b3-47e2-80b1-1550753dd0db-parameters"
        }
      }, {
        "url": "http://hl7.org/fhir/us/cqfmeasures/StructureDefinition/cqfm-testCaseDescription",
        "valueMarkdown": "Calculated EGA is 36 Weeks 6 Days\n"
      } ],
      "modifierExtension": [ {
        "url": "http://hl7.org/fhir/us/cqfmeasures/StructureDefinition/cqfm-isTestCase",
        "valueBoolean": true
      } ],
      "status": "complete",
      "type": "individual",
      "measure": "https://madie.cms.gov/Measure/CMS0334FHIRPCCesareanBirth",
      "period": {
        "start": "2026-01-01",
        "end": "2026-12-31"
      },
      "group": [ {
        "id": "Group_1",
        "population": [ {
          "id": "InitialPopulation_1",
          "code": {
            "coding": [ {
              "system": "http://terminology.hl7.org/CodeSystem/measure-population",
              "code": "initial-population",
              "display": "Initial Population"
            } ]
          },
          "count": 1
        }, {
          "id": "Denominator_1",
          "code": {
            "coding": [ {
              "system": "http://terminology.hl7.org/CodeSystem/measure-population",
              "code": "denominator",
              "display": "Denominator"
            } ]
          },
          "count": 0
        }, {
          "id": "DenominatorExclusion_1",
          "code": {
            "coding": [ {
              "system": "http://terminology.hl7.org/CodeSystem/measure-population",
              "code": "denominator-exclusion",
              "display": "Denominator Exclusion"
            } ]
          },
          "count": 0
        }, {
          "id": "Numerator_1",
          "code": {
            "coding": [ {
              "system": "http://terminology.hl7.org/CodeSystem/measure-population",
              "code": "numerator",
              "display": "Numerator"
            } ]
          },
          "count": 0
        } ],
        "measureScore": {
          "value": 0.0
        }
      } ],
      "evaluatedResource": [ {
        "reference": "Patient/c7cb1c01-711f-4c40-8242-5828e7ed7807"
      }, {
        "reference": "Observation/9d027a17-f834-4689-9353-cb3569959f9c"
      }, {
        "reference": "Observation/5b8ece31-b25b-4a76-b6ee-3c419089db74"
      }, {
        "reference": "Observation/e5197221-dce8-425f-bc07-9a9433f11f7a"
      }, {
        "reference": "Encounter/092b7791-5d9b-4c0b-afeb-17c4a37d1465"
      }, {
        "reference": "Procedure/a204434b-5a40-41cd-9816-6e1778fd1e2c"
      }, {
        "reference": "Condition/401ef97b-afcb-4957-ab49-f48ee5293695"
      }, {
        "reference": "Coverage/db330d5f-ab05-4502-8919-e716021f6cd2"
      }, {
        "reference": "Organization/817b6be3-14c0-43ef-ac42-3dc9f4d579e9"
      }, {
        "reference": "Practitioner/44758eab-18bb-449b-bf2d-b089ec1d3f4d"
      } ]
    },
    "request": {
      "method": "PUT",
      "url": "MeasureReport/410a9e14-4a6a-4466-9fa5-777c09d8d18f"
    }
  } ]
}