{
  "resourceType": "Bundle",
  "id": "612e6f9102c62a011f2f24d3",
  "type": "transaction",
  "entry": [ {
    "fullUrl": "https://madie.cms.gov/Patient/c27146c8-1482-44da-8674-f67fd37ee2e0",
    "resource": {
      "resourceType": "Patient",
      "id": "c27146c8-1482-44da-8674-f67fd37ee2e0",
      "meta": {
        "profile": [ "http://hl7.org/fhir/us/qicore/StructureDefinition/qicore-patient" ]
      },
      "text": {
        "status": "generated",
        "div": "<div xmlns=\"http://www.w3.org/1999/xhtml\"><div class=\"hapiHeaderText\">MALMWHDayOfAnes<b>NUMERPASS </b></div><table class=\"hapiPropertyTable\"><tbody><tr><td>Identifier</td><td>477ee240f9d3831dbb4bc572c0c7b010</td></tr><tr><td>Date of birth</td><td><span>03 March 1974</span></td></tr></tbody></table></div>"
      },
      "extension": [ {
        "url": "http://hl7.org/fhir/us/core/StructureDefinition/us-core-race",
        "extension": [ {
          "url": "ombCategory",
          "valueCoding": {
            "system": "urn:oid:2.16.840.1.113883.6.238",
            "code": "1002-5",
            "display": "American Indian or Alaska Native",
            "userSelected": true
          }
        }, {
          "url": "text",
          "valueString": "American Indian or Alaska Native"
        } ]
      }, {
        "url": "http://hl7.org/fhir/us/core/StructureDefinition/us-core-ethnicity",
        "extension": [ {
          "url": "ombCategory",
          "valueCoding": {
            "system": "urn:oid:2.16.840.1.113883.6.238",
            "code": "2135-2",
            "display": "Hispanic or Latino",
            "userSelected": true
          }
        }, {
          "url": "text",
          "valueString": "Hispanic or Latino"
        } ]
      } ],
      "identifier": [ {
        "type": {
          "coding": [ {
            "system": "http://terminology.hl7.org/CodeSystem/v2-0203",
            "code": "MR"
          } ]
        },
        "system": "https://bonnie-fhir.healthit.gov/",
        "value": "612e6f9102c62a011f2f24d3"
      } ],
      "active": true,
      "name": [ {
        "use": "usual",
        "family": "NUMERPass",
        "given": [ "MALMWHDayOfAnes" ]
      } ],
      "gender": "female",
      "birthDate": "1975-03-03"
    },
    "request": {
      "method": "PUT",
      "url": "Patient/c27146c8-1482-44da-8674-f67fd37ee2e0"
    }
  }, {
    "fullUrl": "https://madie.cms.gov/Encounter/a9ca1802-cc8b-424f-9c2b-607d3e56522d",
    "resource": {
      "resourceType": "Encounter",
      "id": "a9ca1802-cc8b-424f-9c2b-607d3e56522d",
      "meta": {
        "profile": [ "http://hl7.org/fhir/us/qicore/StructureDefinition/qicore-encounter" ]
      },
      "status": "finished",
      "class": {
        "system": "http://terminology.hl7.org/CodeSystem/v3-ActCode",
        "code": "IMP",
        "display": "inpatient encounter"
      },
      "type": [ {
        "coding": [ {
          "system": "http://snomed.info/sct",
          "code": "8715000"
        } ]
      } ],
      "subject": {
        "reference": "Patient/c27146c8-1482-44da-8674-f67fd37ee2e0"
      },
      "period": {
        "start": "2026-12-04T08:00:00.000+00:00",
        "end": "2026-12-30T08:15:00.000+00:00"
      },
      "length": {
        "value": 26.0,
        "unit": "days"
      },
      "location": [ {
        "location": {
          "reference": "Location/63a51236-2800-4a39-bc5f-220baf4576e2"
        },
        "period": {
          "start": "2026-12-06T08:00:00.000+00:00",
          "end": "2026-12-12T08:15:00.000+00:00"
        }
      } ]
    },
    "request": {
      "method": "PUT",
      "url": "Encounter/a9ca1802-cc8b-424f-9c2b-607d3e56522d"
    }
  }, {
    "fullUrl": "https://madie.cms.gov/Coverage/efe1ab17-83d3-48c8-a94f-09c9eb90430d",
    "resource": {
      "resourceType": "Coverage",
      "id": "efe1ab17-83d3-48c8-a94f-09c9eb90430d",
      "status": "active",
      "beneficiary": {
        "reference": "Patient/c27146c8-1482-44da-8674-f67fd37ee2e0"
      },
      "period": {
        "start": "1975-03-03T08:00:00.000+00:00"
      },
      "payor": [ {
        "reference": "Organization/251f3c24-9195-4900-bf90-df2f485c81c0"
      } ]
    },
    "request": {
      "method": "PUT",
      "url": "Coverage/efe1ab17-83d3-48c8-a94f-09c9eb90430d"
    }
  }, {
    "fullUrl": "https://madie.cms.gov/MedicationAdministration/74ecc8d5-9c6e-4beb-879f-48f0dfad2194",
    "resource": {
      "resourceType": "MedicationAdministration",
      "id": "74ecc8d5-9c6e-4beb-879f-48f0dfad2194",
      "meta": {
        "profile": [ "http://hl7.org/fhir/us/qicore/StructureDefinition/qicore-medicationadministration" ]
      },
      "status": "completed",
      "medicationCodeableConcept": {
        "coding": [ {
          "system": "http://www.nlm.nih.gov/research/umls/rxnorm",
          "code": "854228"
        } ]
      },
      "subject": {
        "reference": "Patient/c27146c8-1482-44da-8674-f67fd37ee2e0"
      },
      "effectiveDateTime": "2026-12-07T11:30:00.000+00:00"
    },
    "request": {
      "method": "PUT",
      "url": "MedicationAdministration/74ecc8d5-9c6e-4beb-879f-48f0dfad2194"
    }
  }, {
    "fullUrl": "https://madie.cms.gov/Procedure/e59c309d-db80-40b7-9eec-a68c1cb2875f",
    "resource": {
      "resourceType": "Procedure",
      "id": "e59c309d-db80-40b7-9eec-a68c1cb2875f",
      "meta": {
        "profile": [ "http://hl7.org/fhir/us/qicore/StructureDefinition/qicore-procedure" ]
      },
      "extension": [ {
        "url": "http://hl7.org/fhir/us/qicore/StructureDefinition/qicore-recorded",
        "valueDateTime": "2013-12-07T13:35:00.000+00:00"
      } ],
      "status": "completed",
      "code": {
        "coding": [ {
          "system": "http://www.cms.gov/Medicare/Coding/ICD10",
          "code": "3E030FZ"
        } ]
      },
      "subject": {
        "reference": "Patient/c27146c8-1482-44da-8674-f67fd37ee2e0"
      },
      "performedDateTime": "2026-12-07T11:15:00.000+00:00"
    },
    "request": {
      "method": "PUT",
      "url": "Procedure/e59c309d-db80-40b7-9eec-a68c1cb2875f"
    }
  }, {
    "fullUrl": "https://madie.cms.gov/Location/63a51236-2800-4a39-bc5f-220baf4576e2",
    "resource": {
      "resourceType": "Location",
      "id": "63a51236-2800-4a39-bc5f-220baf4576e2",
      "meta": {
        "profile": [ "http://hl7.org/fhir/us/qicore/StructureDefinition/qicore-location" ]
      },
      "identifier": [ {
        "use": "usual",
        "system": "http://exampleoflocation.com",
        "value": "B1-S.F2"
      } ],
      "name": "Medical Surgical East, first floor",
      "type": [ {
        "coding": [ {
          "system": "https://www.cdc.gov/nhsn/cdaportal/terminology/codesystem/hsloc.html",
          "code": "1025-6",
          "display": "Trauma Critical Care",
          "userSelected": true
        } ]
      } ]
    },
    "request": {
      "method": "PUT",
      "url": "Location/63a51236-2800-4a39-bc5f-220baf4576e2"
    }
  }, {
    "fullUrl": "https://madie.cms.gov/Organization/251f3c24-9195-4900-bf90-df2f485c81c0",
    "resource": {
      "resourceType": "Organization",
      "id": "251f3c24-9195-4900-bf90-df2f485c81c0",
      "meta": {
        "profile": [ "http://hl7.org/fhir/us/qicore/StructureDefinition/qicore-organization" ]
      },
      "identifier": [ {
        "use": "temp",
        "system": "urn:oid:2.16.840.1.113883.4.4",
        "value": "21-3259825"
      } ],
      "active": true,
      "type": [ {
        "coding": [ {
          "system": "http://terminology.hl7.org/CodeSystem/organization-type",
          "code": "pay",
          "display": "Payer"
        } ]
      } ],
      "name": "Blue Cross Blue Shield of Texas",
      "telecom": [ {
        "system": "phone",
        "value": "(+1) 972-766-6900"
      } ],
      "address": [ {
        "use": "billing",
        "type": "postal",
        "line": [ "P.O. Box 660044" ],
        "city": "Dallas",
        "state": "TX",
        "postalCode": "75266-0044",
        "country": "USA"
      } ]
    },
    "request": {
      "method": "PUT",
      "url": "Organization/251f3c24-9195-4900-bf90-df2f485c81c0"
    }
  }, {
    "fullUrl": "https://madie.cms.gov/Practitioner/b5041ecd-3bc6-4020-bf6e-43d092e0b23e",
    "resource": {
      "resourceType": "Practitioner",
      "id": "b5041ecd-3bc6-4020-bf6e-43d092e0b23e",
      "identifier": [ {
        "system": "http://hl7.org/fhir/sid/us-npi",
        "value": "123456"
      } ],
      "name": [ {
        "family": "Evil",
        "prefix": [ "Dr" ]
      } ]
    },
    "request": {
      "method": "PUT",
      "url": "Practitioner/b5041ecd-3bc6-4020-bf6e-43d092e0b23e"
    }
  }, {
    "fullUrl": "https://madie.cms.gov/MeasureReport/830c983d-2fc9-4d4a-a60e-e384037b5744",
    "resource": {
      "resourceType": "MeasureReport",
      "id": "830c983d-2fc9-4d4a-a60e-e384037b5744",
      "meta": {
        "profile": [ "http://hl7.org/fhir/us/cqfmeasures/StructureDefinition/test-case-cqfm" ]
      },
      "contained": [ {
        "resourceType": "Parameters",
        "id": "ba830f87-47c3-4d65-91f8-3e8681ea3762-parameters",
        "parameter": [ {
          "name": "subject",
          "valueString": "c27146c8-1482-44da-8674-f67fd37ee2e0"
        } ]
      } ],
      "extension": [ {
        "url": "http://hl7.org/fhir/StructureDefinition/cqf-inputParameters",
        "valueReference": {
          "reference": "#ba830f87-47c3-4d65-91f8-3e8681ea3762-parameters"
        }
      }, {
        "url": "http://hl7.org/fhir/us/cqfmeasures/StructureDefinition/cqfm-testCaseDescription",
        "valueMarkdown": "LMWH administered on day of  neuraxial anesthesia\n"
      } ],
      "modifierExtension": [ {
        "url": "http://hl7.org/fhir/us/cqfmeasures/StructureDefinition/cqfm-isTestCase",
        "valueBoolean": true
      } ],
      "status": "complete",
      "type": "individual",
      "measure": "https://madie.cms.gov/Measure/CMS190FHIRVTEProphylaxisICU",
      "period": {
        "start": "2026-01-01",
        "end": "2026-12-31"
      },
      "group": [ {
        "id": "Group_1",
        "population": [ {
          "id": "InitialPopulation_1",
          "code": {
            "coding": [ {
              "system": "http://terminology.hl7.org/CodeSystem/measure-population",
              "code": "initial-population",
              "display": "Initial Population"
            } ]
          },
          "count": 1
        }, {
          "id": "Denominator_1",
          "code": {
            "coding": [ {
              "system": "http://terminology.hl7.org/CodeSystem/measure-population",
              "code": "denominator",
              "display": "Denominator"
            } ]
          },
          "count": 1
        }, {
          "id": "DenominatorExclusion_1",
          "code": {
            "coding": [ {
              "system": "http://terminology.hl7.org/CodeSystem/measure-population",
              "code": "denominator-exclusion",
              "display": "Denominator Exclusion"
            } ]
          },
          "count": 0
        }, {
          "id": "Numerator_1",
          "code": {
            "coding": [ {
              "system": "http://terminology.hl7.org/CodeSystem/measure-population",
              "code": "numerator",
              "display": "Numerator"
            } ]
          },
          "count": 1
        }, {
          "id": "DenominatorException_1",
          "code": {
            "coding": [ {
              "system": "http://terminology.hl7.org/CodeSystem/measure-population",
              "code": "denominator-exception",
              "display": "Denominator Exception"
            } ]
          },
          "count": 0
        } ],
        "measureScore": {
          "value": 0.0
        }
      } ],
      "evaluatedResource": [ {
        "reference": "Patient/c27146c8-1482-44da-8674-f67fd37ee2e0"
      }, {
        "reference": "Encounter/a9ca1802-cc8b-424f-9c2b-607d3e56522d"
      }, {
        "reference": "Coverage/efe1ab17-83d3-48c8-a94f-09c9eb90430d"
      }, {
        "reference": "MedicationAdministration/74ecc8d5-9c6e-4beb-879f-48f0dfad2194"
      }, {
        "reference": "Procedure/e59c309d-db80-40b7-9eec-a68c1cb2875f"
      }, {
        "reference": "Location/63a51236-2800-4a39-bc5f-220baf4576e2"
      }, {
        "reference": "Organization/251f3c24-9195-4900-bf90-df2f485c81c0"
      }, {
        "reference": "Practitioner/b5041ecd-3bc6-4020-bf6e-43d092e0b23e"
      } ]
    },
    "request": {
      "method": "PUT",
      "url": "MeasureReport/830c983d-2fc9-4d4a-a60e-e384037b5744"
    }
  } ]
}