{
  "resourceType": "Bundle",
  "id": "612e6f4202c62a011f2f130c",
  "type": "transaction",
  "entry": [ {
    "fullUrl": "https://madie.cms.gov/Patient/efad4991-4382-4ceb-8bc4-32e8ac088e47",
    "resource": {
      "resourceType": "Patient",
      "id": "efad4991-4382-4ceb-8bc4-32e8ac088e47",
      "meta": {
        "profile": [ "http://hl7.org/fhir/us/qicore/StructureDefinition/qicore-patient" ]
      },
      "text": {
        "status": "generated",
        "div": "<div xmlns=\"http://www.w3.org/1999/xhtml\"><div class=\"hapiHeaderText\">FactorXaConcurrentEndAnesConcurrentICU <b>NUMERPASS </b></div><table class=\"hapiPropertyTable\"><tbody><tr><td>Identifier</td><td>932bbfe395f764f868f766d1afbf2cb7</td></tr><tr><td>Date of birth</td><td><span>03 March 1974</span></td></tr></tbody></table></div>"
      },
      "extension": [ {
        "url": "http://hl7.org/fhir/us/core/StructureDefinition/us-core-race",
        "extension": [ {
          "url": "ombCategory",
          "valueCoding": {
            "system": "urn:oid:2.16.840.1.113883.6.238",
            "code": "1002-5",
            "display": "American Indian or Alaska Native",
            "userSelected": true
          }
        }, {
          "url": "text",
          "valueString": "American Indian or Alaska Native"
        } ]
      }, {
        "url": "http://hl7.org/fhir/us/core/StructureDefinition/us-core-ethnicity",
        "extension": [ {
          "url": "ombCategory",
          "valueCoding": {
            "system": "urn:oid:2.16.840.1.113883.6.238",
            "code": "2135-2",
            "display": "Hispanic or Latino",
            "userSelected": true
          }
        }, {
          "url": "text",
          "valueString": "Hispanic or Latino"
        } ]
      } ],
      "identifier": [ {
        "type": {
          "coding": [ {
            "system": "http://terminology.hl7.org/CodeSystem/v2-0203",
            "code": "MR"
          } ]
        },
        "system": "https://bonnie-fhir.healthit.gov/",
        "value": "612e6f4202c62a011f2f130c"
      } ],
      "active": true,
      "name": [ {
        "use": "usual",
        "family": "NUMERPass",
        "given": [ "FactorXaConcurrentEndAnesConcurrentICU" ]
      } ],
      "gender": "female",
      "birthDate": "1975-03-03"
    },
    "request": {
      "method": "PUT",
      "url": "Patient/efad4991-4382-4ceb-8bc4-32e8ac088e47"
    }
  }, {
    "fullUrl": "https://madie.cms.gov/Encounter/02efdedc-bc8b-4b6b-acca-5adf9addd043",
    "resource": {
      "resourceType": "Encounter",
      "id": "02efdedc-bc8b-4b6b-acca-5adf9addd043",
      "meta": {
        "profile": [ "http://hl7.org/fhir/us/qicore/StructureDefinition/qicore-encounter" ]
      },
      "status": "finished",
      "class": {
        "system": "http://terminology.hl7.org/CodeSystem/v3-ActCode",
        "code": "IMP",
        "display": "inpatient encounter"
      },
      "type": [ {
        "coding": [ {
          "system": "http://snomed.info/sct",
          "code": "8715000"
        } ]
      } ],
      "subject": {
        "reference": "Patient/efad4991-4382-4ceb-8bc4-32e8ac088e47"
      },
      "period": {
        "start": "2026-12-05T08:00:00.000+00:00",
        "end": "2026-12-30T08:15:00.000+00:00"
      },
      "length": {
        "value": 25,
        "unit": "days"
      },
      "diagnosis": [ {
        "condition": {
          "reference": "Condition/4d2f3f5b-bcc7-4c0a-8ac7-9c6e5df9b9d1"
        },
        "rank": 1
      } ],
      "location": [ {
        "location": {
          "reference": "Location/27963a67-168c-465b-981d-00f9ef8929df"
        },
        "period": {
          "start": "2026-12-05T08:00:00.000+00:00",
          "end": "2026-12-12T08:15:00.000+00:00"
        }
      } ]
    },
    "request": {
      "method": "PUT",
      "url": "Encounter/02efdedc-bc8b-4b6b-acca-5adf9addd043"
    }
  }, {
    "fullUrl": "https://madie.cms.gov/Coverage/9a8f1072-9971-4e31-99e6-19ef94705434",
    "resource": {
      "resourceType": "Coverage",
      "id": "9a8f1072-9971-4e31-99e6-19ef94705434",
      "status": "active",
      "beneficiary": {
        "reference": "Patient/efad4991-4382-4ceb-8bc4-32e8ac088e47"
      },
      "period": {
        "start": "1975-03-03T08:00:00.000+00:00"
      },
      "payor": [ {
        "reference": "Organization/27f57cf1-5f13-490b-9e74-024a75d1ba27"
      } ]
    },
    "request": {
      "method": "PUT",
      "url": "Coverage/9a8f1072-9971-4e31-99e6-19ef94705434"
    }
  }, {
    "fullUrl": "https://madie.cms.gov/Condition/4d2f3f5b-bcc7-4c0a-8ac7-9c6e5df9b9d1",
    "resource": {
      "resourceType": "Condition",
      "id": "4d2f3f5b-bcc7-4c0a-8ac7-9c6e5df9b9d1",
      "meta": {
        "profile": [ "http://hl7.org/fhir/us/qicore/StructureDefinition/qicore-condition-problems-health-concerns" ]
      },
      "clinicalStatus": {
        "coding": [ {
          "system": "http://terminology.hl7.org/CodeSystem/condition-clinical",
          "code": "active"
        } ]
      },
      "verificationStatus": {
        "coding": [ {
          "system": "http://terminology.hl7.org/CodeSystem/condition-ver-status",
          "code": "confirmed"
        } ]
      },
      "category": [ {
        "coding": [ {
          "system": "http://terminology.hl7.org/CodeSystem/condition-category",
          "code": "problem-list-item",
          "display": "Problem list Item"
        } ]
      } ],
      "code": {
        "coding": [ {
          "system": "http://snomed.info/sct",
          "code": "120041000119109",
          "display": "Atrial fibrillation with rapid ventricular response (disorder)",
          "userSelected": true
        } ]
      },
      "subject": {
        "reference": "Patient/efad4991-4382-4ceb-8bc4-32e8ac088e47"
      },
      "onsetPeriod": {
        "start": "2026-12-09T08:00:00.000+00:00"
      }
    },
    "request": {
      "method": "PUT",
      "url": "Condition/4d2f3f5b-bcc7-4c0a-8ac7-9c6e5df9b9d1"
    }
  }, {
    "fullUrl": "https://madie.cms.gov/MedicationAdministration/f0e0b612-0862-497e-a5f3-96c18ebe589a",
    "resource": {
      "resourceType": "MedicationAdministration",
      "id": "f0e0b612-0862-497e-a5f3-96c18ebe589a",
      "meta": {
        "profile": [ "http://hl7.org/fhir/us/qicore/StructureDefinition/qicore-medicationadministration" ]
      },
      "status": "completed",
      "medicationCodeableConcept": {
        "coding": [ {
          "system": "http://www.nlm.nih.gov/research/umls/rxnorm",
          "code": "1364435",
          "display": "apixaban 2.5 MG Oral Tablet"
        } ]
      },
      "subject": {
        "reference": "Patient/efad4991-4382-4ceb-8bc4-32e8ac088e47"
      },
      "effectivePeriod": {
        "start": "2026-12-05T11:00:00.000+00:00"
      }
    },
    "request": {
      "method": "PUT",
      "url": "MedicationAdministration/f0e0b612-0862-497e-a5f3-96c18ebe589a"
    }
  }, {
    "fullUrl": "https://madie.cms.gov/Procedure/146e1a71-5c4c-421e-82b6-3414b3ac36e2",
    "resource": {
      "resourceType": "Procedure",
      "id": "146e1a71-5c4c-421e-82b6-3414b3ac36e2",
      "meta": {
        "profile": [ "http://hl7.org/fhir/us/qicore/StructureDefinition/qicore-procedure" ]
      },
      "extension": [ {
        "url": "http://hl7.org/fhir/us/qicore/StructureDefinition/qicore-recorded",
        "valueDateTime": "2013-12-04T13:35:00.000+00:00"
      } ],
      "status": "completed",
      "code": {
        "coding": [ {
          "system": "http://snomed.info/sct",
          "code": "18946005"
        } ]
      },
      "subject": {
        "reference": "Patient/efad4991-4382-4ceb-8bc4-32e8ac088e47"
      },
      "performedPeriod": {
        "start": "2026-12-05T10:00:00.000+00:00",
        "end": "2026-12-05T11:00:00.000+00:00"
      }
    },
    "request": {
      "method": "PUT",
      "url": "Procedure/146e1a71-5c4c-421e-82b6-3414b3ac36e2"
    }
  }, {
    "fullUrl": "https://madie.cms.gov/Location/27963a67-168c-465b-981d-00f9ef8929df",
    "resource": {
      "resourceType": "Location",
      "id": "27963a67-168c-465b-981d-00f9ef8929df",
      "meta": {
        "profile": [ "http://hl7.org/fhir/us/qicore/StructureDefinition/qicore-location" ]
      },
      "identifier": [ {
        "use": "usual",
        "system": "http://exampleoflocation.com",
        "value": "B1-S.F2"
      } ],
      "name": "Medical Surgical East, first floor",
      "type": [ {
        "coding": [ {
          "system": "https://www.cdc.gov/nhsn/cdaportal/terminology/codesystem/hsloc.html",
          "code": "1025-6",
          "display": "Trauma Critical Care",
          "userSelected": true
        } ]
      } ]
    },
    "request": {
      "method": "PUT",
      "url": "Location/27963a67-168c-465b-981d-00f9ef8929df"
    }
  }, {
    "fullUrl": "https://madie.cms.gov/Organization/27f57cf1-5f13-490b-9e74-024a75d1ba27",
    "resource": {
      "resourceType": "Organization",
      "id": "27f57cf1-5f13-490b-9e74-024a75d1ba27",
      "meta": {
        "profile": [ "http://hl7.org/fhir/us/qicore/StructureDefinition/qicore-organization" ]
      },
      "identifier": [ {
        "use": "temp",
        "system": "urn:oid:2.16.840.1.113883.4.4",
        "value": "21-3259825"
      } ],
      "active": true,
      "type": [ {
        "coding": [ {
          "system": "http://terminology.hl7.org/CodeSystem/organization-type",
          "code": "pay",
          "display": "Payer"
        } ]
      } ],
      "name": "Blue Cross Blue Shield of Texas",
      "telecom": [ {
        "system": "phone",
        "value": "(+1) 972-766-6900"
      } ],
      "address": [ {
        "use": "billing",
        "type": "postal",
        "line": [ "P.O. Box 660044" ],
        "city": "Dallas",
        "state": "TX",
        "postalCode": "75266-0044",
        "country": "USA"
      } ]
    },
    "request": {
      "method": "PUT",
      "url": "Organization/27f57cf1-5f13-490b-9e74-024a75d1ba27"
    }
  }, {
    "fullUrl": "https://madie.cms.gov/Practitioner/dcf8c445-acc4-46c8-b84c-40d8d0434c84",
    "resource": {
      "resourceType": "Practitioner",
      "id": "dcf8c445-acc4-46c8-b84c-40d8d0434c84",
      "identifier": [ {
        "system": "http://hl7.org/fhir/sid/us-npi",
        "value": "123456"
      } ],
      "name": [ {
        "family": "Evil",
        "prefix": [ "Dr" ]
      } ]
    },
    "request": {
      "method": "PUT",
      "url": "Practitioner/dcf8c445-acc4-46c8-b84c-40d8d0434c84"
    }
  }, {
    "fullUrl": "https://madie.cms.gov/MeasureReport/d74c1428-8c4a-4063-a8be-333a84508ae5",
    "resource": {
      "resourceType": "MeasureReport",
      "id": "d74c1428-8c4a-4063-a8be-333a84508ae5",
      "meta": {
        "profile": [ "http://hl7.org/fhir/us/cqfmeasures/StructureDefinition/test-case-cqfm" ]
      },
      "contained": [ {
        "resourceType": "Parameters",
        "id": "55c7b65a-7edf-40fb-bc27-6c584356a97d-parameters",
        "parameter": [ {
          "name": "subject",
          "valueString": "efad4991-4382-4ceb-8bc4-32e8ac088e47"
        } ]
      } ],
      "extension": [ {
        "url": "http://hl7.org/fhir/StructureDefinition/cqf-inputParameters",
        "valueReference": {
          "reference": "#55c7b65a-7edf-40fb-bc27-6c584356a97d-parameters"
        }
      }, {
        "url": "http://hl7.org/fhir/us/cqfmeasures/StructureDefinition/cqfm-testCaseDescription",
        "valueMarkdown": "factor Xa administered concurrent with end of neuraxial anesthesia concurrent with ICU transfer\n"
      } ],
      "modifierExtension": [ {
        "url": "http://hl7.org/fhir/us/cqfmeasures/StructureDefinition/cqfm-isTestCase",
        "valueBoolean": true
      } ],
      "status": "complete",
      "type": "individual",
      "measure": "https://madie.cms.gov/Measure/CMS190FHIRVTEProphylaxisICU",
      "period": {
        "start": "2026-01-01",
        "end": "2026-12-31"
      },
      "group": [ {
        "id": "Group_1",
        "population": [ {
          "id": "InitialPopulation_1",
          "code": {
            "coding": [ {
              "system": "http://terminology.hl7.org/CodeSystem/measure-population",
              "code": "initial-population",
              "display": "Initial Population"
            } ]
          },
          "count": 1
        }, {
          "id": "Denominator_1",
          "code": {
            "coding": [ {
              "system": "http://terminology.hl7.org/CodeSystem/measure-population",
              "code": "denominator",
              "display": "Denominator"
            } ]
          },
          "count": 1
        }, {
          "id": "DenominatorExclusion_1",
          "code": {
            "coding": [ {
              "system": "http://terminology.hl7.org/CodeSystem/measure-population",
              "code": "denominator-exclusion",
              "display": "Denominator Exclusion"
            } ]
          },
          "count": 0
        }, {
          "id": "Numerator_1",
          "code": {
            "coding": [ {
              "system": "http://terminology.hl7.org/CodeSystem/measure-population",
              "code": "numerator",
              "display": "Numerator"
            } ]
          },
          "count": 1
        }, {
          "id": "DenominatorException_1",
          "code": {
            "coding": [ {
              "system": "http://terminology.hl7.org/CodeSystem/measure-population",
              "code": "denominator-exception",
              "display": "Denominator Exception"
            } ]
          },
          "count": 0
        } ],
        "measureScore": {
          "value": 0.0
        }
      } ],
      "evaluatedResource": [ {
        "reference": "Patient/efad4991-4382-4ceb-8bc4-32e8ac088e47"
      }, {
        "reference": "Encounter/02efdedc-bc8b-4b6b-acca-5adf9addd043"
      }, {
        "reference": "Coverage/9a8f1072-9971-4e31-99e6-19ef94705434"
      }, {
        "reference": "Condition/4d2f3f5b-bcc7-4c0a-8ac7-9c6e5df9b9d1"
      }, {
        "reference": "MedicationAdministration/f0e0b612-0862-497e-a5f3-96c18ebe589a"
      }, {
        "reference": "Procedure/146e1a71-5c4c-421e-82b6-3414b3ac36e2"
      }, {
        "reference": "Location/27963a67-168c-465b-981d-00f9ef8929df"
      }, {
        "reference": "Organization/27f57cf1-5f13-490b-9e74-024a75d1ba27"
      }, {
        "reference": "Practitioner/dcf8c445-acc4-46c8-b84c-40d8d0434c84"
      } ]
    },
    "request": {
      "method": "PUT",
      "url": "MeasureReport/d74c1428-8c4a-4063-a8be-333a84508ae5"
    }
  } ]
}