{
  "resourceType": "Bundle",
  "id": "tests-NUMERPass-LabTest2Equals80-bundle",
  "type": "transaction",
  "entry": [ {
    "fullUrl": "https://madie.cms.gov/Patient/471f0895-69d0-4cd2-bae3-3e9872616cef",
    "resource": {
      "resourceType": "Patient",
      "id": "471f0895-69d0-4cd2-bae3-3e9872616cef",
      "meta": {
        "profile": [ "http://hl7.org/fhir/us/qicore/StructureDefinition/qicore-patient" ]
      },
      "identifier": [ {
        "use": "official",
        "system": "http://hospital.smarthealthit.or",
        "value": "12345"
      } ],
      "name": [ {
        "use": "official",
        "family": "Doe",
        "given": [ "John" ]
      } ],
      "gender": "male",
      "birthDate": "1980-01-01"
    },
    "request": {
      "method": "PUT",
      "url": "Patient/471f0895-69d0-4cd2-bae3-3e9872616cef"
    }
  }, {
    "fullUrl": "https://madie.cms.gov/Encounter/a52c0fe0-365a-4052-aea8-2ad604f0b021",
    "resource": {
      "resourceType": "Encounter",
      "id": "a52c0fe0-365a-4052-aea8-2ad604f0b021",
      "meta": {
        "profile": [ "http://hl7.org/fhir/us/qicore/StructureDefinition/qicore-encounter" ]
      },
      "status": "finished",
      "class": {
        "system": "http://terminology.hl7.org/CodeSystem/v3-ActCode",
        "code": "IMP",
        "display": "Inpatient encounter"
      },
      "type": [ {
        "coding": [ {
          "system": "http://snomed.info/sct",
          "code": "183452005",
          "display": "Emergency hospital admission"
        } ]
      } ],
      "subject": {
        "reference": "Patient/471f0895-69d0-4cd2-bae3-3e9872616cef"
      },
      "period": {
        "start": "2026-07-11T08:00:00.000+00:00",
        "end": "2026-07-16T21:00:00.000+00:00"
      }
    },
    "request": {
      "method": "PUT",
      "url": "Encounter/a52c0fe0-365a-4052-aea8-2ad604f0b021"
    }
  }, {
    "fullUrl": "https://madie.cms.gov/MedicationAdministration/ae3abcae-d9ea-4c6e-b7d1-33e9fd864f4e",
    "resource": {
      "resourceType": "MedicationAdministration",
      "id": "ae3abcae-d9ea-4c6e-b7d1-33e9fd864f4e",
      "meta": {
        "profile": [ "http://hl7.org/fhir/us/qicore/StructureDefinition/qicore-medicationadministration" ]
      },
      "status": "completed",
      "medicationCodeableConcept": {
        "coding": [ {
          "system": "http://www.nlm.nih.gov/research/umls/rxnorm",
          "code": "1653202",
          "display": "3 ML insulin aspart, human 100 UNT/ML Pen Injector"
        } ]
      },
      "subject": {
        "reference": "Patient/471f0895-69d0-4cd2-bae3-3e9872616cef"
      },
      "effectivePeriod": {
        "start": "2026-07-11T08:00:00.000+00:00",
        "end": "2026-07-11T09:00:00.000+00:00"
      }
    },
    "request": {
      "method": "PUT",
      "url": "MedicationAdministration/ae3abcae-d9ea-4c6e-b7d1-33e9fd864f4e"
    }
  }, {
    "fullUrl": "https://madie.cms.gov/Observation/9264f756-ebb6-402e-98e0-b97ae23cc2ee",
    "resource": {
      "resourceType": "Observation",
      "id": "9264f756-ebb6-402e-98e0-b97ae23cc2ee",
      "meta": {
        "profile": [ "http://hl7.org/fhir/us/qicore/StructureDefinition/qicore-observation-lab" ]
      },
      "status": "final",
      "category": [ {
        "coding": [ {
          "system": "http://terminology.hl7.org/CodeSystem/observation-category",
          "code": "laboratory",
          "display": "Laboratory"
        } ]
      } ],
      "code": {
        "coding": [ {
          "system": "http://loinc.org",
          "code": "1556-0",
          "display": "Fasting glucose [Mass/volume] in Capillary blood"
        } ]
      },
      "subject": {
        "reference": "Patient/471f0895-69d0-4cd2-bae3-3e9872616cef"
      },
      "effectivePeriod": {
        "start": "2026-07-11T08:00:00.000+00:00",
        "end": "2026-07-11T08:00:00.000+00:00"
      },
      "issued": "2026-07-11T08:00:00.000+00:00",
      "valueQuantity": {
        "value": 35,
        "unit": "mg/dL"
      }
    },
    "request": {
      "method": "PUT",
      "url": "Observation/9264f756-ebb6-402e-98e0-b97ae23cc2ee"
    }
  }, {
    "fullUrl": "https://madie.cms.gov/Observation/2ccda1c6-329a-4080-8f5b-057d2450ddb1",
    "resource": {
      "resourceType": "Observation",
      "id": "2ccda1c6-329a-4080-8f5b-057d2450ddb1",
      "meta": {
        "profile": [ "http://hl7.org/fhir/us/qicore/StructureDefinition/qicore-observation-lab" ]
      },
      "status": "entered-in-error",
      "category": [ {
        "coding": [ {
          "system": "http://terminology.hl7.org/CodeSystem/observation-category",
          "code": "laboratory",
          "display": "Laboratory"
        } ]
      } ],
      "code": {
        "coding": [ {
          "system": "http://loinc.org",
          "code": "1556-0",
          "display": "Fasting glucose [Mass/volume] in Capillary blood"
        } ]
      },
      "subject": {
        "reference": "Patient/471f0895-69d0-4cd2-bae3-3e9872616cef"
      },
      "effectivePeriod": {
        "start": "2026-07-11T08:05:00.000+00:00",
        "end": "2026-07-11T08:05:00.000+00:00"
      },
      "issued": "2026-07-11T08:05:00.000+00:00",
      "valueQuantity": {
        "value": 80,
        "unit": "mg/dL"
      }
    },
    "request": {
      "method": "PUT",
      "url": "Observation/2ccda1c6-329a-4080-8f5b-057d2450ddb1"
    }
  }, {
    "fullUrl": "https://madie.cms.gov/MeasureReport/0d80e691-5b27-48ba-bb22-d31a481ede1a",
    "resource": {
      "resourceType": "MeasureReport",
      "id": "0d80e691-5b27-48ba-bb22-d31a481ede1a",
      "meta": {
        "profile": [ "http://hl7.org/fhir/us/cqfmeasures/StructureDefinition/test-case-cqfm" ]
      },
      "contained": [ {
        "resourceType": "Parameters",
        "id": "2fbd7ae7-3bb9-40f4-ab3a-fa4992ef00d1-parameters",
        "parameter": [ {
          "name": "subject",
          "valueString": "471f0895-69d0-4cd2-bae3-3e9872616cef"
        } ]
      } ],
      "extension": [ {
        "url": "http://hl7.org/fhir/StructureDefinition/cqf-inputParameters",
        "valueReference": {
          "reference": "#2fbd7ae7-3bb9-40f4-ab3a-fa4992ef00d1-parameters"
        }
      }, {
        "url": "http://hl7.org/fhir/us/cqfmeasures/StructureDefinition/cqfm-testCaseDescription",
        "valueMarkdown": "Encounter, meds administered, lab test 1 = 35, lab 2 result = entered-in-error"
      } ],
      "modifierExtension": [ {
        "url": "http://hl7.org/fhir/us/cqfmeasures/StructureDefinition/cqfm-isTestCase",
        "valueBoolean": true
      } ],
      "status": "complete",
      "type": "individual",
      "measure": "https://madie.cms.gov/Measure/CMS816FHIRHHHypo",
      "period": {
        "start": "2026-01-01",
        "end": "2026-12-31"
      },
      "group": [ {
        "id": "Group_1",
        "population": [ {
          "id": "InitialPopulation_1",
          "code": {
            "coding": [ {
              "system": "http://terminology.hl7.org/CodeSystem/measure-population",
              "code": "initial-population",
              "display": "Initial Population"
            } ]
          },
          "count": 1
        }, {
          "id": "Denominator_1",
          "code": {
            "coding": [ {
              "system": "http://terminology.hl7.org/CodeSystem/measure-population",
              "code": "denominator",
              "display": "Denominator"
            } ]
          },
          "count": 1
        }, {
          "id": "Numerator_1",
          "code": {
            "coding": [ {
              "system": "http://terminology.hl7.org/CodeSystem/measure-population",
              "code": "numerator",
              "display": "Numerator"
            } ]
          },
          "count": 1
        } ],
        "measureScore": {
          "value": 0.0
        }
      } ],
      "evaluatedResource": [ {
        "reference": "Patient/471f0895-69d0-4cd2-bae3-3e9872616cef"
      }, {
        "reference": "Encounter/a52c0fe0-365a-4052-aea8-2ad604f0b021"
      }, {
        "reference": "MedicationAdministration/ae3abcae-d9ea-4c6e-b7d1-33e9fd864f4e"
      }, {
        "reference": "Observation/9264f756-ebb6-402e-98e0-b97ae23cc2ee"
      }, {
        "reference": "Observation/2ccda1c6-329a-4080-8f5b-057d2450ddb1"
      } ]
    },
    "request": {
      "method": "PUT",
      "url": "MeasureReport/0d80e691-5b27-48ba-bb22-d31a481ede1a"
    }
  } ]
}