{
  "resourceType": "Bundle",
  "id": "63594c7a6aee9629c82981df",
  "type": "transaction",
  "entry": [ {
    "fullUrl": "https://madie.cms.gov/Patient/de22f5cd-bb00-48db-9503-d47151c9c146",
    "resource": {
      "resourceType": "Patient",
      "id": "de22f5cd-bb00-48db-9503-d47151c9c146",
      "meta": {
        "profile": [ "http://hl7.org/fhir/us/qicore/StructureDefinition/qicore-patient" ]
      },
      "text": {
        "status": "generated",
        "div": "<div xmlns=\"http://www.w3.org/1999/xhtml\"><div class=\"hapiHeaderText\">Risk_Hypertension<b>RISKPass </b></div><table class=\"hapiPropertyTable\"><tbody><tr><td>Date of birth</td><td><span>01 February 2004</span></td></tr></tbody></table></div>"
      },
      "extension": [ {
        "url": "http://hl7.org/fhir/us/core/StructureDefinition/us-core-race",
        "extension": [ {
          "url": "ombCategory",
          "valueCoding": {
            "system": "urn:oid:2.16.840.1.113883.6.238",
            "code": "1002-5",
            "display": "American Indian or Alaska Native",
            "userSelected": true
          }
        }, {
          "url": "text",
          "valueString": "American Indian or Alaska Native"
        } ]
      }, {
        "url": "http://hl7.org/fhir/us/core/StructureDefinition/us-core-ethnicity",
        "extension": [ {
          "url": "ombCategory",
          "valueCoding": {
            "system": "urn:oid:2.16.840.1.113883.6.238",
            "code": "2135-2",
            "display": "Hispanic or Latino",
            "userSelected": true
          }
        }, {
          "url": "text",
          "valueString": "Hispanic or Latino"
        } ]
      } ],
      "identifier": [ {
        "type": {
          "coding": [ {
            "system": "http://terminology.hl7.org/CodeSystem/v2-0203",
            "code": "MR"
          } ]
        },
        "system": "https://bonnie-fhir.healthit.gov/",
        "value": "63594c7a6aee9629c82981df"
      } ],
      "active": true,
      "name": [ {
        "use": "usual",
        "family": "RiskPass",
        "given": [ "RiskHypertension" ]
      } ],
      "gender": "female",
      "birthDate": "2005-02-01"
    },
    "request": {
      "method": "PUT",
      "url": "Patient/de22f5cd-bb00-48db-9503-d47151c9c146"
    }
  }, {
    "fullUrl": "https://madie.cms.gov/Observation/7b9a8856-e02c-410e-9699-fb523d8cab3c",
    "resource": {
      "resourceType": "Observation",
      "id": "7b9a8856-e02c-410e-9699-fb523d8cab3c",
      "meta": {
        "profile": [ "http://hl7.org/fhir/us/qicore/StructureDefinition/qicore-simple-observation" ]
      },
      "status": "final",
      "category": [ {
        "coding": [ {
          "system": "http://terminology.hl7.org/CodeSystem/observation-category",
          "code": "exam",
          "display": "exam",
          "userSelected": true
        } ]
      } ],
      "code": {
        "coding": [ {
          "system": "http://loinc.org",
          "code": "93857-1"
        } ]
      },
      "subject": {
        "reference": "Patient/de22f5cd-bb00-48db-9503-d47151c9c146"
      },
      "effectiveDateTime": "2026-02-01T08:00:00.000+00:00",
      "performer": [ {
        "reference": "Organization/example1",
        "display": "Hendricks Country Hospital"
      } ],
      "valueDateTime": "2026-02-01T08:00:00.000+00:00"
    },
    "request": {
      "method": "PUT",
      "url": "Observation/7b9a8856-e02c-410e-9699-fb523d8cab3c"
    }
  }, {
    "fullUrl": "https://madie.cms.gov/Observation/7816b141-6d20-4bd1-9835-ed036d294d5d",
    "resource": {
      "resourceType": "Observation",
      "id": "7816b141-6d20-4bd1-9835-ed036d294d5d",
      "meta": {
        "profile": [ "http://hl7.org/fhir/us/qicore/StructureDefinition/qicore-simple-observation" ]
      },
      "status": "final",
      "category": [ {
        "coding": [ {
          "system": "http://terminology.hl7.org/CodeSystem/observation-category",
          "code": "exam",
          "display": "exam",
          "userSelected": true
        } ]
      } ],
      "code": {
        "coding": [ {
          "system": "http://loinc.org",
          "code": "11778-8"
        } ]
      },
      "subject": {
        "reference": "Patient/de22f5cd-bb00-48db-9503-d47151c9c146"
      },
      "effectiveDateTime": "2026-02-01T08:00:00.000+00:00",
      "performer": [ {
        "reference": "Organization/example1",
        "display": "Hendricks Country Hospital"
      } ],
      "valueDateTime": "2026-02-01T00:00:00.000+00:00"
    },
    "request": {
      "method": "PUT",
      "url": "Observation/7816b141-6d20-4bd1-9835-ed036d294d5d"
    }
  }, {
    "fullUrl": "https://madie.cms.gov/Encounter/eac2d539-996b-4653-80d3-9a0deb42a5bf",
    "resource": {
      "resourceType": "Encounter",
      "id": "eac2d539-996b-4653-80d3-9a0deb42a5bf",
      "meta": {
        "profile": [ "http://hl7.org/fhir/us/qicore/StructureDefinition/qicore-encounter" ]
      },
      "status": "finished",
      "class": {
        "system": "http://terminology.hl7.org/CodeSystem/v3-ActCode",
        "code": "IMP",
        "display": "inpatient encounter"
      },
      "type": [ {
        "coding": [ {
          "system": "http://snomed.info/sct",
          "code": "183452005"
        } ]
      } ],
      "subject": {
        "reference": "Patient/de22f5cd-bb00-48db-9503-d47151c9c146"
      },
      "period": {
        "start": "2026-02-01T08:00:00.000+00:00",
        "end": "2026-02-05T08:15:00.000+00:00"
      },
      "diagnosis": [ {
        "extension": [ {
          "url": "http://hl7.org/fhir/us/qicore/StructureDefinition/qicore-encounter-diagnosisPresentOnAdmission",
          "valueCodeableConcept": {
            "coding": [ {
              "system": "https://www.cms.gov/Medicare/Medicare-Fee-for-Service-Payment/HospitalAcqCond/Coding",
              "code": "Y"
            } ]
          }
        } ],
        "condition": {
          "reference": "Condition/f28f4cb0-5d8a-43fb-8417-0a18f7976a16"
        }
      }, {
        "extension": [ {
          "url": "http://hl7.org/fhir/us/qicore/StructureDefinition/qicore-encounter-diagnosisPresentOnAdmission",
          "valueCodeableConcept": {
            "coding": [ {
              "system": "https://www.cms.gov/Medicare/Medicare-Fee-for-Service-Payment/HospitalAcqCond/Coding",
              "code": "N"
            } ]
          }
        } ],
        "condition": {
          "reference": "Condition/4dfa6c63-54e2-4cdc-a262-330a00035309"
        }
      } ]
    },
    "request": {
      "method": "PUT",
      "url": "Encounter/eac2d539-996b-4653-80d3-9a0deb42a5bf"
    }
  }, {
    "fullUrl": "https://madie.cms.gov/Claim/ad558396-3311-4671-a604-85549bbd0b23",
    "resource": {
      "resourceType": "Claim",
      "id": "ad558396-3311-4671-a604-85549bbd0b23",
      "meta": {
        "profile": [ "http://hl7.org/fhir/us/qicore/StructureDefinition/qicore-claim" ]
      },
      "status": "active",
      "type": {
        "coding": [ {
          "system": "http://terminology.hl7.org/CodeSystem/claim-type",
          "code": "institutional",
          "display": "Institutional"
        } ]
      },
      "use": "claim",
      "patient": {
        "reference": "Patient/de22f5cd-bb00-48db-9503-d47151c9c146"
      },
      "created": "2026-11-08",
      "provider": {
        "reference": "Practitioner/practitioner-123456"
      },
      "priority": {
        "coding": [ {
          "system": "http://terminology.hl7.org/CodeSystem/processpriority",
          "code": "normal"
        } ]
      },
      "diagnosis": [ {
        "sequence": 1,
        "diagnosisCodeableConcept": {
          "coding": [ {
            "system": "http://hl7.org/fhir/sid/icd-10-cm",
            "version": "2023",
            "code": "I10",
            "display": "Hypertension"
          } ]
        },
        "type": [ {
          "coding": [ {
            "system": "http://terminology.hl7.org/CodeSystem/ex-diagnosistype",
            "code": "discharge",
            "display": "Discharge Diagnosis"
          } ]
        } ],
        "onAdmission": {
          "coding": [ {
            "system": "https://www.cms.gov/Medicare/Medicare-Fee-for-Service-Payment/HospitalAcqCond/Coding",
            "code": "Y"
          } ]
        }
      }, {
        "sequence": 2,
        "diagnosisCodeableConcept": {
          "coding": [ {
            "system": "http://hl7.org/fhir/sid/icd-10-cm",
            "code": "A32.7",
            "display": "Listerial sepsis"
          } ]
        },
        "type": [ {
          "coding": [ {
            "system": "http://terminology.hl7.org/CodeSystem/ex-diagnosistype",
            "code": "discharge",
            "display": "Discharge Diagnosis"
          } ]
        } ],
        "onAdmission": {
          "coding": [ {
            "system": "https://www.cms.gov/Medicare/Medicare-Fee-for-Service-Payment/HospitalAcqCond/Coding",
            "code": "N"
          } ]
        }
      } ],
      "insurance": [ {
        "sequence": 1,
        "focal": true,
        "coverage": {
          "reference": "Coverage/Coverage-1"
        }
      } ],
      "item": [ {
        "sequence": 1,
        "careTeamSequence": [ 1 ],
        "diagnosisSequence": [ 1 ],
        "productOrService": {
          "coding": [ {
            "system": "http://www.ama-assn.org/go/cpt",
            "code": "99232"
          } ]
        },
        "encounter": [ {
          "reference": "Encounter/eac2d539-996b-4653-80d3-9a0deb42a5bf"
        } ]
      }, {
        "sequence": 2,
        "careTeamSequence": [ 1 ],
        "diagnosisSequence": [ 2 ],
        "productOrService": {
          "coding": [ {
            "system": "http://www.ama-assn.org/go/cpt",
            "code": "99233"
          } ]
        },
        "encounter": [ {
          "reference": "Encounter/eac2d539-996b-4653-80d3-9a0deb42a5bf"
        } ]
      } ],
      "total": {
        "value": 3800,
        "currency": "USD"
      }
    },
    "request": {
      "method": "PUT",
      "url": "Claim/ad558396-3311-4671-a604-85549bbd0b23"
    }
  }, {
    "fullUrl": "https://madie.cms.gov/Procedure/c1aa0ea6-beee-443d-8a86-7837c36aa74e",
    "resource": {
      "resourceType": "Procedure",
      "id": "c1aa0ea6-beee-443d-8a86-7837c36aa74e",
      "meta": {
        "profile": [ "http://hl7.org/fhir/us/qicore/StructureDefinition/qicore-procedure" ]
      },
      "extension": [ {
        "url": "http://hl7.org/fhir/us/qicore/StructureDefinition/qicore-recorded",
        "valueDateTime": "2014-04-05T13:35:00.000+00:00"
      } ],
      "status": "completed",
      "code": {
        "coding": [ {
          "system": "http://snomed.info/sct",
          "code": "10745001"
        } ]
      },
      "subject": {
        "reference": "Patient/de22f5cd-bb00-48db-9503-d47151c9c146"
      },
      "performedDateTime": "2026-02-01T08:00:00.000+00:00"
    },
    "request": {
      "method": "PUT",
      "url": "Procedure/c1aa0ea6-beee-443d-8a86-7837c36aa74e"
    }
  }, {
    "fullUrl": "https://madie.cms.gov/Condition/4dfa6c63-54e2-4cdc-a262-330a00035309",
    "resource": {
      "resourceType": "Condition",
      "id": "4dfa6c63-54e2-4cdc-a262-330a00035309",
      "meta": {
        "profile": [ "http://hl7.org/fhir/us/qicore/StructureDefinition/qicore-condition-encounter-diagnosis" ]
      },
      "category": [ {
        "coding": [ {
          "system": "http://terminology.hl7.org/CodeSystem/condition-category",
          "code": "encounter-diagnosis",
          "display": "Encounter Diagnosis"
        } ]
      } ],
      "code": {
        "coding": [ {
          "system": "http://hl7.org/fhir/sid/icd-10-cm",
          "version": "2023",
          "code": "A32.7",
          "display": "Listerial sepsis",
          "userSelected": true
        } ]
      },
      "subject": {
        "reference": "Patient/de22f5cd-bb00-48db-9503-d47151c9c146"
      },
      "recordedDate": "2026-10-26T08:00:00.000+00:00"
    },
    "request": {
      "method": "PUT",
      "url": "Condition/4dfa6c63-54e2-4cdc-a262-330a00035309"
    }
  }, {
    "fullUrl": "https://madie.cms.gov/Condition/f28f4cb0-5d8a-43fb-8417-0a18f7976a16",
    "resource": {
      "resourceType": "Condition",
      "id": "f28f4cb0-5d8a-43fb-8417-0a18f7976a16",
      "meta": {
        "profile": [ "http://hl7.org/fhir/us/qicore/StructureDefinition/qicore-condition-encounter-diagnosis" ]
      },
      "category": [ {
        "coding": [ {
          "system": "http://terminology.hl7.org/CodeSystem/condition-category",
          "code": "encounter-diagnosis",
          "display": "Encounter Diagnosis"
        } ]
      } ],
      "code": {
        "coding": [ {
          "system": "http://hl7.org/fhir/sid/icd-10-cm",
          "version": "2023",
          "code": "I10",
          "display": "Hypertension",
          "userSelected": true
        } ]
      },
      "subject": {
        "reference": "Patient/de22f5cd-bb00-48db-9503-d47151c9c146"
      },
      "recordedDate": "2026-10-26T08:00:00.000+00:00"
    },
    "request": {
      "method": "PUT",
      "url": "Condition/f28f4cb0-5d8a-43fb-8417-0a18f7976a16"
    }
  }, {
    "fullUrl": "https://madie.cms.gov/MeasureReport/6aa21ef3-7746-4f7a-8de0-82cbfdf916fe",
    "resource": {
      "resourceType": "MeasureReport",
      "id": "6aa21ef3-7746-4f7a-8de0-82cbfdf916fe",
      "meta": {
        "profile": [ "http://hl7.org/fhir/us/cqfmeasures/StructureDefinition/test-case-cqfm" ]
      },
      "contained": [ {
        "resourceType": "Parameters",
        "id": "92b33892-9aad-45ca-a866-ebd9e6d374d8-parameters",
        "parameter": [ {
          "name": "subject",
          "valueString": "de22f5cd-bb00-48db-9503-d47151c9c146"
        } ]
      } ],
      "extension": [ {
        "url": "http://hl7.org/fhir/StructureDefinition/cqf-inputParameters",
        "valueReference": {
          "reference": "#92b33892-9aad-45ca-a866-ebd9e6d374d8-parameters"
        }
      }, {
        "url": "http://hl7.org/fhir/us/cqfmeasures/StructureDefinition/cqfm-testCaseDescription",
        "valueMarkdown": "Risk variable of hypertension."
      } ],
      "modifierExtension": [ {
        "url": "http://hl7.org/fhir/us/cqfmeasures/StructureDefinition/cqfm-isTestCase",
        "valueBoolean": true
      } ],
      "status": "complete",
      "type": "individual",
      "measure": "https://madie.cms.gov/Measure/CMS1028FHIRPCSevereOBComps",
      "period": {
        "start": "2026-01-01",
        "end": "2026-12-31"
      },
      "group": [ {
        "id": "Group_1",
        "population": [ {
          "id": "InitialPopulation_1",
          "code": {
            "coding": [ {
              "system": "http://terminology.hl7.org/CodeSystem/measure-population",
              "code": "initial-population",
              "display": "Initial Population"
            } ]
          },
          "count": 1
        }, {
          "id": "Denominator_1",
          "code": {
            "coding": [ {
              "system": "http://terminology.hl7.org/CodeSystem/measure-population",
              "code": "denominator",
              "display": "Denominator"
            } ]
          },
          "count": 1
        }, {
          "id": "Numerator_1",
          "code": {
            "coding": [ {
              "system": "http://terminology.hl7.org/CodeSystem/measure-population",
              "code": "numerator",
              "display": "Numerator"
            } ]
          },
          "count": 1
        }, {
          "id": "NumeratorExclusion_1",
          "code": {
            "coding": [ {
              "system": "http://terminology.hl7.org/CodeSystem/measure-population",
              "code": "numerator-exclusion",
              "display": "Numerator Exclusion"
            } ]
          },
          "count": 0
        } ],
        "measureScore": {
          "value": 0.0
        }
      }, {
        "id": "Group_2",
        "population": [ {
          "id": "InitialPopulation_2",
          "code": {
            "coding": [ {
              "system": "http://terminology.hl7.org/CodeSystem/measure-population",
              "code": "initial-population",
              "display": "Initial Population"
            } ]
          },
          "count": 1
        }, {
          "id": "Denominator_2",
          "code": {
            "coding": [ {
              "system": "http://terminology.hl7.org/CodeSystem/measure-population",
              "code": "denominator",
              "display": "Denominator"
            } ]
          },
          "count": 1
        }, {
          "id": "Numerator_2",
          "code": {
            "coding": [ {
              "system": "http://terminology.hl7.org/CodeSystem/measure-population",
              "code": "numerator",
              "display": "Numerator"
            } ]
          },
          "count": 1
        }, {
          "id": "NumeratorExclusion_2",
          "code": {
            "coding": [ {
              "system": "http://terminology.hl7.org/CodeSystem/measure-population",
              "code": "numerator-exclusion",
              "display": "Numerator Exclusion"
            } ]
          },
          "count": 0
        } ],
        "measureScore": {
          "value": 0.0
        }
      } ],
      "evaluatedResource": [ {
        "reference": "Patient/de22f5cd-bb00-48db-9503-d47151c9c146"
      }, {
        "reference": "Observation/7b9a8856-e02c-410e-9699-fb523d8cab3c"
      }, {
        "reference": "Observation/7816b141-6d20-4bd1-9835-ed036d294d5d"
      }, {
        "reference": "Encounter/eac2d539-996b-4653-80d3-9a0deb42a5bf"
      }, {
        "reference": "Claim/ad558396-3311-4671-a604-85549bbd0b23"
      }, {
        "reference": "Procedure/c1aa0ea6-beee-443d-8a86-7837c36aa74e"
      }, {
        "reference": "Condition/4dfa6c63-54e2-4cdc-a262-330a00035309"
      }, {
        "reference": "Condition/f28f4cb0-5d8a-43fb-8417-0a18f7976a16"
      } ]
    },
    "request": {
      "method": "PUT",
      "url": "MeasureReport/6aa21ef3-7746-4f7a-8de0-82cbfdf916fe"
    }
  } ]
}