{
  "resourceType": "Bundle",
  "id": "tests-DENEXFail-HighRiskDx",
  "type": "transaction",
  "entry": [ {
    "fullUrl": "https://madie.cms.gov/Patient/658dcd87-1f28-4732-a464-bcfa5681f12f",
    "resource": {
      "resourceType": "Patient",
      "id": "658dcd87-1f28-4732-a464-bcfa5681f12f",
      "meta": {
        "profile": [ "http://hl7.org/fhir/us/qicore/StructureDefinition/qicore-patient" ]
      },
      "extension": [ {
        "url": "http://hl7.org/fhir/us/core/StructureDefinition/us-core-race",
        "extension": [ {
          "url": "ombCategory",
          "valueCoding": {
            "system": "urn:oid:2.16.840.1.113883.6.238",
            "code": "2106-3",
            "display": "White"
          }
        }, {
          "url": "text",
          "valueString": "White"
        } ]
      }, {
        "url": "http://hl7.org/fhir/us/core/StructureDefinition/us-core-ethnicity",
        "extension": [ {
          "url": "ombCategory",
          "valueCoding": {
            "system": "urn:oid:2.16.840.1.113883.6.238",
            "code": "2135-2",
            "display": "Hispanic or Latino"
          }
        }, {
          "url": "text",
          "valueString": "Hispanic or Latino"
        } ]
      }, {
        "url": "http://hl7.org/fhir/us/core/StructureDefinition/us-core-sex",
        "valueCode": "248153007"
      } ],
      "identifier": [ {
        "system": "http://hospital.smarthealthit.org",
        "value": "999999999"
      } ],
      "name": [ {
        "family": "Example",
        "given": [ "Patient" ]
      } ],
      "gender": "male",
      "birthDate": "1975-01-01"
    },
    "request": {
      "method": "PUT",
      "url": "Patient/658dcd87-1f28-4732-a464-bcfa5681f12f"
    }
  }, {
    "fullUrl": "https://madie.cms.gov/Encounter/1ad828b9-27c6-4102-a94a-4e9e1176d6c3",
    "resource": {
      "resourceType": "Encounter",
      "id": "1ad828b9-27c6-4102-a94a-4e9e1176d6c3",
      "meta": {
        "profile": [ "http://hl7.org/fhir/us/qicore/StructureDefinition/qicore-encounter" ]
      },
      "status": "finished",
      "class": {
        "system": "http://terminology.hl7.org/CodeSystem/v3-ActCode",
        "code": "EMER",
        "display": "emergency"
      },
      "type": [ {
        "coding": [ {
          "system": "http://snomed.info/sct",
          "code": "4525004",
          "display": "Emergency department patient visit (procedure)"
        } ]
      } ],
      "subject": {
        "reference": "Patient/658dcd87-1f28-4732-a464-bcfa5681f12f"
      },
      "period": {
        "start": "2026-09-29T08:00:00.000+00:00",
        "end": "2026-09-29T20:00:00.000+00:00"
      }
    },
    "request": {
      "method": "PUT",
      "url": "Encounter/1ad828b9-27c6-4102-a94a-4e9e1176d6c3"
    }
  }, {
    "fullUrl": "https://madie.cms.gov/Encounter/51063cbf-ddf9-49d6-bce1-8aa7ed235723",
    "resource": {
      "resourceType": "Encounter",
      "id": "51063cbf-ddf9-49d6-bce1-8aa7ed235723",
      "meta": {
        "profile": [ "http://hl7.org/fhir/us/qicore/StructureDefinition/qicore-encounter" ]
      },
      "status": "finished",
      "class": {
        "system": "http://terminology.hl7.org/CodeSystem/v3-ActCode",
        "code": "IMP",
        "display": "inpatient encounter"
      },
      "type": [ {
        "coding": [ {
          "system": "http://snomed.info/sct",
          "code": "183452005",
          "display": "Emergency hospital admission (procedure)"
        } ]
      } ],
      "subject": {
        "reference": "Patient/658dcd87-1f28-4732-a464-bcfa5681f12f"
      },
      "period": {
        "start": "2026-09-29T20:01:00.000+00:00",
        "end": "2026-10-03T20:00:00.000+00:00"
      },
      "reasonReference": [ {
        "reference": "Condition/dc836243-9973-43c5-acfe-d4e2096237ca"
      } ]
    },
    "request": {
      "method": "PUT",
      "url": "Encounter/51063cbf-ddf9-49d6-bce1-8aa7ed235723"
    }
  }, {
    "fullUrl": "https://madie.cms.gov/Observation/15a91803-e0df-4f38-aa18-176847fa90ac",
    "resource": {
      "resourceType": "Observation",
      "id": "15a91803-e0df-4f38-aa18-176847fa90ac",
      "meta": {
        "profile": [ "http://hl7.org/fhir/us/qicore/StructureDefinition/qicore-observation-lab" ]
      },
      "status": "final",
      "category": [ {
        "coding": [ {
          "system": "http://terminology.hl7.org/CodeSystem/observation-category",
          "code": "laboratory",
          "display": "Laboratory"
        } ]
      } ],
      "code": {
        "coding": [ {
          "system": "http://loinc.org",
          "code": "21232-4",
          "display": "Creatinine [Mass/volume] in Arterial blood"
        } ]
      },
      "subject": {
        "reference": "Patient/658dcd87-1f28-4732-a464-bcfa5681f12f"
      },
      "effectiveDateTime": "2026-10-01T08:01:00.000+00:00",
      "valueQuantity": {
        "value": 0.9,
        "unit": "mg/dL",
        "system": "http://unitsofmeasure.org",
        "code": "mg/dL"
      }
    },
    "request": {
      "method": "PUT",
      "url": "Observation/15a91803-e0df-4f38-aa18-176847fa90ac"
    }
  }, {
    "fullUrl": "https://madie.cms.gov/Observation/d2f276f0-a681-4c98-b446-dc7dcaf09367",
    "resource": {
      "resourceType": "Observation",
      "id": "d2f276f0-a681-4c98-b446-dc7dcaf09367",
      "meta": {
        "profile": [ "http://hl7.org/fhir/us/qicore/StructureDefinition/qicore-observation-lab" ]
      },
      "status": "final",
      "category": [ {
        "coding": [ {
          "system": "http://terminology.hl7.org/CodeSystem/observation-category",
          "code": "laboratory",
          "display": "Laboratory"
        } ]
      } ],
      "code": {
        "coding": [ {
          "system": "http://loinc.org",
          "code": "21232-4",
          "display": "Creatinine [Mass/volume] in Arterial blood"
        } ]
      },
      "subject": {
        "reference": "Patient/658dcd87-1f28-4732-a464-bcfa5681f12f"
      },
      "effectiveDateTime": "2026-10-01T07:00:00.000+00:00",
      "valueQuantity": {
        "value": 0.91,
        "unit": "mg/dL",
        "system": "http://unitsofmeasure.org",
        "code": "mg/dL"
      }
    },
    "request": {
      "method": "PUT",
      "url": "Observation/d2f276f0-a681-4c98-b446-dc7dcaf09367"
    }
  }, {
    "fullUrl": "https://madie.cms.gov/Condition/dc836243-9973-43c5-acfe-d4e2096237ca",
    "resource": {
      "resourceType": "Condition",
      "id": "dc836243-9973-43c5-acfe-d4e2096237ca",
      "meta": {
        "profile": [ "http://hl7.org/fhir/us/qicore/StructureDefinition/qicore-condition-encounter-diagnosis" ]
      },
      "clinicalStatus": {
        "coding": [ {
          "system": "http://terminology.hl7.org/CodeSystem/condition-clinical",
          "code": "active",
          "display": "Active"
        } ]
      },
      "verificationStatus": {
        "coding": [ {
          "system": "http://terminology.hl7.org/CodeSystem/condition-ver-status",
          "code": "confirmed",
          "display": "Confirmed"
        } ]
      },
      "category": [ {
        "coding": [ {
          "system": "http://terminology.hl7.org/CodeSystem/condition-category",
          "code": "encounter-diagnosis",
          "display": "Encounter Diagnosis"
        } ],
        "text": "Encounter Diagnosis"
      } ],
      "code": {
        "coding": [ {
          "system": "http://hl7.org/fhir/sid/icd-10-cm",
          "code": "S37.061A",
          "display": "Major laceration of right kidney, initial encounter"
        } ],
        "text": "Major laceration of right kidney, initial encounter"
      },
      "subject": {
        "reference": "Patient/658dcd87-1f28-4732-a464-bcfa5681f12f"
      },
      "encounter": {
        "reference": "Encounter/51063cbf-ddf9-49d6-bce1-8aa7ed235723"
      }
    },
    "request": {
      "method": "PUT",
      "url": "Condition/dc836243-9973-43c5-acfe-d4e2096237ca"
    }
  }, {
    "fullUrl": "https://madie.cms.gov/Observation/abe8c640-5a1d-46e6-9ab8-de283a3a4ad9",
    "resource": {
      "resourceType": "Observation",
      "id": "abe8c640-5a1d-46e6-9ab8-de283a3a4ad9",
      "meta": {
        "profile": [ "http://hl7.org/fhir/us/qicore/StructureDefinition/qicore-observation-lab" ]
      },
      "status": "final",
      "category": [ {
        "coding": [ {
          "system": "http://terminology.hl7.org/CodeSystem/observation-category",
          "code": "laboratory",
          "display": "Laboratory"
        } ]
      } ],
      "code": {
        "coding": [ {
          "system": "http://loinc.org",
          "code": "21232-4",
          "display": "Creatinine [Mass/volume] in Arterial blood"
        } ]
      },
      "subject": {
        "reference": "Patient/658dcd87-1f28-4732-a464-bcfa5681f12f"
      },
      "effectiveDateTime": "2026-10-01T07:35:00.000+00:00",
      "valueQuantity": {
        "value": 0.91,
        "unit": "mg/dL",
        "system": "http://unitsofmeasure.org",
        "code": "mg/dL"
      }
    },
    "request": {
      "method": "PUT",
      "url": "Observation/abe8c640-5a1d-46e6-9ab8-de283a3a4ad9"
    }
  }, {
    "fullUrl": "https://madie.cms.gov/MeasureReport/91282b0d-0704-4334-abfa-bf43d7b5375a",
    "resource": {
      "resourceType": "MeasureReport",
      "id": "91282b0d-0704-4334-abfa-bf43d7b5375a",
      "meta": {
        "profile": [ "http://hl7.org/fhir/us/cqfmeasures/StructureDefinition/test-case-cqfm" ]
      },
      "contained": [ {
        "resourceType": "Parameters",
        "id": "1e29ac3e-89d2-4dcb-9712-13b26dae84a8-parameters",
        "parameter": [ {
          "name": "subject",
          "valueString": "658dcd87-1f28-4732-a464-bcfa5681f12f"
        } ]
      } ],
      "extension": [ {
        "url": "http://hl7.org/fhir/StructureDefinition/cqf-inputParameters",
        "valueReference": {
          "reference": "#1e29ac3e-89d2-4dcb-9712-13b26dae84a8-parameters"
        }
      }, {
        "url": "http://hl7.org/fhir/us/cqfmeasures/StructureDefinition/cqfm-testCaseDescription",
        "valueMarkdown": "Patient is High Risk Diagnosis of AKI"
      } ],
      "modifierExtension": [ {
        "url": "http://hl7.org/fhir/us/cqfmeasures/StructureDefinition/cqfm-isTestCase",
        "valueBoolean": true
      } ],
      "status": "complete",
      "type": "individual",
      "measure": "https://madie.cms.gov/Measure/CMS832FHIRHHAKI",
      "period": {
        "start": "2026-01-01",
        "end": "2026-12-31"
      },
      "group": [ {
        "id": "Group_1",
        "population": [ {
          "id": "InitialPopulation_1",
          "code": {
            "coding": [ {
              "system": "http://terminology.hl7.org/CodeSystem/measure-population",
              "code": "initial-population",
              "display": "Initial Population"
            } ]
          },
          "count": 1
        }, {
          "id": "Denominator_1",
          "code": {
            "coding": [ {
              "system": "http://terminology.hl7.org/CodeSystem/measure-population",
              "code": "denominator",
              "display": "Denominator"
            } ]
          },
          "count": 1
        }, {
          "id": "DenominatorExclusion_1",
          "code": {
            "coding": [ {
              "system": "http://terminology.hl7.org/CodeSystem/measure-population",
              "code": "denominator-exclusion",
              "display": "Denominator Exclusion"
            } ]
          },
          "count": 1
        }, {
          "id": "Numerator_1",
          "code": {
            "coding": [ {
              "system": "http://terminology.hl7.org/CodeSystem/measure-population",
              "code": "numerator",
              "display": "Numerator"
            } ]
          },
          "count": 0
        } ],
        "measureScore": {
          "value": 0.0
        }
      } ],
      "evaluatedResource": [ {
        "reference": "Patient/658dcd87-1f28-4732-a464-bcfa5681f12f"
      }, {
        "reference": "Encounter/1ad828b9-27c6-4102-a94a-4e9e1176d6c3"
      }, {
        "reference": "Encounter/51063cbf-ddf9-49d6-bce1-8aa7ed235723"
      }, {
        "reference": "Observation/15a91803-e0df-4f38-aa18-176847fa90ac"
      }, {
        "reference": "Observation/d2f276f0-a681-4c98-b446-dc7dcaf09367"
      }, {
        "reference": "Condition/dc836243-9973-43c5-acfe-d4e2096237ca"
      }, {
        "reference": "Observation/abe8c640-5a1d-46e6-9ab8-de283a3a4ad9"
      } ]
    },
    "request": {
      "method": "PUT",
      "url": "MeasureReport/91282b0d-0704-4334-abfa-bf43d7b5375a"
    }
  } ]
}