{
  "resourceType": "Bundle",
  "id": "tests-NUMERFail-LabTest2GT80-bundle",
  "type": "transaction",
  "entry": [ {
    "fullUrl": "https://madie.cms.gov/Encounter/7450ab7a-b16c-497a-80f8-fd8077f1a9c6",
    "resource": {
      "resourceType": "Encounter",
      "id": "7450ab7a-b16c-497a-80f8-fd8077f1a9c6",
      "meta": {
        "profile": [ "http://hl7.org/fhir/us/qicore/StructureDefinition/qicore-encounter" ]
      },
      "status": "finished",
      "class": {
        "system": "http://terminology.hl7.org/CodeSystem/v3-ActCode",
        "code": "IMP",
        "display": "Inpatient encounter"
      },
      "type": [ {
        "coding": [ {
          "system": "http://snomed.info/sct",
          "code": "183452005",
          "display": "Emergency hospital admission"
        } ]
      } ],
      "subject": {
        "reference": "Patient/8bd7f76b-8d5a-42b8-8900-ec2e1ab5c0d1"
      },
      "period": {
        "start": "2026-01-11T08:00:00.000Z",
        "end": "2026-01-11T21:00:00.000Z"
      }
    },
    "request": {
      "method": "PUT",
      "url": "Encounter/7450ab7a-b16c-497a-80f8-fd8077f1a9c6"
    }
  }, {
    "fullUrl": "https://madie.cms.gov/MedicationAdministration/413cf0c0-cd84-467c-9dca-bd12b84ccda6",
    "resource": {
      "resourceType": "MedicationAdministration",
      "id": "413cf0c0-cd84-467c-9dca-bd12b84ccda6",
      "meta": {
        "profile": [ "http://hl7.org/fhir/us/qicore/StructureDefinition/qicore-medicationadministration" ]
      },
      "status": "completed",
      "medicationCodeableConcept": {
        "coding": [ {
          "system": "http://www.nlm.nih.gov/research/umls/rxnorm",
          "code": "1652639",
          "display": "3 ML insulin lispro 100 UNT/ML Pen Injector"
        } ]
      },
      "subject": {
        "reference": "Patient/8bd7f76b-8d5a-42b8-8900-ec2e1ab5c0d1"
      },
      "effectivePeriod": {
        "start": "2026-01-11T08:00:00.000Z",
        "end": "2026-01-11T09:00:00.000Z"
      }
    },
    "request": {
      "method": "PUT",
      "url": "MedicationAdministration/413cf0c0-cd84-467c-9dca-bd12b84ccda6"
    }
  }, {
    "fullUrl": "https://madie.cms.gov/Observation/aed09f29-fc40-4707-9938-c7a61637e974",
    "resource": {
      "resourceType": "Observation",
      "id": "aed09f29-fc40-4707-9938-c7a61637e974",
      "meta": {
        "profile": [ "http://hl7.org/fhir/us/qicore/StructureDefinition/qicore-observation-lab" ]
      },
      "status": "final",
      "category": [ {
        "coding": [ {
          "system": "http://terminology.hl7.org/CodeSystem/observation-category",
          "code": "laboratory",
          "display": "Laboratory"
        } ],
        "text": "Laboratory"
      } ],
      "code": {
        "coding": [ {
          "system": "http://loinc.org",
          "code": "1556-0",
          "display": "Fasting glucose [Mass/volume] in Capillary blood"
        } ]
      },
      "subject": {
        "reference": "Patient/8bd7f76b-8d5a-42b8-8900-ec2e1ab5c0d1"
      },
      "effectivePeriod": {
        "start": "2026-01-11T08:00:00.000Z",
        "end": "2026-01-11T08:00:00.000Z"
      },
      "issued": "2026-01-11T08:00:00.000Z",
      "valueQuantity": {
        "value": 35,
        "unit": "mg/dL"
      }
    },
    "request": {
      "method": "PUT",
      "url": "Observation/aed09f29-fc40-4707-9938-c7a61637e974"
    }
  }, {
    "fullUrl": "https://madie.cms.gov/Observation/fb1639b7-6a38-4c3e-999c-36416412b072",
    "resource": {
      "resourceType": "Observation",
      "id": "fb1639b7-6a38-4c3e-999c-36416412b072",
      "meta": {
        "profile": [ "http://hl7.org/fhir/us/qicore/StructureDefinition/qicore-observation-lab" ]
      },
      "status": "final",
      "category": [ {
        "coding": [ {
          "system": "http://terminology.hl7.org/CodeSystem/observation-category",
          "code": "laboratory",
          "display": "Laboratory"
        } ],
        "text": "Laboratory"
      } ],
      "code": {
        "coding": [ {
          "system": "http://loinc.org",
          "code": "1556-0",
          "display": "Fasting glucose [Mass/volume] in Capillary blood"
        } ]
      },
      "subject": {
        "reference": "Patient/8bd7f76b-8d5a-42b8-8900-ec2e1ab5c0d1"
      },
      "effectivePeriod": {
        "start": "2026-01-11T08:05:00.000Z",
        "end": "2026-01-11T08:05:00.000Z"
      },
      "issued": "2026-01-11T08:05:00.000Z",
      "valueQuantity": {
        "value": 80.1,
        "unit": "mg/dL"
      }
    },
    "request": {
      "method": "PUT",
      "url": "Observation/fb1639b7-6a38-4c3e-999c-36416412b072"
    }
  }, {
    "fullUrl": "https://madie.cms.gov/Patient/8bd7f76b-8d5a-42b8-8900-ec2e1ab5c0d1",
    "resource": {
      "resourceType": "Patient",
      "id": "8bd7f76b-8d5a-42b8-8900-ec2e1ab5c0d1",
      "meta": {
        "profile": [ "http://hl7.org/fhir/us/qicore/StructureDefinition/qicore-patient" ]
      },
      "extension": [ {
        "url": "http://hl7.org/fhir/us/core/StructureDefinition/us-core-race",
        "extension": [ {
          "url": "ombCategory",
          "valueCoding": {
            "system": "urn:oid:2.16.840.1.113883.6.238",
            "code": "2106-3",
            "display": "White"
          }
        }, {
          "url": "text",
          "valueString": "White"
        } ]
      }, {
        "url": "http://hl7.org/fhir/us/core/StructureDefinition/us-core-ethnicity",
        "extension": [ {
          "url": "ombCategory",
          "valueCoding": {
            "system": "urn:oid:2.16.840.1.113883.6.238",
            "code": "2135-2",
            "display": "Hispanic or Latino"
          }
        }, {
          "url": "text",
          "valueString": "Hispanic or Latino"
        } ]
      }, {
        "url": "http://hl7.org/fhir/us/core/StructureDefinition/us-core-sex",
        "valueCode": "248153007"
      } ],
      "identifier": [ {
        "system": "http://hospital.smarthealthit.org",
        "value": "999999999"
      } ],
      "name": [ {
        "family": "CMSNUMERFail",
        "given": [ "LabTest2GT80" ]
      } ],
      "gender": "female",
      "birthDate": "2000-07-11"
    },
    "request": {
      "method": "PUT",
      "url": "Patient/8bd7f76b-8d5a-42b8-8900-ec2e1ab5c0d1"
    }
  }, {
    "fullUrl": "https://madie.cms.gov/MeasureReport/3ce3f551-0da2-4cc1-9a86-d1008fcd9aba",
    "resource": {
      "resourceType": "MeasureReport",
      "id": "3ce3f551-0da2-4cc1-9a86-d1008fcd9aba",
      "meta": {
        "profile": [ "http://hl7.org/fhir/us/cqfmeasures/StructureDefinition/test-case-cqfm" ]
      },
      "contained": [ {
        "resourceType": "Parameters",
        "id": "15754f6b-bdba-402c-beea-0a1cf0895e8b-parameters",
        "parameter": [ {
          "name": "subject",
          "valueString": "8bd7f76b-8d5a-42b8-8900-ec2e1ab5c0d1"
        } ]
      } ],
      "extension": [ {
        "url": "http://hl7.org/fhir/StructureDefinition/cqf-inputParameters",
        "valueReference": {
          "reference": "#15754f6b-bdba-402c-beea-0a1cf0895e8b-parameters"
        }
      }, {
        "url": "http://hl7.org/fhir/us/cqfmeasures/StructureDefinition/cqfm-testCaseDescription",
        "valueMarkdown": "Encounter, meds administered, lab test 2 result GT 80 within 5 min of lab test 1 that has result of 35 mg/dL.\n\n(CMS #19)"
      } ],
      "modifierExtension": [ {
        "url": "http://hl7.org/fhir/us/cqfmeasures/StructureDefinition/cqfm-isTestCase",
        "valueBoolean": true
      } ],
      "status": "complete",
      "type": "individual",
      "measure": "https://madie.cms.gov/Measure/NHSNGlycemicControlHypoglycemiaInitialPopulation",
      "period": {
        "start": "2026-01-01",
        "end": "2026-12-31"
      },
      "group": [ {
        "id": "Group_1",
        "population": [ {
          "id": "InitialPopulation_1",
          "code": {
            "coding": [ {
              "system": "http://terminology.hl7.org/CodeSystem/measure-population",
              "code": "initial-population",
              "display": "Initial Population"
            } ]
          },
          "count": 1
        } ],
        "measureScore": {
          "value": 0.0
        }
      } ],
      "evaluatedResource": [ {
        "reference": "Encounter/7450ab7a-b16c-497a-80f8-fd8077f1a9c6"
      }, {
        "reference": "MedicationAdministration/413cf0c0-cd84-467c-9dca-bd12b84ccda6"
      }, {
        "reference": "Observation/aed09f29-fc40-4707-9938-c7a61637e974"
      }, {
        "reference": "Observation/fb1639b7-6a38-4c3e-999c-36416412b072"
      }, {
        "reference": "Patient/8bd7f76b-8d5a-42b8-8900-ec2e1ab5c0d1"
      } ]
    },
    "request": {
      "method": "PUT",
      "url": "MeasureReport/3ce3f551-0da2-4cc1-9a86-d1008fcd9aba"
    }
  } ]
}