{
  "resourceType": "Bundle",
  "id": "612e6b0202c62a011f2ec156",
  "type": "transaction",
  "entry": [ {
    "fullUrl": "https://madie.cms.gov/Patient/cd776813-caeb-4f71-97a9-6c40882c7041",
    "resource": {
      "resourceType": "Patient",
      "id": "cd776813-caeb-4f71-97a9-6c40882c7041",
      "meta": {
        "profile": [ "http://hl7.org/fhir/us/qicore/StructureDefinition/qicore-patient" ]
      },
      "text": {
        "status": "generated",
        "div": "<div xmlns=\"http://www.w3.org/1999/xhtml\"><div class=\"hapiHeaderText\">SCIP_HipFxRank=1 <b>DENEXPASS </b></div><table class=\"hapiPropertyTable\"><tbody><tr><td>Identifier</td><td>66c70c125db369967b4b164e75338304</td></tr><tr><td>Date of birth</td><td><span>01 September 2000</span></td></tr></tbody></table></div>"
      },
      "extension": [ {
        "url": "http://hl7.org/fhir/us/core/StructureDefinition/us-core-race",
        "extension": [ {
          "url": "ombCategory",
          "valueCoding": {
            "system": "urn:oid:2.16.840.1.113883.6.238",
            "code": "1002-5",
            "display": "American Indian or Alaska Native",
            "userSelected": true
          }
        }, {
          "url": "text",
          "valueString": "American Indian or Alaska Native"
        } ]
      }, {
        "url": "http://hl7.org/fhir/us/core/StructureDefinition/us-core-ethnicity",
        "extension": [ {
          "url": "ombCategory",
          "valueCoding": {
            "system": "urn:oid:2.16.840.1.113883.6.238",
            "code": "2135-2",
            "display": "Hispanic or Latino",
            "userSelected": true
          }
        }, {
          "url": "text",
          "valueString": "Hispanic or Latino"
        } ]
      } ],
      "identifier": [ {
        "type": {
          "coding": [ {
            "system": "http://terminology.hl7.org/CodeSystem/v2-0203",
            "code": "MR"
          } ]
        },
        "system": "https://bonnie-fhir.healthit.gov/",
        "value": "612e6b0202c62a011f2ec156"
      } ],
      "active": true,
      "name": [ {
        "use": "usual",
        "family": "DENEXPass ",
        "given": [ "SCIP_HipFxRank1" ]
      } ],
      "gender": "male",
      "birthDate": "2001-09-01"
    },
    "request": {
      "method": "PUT",
      "url": "Patient/cd776813-caeb-4f71-97a9-6c40882c7041"
    }
  }, {
    "fullUrl": "https://madie.cms.gov/Encounter/ac486cf8-1451-4215-adcc-b3598644f6ec",
    "resource": {
      "resourceType": "Encounter",
      "id": "ac486cf8-1451-4215-adcc-b3598644f6ec",
      "meta": {
        "profile": [ "http://hl7.org/fhir/us/qicore/StructureDefinition/qicore-encounter" ]
      },
      "status": "finished",
      "class": {
        "system": "http://terminology.hl7.org/CodeSystem/v3-ActCode",
        "code": "IMP",
        "display": "inpatient encounter"
      },
      "type": [ {
        "coding": [ {
          "system": "http://snomed.info/sct",
          "code": "183452005"
        } ]
      } ],
      "subject": {
        "reference": "Patient/cd776813-caeb-4f71-97a9-6c40882c7041"
      },
      "period": {
        "start": "2026-09-02T06:00:00.000+00:00",
        "end": "2026-12-31T12:59:00.000+00:00"
      },
      "length": {
        "value": 120,
        "unit": "days"
      }
    },
    "request": {
      "method": "PUT",
      "url": "Encounter/ac486cf8-1451-4215-adcc-b3598644f6ec"
    }
  }, {
    "fullUrl": "https://madie.cms.gov/claim/5ca62962b8484628b8de1ec5",
    "resource": {
      "resourceType": "Claim",
      "id": "5ca62962b8484628b8de1ec5",
      "meta": {
        "profile": [ "http://hl7.org/fhir/us/qicore/StructureDefinition/qicore-claim" ]
      },
      "status": "active",
      "type": {
        "coding": [ {
          "system": "http://terminology.hl7.org/CodeSystem/claim-type",
          "code": "institutional"
        } ]
      },
      "use": "claim",
      "patient": {
        "reference": "Patient/cd776813-caeb-4f71-97a9-6c40882c7041"
      },
      "created": "2026-12-01",
      "provider": {
        "reference": "Practitioner/927c0fee-be96-44be-897b-6aebd39f9320"
      },
      "priority": {
        "coding": [ {
          "system": "http://terminology.hl7.org/CodeSystem/processpriority",
          "code": "normal"
        } ]
      },
      "procedure": [ {
        "sequence": 1,
        "type": [ {
          "coding": [ {
            "system": "http://terminology.hl7.org/CodeSystem/ex-procedure-type",
            "code": "primary"
          } ]
        } ],
        "procedureCodeableConcept": {
          "coding": [ {
            "system": "http://www.cms.gov/Medicare/Coding/ICD10",
            "code": "0SQ90ZZ",
            "display": "Repair Right Hip Joint, Open Approach"
          } ]
        }
      } ],
      "insurance": [ {
        "sequence": 1,
        "focal": true,
        "coverage": {
          "reference": "Coverage/8a2eb129-d0c3-48fb-9623-013620407774"
        }
      } ],
      "item": [ {
        "sequence": 1,
        "procedureSequence": [ 1 ],
        "productOrService": {
          "coding": [ {
            "system": "http://terminology.hl7.org/CodeSystem/ex-USCLS",
            "code": "99555"
          } ]
        },
        "encounter": [ {
          "reference": "Encounter/ac486cf8-1451-4215-adcc-b3598644f6ec"
        } ]
      } ]
    },
    "request": {
      "method": "PUT",
      "url": "Claim/5ca62962b8484628b8de1ec5"
    }
  }, {
    "fullUrl": "https://madie.cms.gov/Coverage/8a2eb129-d0c3-48fb-9623-013620407774",
    "resource": {
      "resourceType": "Coverage",
      "id": "8a2eb129-d0c3-48fb-9623-013620407774",
      "status": "active",
      "beneficiary": {
        "reference": "Patient/cd776813-caeb-4f71-97a9-6c40882c7041"
      },
      "period": {
        "start": "2001-09-01T08:00:00.000+00:00"
      },
      "payor": [ {
        "reference": "Organization/0786de43-3c1c-4839-a5ca-83f95e26419a"
      } ]
    },
    "request": {
      "method": "PUT",
      "url": "Coverage/8a2eb129-d0c3-48fb-9623-013620407774"
    }
  }, {
    "fullUrl": "https://madie.cms.gov/Procedure/e7c47b6f-7e3d-4001-89fa-cb8c0186f110",
    "resource": {
      "resourceType": "Procedure",
      "id": "e7c47b6f-7e3d-4001-89fa-cb8c0186f110",
      "meta": {
        "profile": [ "http://hl7.org/fhir/us/qicore/StructureDefinition/qicore-procedure" ]
      },
      "extension": [ {
        "url": "http://hl7.org/fhir/us/qicore/StructureDefinition/qicore-recorded",
        "valueDateTime": "2013-09-02T13:35:00.000+00:00"
      } ],
      "status": "completed",
      "code": {
        "coding": [ {
          "system": "http://www.cms.gov/Medicare/Coding/ICD10",
          "code": "0SQ90ZZ"
        } ]
      },
      "subject": {
        "reference": "Patient/cd776813-caeb-4f71-97a9-6c40882c7041"
      },
      "performedPeriod": {
        "start": "2026-09-02T09:00:00.000+00:00",
        "end": "2026-09-02T12:59:00.000+00:00"
      }
    },
    "request": {
      "method": "PUT",
      "url": "Procedure/e7c47b6f-7e3d-4001-89fa-cb8c0186f110"
    }
  }, {
    "fullUrl": "https://madie.cms.gov/Organization/0786de43-3c1c-4839-a5ca-83f95e26419a",
    "resource": {
      "resourceType": "Organization",
      "id": "0786de43-3c1c-4839-a5ca-83f95e26419a",
      "meta": {
        "profile": [ "http://hl7.org/fhir/us/qicore/StructureDefinition/qicore-organization" ]
      },
      "identifier": [ {
        "use": "temp",
        "system": "urn:oid:2.16.840.1.113883.4.4",
        "value": "21-3259825"
      } ],
      "active": true,
      "type": [ {
        "coding": [ {
          "system": "http://terminology.hl7.org/CodeSystem/organization-type",
          "code": "pay",
          "display": "Payer"
        } ]
      } ],
      "name": "Blue Cross Blue Shield of Texas",
      "telecom": [ {
        "system": "phone",
        "value": "(+1) 972-766-6900"
      } ],
      "address": [ {
        "use": "billing",
        "type": "postal",
        "line": [ "P.O. Box 660044" ],
        "city": "Dallas",
        "state": "TX",
        "postalCode": "75266-0044",
        "country": "USA"
      } ]
    },
    "request": {
      "method": "PUT",
      "url": "Organization/0786de43-3c1c-4839-a5ca-83f95e26419a"
    }
  }, {
    "fullUrl": "https://madie.cms.gov/Practitioner/927c0fee-be96-44be-897b-6aebd39f9320",
    "resource": {
      "resourceType": "Practitioner",
      "id": "927c0fee-be96-44be-897b-6aebd39f9320",
      "identifier": [ {
        "system": "http://hl7.org/fhir/sid/us-npi",
        "value": "123456"
      } ],
      "name": [ {
        "family": "Evil",
        "prefix": [ "Dr" ]
      } ]
    },
    "request": {
      "method": "PUT",
      "url": "Practitioner/927c0fee-be96-44be-897b-6aebd39f9320"
    }
  }, {
    "fullUrl": "https://madie.cms.gov/MeasureReport/e9c2316a-26d7-4e26-a195-e4b68cbd7085",
    "resource": {
      "resourceType": "MeasureReport",
      "id": "e9c2316a-26d7-4e26-a195-e4b68cbd7085",
      "meta": {
        "profile": [ "http://hl7.org/fhir/us/cqfmeasures/StructureDefinition/test-case-cqfm" ]
      },
      "contained": [ {
        "resourceType": "Parameters",
        "id": "4a613469-6f18-4f2a-9cdb-6772d0c99418-parameters",
        "parameter": [ {
          "name": "subject",
          "valueString": "cd776813-caeb-4f71-97a9-6c40882c7041"
        } ]
      } ],
      "extension": [ {
        "url": "http://hl7.org/fhir/StructureDefinition/cqf-inputParameters",
        "valueReference": {
          "reference": "#4a613469-6f18-4f2a-9cdb-6772d0c99418-parameters"
        }
      }, {
        "url": "http://hl7.org/fhir/us/cqfmeasures/StructureDefinition/cqfm-testCaseDescription",
        "valueMarkdown": "Patient had SCIP -HipFx during Encounter and Rank =1\n"
      } ],
      "modifierExtension": [ {
        "url": "http://hl7.org/fhir/us/cqfmeasures/StructureDefinition/cqfm-isTestCase",
        "valueBoolean": true
      } ],
      "status": "complete",
      "type": "individual",
      "measure": "https://madie.cms.gov/Measure/CMS108FHIRVTEProphylaxis",
      "period": {
        "start": "2026-01-01",
        "end": "2026-12-31"
      },
      "group": [ {
        "id": "Group_1",
        "population": [ {
          "id": "InitialPopulation_1",
          "code": {
            "coding": [ {
              "system": "http://terminology.hl7.org/CodeSystem/measure-population",
              "code": "initial-population",
              "display": "Initial Population"
            } ]
          },
          "count": 1
        }, {
          "id": "Denominator_1",
          "code": {
            "coding": [ {
              "system": "http://terminology.hl7.org/CodeSystem/measure-population",
              "code": "denominator",
              "display": "Denominator"
            } ]
          },
          "count": 1
        }, {
          "id": "DenominatorExclusion_1",
          "code": {
            "coding": [ {
              "system": "http://terminology.hl7.org/CodeSystem/measure-population",
              "code": "denominator-exclusion",
              "display": "Denominator Exclusion"
            } ]
          },
          "count": 1
        }, {
          "id": "Numerator_1",
          "code": {
            "coding": [ {
              "system": "http://terminology.hl7.org/CodeSystem/measure-population",
              "code": "numerator",
              "display": "Numerator"
            } ]
          },
          "count": 0
        } ],
        "measureScore": {
          "value": 0.0
        }
      } ],
      "evaluatedResource": [ {
        "reference": "Patient/cd776813-caeb-4f71-97a9-6c40882c7041"
      }, {
        "reference": "Encounter/ac486cf8-1451-4215-adcc-b3598644f6ec"
      }, {
        "reference": "Claim/5ca62962b8484628b8de1ec5"
      }, {
        "reference": "Coverage/8a2eb129-d0c3-48fb-9623-013620407774"
      }, {
        "reference": "Procedure/e7c47b6f-7e3d-4001-89fa-cb8c0186f110"
      }, {
        "reference": "Organization/0786de43-3c1c-4839-a5ca-83f95e26419a"
      }, {
        "reference": "Practitioner/927c0fee-be96-44be-897b-6aebd39f9320"
      } ]
    },
    "request": {
      "method": "PUT",
      "url": "MeasureReport/e9c2316a-26d7-4e26-a195-e4b68cbd7085"
    }
  } ]
}