{
  "resourceType": "Bundle",
  "id": "6179ec1dad1a790b7af75256",
  "type": "transaction",
  "entry": [ {
    "fullUrl": "https://madie.cms.gov/Patient/92180acb-2860-4d67-b97a-62e84fcb7c2d",
    "resource": {
      "resourceType": "Patient",
      "id": "92180acb-2860-4d67-b97a-62e84fcb7c2d",
      "meta": {
        "profile": [ "http://hl7.org/fhir/us/qicore/StructureDefinition/qicore-patient" ]
      },
      "extension": [ {
        "url": "http://hl7.org/fhir/us/core/StructureDefinition/us-core-race",
        "extension": [ {
          "url": "ombCategory",
          "valueCoding": {
            "system": "urn:oid:2.16.840.1.113883.6.238",
            "code": "2028-9",
            "display": "Asian",
            "userSelected": true
          }
        }, {
          "url": "text",
          "valueString": "Asian"
        } ]
      }, {
        "url": "http://hl7.org/fhir/us/core/StructureDefinition/us-core-ethnicity",
        "extension": [ {
          "url": "ombCategory",
          "valueCoding": {
            "system": "urn:oid:2.16.840.1.113883.6.238",
            "code": "2135-2",
            "display": "Hispanic or Latino",
            "userSelected": true
          }
        }, {
          "url": "text",
          "valueString": "Hispanic or Latino"
        } ]
      }, {
        "url": "http://hl7.org/fhir/us/core/StructureDefinition/us-core-sex",
        "valueCode": "248152002"
      } ],
      "identifier": [ {
        "type": {
          "coding": [ {
            "system": "http://terminology.hl7.org/CodeSystem/v2-0203",
            "code": "MR"
          } ]
        },
        "system": "https://bonnie-fhir.healthit.gov/",
        "value": "6179ec1dad1a790b7af75256"
      } ],
      "name": [ {
        "family": "DenExcl2Pass",
        "given": [ "PxExclStartsDuringEndsDuringEDrelevantPeriod" ]
      } ],
      "gender": "female",
      "birthDate": "1985-12-02"
    },
    "request": {
      "method": "PUT",
      "url": "Patient/92180acb-2860-4d67-b97a-62e84fcb7c2d"
    }
  }, {
    "fullUrl": "https://madie.cms.gov/Encounter/68ac11e0-c064-44bd-9c32-b5e72e9b4d27",
    "resource": {
      "resourceType": "Encounter",
      "id": "68ac11e0-c064-44bd-9c32-b5e72e9b4d27",
      "meta": {
        "profile": [ "http://hl7.org/fhir/us/qicore/StructureDefinition/qicore-encounter" ]
      },
      "status": "finished",
      "class": {
        "system": "http://terminology.hl7.org/CodeSystem/v3-ActCode",
        "code": "EMER",
        "display": "emergency",
        "userSelected": true
      },
      "type": [ {
        "coding": [ {
          "system": "http://snomed.info/sct",
          "version": "2020-09",
          "code": "4525004",
          "display": "Emergency department patient visit (procedure)",
          "userSelected": true
        } ]
      } ],
      "subject": {
        "reference": "Patient/92180acb-2860-4d67-b97a-62e84fcb7c2d"
      },
      "period": {
        "start": "2026-10-09T08:05:00.000+00:00",
        "end": "2026-10-10T07:15:00.000+00:00"
      },
      "reasonReference": [ {
        "reference": "Condition/576fa5b3-4e3a-4229-9f0f-df75f5587674"
      } ]
    },
    "request": {
      "method": "PUT",
      "url": "Encounter/68ac11e0-c064-44bd-9c32-b5e72e9b4d27"
    }
  }, {
    "fullUrl": "https://madie.cms.gov/Condition/576fa5b3-4e3a-4229-9f0f-df75f5587674",
    "resource": {
      "resourceType": "Condition",
      "id": "576fa5b3-4e3a-4229-9f0f-df75f5587674",
      "meta": {
        "profile": [ "http://hl7.org/fhir/us/qicore/StructureDefinition/qicore-condition-problems-health-concerns" ]
      },
      "clinicalStatus": {
        "coding": [ {
          "system": "http://terminology.hl7.org/CodeSystem/condition-clinical",
          "code": "active",
          "display": "active",
          "userSelected": true
        } ]
      },
      "category": [ {
        "coding": [ {
          "system": "http://terminology.hl7.org/CodeSystem/condition-category",
          "code": "problem-list-item",
          "display": "Problem List Item",
          "userSelected": true
        } ]
      } ],
      "code": {
        "coding": [ {
          "system": "http://snomed.info/sct",
          "version": "2020-09",
          "code": "401303003",
          "display": "Acute ST segment elevation myocardial infarction (disorder)",
          "userSelected": true
        } ]
      },
      "subject": {
        "reference": "Patient/92180acb-2860-4d67-b97a-62e84fcb7c2d"
      },
      "onsetDateTime": "2026-10-09T08:30:00.000+00:00"
    },
    "request": {
      "method": "PUT",
      "url": "Condition/576fa5b3-4e3a-4229-9f0f-df75f5587674"
    }
  }, {
    "fullUrl": "https://madie.cms.gov/Procedure/97647e6b-086f-47e4-9cd5-1e0b75ed0e44",
    "resource": {
      "resourceType": "Procedure",
      "id": "97647e6b-086f-47e4-9cd5-1e0b75ed0e44",
      "meta": {
        "profile": [ "http://hl7.org/fhir/us/qicore/StructureDefinition/qicore-procedure" ]
      },
      "extension": [ {
        "url": "http://hl7.org/fhir/us/qicore/StructureDefinition/qicore-recorded",
        "valueDateTime": "2026-10-09T10:15:00.000+00:00"
      } ],
      "status": "completed",
      "category": {
        "coding": [ {
          "system": "http://snomed.info/sct",
          "code": "387713003",
          "display": "Surgical procedure",
          "userSelected": true
        } ]
      },
      "code": {
        "coding": [ {
          "system": "http://www.cms.gov/Medicare/Coding/ICD10",
          "code": "5A1935Z",
          "display": "Respiratory Ventilation, Less than 24 Consecutive Hours",
          "userSelected": true
        } ]
      },
      "subject": {
        "reference": "Patient/92180acb-2860-4d67-b97a-62e84fcb7c2d"
      },
      "encounter": {
        "reference": "Encounter/68ac11e0-c064-44bd-9c32-b5e72e9b4d27"
      },
      "performedPeriod": {
        "start": "2026-10-09T12:00:00.000+00:00",
        "end": "2026-10-09T21:15:00.000+00:00"
      }
    },
    "request": {
      "method": "PUT",
      "url": "Procedure/97647e6b-086f-47e4-9cd5-1e0b75ed0e44"
    }
  }, {
    "fullUrl": "https://madie.cms.gov/MeasureReport/13d67c0c-844f-44fe-a6d7-fa6f7668e6ce",
    "resource": {
      "resourceType": "MeasureReport",
      "id": "13d67c0c-844f-44fe-a6d7-fa6f7668e6ce",
      "meta": {
        "profile": [ "http://hl7.org/fhir/us/cqfmeasures/StructureDefinition/test-case-cqfm" ]
      },
      "contained": [ {
        "resourceType": "Parameters",
        "id": "30373a6d-0184-429a-af1c-5acbc354c96a-parameters",
        "parameter": [ {
          "name": "subject",
          "valueString": "92180acb-2860-4d67-b97a-62e84fcb7c2d"
        } ]
      } ],
      "extension": [ {
        "url": "http://hl7.org/fhir/StructureDefinition/cqf-inputParameters",
        "valueReference": {
          "reference": "#30373a6d-0184-429a-af1c-5acbc354c96a-parameters"
        }
      }, {
        "url": "http://hl7.org/fhir/us/cqfmeasures/StructureDefinition/cqfm-testCaseDescription",
        "valueMarkdown": "Patient has endotracheal intubation (exclusion procedure) that starts during and ends during the ED encounter - using relevantPeriod"
      } ],
      "modifierExtension": [ {
        "url": "http://hl7.org/fhir/us/cqfmeasures/StructureDefinition/cqfm-isTestCase",
        "valueBoolean": true
      } ],
      "status": "complete",
      "type": "individual",
      "measure": "https://madie.cms.gov/Measure/CMS996FHIRAptTxforSTEMI",
      "period": {
        "start": "2026-01-01",
        "end": "2026-12-31"
      },
      "group": [ {
        "id": "Group_1",
        "population": [ {
          "id": "InitialPopulation_1",
          "code": {
            "coding": [ {
              "system": "http://terminology.hl7.org/CodeSystem/measure-population",
              "code": "initial-population",
              "display": "Initial Population"
            } ]
          },
          "count": 1
        }, {
          "id": "Denominator_1",
          "code": {
            "coding": [ {
              "system": "http://terminology.hl7.org/CodeSystem/measure-population",
              "code": "denominator",
              "display": "Denominator"
            } ]
          },
          "count": 1
        }, {
          "id": "DenominatorExclusion_1",
          "code": {
            "coding": [ {
              "system": "http://terminology.hl7.org/CodeSystem/measure-population",
              "code": "denominator-exclusion",
              "display": "Denominator Exclusion"
            } ]
          },
          "count": 1
        }, {
          "id": "Numerator_1",
          "code": {
            "coding": [ {
              "system": "http://terminology.hl7.org/CodeSystem/measure-population",
              "code": "numerator",
              "display": "Numerator"
            } ]
          },
          "count": 0
        }, {
          "id": "DenominatorException_1",
          "code": {
            "coding": [ {
              "system": "http://terminology.hl7.org/CodeSystem/measure-population",
              "code": "denominator-exception",
              "display": "Denominator Exception"
            } ]
          },
          "count": 0
        } ],
        "measureScore": {
          "value": 0.0
        }
      } ],
      "evaluatedResource": [ {
        "reference": "Patient/92180acb-2860-4d67-b97a-62e84fcb7c2d"
      }, {
        "reference": "Encounter/68ac11e0-c064-44bd-9c32-b5e72e9b4d27"
      }, {
        "reference": "Condition/576fa5b3-4e3a-4229-9f0f-df75f5587674"
      }, {
        "reference": "Procedure/97647e6b-086f-47e4-9cd5-1e0b75ed0e44"
      } ]
    },
    "request": {
      "method": "PUT",
      "url": "MeasureReport/13d67c0c-844f-44fe-a6d7-fa6f7668e6ce"
    }
  } ]
}