{
  "resourceType": "Bundle",
  "id": "641366a64b11b147841ab89f",
  "type": "transaction",
  "entry": [ {
    "fullUrl": "https://madie.cms.gov/Patient/2a7112e7-5937-4288-9271-cdc2d7e5eaa4",
    "resource": {
      "resourceType": "Patient",
      "id": "2a7112e7-5937-4288-9271-cdc2d7e5eaa4",
      "meta": {
        "profile": [ "http://hl7.org/fhir/us/qicore/StructureDefinition/qicore-patient" ]
      },
      "extension": [ {
        "url": "http://hl7.org/fhir/us/core/StructureDefinition/us-core-race",
        "extension": [ {
          "url": "ombCategory",
          "valueCoding": {
            "system": "urn:oid:2.16.840.1.113883.6.238",
            "code": "2076-8",
            "display": "Native Hawaiian or Other Pacific Islander",
            "userSelected": true
          }
        }, {
          "url": "text",
          "valueString": "Native Hawaiian or Other Pacific Islander"
        } ]
      }, {
        "url": "http://hl7.org/fhir/us/core/StructureDefinition/us-core-ethnicity",
        "extension": [ {
          "url": "ombCategory",
          "valueCoding": {
            "system": "urn:oid:2.16.840.1.113883.6.238",
            "code": "2186-5",
            "display": "Not Hispanic or Latino",
            "userSelected": true
          }
        }, {
          "url": "text",
          "valueString": "Not Hispanic or Latino"
        } ]
      }, {
        "url": "http://hl7.org/fhir/us/core/StructureDefinition/us-core-sex",
        "valueCode": "248153007"
      } ],
      "identifier": [ {
        "type": {
          "coding": [ {
            "system": "http://terminology.hl7.org/CodeSystem/v2-0203",
            "code": "MR"
          } ]
        },
        "system": "https://bonnie-fhir.healthit.gov/",
        "value": "641366a64b11b147841ab89f"
      } ],
      "name": [ {
        "family": "DENEXPass",
        "given": [ "DischargeHomeHosp" ]
      } ],
      "gender": "male",
      "birthDate": "1965-03-22"
    },
    "request": {
      "method": "PUT",
      "url": "Patient/2a7112e7-5937-4288-9271-cdc2d7e5eaa4"
    }
  }, {
    "fullUrl": "https://madie.cms.gov/Condition/5db38ec5-7ef5-4857-b724-2932e631c7db",
    "resource": {
      "resourceType": "Condition",
      "id": "5db38ec5-7ef5-4857-b724-2932e631c7db",
      "meta": {
        "profile": [ "http://hl7.org/fhir/us/qicore/StructureDefinition/qicore-condition-encounter-diagnosis" ]
      },
      "clinicalStatus": {
        "coding": [ {
          "system": "http://terminology.hl7.org/CodeSystem/condition-clinical",
          "code": "active",
          "display": "active",
          "userSelected": true
        } ]
      },
      "category": [ {
        "coding": [ {
          "system": "http://terminology.hl7.org/CodeSystem/condition-category",
          "code": "encounter-diagnosis",
          "display": "Encounter Diagnosis",
          "userSelected": true
        } ]
      } ],
      "code": {
        "coding": [ {
          "system": "http://snomed.info/sct",
          "version": "2021-09",
          "code": "102781000119107",
          "display": "Sensory neuropathy due to type 1 diabetes mellitus (disorder)",
          "userSelected": true
        } ]
      },
      "subject": {
        "reference": "Patient/2a7112e7-5937-4288-9271-cdc2d7e5eaa4"
      },
      "onsetDateTime": "2025-12-20T08:00:00.000+00:00"
    },
    "request": {
      "method": "PUT",
      "url": "Condition/5db38ec5-7ef5-4857-b724-2932e631c7db"
    }
  }, {
    "fullUrl": "https://madie.cms.gov/Encounter/768292d2-8006-471b-bed4-655eabc7fce3",
    "resource": {
      "resourceType": "Encounter",
      "id": "768292d2-8006-471b-bed4-655eabc7fce3",
      "meta": {
        "profile": [ "http://hl7.org/fhir/us/qicore/StructureDefinition/qicore-encounter" ]
      },
      "status": "finished",
      "class": {
        "system": "http://terminology.hl7.org/CodeSystem/v3-ActCode",
        "code": "AMB",
        "display": "ambulatory",
        "userSelected": true
      },
      "type": [ {
        "coding": [ {
          "system": "http://snomed.info/sct",
          "version": "2021-09",
          "code": "183452005",
          "display": "Emergency hospital admission (procedure)",
          "userSelected": true
        } ]
      } ],
      "subject": {
        "reference": "Patient/2a7112e7-5937-4288-9271-cdc2d7e5eaa4"
      },
      "period": {
        "start": "2026-01-13T08:00:00.000+00:00",
        "end": "2026-01-13T08:15:00.000+00:00"
      },
      "hospitalization": {
        "dischargeDisposition": {
          "coding": [ {
            "system": "http://snomed.info/sct",
            "version": "2021-09",
            "code": "428361000124107",
            "display": "Discharge to home for hospice care (procedure)",
            "userSelected": true
          } ]
        }
      }
    },
    "request": {
      "method": "PUT",
      "url": "Encounter/768292d2-8006-471b-bed4-655eabc7fce3"
    }
  }, {
    "fullUrl": "https://madie.cms.gov/Encounter/e22ae2cf-7a77-48c9-8e5b-c73bad073fa8",
    "resource": {
      "resourceType": "Encounter",
      "id": "e22ae2cf-7a77-48c9-8e5b-c73bad073fa8",
      "meta": {
        "profile": [ "http://hl7.org/fhir/us/qicore/StructureDefinition/qicore-encounter" ]
      },
      "status": "finished",
      "class": {
        "system": "http://terminology.hl7.org/CodeSystem/v3-ActCode",
        "code": "AMB",
        "display": "ambulatory",
        "userSelected": true
      },
      "type": [ {
        "coding": [ {
          "system": "http://snomed.info/sct",
          "version": "2021-09",
          "code": "444971000124105",
          "display": "Annual wellness visit (procedure)",
          "userSelected": true
        } ]
      } ],
      "subject": {
        "reference": "Patient/2a7112e7-5937-4288-9271-cdc2d7e5eaa4"
      },
      "period": {
        "start": "2026-03-06T08:00:00.000+00:00",
        "end": "2026-03-06T08:15:00.000+00:00"
      }
    },
    "request": {
      "method": "PUT",
      "url": "Encounter/e22ae2cf-7a77-48c9-8e5b-c73bad073fa8"
    }
  }, {
    "fullUrl": "https://madie.cms.gov/MeasureReport/b78557ad-7d99-468d-99e2-bf2313f590a9",
    "resource": {
      "resourceType": "MeasureReport",
      "id": "b78557ad-7d99-468d-99e2-bf2313f590a9",
      "meta": {
        "profile": [ "http://hl7.org/fhir/us/cqfmeasures/StructureDefinition/test-case-cqfm" ]
      },
      "contained": [ {
        "resourceType": "Parameters",
        "id": "bfe151de-12d0-435d-a6dd-2bfa03010381-parameters",
        "parameter": [ {
          "name": "subject",
          "valueString": "2a7112e7-5937-4288-9271-cdc2d7e5eaa4"
        } ]
      } ],
      "extension": [ {
        "url": "http://hl7.org/fhir/StructureDefinition/cqf-inputParameters",
        "valueReference": {
          "reference": "#bfe151de-12d0-435d-a6dd-2bfa03010381-parameters"
        }
      }, {
        "url": "http://hl7.org/fhir/us/cqfmeasures/StructureDefinition/cqfm-testCaseDescription",
        "valueMarkdown": "This patient is 71 years old with a qualifying encounter and active diabetes diagnosis, with a discharge to home for hospice care. This case tests the denominator exclusion criteria."
      } ],
      "modifierExtension": [ {
        "url": "http://hl7.org/fhir/us/cqfmeasures/StructureDefinition/cqfm-isTestCase",
        "valueBoolean": true
      } ],
      "status": "complete",
      "type": "individual",
      "measure": "https://madie.cms.gov/Measure/CMS951FHIRKidneyHealthEval",
      "period": {
        "start": "2026-01-01",
        "end": "2026-12-31"
      },
      "group": [ {
        "id": "Group_1",
        "population": [ {
          "id": "InitialPopulation_1",
          "code": {
            "coding": [ {
              "system": "http://terminology.hl7.org/CodeSystem/measure-population",
              "code": "initial-population",
              "display": "Initial Population"
            } ]
          },
          "count": 1
        }, {
          "id": "Denominator_1",
          "code": {
            "coding": [ {
              "system": "http://terminology.hl7.org/CodeSystem/measure-population",
              "code": "denominator",
              "display": "Denominator"
            } ]
          },
          "count": 1
        }, {
          "id": "DenominatorExclusion_1",
          "code": {
            "coding": [ {
              "system": "http://terminology.hl7.org/CodeSystem/measure-population",
              "code": "denominator-exclusion",
              "display": "Denominator Exclusion"
            } ]
          },
          "count": 1
        }, {
          "id": "Numerator_1",
          "code": {
            "coding": [ {
              "system": "http://terminology.hl7.org/CodeSystem/measure-population",
              "code": "numerator",
              "display": "Numerator"
            } ]
          },
          "count": 0
        } ],
        "measureScore": {
          "value": 1.0
        }
      } ],
      "evaluatedResource": [ {
        "reference": "Patient/2a7112e7-5937-4288-9271-cdc2d7e5eaa4"
      }, {
        "reference": "Condition/5db38ec5-7ef5-4857-b724-2932e631c7db"
      }, {
        "reference": "Encounter/768292d2-8006-471b-bed4-655eabc7fce3"
      }, {
        "reference": "Encounter/e22ae2cf-7a77-48c9-8e5b-c73bad073fa8"
      } ]
    },
    "request": {
      "method": "PUT",
      "url": "MeasureReport/b78557ad-7d99-468d-99e2-bf2313f590a9"
    }
  } ]
}