{
  "resourceType": "Bundle",
  "id": "131516513134563413",
  "type": "collection",
  "entry": [ {
    "fullUrl": "https://madie.cms.gov/Patient/f00cb244-a7cc-408f-ab47-7c3ac82469b1",
    "resource": {
      "resourceType": "Patient",
      "id": "f00cb244-a7cc-408f-ab47-7c3ac82469b1",
      "meta": {
        "profile": [ "http://hl7.org/fhir/us/qicore/StructureDefinition/qicore-patient" ]
      },
      "extension": [ {
        "url": "http://hl7.org/fhir/us/core/StructureDefinition/us-core-race",
        "extension": [ {
          "url": "ombCategory",
          "valueCoding": {
            "system": "urn:oid:2.16.840.1.113883.6.238",
            "code": "2106-3",
            "display": "White"
          }
        }, {
          "url": "text",
          "valueString": "White"
        } ]
      }, {
        "url": "http://hl7.org/fhir/us/core/StructureDefinition/us-core-ethnicity",
        "extension": [ {
          "url": "ombCategory",
          "valueCoding": {
            "system": "urn:oid:2.16.840.1.113883.6.238",
            "code": "2186-5",
            "display": "Not Hispanic or Latino"
          }
        }, {
          "url": "text",
          "valueString": "Not Hispanic or Latino"
        } ]
      } ],
      "identifier": [ {
        "type": {
          "coding": [ {
            "system": "http://terminology.hl7.org/CodeSystem/v2-0203",
            "code": "MR"
          } ]
        },
        "system": "https://bonnie-fhir.healthit.gov/",
        "value": "6067461d98086b57ea5acf1b"
      } ],
      "active": true,
      "name": [ {
        "use": "usual",
        "family": "DENEXCEPPass",
        "given": [ "AllergyBetaxololBeforeLastEnc" ]
      } ],
      "gender": "male",
      "birthDate": "1953-04-17"
    }
  }, {
    "fullUrl": "https://madie.cms.gov/AllergyIntolerance/2ecffea1-6a06-4944-b073-baa2e13d31b4",
    "resource": {
      "resourceType": "AllergyIntolerance",
      "id": "2ecffea1-6a06-4944-b073-baa2e13d31b4",
      "meta": {
        "profile": [ "http://hl7.org/fhir/us/qicore/StructureDefinition/qicore-allergyintolerance" ]
      },
      "clinicalStatus": {
        "coding": [ {
          "system": "http://terminology.hl7.org/CodeSystem/allergyintolerance-clinical",
          "code": "active"
        } ]
      },
      "verificationStatus": {
        "coding": [ {
          "system": "http://terminology.hl7.org/CodeSystem/allergyintolerance-verification",
          "code": "confirmed"
        } ]
      },
      "type": "allergy",
      "criticality": "high",
      "code": {
        "coding": [ {
          "system": "http://www.nlm.nih.gov/research/umls/rxnorm",
          "version": "04032023",
          "code": "1520",
          "display": "betaxolol"
        } ]
      },
      "patient": {
        "reference": "Patient/f00cb244-a7cc-408f-ab47-7c3ac82469b1"
      },
      "onsetDateTime": "2025-02-01",
      "recordedDate": "2025-02-01T14:00:00.000+00:00"
    }
  }, {
    "fullUrl": "https://madie.cms.gov/Encounter/d068af09-d44d-40c8-8983-d45361cea2cb",
    "resource": {
      "resourceType": "Encounter",
      "id": "d068af09-d44d-40c8-8983-d45361cea2cb",
      "meta": {
        "profile": [ "http://hl7.org/fhir/us/qicore/StructureDefinition/qicore-encounter" ]
      },
      "status": "finished",
      "class": {
        "system": "http://terminology.hl7.org/CodeSystem/v3-ActCode",
        "code": "AMB",
        "display": "ambulatory"
      },
      "type": [ {
        "coding": [ {
          "system": "http://www.ama-assn.org/go/cpt",
          "version": "2024",
          "code": "99213"
        } ]
      } ],
      "subject": {
        "reference": "Patient/f00cb244-a7cc-408f-ab47-7c3ac82469b1"
      },
      "period": {
        "start": "2026-05-19T14:40:00.000+00:00",
        "end": "2026-05-19T14:40:00.000+00:00"
      },
      "length": {
        "value": 0,
        "unit": "days"
      }
    }
  }, {
    "fullUrl": "https://madie.cms.gov/Encounter/3342b336-f928-4cd7-88f8-5a9c2bc00202",
    "resource": {
      "resourceType": "Encounter",
      "id": "3342b336-f928-4cd7-88f8-5a9c2bc00202",
      "meta": {
        "profile": [ "http://hl7.org/fhir/us/qicore/StructureDefinition/qicore-encounter" ]
      },
      "status": "finished",
      "class": {
        "system": "http://terminology.hl7.org/CodeSystem/v3-ActCode",
        "code": "AMB",
        "display": "ambulatory"
      },
      "type": [ {
        "coding": [ {
          "system": "http://www.ama-assn.org/go/cpt",
          "version": "2024",
          "code": "99212"
        } ]
      } ],
      "subject": {
        "reference": "Patient/f00cb244-a7cc-408f-ab47-7c3ac82469b1"
      },
      "period": {
        "start": "2026-07-03T11:50:00.000+00:00",
        "end": "2026-07-03T11:50:00.000+00:00"
      },
      "length": {
        "value": 0,
        "unit": "days"
      }
    }
  }, {
    "fullUrl": "https://madie.cms.gov/Condition/5ea798a1-2d1a-44e3-a635-de0a10f5412c",
    "resource": {
      "resourceType": "Condition",
      "id": "5ea798a1-2d1a-44e3-a635-de0a10f5412c",
      "meta": {
        "profile": [ "http://hl7.org/fhir/us/qicore/StructureDefinition/qicore-condition-problems-health-concerns" ]
      },
      "clinicalStatus": {
        "coding": [ {
          "system": "http://terminology.hl7.org/CodeSystem/condition-clinical",
          "code": "active",
          "display": "Active"
        } ]
      },
      "category": [ {
        "coding": [ {
          "system": "http://terminology.hl7.org/CodeSystem/condition-category",
          "code": "problem-list-item",
          "display": "Problem List Item"
        } ]
      } ],
      "code": {
        "coding": [ {
          "system": "http://hl7.org/fhir/sid/icd-10-cm",
          "version": "2024",
          "code": "I44.1"
        } ]
      },
      "subject": {
        "reference": "Patient/f00cb244-a7cc-408f-ab47-7c3ac82469b1"
      },
      "onsetPeriod": {
        "start": "2026-02-03T14:40:00.000+00:00"
      }
    }
  }, {
    "fullUrl": "https://madie.cms.gov/Condition/c5a86fe9-e6e2-44d3-b5a1-2fed9e61b695",
    "resource": {
      "resourceType": "Condition",
      "id": "c5a86fe9-e6e2-44d3-b5a1-2fed9e61b695",
      "meta": {
        "profile": [ "http://hl7.org/fhir/us/qicore/StructureDefinition/qicore-condition-problems-health-concerns" ]
      },
      "clinicalStatus": {
        "coding": [ {
          "system": "http://terminology.hl7.org/CodeSystem/condition-clinical",
          "code": "active",
          "display": "Active"
        } ]
      },
      "verificationStatus": {
        "coding": [ {
          "system": "http://terminology.hl7.org/CodeSystem/condition-ver-status",
          "code": "confirmed",
          "display": "Confirmed",
          "userSelected": true
        } ]
      },
      "category": [ {
        "coding": [ {
          "system": "http://terminology.hl7.org/CodeSystem/condition-category",
          "code": "problem-list-item",
          "display": "Problem List Item"
        } ]
      } ],
      "code": {
        "coding": [ {
          "system": "http://hl7.org/fhir/sid/icd-10-cm",
          "version": "2024",
          "code": "I11.0",
          "display": "Hypertensive heart disease with heart failure"
        } ]
      },
      "subject": {
        "reference": "Patient/f00cb244-a7cc-408f-ab47-7c3ac82469b1"
      },
      "onsetPeriod": {
        "start": "2026-04-16T10:00:00.000+00:00"
      }
    }
  }, {
    "fullUrl": "https://madie.cms.gov/Observation/e8088ae4-e493-4504-83af-8a87c525a701",
    "resource": {
      "resourceType": "Observation",
      "id": "e8088ae4-e493-4504-83af-8a87c525a701",
      "meta": {
        "profile": [ "http://hl7.org/fhir/us/qicore/StructureDefinition/qicore-observation-clinical-result" ]
      },
      "status": "final",
      "category": [ {
        "coding": [ {
          "system": "http://terminology.hl7.org/CodeSystem/observation-category",
          "code": "imaging",
          "display": "Imaging"
        } ]
      }, {
        "coding": [ {
          "system": "http://terminology.hl7.org/CodeSystem/observation-category",
          "code": "survey"
        } ]
      } ],
      "code": {
        "coding": [ {
          "system": "http://loinc.org",
          "version": "2.76",
          "code": "8807-0"
        } ]
      },
      "subject": {
        "reference": "Patient/f00cb244-a7cc-408f-ab47-7c3ac82469b1"
      },
      "effectivePeriod": {
        "start": "2026-04-01T11:50:00.000+00:00",
        "end": "2026-04-01T11:50:00.000+00:00"
      },
      "valueQuantity": {
        "value": 39,
        "unit": "%"
      }
    }
  }, {
    "fullUrl": "https://madie.cms.gov/Practitioner/98a3fbbe-3b65-4ae7-8080-02072fc72b11",
    "resource": {
      "resourceType": "Practitioner",
      "id": "98a3fbbe-3b65-4ae7-8080-02072fc72b11",
      "meta": {
        "profile": [ "http://hl7.org/fhir/us/qicore/StructureDefinition/qicore-practitioner" ]
      },
      "identifier": [ {
        "use": "temp",
        "system": "urn:oid:2.16.840.1.113883.4.336",
        "value": "Practitioner-23"
      } ],
      "active": true,
      "name": [ {
        "family": "Careful",
        "given": [ "Adam" ],
        "prefix": [ "Dr" ]
      } ],
      "address": [ {
        "use": "home",
        "line": [ "534 Erewhon St" ],
        "city": "PleasantVille",
        "state": "UT",
        "postalCode": "84414"
      } ],
      "qualification": [ {
        "identifier": [ {
          "system": "http://mock-data.org/UniversityIdentifier",
          "value": "12345"
        } ],
        "code": {
          "coding": [ {
            "system": "http://terminology.hl7.org/CodeSystem/v2-0360|2.7",
            "code": "BS",
            "display": "Bachelor of Science"
          } ],
          "text": "Bachelor of Science"
        },
        "period": {
          "start": "1996"
        },
        "issuer": {
          "display": "Example University"
        }
      } ]
    }
  }, {
    "fullUrl": "https://madie.cms.gov/Condition/306e41ea-3400-4bca-aeba-50e0e40e7e23",
    "resource": {
      "resourceType": "Condition",
      "id": "306e41ea-3400-4bca-aeba-50e0e40e7e23",
      "meta": {
        "profile": [ "http://hl7.org/fhir/us/qicore/StructureDefinition/qicore-condition-problems-health-concerns" ]
      },
      "category": [ {
        "coding": [ {
          "system": "http://terminology.hl7.org/CodeSystem/condition-category",
          "code": "problem-list-item",
          "display": "Problem List Item"
        } ]
      } ],
      "code": {
        "coding": [ {
          "system": "http://snomed.info/sct",
          "version": "http://snomed.info/sct/731000124108/version/20250301",
          "code": "981000124106",
          "display": "Moderate left ventricular systolic dysfunction (disorder)"
        } ]
      },
      "subject": {
        "reference": "Patient/f00cb244-a7cc-408f-ab47-7c3ac82469b1"
      }
    }
  }, {
    "fullUrl": "https://madie.cms.gov/Condition/28022859-7e61-4a24-86b3-15c835bec74d",
    "resource": {
      "resourceType": "Condition",
      "id": "28022859-7e61-4a24-86b3-15c835bec74d",
      "meta": {
        "profile": [ "http://hl7.org/fhir/us/qicore/StructureDefinition/qicore-condition-problems-health-concerns" ]
      },
      "clinicalStatus": {
        "coding": [ {
          "system": "http://terminology.hl7.org/CodeSystem/condition-clinical",
          "code": "active",
          "display": "Active"
        } ]
      },
      "category": [ {
        "coding": [ {
          "system": "http://terminology.hl7.org/CodeSystem/condition-category",
          "code": "problem-list-item",
          "display": "Problem List Item"
        } ]
      } ],
      "code": {
        "coding": [ {
          "system": "http://snomed.info/sct",
          "version": "http://snomed.info/sct/731000124108/version/20250301",
          "code": "981000124106",
          "display": "Moderate left ventricular systolic dysfunction (disorder)"
        } ]
      },
      "subject": {
        "reference": "Patient/f00cb244-a7cc-408f-ab47-7c3ac82469b1"
      },
      "onsetPeriod": {
        "start": "2026-05-13T14:40:00.000+00:00"
      }
    }
  }, {
    "fullUrl": "https://madie.cms.gov/MeasureReport/f338c93f-ac92-4c5c-ac29-b4d8c1a2df24",
    "resource": {
      "resourceType": "MeasureReport",
      "id": "f338c93f-ac92-4c5c-ac29-b4d8c1a2df24",
      "meta": {
        "profile": [ "http://hl7.org/fhir/us/cqfmeasures/StructureDefinition/test-case-cqfm" ]
      },
      "contained": [ {
        "resourceType": "Parameters",
        "id": "b88c26ce-3393-4480-b246-aaec6539143b-parameters",
        "parameter": [ {
          "name": "subject",
          "valueString": "f00cb244-a7cc-408f-ab47-7c3ac82469b1"
        } ]
      } ],
      "extension": [ {
        "url": "http://hl7.org/fhir/StructureDefinition/cqf-inputParameters",
        "valueReference": {
          "reference": "#b88c26ce-3393-4480-b246-aaec6539143b-parameters"
        }
      }, {
        "url": "http://hl7.org/fhir/us/cqfmeasures/StructureDefinition/cqfm-testCaseDescription",
        "valueMarkdown": "Patient falls in Denom. Exception due to allergy intolerance to beta blocker  (betaxolol) ingredient which overlap before date of LVSD diagnosis"
      } ],
      "modifierExtension": [ {
        "url": "http://hl7.org/fhir/us/cqfmeasures/StructureDefinition/cqfm-isTestCase",
        "valueBoolean": true
      } ],
      "status": "complete",
      "type": "individual",
      "measure": "https://madie.cms.gov/Measure/CMS144FHIRHFBetaBlockerForLVSD",
      "period": {
        "start": "2026-01-01",
        "end": "2026-12-31"
      },
      "group": [ {
        "id": "Group_1",
        "population": [ {
          "id": "InitialPopulation_1",
          "code": {
            "coding": [ {
              "system": "http://terminology.hl7.org/CodeSystem/measure-population",
              "code": "initial-population",
              "display": "Initial Population"
            } ]
          },
          "count": 1
        }, {
          "id": "Denominator_1",
          "code": {
            "coding": [ {
              "system": "http://terminology.hl7.org/CodeSystem/measure-population",
              "code": "denominator",
              "display": "Denominator"
            } ]
          },
          "count": 1
        }, {
          "id": "DenominatorExclusion_1",
          "code": {
            "coding": [ {
              "system": "http://terminology.hl7.org/CodeSystem/measure-population",
              "code": "denominator-exclusion",
              "display": "Denominator Exclusion"
            } ]
          },
          "count": 0
        }, {
          "id": "Numerator_1",
          "code": {
            "coding": [ {
              "system": "http://terminology.hl7.org/CodeSystem/measure-population",
              "code": "numerator",
              "display": "Numerator"
            } ]
          },
          "count": 0
        }, {
          "id": "DenominatorException_1",
          "code": {
            "coding": [ {
              "system": "http://terminology.hl7.org/CodeSystem/measure-population",
              "code": "denominator-exception",
              "display": "Denominator Exception"
            } ]
          },
          "count": 1
        } ],
        "measureScore": {
          "value": 1.0
        }
      } ],
      "evaluatedResource": [ {
        "reference": "Patient/f00cb244-a7cc-408f-ab47-7c3ac82469b1"
      }, {
        "reference": "AllergyIntolerance/2ecffea1-6a06-4944-b073-baa2e13d31b4"
      }, {
        "reference": "Encounter/d068af09-d44d-40c8-8983-d45361cea2cb"
      }, {
        "reference": "Encounter/3342b336-f928-4cd7-88f8-5a9c2bc00202"
      }, {
        "reference": "Condition/5ea798a1-2d1a-44e3-a635-de0a10f5412c"
      }, {
        "reference": "Condition/c5a86fe9-e6e2-44d3-b5a1-2fed9e61b695"
      }, {
        "reference": "Observation/e8088ae4-e493-4504-83af-8a87c525a701"
      }, {
        "reference": "Practitioner/98a3fbbe-3b65-4ae7-8080-02072fc72b11"
      }, {
        "reference": "Condition/306e41ea-3400-4bca-aeba-50e0e40e7e23"
      }, {
        "reference": "Condition/28022859-7e61-4a24-86b3-15c835bec74d"
      } ]
    }
  } ]
}