{
  "resourceType": "Bundle",
  "id": "62fd4b6a0968f8012246b316",
  "type": "collection",
  "entry": [ {
    "fullUrl": "https://madie.cms.gov/Patient/648157ed-8a6e-43b5-9481-9498848ae5ea",
    "resource": {
      "resourceType": "Patient",
      "id": "648157ed-8a6e-43b5-9481-9498848ae5ea",
      "meta": {
        "profile": [ "http://hl7.org/fhir/us/qicore/StructureDefinition/qicore-patient" ]
      },
      "extension": [ {
        "url": "http://hl7.org/fhir/us/core/StructureDefinition/us-core-race",
        "extension": [ {
          "url": "ombCategory",
          "valueCoding": {
            "system": "urn:oid:2.16.840.1.113883.6.238",
            "code": "1002-5",
            "display": "American Indian or Alaska Native",
            "userSelected": true
          }
        }, {
          "url": "text",
          "valueString": "American Indian or Alaska Native"
        } ]
      }, {
        "url": "http://hl7.org/fhir/us/core/StructureDefinition/us-core-ethnicity",
        "extension": [ {
          "url": "ombCategory",
          "valueCoding": {
            "system": "urn:oid:2.16.840.1.113883.6.238",
            "code": "2135-2",
            "display": "Hispanic or Latino",
            "userSelected": true
          }
        }, {
          "url": "text",
          "valueString": "Hispanic or Latino"
        } ]
      } ],
      "identifier": [ {
        "type": {
          "coding": [ {
            "system": "http://terminology.hl7.org/CodeSystem/v2-0203",
            "code": "MR"
          } ]
        },
        "system": "https://bonnie-fhir.healthit.gov/",
        "value": "62fd4b6a0968f8012246b316"
      } ],
      "name": [ {
        "family": "NUMERPass",
        "given": [ "1stAnd2ndReferralsWithConsultantReports" ]
      } ],
      "gender": "female",
      "birthDate": "1990-12-31"
    }
  }, {
    "fullUrl": "https://madie.cms.gov/Task/07e55ead-aa69-4247-a5e9-aa995692ffee",
    "resource": {
      "resourceType": "Task",
      "id": "07e55ead-aa69-4247-a5e9-aa995692ffee",
      "meta": {
        "profile": [ "http://hl7.org/fhir/us/qicore/StructureDefinition/qicore-task" ]
      },
      "identifier": [ {
        "use": "official",
        "system": "http:/goodhealth.org/identifiers",
        "value": "20170201-002"
      } ],
      "basedOn": [ {
        "reference": "ServiceRequest/c4813f76-5851-4a6d-8063-1775c9b91bf5"
      } ],
      "status": "completed",
      "intent": "order",
      "priority": "routine",
      "code": {
        "coding": [ {
          "system": "http://hl7.org/fhir/CodeSystem/task-code",
          "code": "fulfill",
          "display": "Fulfill the focal request",
          "userSelected": true
        } ]
      },
      "for": {
        "reference": "Patient/648157ed-8a6e-43b5-9481-9498848ae5ea"
      },
      "executionPeriod": {
        "start": "2026-06-06T08:00:00Z",
        "end": "2026-06-06T08:15:00Z"
      },
      "reasonCode": {
        "coding": [ {
          "system": "http://loinc.org",
          "version": "2.72",
          "code": "11488-4",
          "display": "Consult note",
          "userSelected": true
        } ]
      }
    }
  }, {
    "fullUrl": "https://madie.cms.gov/ServiceRequest/c4813f76-5851-4a6d-8063-1775c9b91bf5",
    "resource": {
      "resourceType": "ServiceRequest",
      "id": "c4813f76-5851-4a6d-8063-1775c9b91bf5",
      "meta": {
        "profile": [ "http://hl7.org/fhir/us/qicore/StructureDefinition/qicore-servicerequest" ]
      },
      "status": "active",
      "intent": "order",
      "code": {
        "coding": [ {
          "system": "http://snomed.info/sct",
          "version": "http://snomed.info/sct/731000124108/version/20250301",
          "code": "103696004",
          "display": "Patient referral to specialist (procedure)",
          "userSelected": true
        } ]
      },
      "subject": {
        "reference": "Patient/648157ed-8a6e-43b5-9481-9498848ae5ea"
      },
      "authoredOn": "2026-06-06T08:00:00Z"
    }
  }, {
    "fullUrl": "https://madie.cms.gov/Task/21eee51f-4a4f-47bb-96ac-1cb8139c04bd",
    "resource": {
      "resourceType": "Task",
      "id": "21eee51f-4a4f-47bb-96ac-1cb8139c04bd",
      "meta": {
        "profile": [ "http://hl7.org/fhir/us/qicore/StructureDefinition/qicore-task" ]
      },
      "identifier": [ {
        "use": "official",
        "system": "http:/goodhealth.org/identifiers",
        "value": "20170201-002"
      } ],
      "basedOn": [ {
        "reference": "ServiceRequest/25b64c16-6afa-46d6-a793-ca233587c6d0"
      } ],
      "status": "completed",
      "intent": "order",
      "priority": "routine",
      "code": {
        "coding": [ {
          "system": "http://hl7.org/fhir/CodeSystem/task-code",
          "code": "fulfill",
          "display": "Fulfill the focal request",
          "userSelected": true
        } ]
      },
      "for": {
        "reference": "Patient/648157ed-8a6e-43b5-9481-9498848ae5ea"
      },
      "executionPeriod": {
        "start": "2026-06-09T08:00:00Z",
        "end": "2026-06-09T08:15:00Z"
      },
      "reasonCode": {
        "coding": [ {
          "system": "http://loinc.org",
          "version": "2.72",
          "code": "11488-4",
          "display": "Consult note",
          "userSelected": true
        } ]
      }
    }
  }, {
    "fullUrl": "https://madie.cms.gov/ServiceRequest/25b64c16-6afa-46d6-a793-ca233587c6d0",
    "resource": {
      "resourceType": "ServiceRequest",
      "id": "25b64c16-6afa-46d6-a793-ca233587c6d0",
      "meta": {
        "profile": [ "http://hl7.org/fhir/us/qicore/StructureDefinition/qicore-servicerequest" ]
      },
      "status": "active",
      "intent": "order",
      "code": {
        "coding": [ {
          "system": "http://snomed.info/sct",
          "version": "http://snomed.info/sct/731000124108/version/20250301",
          "code": "103696004",
          "display": "Patient referral to specialist (procedure)",
          "userSelected": true
        } ]
      },
      "subject": {
        "reference": "Patient/648157ed-8a6e-43b5-9481-9498848ae5ea"
      },
      "authoredOn": "2026-01-09T08:00:00Z"
    }
  }, {
    "fullUrl": "https://madie.cms.gov/Encounter/35bc952b-4148-417a-93a6-9e61824c9a4f",
    "resource": {
      "resourceType": "Encounter",
      "id": "35bc952b-4148-417a-93a6-9e61824c9a4f",
      "meta": {
        "profile": [ "http://hl7.org/fhir/us/qicore/StructureDefinition/qicore-encounter" ]
      },
      "status": "finished",
      "class": {
        "system": "http://terminology.hl7.org/CodeSystem/v3-ActCode",
        "code": "AMB",
        "display": "ambulatory"
      },
      "type": [ {
        "coding": [ {
          "system": "http://snomed.info/sct",
          "version": "2022-03",
          "code": "359960003",
          "display": "Ophthalmologic examination and evaluation under general anesthesia, limited (procedure)",
          "userSelected": true
        } ]
      } ],
      "subject": {
        "reference": "Patient/648157ed-8a6e-43b5-9481-9498848ae5ea"
      },
      "period": {
        "start": "2026-05-27T08:00:00Z",
        "end": "2026-05-27T09:15:00Z"
      }
    }
  }, {
    "fullUrl": "https://madie.cms.gov/Coverage/86e2be8d-ed40-468b-b07d-9714d48d2b01",
    "resource": {
      "resourceType": "Coverage",
      "id": "86e2be8d-ed40-468b-b07d-9714d48d2b01",
      "meta": {
        "profile": [ "http://hl7.org/fhir/us/qicore/StructureDefinition/qicore-coverage" ]
      },
      "status": "active",
      "subscriberId": "123456",
      "beneficiary": {
        "reference": "Patient/648157ed-8a6e-43b5-9481-9498848ae5ea"
      },
      "relationship": {
        "coding": [ {
          "system": "http://terminology.hl7.org/CodeSystem/subscriber-relationship",
          "code": "self",
          "display": "Self"
        } ]
      },
      "payor": [ {
        "reference": "Organization/d72f0a20-08fe-4b6c-af28-1691105abc7c"
      } ]
    }
  }, {
    "fullUrl": "https://madie.cms.gov/Organization/d72f0a20-08fe-4b6c-af28-1691105abc7c",
    "resource": {
      "resourceType": "Organization",
      "id": "d72f0a20-08fe-4b6c-af28-1691105abc7c",
      "meta": {
        "profile": [ "http://hl7.org/fhir/us/qicore/StructureDefinition/qicore-organization" ]
      },
      "identifier": [ {
        "use": "temp",
        "system": "urn:oid:2.16.840.1.113883.4.4",
        "value": "21-3259825"
      } ],
      "active": true,
      "type": [ {
        "coding": [ {
          "system": "http://terminology.hl7.org/CodeSystem/organization-type",
          "code": "pay",
          "display": "Payer"
        } ]
      } ],
      "name": "Blue Cross Blue Shield of Texas",
      "telecom": [ {
        "system": "phone",
        "value": "(+1) 972-766-6900"
      } ],
      "address": [ {
        "use": "billing",
        "type": "postal",
        "line": [ "P.O. Box 660044" ],
        "city": "Dallas",
        "state": "TX",
        "postalCode": "75266-0044",
        "country": "USA"
      } ]
    }
  }, {
    "fullUrl": "https://madie.cms.gov/Practitioner/b1414e14-0525-4d7a-80ee-575028cee7cc",
    "resource": {
      "resourceType": "Practitioner",
      "id": "b1414e14-0525-4d7a-80ee-575028cee7cc",
      "meta": {
        "profile": [ "http://hl7.org/fhir/us/qicore/StructureDefinition/qicore-practitioner" ]
      },
      "identifier": [ {
        "system": "http://hl7.org/fhir/sid/us-npi",
        "value": "1689411712"
      } ],
      "name": [ {
        "family": "Evil",
        "prefix": [ "Dr" ]
      } ]
    }
  }, {
    "fullUrl": "https://madie.cms.gov/MeasureReport/bb6de3a4-f912-4094-a997-35d9331898fc",
    "resource": {
      "resourceType": "MeasureReport",
      "id": "bb6de3a4-f912-4094-a997-35d9331898fc",
      "meta": {
        "profile": [ "http://hl7.org/fhir/us/cqfmeasures/StructureDefinition/test-case-cqfm" ]
      },
      "contained": [ {
        "resourceType": "Parameters",
        "id": "3bfe1af2-348b-42f8-a862-7f16dc1cbaab-parameters",
        "parameter": [ {
          "name": "subject",
          "valueString": "648157ed-8a6e-43b5-9481-9498848ae5ea"
        } ]
      } ],
      "extension": [ {
        "url": "http://hl7.org/fhir/StructureDefinition/cqf-inputParameters",
        "valueReference": {
          "reference": "#3bfe1af2-348b-42f8-a862-7f16dc1cbaab-parameters"
        }
      }, {
        "url": "http://hl7.org/fhir/us/cqfmeasures/StructureDefinition/cqfm-testCaseDescription",
        "valueMarkdown": "2 out of 2 Referrals with associated Consultant reports received."
      } ],
      "modifierExtension": [ {
        "url": "http://hl7.org/fhir/us/cqfmeasures/StructureDefinition/cqfm-isTestCase",
        "valueBoolean": true
      } ],
      "status": "complete",
      "type": "individual",
      "measure": "https://madie.cms.gov/Measure/CMS50FHIRReceiptofSpecialistReport",
      "period": {
        "start": "2026-01-01",
        "end": "2026-12-31"
      },
      "group": [ {
        "id": "Group_1",
        "population": [ {
          "id": "InitialPopulation_1",
          "code": {
            "coding": [ {
              "system": "http://terminology.hl7.org/CodeSystem/measure-population",
              "code": "initial-population",
              "display": "Initial Population"
            } ]
          },
          "count": 1
        }, {
          "id": "Denominator_1",
          "code": {
            "coding": [ {
              "system": "http://terminology.hl7.org/CodeSystem/measure-population",
              "code": "denominator",
              "display": "Denominator"
            } ]
          },
          "count": 1
        }, {
          "id": "Numerator_1",
          "code": {
            "coding": [ {
              "system": "http://terminology.hl7.org/CodeSystem/measure-population",
              "code": "numerator",
              "display": "Numerator"
            } ]
          },
          "count": 1
        } ],
        "measureScore": {
          "value": 1.0
        }
      } ],
      "evaluatedResource": [ {
        "reference": "Patient/648157ed-8a6e-43b5-9481-9498848ae5ea"
      }, {
        "reference": "Task/07e55ead-aa69-4247-a5e9-aa995692ffee"
      }, {
        "reference": "ServiceRequest/c4813f76-5851-4a6d-8063-1775c9b91bf5"
      }, {
        "reference": "Task/21eee51f-4a4f-47bb-96ac-1cb8139c04bd"
      }, {
        "reference": "ServiceRequest/25b64c16-6afa-46d6-a793-ca233587c6d0"
      }, {
        "reference": "Encounter/35bc952b-4148-417a-93a6-9e61824c9a4f"
      }, {
        "reference": "Coverage/86e2be8d-ed40-468b-b07d-9714d48d2b01"
      }, {
        "reference": "Organization/d72f0a20-08fe-4b6c-af28-1691105abc7c"
      }, {
        "reference": "Practitioner/b1414e14-0525-4d7a-80ee-575028cee7cc"
      } ]
    }
  } ]
}