{
  "resourceType": "Bundle",
  "id": "612e6b1602c62a011f2ec5e7",
  "type": "transaction",
  "entry": [ {
    "fullUrl": "https://madie.cms.gov/Patient/fa475afd-7282-48cc-95bc-747bf3dac16a",
    "resource": {
      "resourceType": "Patient",
      "id": "fa475afd-7282-48cc-95bc-747bf3dac16a",
      "meta": {
        "profile": [ "http://hl7.org/fhir/us/qicore/StructureDefinition/qicore-patient" ]
      },
      "text": {
        "status": "generated",
        "div": "<div xmlns=\"http://www.w3.org/1999/xhtml\"><div class=\"hapiHeaderText\">WarfarinAFDisch_2Encounters <b>NUMERFAIL </b></div><table class=\"hapiPropertyTable\"><tbody><tr><td>Identifier</td><td>f6b3ce4fb2b87a4aa5f00ca8118e0e9a</td></tr><tr><td>Date of birth</td><td><span>02 January 1974</span></td></tr></tbody></table></div>"
      },
      "extension": [ {
        "url": "http://hl7.org/fhir/us/core/StructureDefinition/us-core-race",
        "extension": [ {
          "url": "ombCategory",
          "valueCoding": {
            "system": "urn:oid:2.16.840.1.113883.6.238",
            "code": "1002-5",
            "display": "American Indian or Alaska Native",
            "userSelected": true
          }
        }, {
          "url": "text",
          "valueString": "American Indian or Alaska Native"
        } ]
      }, {
        "url": "http://hl7.org/fhir/us/core/StructureDefinition/us-core-ethnicity",
        "extension": [ {
          "url": "ombCategory",
          "valueCoding": {
            "system": "urn:oid:2.16.840.1.113883.6.238",
            "code": "2135-2",
            "display": "Hispanic or Latino",
            "userSelected": true
          }
        }, {
          "url": "text",
          "valueString": "Hispanic or Latino"
        } ]
      } ],
      "identifier": [ {
        "type": {
          "coding": [ {
            "system": "http://terminology.hl7.org/CodeSystem/v2-0203",
            "code": "MR"
          } ]
        },
        "system": "https://bonnie-fhir.healthit.gov/",
        "value": "612e6b1602c62a011f2ec5e7"
      } ],
      "active": true,
      "name": [ {
        "use": "usual",
        "family": "NUMERFail",
        "given": [ "WarfarinAFDisch2Encounters" ]
      } ],
      "gender": "male",
      "birthDate": "1975-01-02"
    },
    "request": {
      "method": "PUT",
      "url": "Patient/fa475afd-7282-48cc-95bc-747bf3dac16a"
    }
  }, {
    "fullUrl": "https://madie.cms.gov/Encounter/d09c4d50-5d40-41be-90ca-cd8aa536bbf0",
    "resource": {
      "resourceType": "Encounter",
      "id": "d09c4d50-5d40-41be-90ca-cd8aa536bbf0",
      "meta": {
        "profile": [ "http://hl7.org/fhir/us/qicore/StructureDefinition/qicore-encounter" ]
      },
      "status": "finished",
      "class": {
        "system": "http://terminology.hl7.org/CodeSystem/v3-ActCode",
        "code": "IMP",
        "display": "inpatient encounter"
      },
      "type": [ {
        "coding": [ {
          "system": "http://snomed.info/sct",
          "code": "8715000"
        } ]
      } ],
      "subject": {
        "reference": "Patient/fa475afd-7282-48cc-95bc-747bf3dac16a"
      },
      "period": {
        "start": "2026-10-03T08:00:00.000+00:00",
        "end": "2026-10-05T08:15:00.000+00:00"
      },
      "length": {
        "value": 2,
        "unit": "days"
      },
      "diagnosis": [ {
        "condition": {
          "reference": "Condition/hemorrhagic-stroke-1c3b"
        },
        "rank": 1
      } ]
    },
    "request": {
      "method": "PUT",
      "url": "Encounter/d09c4d50-5d40-41be-90ca-cd8aa536bbf0"
    }
  }, {
    "fullUrl": "https://madie.cms.gov/Encounter/70cfcf24-66ec-4f3d-86f9-6f6be158e7db",
    "resource": {
      "resourceType": "Encounter",
      "id": "70cfcf24-66ec-4f3d-86f9-6f6be158e7db",
      "meta": {
        "profile": [ "http://hl7.org/fhir/us/qicore/StructureDefinition/qicore-encounter" ]
      },
      "status": "finished",
      "class": {
        "system": "http://terminology.hl7.org/CodeSystem/v3-ActCode",
        "code": "IMP",
        "display": "inpatient encounter"
      },
      "type": [ {
        "coding": [ {
          "system": "http://snomed.info/sct",
          "code": "8715000"
        } ]
      } ],
      "subject": {
        "reference": "Patient/fa475afd-7282-48cc-95bc-747bf3dac16a"
      },
      "period": {
        "start": "2026-11-01T08:00:00.000+00:00",
        "end": "2026-11-26T08:15:00.000+00:00"
      },
      "length": {
        "value": 25,
        "unit": "days"
      }
    },
    "request": {
      "method": "PUT",
      "url": "Encounter/70cfcf24-66ec-4f3d-86f9-6f6be158e7db"
    }
  }, {
    "fullUrl": "https://madie.cms.gov/Coverage/a8ccbf82-539f-49d9-a465-707f66634632",
    "resource": {
      "resourceType": "Coverage",
      "id": "a8ccbf82-539f-49d9-a465-707f66634632",
      "status": "active",
      "beneficiary": {
        "reference": "Patient/fa475afd-7282-48cc-95bc-747bf3dac16a"
      },
      "period": {
        "start": "1975-01-02T08:00:00.000+00:00"
      },
      "payor": [ {
        "reference": "Organization/7e04b0e7-552c-4067-bc75-468609cca107"
      } ]
    },
    "request": {
      "method": "PUT",
      "url": "Coverage/a8ccbf82-539f-49d9-a465-707f66634632"
    }
  }, {
    "fullUrl": "https://madie.cms.gov/MedicationAdministration/4ceb47de-efab-4450-89e3-7c96a2dc21d0",
    "resource": {
      "resourceType": "MedicationAdministration",
      "id": "4ceb47de-efab-4450-89e3-7c96a2dc21d0",
      "meta": {
        "profile": [ "http://hl7.org/fhir/us/qicore/StructureDefinition/qicore-medicationadministration" ]
      },
      "status": "completed",
      "medicationCodeableConcept": {
        "coding": [ {
          "system": "http://www.nlm.nih.gov/research/umls/rxnorm",
          "code": "855288"
        } ]
      },
      "subject": {
        "reference": "Patient/fa475afd-7282-48cc-95bc-747bf3dac16a"
      },
      "effectiveDateTime": "2026-10-26T08:00:00.000+00:00"
    },
    "request": {
      "method": "PUT",
      "url": "MedicationAdministration/4ceb47de-efab-4450-89e3-7c96a2dc21d0"
    }
  }, {
    "fullUrl": "https://madie.cms.gov/Organization/7e04b0e7-552c-4067-bc75-468609cca107",
    "resource": {
      "resourceType": "Organization",
      "id": "7e04b0e7-552c-4067-bc75-468609cca107",
      "meta": {
        "profile": [ "http://hl7.org/fhir/us/qicore/StructureDefinition/qicore-organization" ]
      },
      "identifier": [ {
        "use": "temp",
        "system": "urn:oid:2.16.840.1.113883.4.4",
        "value": "21-3259825"
      } ],
      "active": true,
      "type": [ {
        "coding": [ {
          "system": "http://terminology.hl7.org/CodeSystem/organization-type",
          "code": "pay",
          "display": "Payer"
        } ]
      } ],
      "name": "Blue Cross Blue Shield of Texas",
      "telecom": [ {
        "system": "phone",
        "value": "(+1) 972-766-6900"
      } ],
      "address": [ {
        "use": "billing",
        "type": "postal",
        "line": [ "P.O. Box 660044" ],
        "city": "Dallas",
        "state": "TX",
        "postalCode": "75266-0044",
        "country": "USA"
      } ]
    },
    "request": {
      "method": "PUT",
      "url": "Organization/7e04b0e7-552c-4067-bc75-468609cca107"
    }
  }, {
    "fullUrl": "https://madie.cms.gov/Practitioner/43b1a3c5-78e6-491b-9c6a-9dfe36821fef",
    "resource": {
      "resourceType": "Practitioner",
      "id": "43b1a3c5-78e6-491b-9c6a-9dfe36821fef",
      "identifier": [ {
        "system": "http://hl7.org/fhir/sid/us-npi",
        "value": "123456"
      } ],
      "name": [ {
        "family": "Evil",
        "prefix": [ "Dr" ]
      } ]
    },
    "request": {
      "method": "PUT",
      "url": "Practitioner/43b1a3c5-78e6-491b-9c6a-9dfe36821fef"
    }
  }, {
    "fullUrl": "https://madie.cms.gov/MeasureReport/c5bded49-0791-4e87-bbdf-e39c5daa4427",
    "resource": {
      "resourceType": "MeasureReport",
      "id": "c5bded49-0791-4e87-bbdf-e39c5daa4427",
      "meta": {
        "profile": [ "http://hl7.org/fhir/us/cqfmeasures/StructureDefinition/test-case-cqfm" ]
      },
      "contained": [ {
        "resourceType": "Parameters",
        "id": "ec2b12f6-d378-4583-9922-bbc0f1db2c83-parameters",
        "parameter": [ {
          "name": "subject",
          "valueString": "fa475afd-7282-48cc-95bc-747bf3dac16a"
        } ]
      } ],
      "extension": [ {
        "url": "http://hl7.org/fhir/StructureDefinition/cqf-inputParameters",
        "valueReference": {
          "reference": "#ec2b12f6-d378-4583-9922-bbc0f1db2c83-parameters"
        }
      }, {
        "url": "http://hl7.org/fhir/us/cqfmeasures/StructureDefinition/cqfm-testCaseDescription",
        "valueMarkdown": "2 encounters. warfarin administered 1 day Before 2nd encounter\n"
      } ],
      "modifierExtension": [ {
        "url": "http://hl7.org/fhir/us/cqfmeasures/StructureDefinition/cqfm-isTestCase",
        "valueBoolean": true
      } ],
      "status": "complete",
      "type": "individual",
      "measure": "https://madie.cms.gov/Measure/CMS108FHIRVTEProphylaxis",
      "period": {
        "start": "2026-01-01",
        "end": "2026-12-31"
      },
      "group": [ {
        "id": "Group_1",
        "population": [ {
          "id": "InitialPopulation_1",
          "code": {
            "coding": [ {
              "system": "http://terminology.hl7.org/CodeSystem/measure-population",
              "code": "initial-population",
              "display": "Initial Population"
            } ]
          },
          "count": 2
        }, {
          "id": "Denominator_1",
          "code": {
            "coding": [ {
              "system": "http://terminology.hl7.org/CodeSystem/measure-population",
              "code": "denominator",
              "display": "Denominator"
            } ]
          },
          "count": 2
        }, {
          "id": "DenominatorExclusion_1",
          "code": {
            "coding": [ {
              "system": "http://terminology.hl7.org/CodeSystem/measure-population",
              "code": "denominator-exclusion",
              "display": "Denominator Exclusion"
            } ]
          },
          "count": 0
        }, {
          "id": "Numerator_1",
          "code": {
            "coding": [ {
              "system": "http://terminology.hl7.org/CodeSystem/measure-population",
              "code": "numerator",
              "display": "Numerator"
            } ]
          },
          "count": 0
        } ],
        "measureScore": {
          "value": 0.0
        }
      } ],
      "evaluatedResource": [ {
        "reference": "Patient/fa475afd-7282-48cc-95bc-747bf3dac16a"
      }, {
        "reference": "Encounter/d09c4d50-5d40-41be-90ca-cd8aa536bbf0"
      }, {
        "reference": "Encounter/70cfcf24-66ec-4f3d-86f9-6f6be158e7db"
      }, {
        "reference": "Coverage/a8ccbf82-539f-49d9-a465-707f66634632"
      }, {
        "reference": "MedicationAdministration/4ceb47de-efab-4450-89e3-7c96a2dc21d0"
      }, {
        "reference": "Organization/7e04b0e7-552c-4067-bc75-468609cca107"
      }, {
        "reference": "Practitioner/43b1a3c5-78e6-491b-9c6a-9dfe36821fef"
      } ]
    },
    "request": {
      "method": "PUT",
      "url": "MeasureReport/c5bded49-0791-4e87-bbdf-e39c5daa4427"
    }
  } ]
}