{
  "resourceType": "Bundle",
  "id": "62fa55e0f4a8c3cd9f455399",
  "type": "transaction",
  "entry": [ {
    "fullUrl": "https://madie.cms.gov/Patient/51e9e9aa-edcc-46f4-8472-24f377014ad4",
    "resource": {
      "resourceType": "Patient",
      "id": "51e9e9aa-edcc-46f4-8472-24f377014ad4",
      "meta": {
        "profile": [ "http://hl7.org/fhir/us/qicore/StructureDefinition/qicore-patient" ]
      },
      "extension": [ {
        "url": "http://hl7.org/fhir/us/core/StructureDefinition/us-core-race",
        "extension": [ {
          "url": "ombCategory",
          "valueCoding": {
            "system": "urn:oid:2.16.840.1.113883.6.238",
            "code": "2106-3",
            "display": "White",
            "userSelected": true
          }
        }, {
          "url": "text",
          "valueString": "White"
        } ]
      }, {
        "url": "http://hl7.org/fhir/us/core/StructureDefinition/us-core-ethnicity",
        "extension": [ {
          "url": "ombCategory",
          "valueCoding": {
            "system": "urn:oid:2.16.840.1.113883.6.238",
            "code": "2186-5",
            "display": "Not Hispanic or Latino",
            "userSelected": true
          }
        }, {
          "url": "text",
          "valueString": "Not Hispanic or Latino"
        } ]
      } ],
      "identifier": [ {
        "type": {
          "coding": [ {
            "system": "http://terminology.hl7.org/CodeSystem/v2-0203",
            "code": "MR"
          } ]
        },
        "system": "https://bonnie-fhir.healthit.gov/",
        "value": "62fa55e0f4a8c3cd9f455399"
      } ],
      "name": [ {
        "family": "DENEXFail",
        "given": [ "WithCKDStage5WithRefutedVerificationStatus" ]
      } ],
      "gender": "male",
      "birthDate": "2006-12-01"
    },
    "request": {
      "method": "PUT",
      "url": "Patient/51e9e9aa-edcc-46f4-8472-24f377014ad4"
    }
  }, {
    "fullUrl": "https://madie.cms.gov/Condition/9d1ace1f-ae37-4d04-9564-7901c53297c9",
    "resource": {
      "resourceType": "Condition",
      "id": "9d1ace1f-ae37-4d04-9564-7901c53297c9",
      "meta": {
        "profile": [ "http://hl7.org/fhir/us/qicore/StructureDefinition/qicore-condition-encounter-diagnosis" ]
      },
      "clinicalStatus": {
        "coding": [ {
          "system": "http://terminology.hl7.org/CodeSystem/condition-clinical",
          "code": "active",
          "display": "active",
          "userSelected": true
        } ]
      },
      "category": [ {
        "coding": [ {
          "system": "http://terminology.hl7.org/CodeSystem/condition-category",
          "code": "encounter-diagnosis",
          "display": "Encounter Diagnosis",
          "userSelected": true
        } ]
      } ],
      "code": {
        "coding": [ {
          "system": "http://snomed.info/sct",
          "version": "2021-09",
          "code": "102781000119107",
          "display": "Sensory neuropathy due to type 1 diabetes mellitus (disorder)",
          "userSelected": true
        } ]
      },
      "subject": {
        "reference": "Patient/51e9e9aa-edcc-46f4-8472-24f377014ad4"
      },
      "onsetDateTime": "2022-05-22T12:00:00.000+00:00"
    },
    "request": {
      "method": "PUT",
      "url": "Condition/9d1ace1f-ae37-4d04-9564-7901c53297c9"
    }
  }, {
    "fullUrl": "https://madie.cms.gov/Encounter/7b3992e6-a44d-469f-8246-d8cdec448260",
    "resource": {
      "resourceType": "Encounter",
      "id": "7b3992e6-a44d-469f-8246-d8cdec448260",
      "meta": {
        "profile": [ "http://hl7.org/fhir/us/qicore/StructureDefinition/qicore-encounter" ]
      },
      "status": "finished",
      "class": {
        "system": "http://terminology.hl7.org/CodeSystem/v3-ActCode",
        "code": "AMB",
        "display": "ambulatory",
        "userSelected": true
      },
      "type": [ {
        "coding": [ {
          "system": "http://snomed.info/sct",
          "version": "2021-09",
          "code": "185463005",
          "display": "Visit out of hours (procedure)",
          "userSelected": true
        } ]
      } ],
      "subject": {
        "reference": "Patient/51e9e9aa-edcc-46f4-8472-24f377014ad4"
      },
      "period": {
        "start": "2026-08-15T08:00:00.000+00:00",
        "end": "2026-08-15T08:15:00.000+00:00"
      }
    },
    "request": {
      "method": "PUT",
      "url": "Encounter/7b3992e6-a44d-469f-8246-d8cdec448260"
    }
  }, {
    "fullUrl": "https://madie.cms.gov/Condition/75293b82-4692-4616-9133-f06f2d27932b",
    "resource": {
      "resourceType": "Condition",
      "id": "75293b82-4692-4616-9133-f06f2d27932b",
      "meta": {
        "profile": [ "http://hl7.org/fhir/us/qicore/StructureDefinition/qicore-condition-encounter-diagnosis" ]
      },
      "clinicalStatus": {
        "coding": [ {
          "system": "http://terminology.hl7.org/CodeSystem/condition-clinical",
          "code": "active",
          "display": "active",
          "userSelected": true
        } ]
      },
      "verificationStatus": {
        "coding": [ {
          "system": "http://terminology.hl7.org/CodeSystem/condition-ver-status",
          "code": "refuted"
        } ]
      },
      "category": [ {
        "coding": [ {
          "system": "http://terminology.hl7.org/CodeSystem/condition-category",
          "code": "encounter-diagnosis",
          "display": "Encounter Diagnosis",
          "userSelected": true
        } ]
      } ],
      "code": {
        "coding": [ {
          "system": "http://snomed.info/sct",
          "version": "2021-09",
          "code": "433146000",
          "display": "Chronic kidney disease stage 5 (disorder)",
          "userSelected": true
        } ]
      },
      "subject": {
        "reference": "Patient/51e9e9aa-edcc-46f4-8472-24f377014ad4"
      },
      "onsetDateTime": "2025-08-15T08:00:00.000+00:00"
    },
    "request": {
      "method": "PUT",
      "url": "Condition/75293b82-4692-4616-9133-f06f2d27932b"
    }
  }, {
    "fullUrl": "https://madie.cms.gov/MeasureReport/a6485f82-0333-461b-9920-4cdfef80f5e7",
    "resource": {
      "resourceType": "MeasureReport",
      "id": "a6485f82-0333-461b-9920-4cdfef80f5e7",
      "meta": {
        "profile": [ "http://hl7.org/fhir/us/cqfmeasures/StructureDefinition/test-case-cqfm" ]
      },
      "contained": [ {
        "resourceType": "Parameters",
        "id": "22eea904-2ab2-4695-9be6-ec0b07348827-parameters",
        "parameter": [ {
          "name": "subject",
          "valueString": "51e9e9aa-edcc-46f4-8472-24f377014ad4"
        } ]
      } ],
      "extension": [ {
        "url": "http://hl7.org/fhir/StructureDefinition/cqf-inputParameters",
        "valueReference": {
          "reference": "#22eea904-2ab2-4695-9be6-ec0b07348827-parameters"
        }
      }, {
        "url": "http://hl7.org/fhir/us/cqfmeasures/StructureDefinition/cqfm-testCaseDescription",
        "valueMarkdown": "Patient has diabetes diagnosis and both labs plus CKD stage 5 with a refuted verification status. This case tests the denominator exclusions."
      } ],
      "modifierExtension": [ {
        "url": "http://hl7.org/fhir/us/cqfmeasures/StructureDefinition/cqfm-isTestCase",
        "valueBoolean": true
      } ],
      "status": "complete",
      "type": "individual",
      "measure": "https://madie.cms.gov/Measure/CMS951FHIRKidneyHealthEval",
      "period": {
        "start": "2026-01-01",
        "end": "2026-12-31"
      },
      "group": [ {
        "id": "Group_1",
        "population": [ {
          "id": "InitialPopulation_1",
          "code": {
            "coding": [ {
              "system": "http://terminology.hl7.org/CodeSystem/measure-population",
              "code": "initial-population",
              "display": "Initial Population"
            } ]
          },
          "count": 1
        }, {
          "id": "Denominator_1",
          "code": {
            "coding": [ {
              "system": "http://terminology.hl7.org/CodeSystem/measure-population",
              "code": "denominator",
              "display": "Denominator"
            } ]
          },
          "count": 1
        }, {
          "id": "DenominatorExclusion_1",
          "code": {
            "coding": [ {
              "system": "http://terminology.hl7.org/CodeSystem/measure-population",
              "code": "denominator-exclusion",
              "display": "Denominator Exclusion"
            } ]
          },
          "count": 0
        }, {
          "id": "Numerator_1",
          "code": {
            "coding": [ {
              "system": "http://terminology.hl7.org/CodeSystem/measure-population",
              "code": "numerator",
              "display": "Numerator"
            } ]
          },
          "count": 0
        } ],
        "measureScore": {
          "value": 1.0
        }
      } ],
      "evaluatedResource": [ {
        "reference": "Patient/51e9e9aa-edcc-46f4-8472-24f377014ad4"
      }, {
        "reference": "Condition/9d1ace1f-ae37-4d04-9564-7901c53297c9"
      }, {
        "reference": "Encounter/7b3992e6-a44d-469f-8246-d8cdec448260"
      }, {
        "reference": "Condition/75293b82-4692-4616-9133-f06f2d27932b"
      } ]
    },
    "request": {
      "method": "PUT",
      "url": "MeasureReport/a6485f82-0333-461b-9920-4cdfef80f5e7"
    }
  } ]
}