{
  "resourceType": "Bundle",
  "id": "63487c2e0968f80122540178",
  "type": "transaction",
  "entry": [ {
    "fullUrl": "https://madie.cms.gov/Patient/663f65ef-8b51-4a5c-a18f-570677441fd1",
    "resource": {
      "resourceType": "Patient",
      "id": "663f65ef-8b51-4a5c-a18f-570677441fd1",
      "meta": {
        "profile": [ "http://hl7.org/fhir/us/qicore/StructureDefinition/qicore-patient" ]
      },
      "text": {
        "status": "generated",
        "div": "<div xmlns=\"http://www.w3.org/1999/xhtml\"><div class=\"hapiHeaderText\">EncDxAbnPres<b>DENEXPASS</b></div><table class=\"hapiPropertyTable\"><tbody><tr><td>Identifier</td><td>e60ac0c86374d56542751bc908b8f4587a0e4d04c5ad61e351ba0274daf18ca0</td></tr><tr><td>Date of birth</td><td><span>14 February 1985</span></td></tr></tbody></table></div>"
      },
      "extension": [ {
        "url": "http://hl7.org/fhir/us/core/StructureDefinition/us-core-race",
        "extension": [ {
          "url": "ombCategory",
          "valueCoding": {
            "system": "urn:oid:2.16.840.1.113883.6.238",
            "code": "1002-5",
            "display": "American Indian or Alaska Native",
            "userSelected": true
          }
        }, {
          "url": "text",
          "valueString": "American Indian or Alaska Native"
        } ]
      }, {
        "url": "http://hl7.org/fhir/us/core/StructureDefinition/us-core-ethnicity",
        "extension": [ {
          "url": "ombCategory",
          "valueCoding": {
            "system": "urn:oid:2.16.840.1.113883.6.238",
            "code": "2135-2",
            "display": "Hispanic or Latino",
            "userSelected": true
          }
        }, {
          "url": "text",
          "valueString": "Hispanic or Latino"
        } ]
      } ],
      "identifier": [ {
        "type": {
          "coding": [ {
            "system": "http://terminology.hl7.org/CodeSystem/v2-0203",
            "code": "MR"
          } ]
        },
        "system": "https://bonnie-fhir.healthit.gov/",
        "value": "63487c2e0968f80122540178"
      } ],
      "active": true,
      "name": [ {
        "use": "usual",
        "family": "DENEXPass",
        "given": [ "EncDxAbnPres" ]
      } ],
      "gender": "female",
      "birthDate": "1998-02-14"
    },
    "request": {
      "method": "PUT",
      "url": "Patient/663f65ef-8b51-4a5c-a18f-570677441fd1"
    }
  }, {
    "fullUrl": "https://madie.cms.gov/Observation/7636f7c6-df8c-4795-8d93-4a57340b6ade",
    "resource": {
      "resourceType": "Observation",
      "id": "7636f7c6-df8c-4795-8d93-4a57340b6ade",
      "meta": {
        "profile": [ "http://hl7.org/fhir/us/qicore/StructureDefinition/qicore-simple-observation" ]
      },
      "status": "final",
      "category": [ {
        "coding": [ {
          "system": "http://terminology.hl7.org/CodeSystem/observation-category",
          "code": "exam",
          "display": "exam",
          "userSelected": true
        } ]
      } ],
      "code": {
        "coding": [ {
          "system": "http://loinc.org",
          "code": "11996-6"
        } ]
      },
      "subject": {
        "reference": "Patient/663f65ef-8b51-4a5c-a18f-570677441fd1"
      },
      "effectiveDateTime": "2026-06-08T08:00:00.000+00:00",
      "performer": [ {
        "reference": "Organization/example1",
        "display": "Hendricks Country Hospital"
      } ],
      "valueInteger": 1
    },
    "request": {
      "method": "PUT",
      "url": "Observation/7636f7c6-df8c-4795-8d93-4a57340b6ade"
    }
  }, {
    "fullUrl": "https://madie.cms.gov/Observation/0731f120-123b-481c-b9e1-f8b1495e60b9",
    "resource": {
      "resourceType": "Observation",
      "id": "0731f120-123b-481c-b9e1-f8b1495e60b9",
      "meta": {
        "profile": [ "http://hl7.org/fhir/us/qicore/StructureDefinition/qicore-simple-observation" ]
      },
      "status": "final",
      "category": [ {
        "coding": [ {
          "system": "http://terminology.hl7.org/CodeSystem/observation-category",
          "code": "exam",
          "display": "exam",
          "userSelected": true
        } ]
      } ],
      "code": {
        "coding": [ {
          "system": "http://loinc.org",
          "code": "11884-4"
        } ]
      },
      "subject": {
        "reference": "Patient/663f65ef-8b51-4a5c-a18f-570677441fd1"
      },
      "effectiveDateTime": "2026-06-08T08:00:00.000+00:00",
      "performer": [ {
        "reference": "Organization/example1",
        "display": "Hendricks Country Hospital"
      } ],
      "valueQuantity": {
        "value": 43,
        "system": "http://unitsofmeasure.org",
        "code": "wk"
      }
    },
    "request": {
      "method": "PUT",
      "url": "Observation/0731f120-123b-481c-b9e1-f8b1495e60b9"
    }
  }, {
    "fullUrl": "https://madie.cms.gov/Observation/d9004e87-375a-4176-94cf-e65ffd87cc2b",
    "resource": {
      "resourceType": "Observation",
      "id": "d9004e87-375a-4176-94cf-e65ffd87cc2b",
      "meta": {
        "profile": [ "http://hl7.org/fhir/us/qicore/StructureDefinition/qicore-simple-observation" ]
      },
      "status": "final",
      "category": [ {
        "coding": [ {
          "system": "http://terminology.hl7.org/CodeSystem/observation-category",
          "code": "exam",
          "display": "exam",
          "userSelected": true
        } ]
      } ],
      "code": {
        "coding": [ {
          "system": "http://loinc.org",
          "code": "93857-1"
        } ]
      },
      "subject": {
        "reference": "Patient/663f65ef-8b51-4a5c-a18f-570677441fd1"
      },
      "effectiveDateTime": "2026-06-08T20:00:00.000+00:00",
      "performer": [ {
        "reference": "Organization/example1",
        "display": "Hendricks Country Hospital"
      } ],
      "valueDateTime": "2026-06-08T20:00:00.000+00:00"
    },
    "request": {
      "method": "PUT",
      "url": "Observation/d9004e87-375a-4176-94cf-e65ffd87cc2b"
    }
  }, {
    "fullUrl": "https://madie.cms.gov/Encounter/bb74ff8e-7ca3-45f5-9f3d-3b2ca4f9076d",
    "resource": {
      "resourceType": "Encounter",
      "id": "bb74ff8e-7ca3-45f5-9f3d-3b2ca4f9076d",
      "meta": {
        "profile": [ "http://hl7.org/fhir/us/qicore/StructureDefinition/qicore-encounter" ]
      },
      "status": "finished",
      "class": {
        "system": "http://terminology.hl7.org/CodeSystem/v3-ActCode",
        "code": "IMP",
        "display": "inpatient encounter"
      },
      "type": [ {
        "coding": [ {
          "system": "http://snomed.info/sct",
          "code": "8715000"
        } ]
      } ],
      "subject": {
        "reference": "Patient/663f65ef-8b51-4a5c-a18f-570677441fd1"
      },
      "period": {
        "start": "2026-06-08T08:00:00.000+00:00",
        "end": "2026-06-10T08:15:00.000+00:00"
      },
      "reasonCode": [ {
        "coding": [ {
          "system": "http://snomed.info/sct",
          "code": "169826009",
          "display": "Single live birth from singleton pregnancy (finding)"
        } ]
      } ],
      "reasonReference": [ {
        "reference": "Condition/7ec12b84-d527-4c98-a0ee-65f2d90b267c"
      } ]
    },
    "request": {
      "method": "PUT",
      "url": "Encounter/bb74ff8e-7ca3-45f5-9f3d-3b2ca4f9076d"
    }
  }, {
    "fullUrl": "https://madie.cms.gov/Procedure/17b65d59-87a1-44f3-9f13-c1101a1d8d06",
    "resource": {
      "resourceType": "Procedure",
      "id": "17b65d59-87a1-44f3-9f13-c1101a1d8d06",
      "meta": {
        "profile": [ "http://hl7.org/fhir/us/qicore/StructureDefinition/qicore-procedure" ]
      },
      "extension": [ {
        "url": "http://hl7.org/fhir/us/qicore/StructureDefinition/qicore-recorded",
        "valueDateTime": "2014-04-05T13:35:00.000+00:00"
      } ],
      "status": "completed",
      "code": {
        "coding": [ {
          "system": "http://snomed.info/sct",
          "code": "4504004"
        } ]
      },
      "subject": {
        "reference": "Patient/663f65ef-8b51-4a5c-a18f-570677441fd1"
      },
      "performedPeriod": {
        "start": "2026-06-08T20:00:00.000+00:00",
        "end": "2026-06-09T20:00:00.000+00:00"
      }
    },
    "request": {
      "method": "PUT",
      "url": "Procedure/17b65d59-87a1-44f3-9f13-c1101a1d8d06"
    }
  }, {
    "fullUrl": "https://madie.cms.gov/Condition/b4979a86-e5f6-4b90-8dbf-61f207efce33",
    "resource": {
      "resourceType": "Condition",
      "id": "b4979a86-e5f6-4b90-8dbf-61f207efce33",
      "meta": {
        "profile": [ "http://hl7.org/fhir/us/qicore/StructureDefinition/qicore-condition-encounter-diagnosis" ]
      },
      "category": [ {
        "coding": [ {
          "system": "http://terminology.hl7.org/CodeSystem/condition-category",
          "code": "encounter-diagnosis",
          "display": "Encounter Diagnosis"
        } ]
      } ],
      "code": {
        "coding": [ {
          "system": "http://snomed.info/sct",
          "version": "2022-09",
          "code": "169826009",
          "display": "Single live birth (finding)",
          "userSelected": true
        } ]
      },
      "subject": {
        "reference": "Patient/663f65ef-8b51-4a5c-a18f-570677441fd1"
      },
      "encounter": {
        "reference": "Encounter/bb74ff8e-7ca3-45f5-9f3d-3b2ca4f9076d"
      },
      "recordedDate": "2026-10-17T08:00:00.000+00:00"
    },
    "request": {
      "method": "PUT",
      "url": "Condition/b4979a86-e5f6-4b90-8dbf-61f207efce33"
    }
  }, {
    "fullUrl": "https://madie.cms.gov/Condition/7ec12b84-d527-4c98-a0ee-65f2d90b267c",
    "resource": {
      "resourceType": "Condition",
      "id": "7ec12b84-d527-4c98-a0ee-65f2d90b267c",
      "meta": {
        "profile": [ "http://hl7.org/fhir/us/qicore/StructureDefinition/qicore-condition-encounter-diagnosis" ]
      },
      "category": [ {
        "coding": [ {
          "system": "http://terminology.hl7.org/CodeSystem/condition-category",
          "code": "encounter-diagnosis",
          "display": "Encounter Diagnosis"
        } ]
      } ],
      "code": {
        "coding": [ {
          "system": "http://snomed.info/sct",
          "version": "2022-09",
          "code": "18559007",
          "display": "Frank breech presentation (finding)",
          "userSelected": true
        } ]
      },
      "subject": {
        "reference": "Patient/663f65ef-8b51-4a5c-a18f-570677441fd1"
      },
      "encounter": {
        "reference": "Encounter/bb74ff8e-7ca3-45f5-9f3d-3b2ca4f9076d"
      },
      "recordedDate": "2026-10-17T08:00:00.000+00:00"
    },
    "request": {
      "method": "PUT",
      "url": "Condition/7ec12b84-d527-4c98-a0ee-65f2d90b267c"
    }
  }, {
    "fullUrl": "https://madie.cms.gov/Coverage/c2f46748-9c00-49fa-a9cf-6f17621f16bf",
    "resource": {
      "resourceType": "Coverage",
      "id": "c2f46748-9c00-49fa-a9cf-6f17621f16bf",
      "meta": {
        "profile": [ "http://hl7.org/fhir/us/qicore/StructureDefinition/qicore-coverage" ]
      },
      "status": "active",
      "subscriberId": "523435",
      "beneficiary": {
        "reference": "Patient/663f65ef-8b51-4a5c-a18f-570677441fd1"
      },
      "relationship": {
        "coding": [ {
          "system": "http://terminology.hl7.org/CodeSystem/subscriber-relationship",
          "code": "self"
        } ]
      },
      "payor": [ {
        "reference": "Organization/83c8546a-48dd-4404-9fc8-6f866422bb95"
      } ]
    },
    "request": {
      "method": "PUT",
      "url": "Coverage/c2f46748-9c00-49fa-a9cf-6f17621f16bf"
    }
  }, {
    "fullUrl": "https://madie.cms.gov/Organization/83c8546a-48dd-4404-9fc8-6f866422bb95",
    "resource": {
      "resourceType": "Organization",
      "id": "83c8546a-48dd-4404-9fc8-6f866422bb95",
      "meta": {
        "profile": [ "http://hl7.org/fhir/us/qicore/StructureDefinition/qicore-organization" ]
      },
      "identifier": [ {
        "use": "temp",
        "system": "urn:oid:2.16.840.1.113883.4.4",
        "value": "21-3259825"
      } ],
      "active": true,
      "type": [ {
        "coding": [ {
          "system": "http://terminology.hl7.org/CodeSystem/organization-type",
          "code": "pay",
          "display": "Payer"
        } ]
      } ],
      "name": "Blue Cross Blue Shield of Texas",
      "telecom": [ {
        "system": "phone",
        "value": "(+1) 972-766-6900"
      } ],
      "address": [ {
        "use": "billing",
        "type": "postal",
        "line": [ "P.O. Box 660044" ],
        "city": "Dallas",
        "state": "TX",
        "postalCode": "75266-0044",
        "country": "USA"
      } ]
    },
    "request": {
      "method": "PUT",
      "url": "Organization/83c8546a-48dd-4404-9fc8-6f866422bb95"
    }
  }, {
    "fullUrl": "https://madie.cms.gov/Practitioner/0b04412e-7482-41af-9248-8783f562122a",
    "resource": {
      "resourceType": "Practitioner",
      "id": "0b04412e-7482-41af-9248-8783f562122a",
      "meta": {
        "profile": [ "http://hl7.org/fhir/us/qicore/StructureDefinition/qicore-practitioner" ]
      },
      "identifier": [ {
        "system": "http://hl7.org/fhir/sid/us-npi",
        "value": "1234567890"
      } ],
      "name": [ {
        "family": "Evil",
        "prefix": [ "Dr" ]
      } ]
    },
    "request": {
      "method": "PUT",
      "url": "Practitioner/0b04412e-7482-41af-9248-8783f562122a"
    }
  }, {
    "fullUrl": "https://madie.cms.gov/MeasureReport/3c59ea4e-165d-4121-a302-883bde315eab",
    "resource": {
      "resourceType": "MeasureReport",
      "id": "3c59ea4e-165d-4121-a302-883bde315eab",
      "meta": {
        "profile": [ "http://hl7.org/fhir/us/cqfmeasures/StructureDefinition/test-case-cqfm" ]
      },
      "contained": [ {
        "resourceType": "Parameters",
        "id": "2d581ac2-92a6-48c2-ade0-d774a47c3ed7-parameters",
        "parameter": [ {
          "name": "subject",
          "valueString": "663f65ef-8b51-4a5c-a18f-570677441fd1"
        } ]
      } ],
      "extension": [ {
        "url": "http://hl7.org/fhir/StructureDefinition/cqf-inputParameters",
        "valueReference": {
          "reference": "#2d581ac2-92a6-48c2-ade0-d774a47c3ed7-parameters"
        }
      }, {
        "url": "http://hl7.org/fhir/us/cqfmeasures/StructureDefinition/cqfm-testCaseDescription",
        "valueMarkdown": "EGA 43 weeks; Enc Dx Abnormal presentation, gravida 1\n"
      } ],
      "modifierExtension": [ {
        "url": "http://hl7.org/fhir/us/cqfmeasures/StructureDefinition/cqfm-isTestCase",
        "valueBoolean": true
      } ],
      "status": "complete",
      "type": "individual",
      "measure": "https://madie.cms.gov/Measure/CMS0334FHIRPCCesareanBirth",
      "period": {
        "start": "2026-01-01",
        "end": "2026-12-31"
      },
      "group": [ {
        "id": "Group_1",
        "population": [ {
          "id": "InitialPopulation_1",
          "code": {
            "coding": [ {
              "system": "http://terminology.hl7.org/CodeSystem/measure-population",
              "code": "initial-population",
              "display": "Initial Population"
            } ]
          },
          "count": 1
        }, {
          "id": "Denominator_1",
          "code": {
            "coding": [ {
              "system": "http://terminology.hl7.org/CodeSystem/measure-population",
              "code": "denominator",
              "display": "Denominator"
            } ]
          },
          "count": 1
        }, {
          "id": "DenominatorExclusion_1",
          "code": {
            "coding": [ {
              "system": "http://terminology.hl7.org/CodeSystem/measure-population",
              "code": "denominator-exclusion",
              "display": "Denominator Exclusion"
            } ]
          },
          "count": 1
        }, {
          "id": "Numerator_1",
          "code": {
            "coding": [ {
              "system": "http://terminology.hl7.org/CodeSystem/measure-population",
              "code": "numerator",
              "display": "Numerator"
            } ]
          },
          "count": 0
        } ],
        "measureScore": {
          "value": 0.0
        }
      } ],
      "evaluatedResource": [ {
        "reference": "Patient/663f65ef-8b51-4a5c-a18f-570677441fd1"
      }, {
        "reference": "Observation/7636f7c6-df8c-4795-8d93-4a57340b6ade"
      }, {
        "reference": "Observation/0731f120-123b-481c-b9e1-f8b1495e60b9"
      }, {
        "reference": "Observation/d9004e87-375a-4176-94cf-e65ffd87cc2b"
      }, {
        "reference": "Encounter/bb74ff8e-7ca3-45f5-9f3d-3b2ca4f9076d"
      }, {
        "reference": "Procedure/17b65d59-87a1-44f3-9f13-c1101a1d8d06"
      }, {
        "reference": "Condition/b4979a86-e5f6-4b90-8dbf-61f207efce33"
      }, {
        "reference": "Condition/7ec12b84-d527-4c98-a0ee-65f2d90b267c"
      }, {
        "reference": "Coverage/c2f46748-9c00-49fa-a9cf-6f17621f16bf"
      }, {
        "reference": "Organization/83c8546a-48dd-4404-9fc8-6f866422bb95"
      }, {
        "reference": "Practitioner/0b04412e-7482-41af-9248-8783f562122a"
      } ]
    },
    "request": {
      "method": "PUT",
      "url": "MeasureReport/3c59ea4e-165d-4121-a302-883bde315eab"
    }
  } ]
}