{
  "resourceType": "Bundle",
  "id": "62fd0f1585b0356a7c285332",
  "type": "collection",
  "entry": [ {
    "fullUrl": "https://madie.cms.gov/Patient/991879e8-a1e3-4014-a71b-7c6bdfbc9748",
    "resource": {
      "resourceType": "Patient",
      "id": "991879e8-a1e3-4014-a71b-7c6bdfbc9748",
      "meta": {
        "profile": [ "http://hl7.org/fhir/us/qicore/StructureDefinition/qicore-patient" ]
      },
      "extension": [ {
        "url": "http://hl7.org/fhir/us/core/StructureDefinition/us-core-race",
        "extension": [ {
          "url": "ombCategory",
          "valueCoding": {
            "system": "urn:oid:2.16.840.1.113883.6.238",
            "code": "1002-5",
            "display": "American Indian or Alaska Native",
            "userSelected": true
          }
        }, {
          "url": "text",
          "valueString": "American Indian or Alaska Native"
        } ]
      }, {
        "url": "http://hl7.org/fhir/us/core/StructureDefinition/us-core-ethnicity",
        "extension": [ {
          "url": "ombCategory",
          "valueCoding": {
            "system": "urn:oid:2.16.840.1.113883.6.238",
            "code": "2186-5",
            "display": "Not Hispanic or Latino",
            "userSelected": true
          }
        }, {
          "url": "text",
          "valueString": "Not Hispanic or Latino"
        } ]
      } ],
      "identifier": [ {
        "type": {
          "coding": [ {
            "system": "http://terminology.hl7.org/CodeSystem/v2-0203",
            "code": "MR"
          } ]
        },
        "system": "https://bonnie-fhir.healthit.gov/",
        "value": "62fd0f1585b0356a7c285332"
      } ],
      "name": [ {
        "family": "DenomFail",
        "given": [ "PSAGreaterThan10" ]
      } ],
      "gender": "male",
      "birthDate": "1993-09-17"
    }
  }, {
    "fullUrl": "https://madie.cms.gov/Condition/5f017093-d35a-4670-8c19-8d014c677f99",
    "resource": {
      "resourceType": "Condition",
      "id": "5f017093-d35a-4670-8c19-8d014c677f99",
      "meta": {
        "profile": [ "http://hl7.org/fhir/us/qicore/StructureDefinition/qicore-condition-problems-health-concerns" ]
      },
      "clinicalStatus": {
        "coding": [ {
          "system": "http://terminology.hl7.org/CodeSystem/condition-clinical",
          "code": "active",
          "display": "active",
          "userSelected": true
        } ]
      },
      "category": [ {
        "coding": [ {
          "system": "http://terminology.hl7.org/CodeSystem/condition-category",
          "code": "problem-list-item",
          "display": "Problem List Item"
        } ]
      } ],
      "code": {
        "coding": [ {
          "system": "http://snomed.info/sct",
          "code": "254900004",
          "display": "Carcinoma of prostate (disorder)",
          "userSelected": true
        } ]
      },
      "subject": {
        "reference": "Patient/991879e8-a1e3-4014-a71b-7c6bdfbc9748"
      },
      "onsetPeriod": {
        "start": "2020-06-14T08:00:00.000+00:00"
      }
    }
  }, {
    "fullUrl": "https://madie.cms.gov/Procedure/8285d305-51a7-42e2-bafa-e89393d5f94b",
    "resource": {
      "resourceType": "Procedure",
      "id": "8285d305-51a7-42e2-bafa-e89393d5f94b",
      "meta": {
        "profile": [ "http://hl7.org/fhir/us/qicore/StructureDefinition/qicore-procedure" ]
      },
      "extension": [ {
        "url": "http://hl7.org/fhir/us/qicore/StructureDefinition/qicore-recorded",
        "valueDateTime": "2026-02-01T09:00:00.000+00:00"
      } ],
      "status": "completed",
      "code": {
        "coding": [ {
          "system": "http://snomed.info/sct",
          "code": "38915000",
          "display": "Radionuclide therapy for gland ablation (procedure)",
          "userSelected": true
        } ]
      },
      "subject": {
        "reference": "Patient/991879e8-a1e3-4014-a71b-7c6bdfbc9748"
      },
      "performedDateTime": "2026-04-28T08:00:00.000+00:00"
    }
  }, {
    "fullUrl": "https://madie.cms.gov/Observation/e2216715-3a51-4e79-88cc-90f60881a670",
    "resource": {
      "resourceType": "Observation",
      "id": "e2216715-3a51-4e79-88cc-90f60881a670",
      "meta": {
        "profile": [ "http://hl7.org/fhir/us/qicore/StructureDefinition/qicore-observation-lab" ]
      },
      "status": "final",
      "category": [ {
        "coding": [ {
          "system": "http://terminology.hl7.org/CodeSystem/observation-category",
          "code": "laboratory",
          "display": "Laboratory"
        } ]
      } ],
      "code": {
        "coding": [ {
          "system": "http://loinc.org",
          "version": "2.72",
          "code": "10508-0",
          "display": "Prostate specific Ag [Presence] in Tissue by Immune stain",
          "userSelected": true
        } ]
      },
      "subject": {
        "reference": "Patient/991879e8-a1e3-4014-a71b-7c6bdfbc9748"
      },
      "effectiveDateTime": "2026-02-02T08:00:00.000+00:00",
      "valueQuantity": {
        "value": 10.1,
        "system": "http://unitsofmeasure.org",
        "code": "ng/mL"
      }
    }
  }, {
    "fullUrl": "https://madie.cms.gov/Observation/8d4f7c8c-18ee-4006-b4f5-69feb488dffd",
    "resource": {
      "resourceType": "Observation",
      "id": "8d4f7c8c-18ee-4006-b4f5-69feb488dffd",
      "meta": {
        "profile": [ "http://hl7.org/fhir/us/qicore/StructureDefinition/qicore-observation-clinical-result" ]
      },
      "status": "final",
      "category": [ {
        "coding": [ {
          "system": "http://terminology.hl7.org/CodeSystem/observation-category",
          "code": "procedure",
          "display": "Procedure"
        } ]
      } ],
      "code": {
        "coding": [ {
          "system": "http://loinc.org",
          "code": "35266-6",
          "display": "Gleason score in Specimen Qualitative",
          "userSelected": true
        } ]
      },
      "subject": {
        "reference": "Patient/991879e8-a1e3-4014-a71b-7c6bdfbc9748"
      },
      "effectiveDateTime": "2026-01-02T08:00:00.000+00:00",
      "valueInteger": 5
    }
  }, {
    "fullUrl": "https://madie.cms.gov/Observation/4974aee4-be56-425d-aec9-38d16c183fc3",
    "resource": {
      "resourceType": "Observation",
      "id": "4974aee4-be56-425d-aec9-38d16c183fc3",
      "meta": {
        "profile": [ "http://hl7.org/fhir/us/qicore/StructureDefinition/qicore-observation-clinical-result" ]
      },
      "status": "final",
      "category": [ {
        "coding": [ {
          "system": "http://terminology.hl7.org/CodeSystem/observation-category",
          "code": "procedure",
          "display": "Procedure"
        } ]
      } ],
      "code": {
        "coding": [ {
          "system": "http://snomed.info/sct",
          "code": "254292007",
          "display": "Tumor staging (tumor staging)",
          "userSelected": true
        } ]
      },
      "subject": {
        "reference": "Patient/991879e8-a1e3-4014-a71b-7c6bdfbc9748"
      },
      "effectiveDateTime": "2026-04-27T23:59:00.000+00:00",
      "valueCodeableConcept": {
        "coding": [ {
          "system": "http://snomed.info/sct",
          "code": "1228899006",
          "display": "American Joint Committee on Cancer cT1c (qualifier value)",
          "userSelected": true
        } ]
      }
    }
  }, {
    "fullUrl": "https://madie.cms.gov/Coverage/edc717fd-b182-43c2-8e1f-30608c2dc476",
    "resource": {
      "resourceType": "Coverage",
      "id": "edc717fd-b182-43c2-8e1f-30608c2dc476",
      "meta": {
        "profile": [ "http://hl7.org/fhir/us/qicore/StructureDefinition/qicore-coverage" ]
      },
      "status": "active",
      "subscriberId": "123456789",
      "beneficiary": {
        "reference": "Patient/991879e8-a1e3-4014-a71b-7c6bdfbc9748"
      },
      "relationship": {
        "coding": [ {
          "system": "http://terminology.hl7.org/CodeSystem/subscriber-relationship",
          "code": "self",
          "display": "Self",
          "userSelected": true
        } ]
      },
      "payor": [ {
        "reference": "Organization/efbb39d0-59a4-4aa1-9497-418e6c7ace23"
      } ]
    }
  }, {
    "fullUrl": "https://madie.cms.gov/Organization/efbb39d0-59a4-4aa1-9497-418e6c7ace23",
    "resource": {
      "resourceType": "Organization",
      "id": "efbb39d0-59a4-4aa1-9497-418e6c7ace23",
      "meta": {
        "profile": [ "http://hl7.org/fhir/us/qicore/StructureDefinition/qicore-organization" ]
      },
      "identifier": [ {
        "use": "temp",
        "system": "urn:oid:2.16.840.1.113883.4.4",
        "value": "21-3259825"
      } ],
      "active": true,
      "type": [ {
        "coding": [ {
          "system": "http://terminology.hl7.org/CodeSystem/organization-type",
          "code": "pay",
          "display": "Payer"
        } ]
      } ],
      "name": "Blue Cross Blue Shield of Texas",
      "telecom": [ {
        "system": "phone",
        "value": "(+1) 972-766-6900"
      } ],
      "address": [ {
        "use": "billing",
        "type": "postal",
        "line": [ "P.O. Box 660044" ],
        "city": "Dallas",
        "state": "TX",
        "postalCode": "75266-0044",
        "country": "USA"
      } ]
    }
  }, {
    "fullUrl": "https://madie.cms.gov/Practitioner/574db111-9fc5-40b7-9a12-d83308f7a917",
    "resource": {
      "resourceType": "Practitioner",
      "id": "574db111-9fc5-40b7-9a12-d83308f7a917",
      "meta": {
        "profile": [ "http://hl7.org/fhir/us/qicore/StructureDefinition/qicore-practitioner" ]
      },
      "identifier": [ {
        "system": "http://hl7.org/fhir/sid/us-npi",
        "value": "1234567893"
      } ],
      "name": [ {
        "family": "Evil",
        "prefix": [ "Dr" ]
      } ]
    }
  }, {
    "fullUrl": "https://madie.cms.gov/MeasureReport/1cf00f34-a306-492e-bd85-40a070eb8ea7",
    "resource": {
      "resourceType": "MeasureReport",
      "id": "1cf00f34-a306-492e-bd85-40a070eb8ea7",
      "meta": {
        "profile": [ "http://hl7.org/fhir/us/cqfmeasures/StructureDefinition/test-case-cqfm" ]
      },
      "contained": [ {
        "resourceType": "Parameters",
        "id": "87dffd46-deb5-4a09-beca-5989b747ff2d-parameters",
        "parameter": [ {
          "name": "subject",
          "valueString": "991879e8-a1e3-4014-a71b-7c6bdfbc9748"
        } ]
      } ],
      "extension": [ {
        "url": "http://hl7.org/fhir/StructureDefinition/cqf-inputParameters",
        "valueReference": {
          "reference": "#87dffd46-deb5-4a09-beca-5989b747ff2d-parameters"
        }
      }, {
        "url": "http://hl7.org/fhir/us/cqfmeasures/StructureDefinition/cqfm-testCaseDescription",
        "valueMarkdown": "Patient with PrCaDx.   Most recent PSA greater than 10.\n"
      } ],
      "modifierExtension": [ {
        "url": "http://hl7.org/fhir/us/cqfmeasures/StructureDefinition/cqfm-isTestCase",
        "valueBoolean": true
      } ],
      "status": "complete",
      "type": "individual",
      "measure": "https://madie.cms.gov/Measure/CMS129FHIRProstCaBoneScanUse",
      "period": {
        "start": "2026-01-01",
        "end": "2026-12-31"
      },
      "group": [ {
        "id": "Group_1",
        "population": [ {
          "id": "InitialPopulation_1",
          "code": {
            "coding": [ {
              "system": "http://terminology.hl7.org/CodeSystem/measure-population",
              "code": "initial-population",
              "display": "Initial Population"
            } ]
          },
          "count": 1
        }, {
          "id": "Denominator_1",
          "code": {
            "coding": [ {
              "system": "http://terminology.hl7.org/CodeSystem/measure-population",
              "code": "denominator",
              "display": "Denominator"
            } ]
          },
          "count": 0
        }, {
          "id": "Numerator_1",
          "code": {
            "coding": [ {
              "system": "http://terminology.hl7.org/CodeSystem/measure-population",
              "code": "numerator",
              "display": "Numerator"
            } ]
          },
          "count": 0
        }, {
          "id": "DenominatorException_1",
          "code": {
            "coding": [ {
              "system": "http://terminology.hl7.org/CodeSystem/measure-population",
              "code": "denominator-exception",
              "display": "Denominator Exception"
            } ]
          },
          "count": 0
        } ],
        "measureScore": {
          "value": 1.0
        }
      } ],
      "evaluatedResource": [ {
        "reference": "Patient/991879e8-a1e3-4014-a71b-7c6bdfbc9748"
      }, {
        "reference": "Condition/5f017093-d35a-4670-8c19-8d014c677f99"
      }, {
        "reference": "Procedure/8285d305-51a7-42e2-bafa-e89393d5f94b"
      }, {
        "reference": "Observation/e2216715-3a51-4e79-88cc-90f60881a670"
      }, {
        "reference": "Observation/8d4f7c8c-18ee-4006-b4f5-69feb488dffd"
      }, {
        "reference": "Observation/4974aee4-be56-425d-aec9-38d16c183fc3"
      }, {
        "reference": "Coverage/edc717fd-b182-43c2-8e1f-30608c2dc476"
      }, {
        "reference": "Organization/efbb39d0-59a4-4aa1-9497-418e6c7ace23"
      }, {
        "reference": "Practitioner/574db111-9fc5-40b7-9a12-d83308f7a917"
      } ]
    }
  } ]
}