{
  "resourceType": "Bundle",
  "id": "64d3efc27483504df34e44b1",
  "type": "collection",
  "entry": [ {
    "fullUrl": "https://madie.cms.gov/Patient/8b83ee2c-fbad-4b89-a7e0-10f7d749d60f",
    "resource": {
      "resourceType": "Patient",
      "id": "8b83ee2c-fbad-4b89-a7e0-10f7d749d60f",
      "meta": {
        "profile": [ "http://hl7.org/fhir/us/qicore/StructureDefinition/qicore-patient" ]
      },
      "extension": [ {
        "url": "http://hl7.org/fhir/us/core/StructureDefinition/us-core-race",
        "extension": [ {
          "url": "ombCategory",
          "valueCoding": {
            "system": "urn:oid:2.16.840.1.113883.6.238",
            "code": "2106-3",
            "display": "White",
            "userSelected": true
          }
        }, {
          "url": "text",
          "valueString": "White"
        } ]
      }, {
        "url": "http://hl7.org/fhir/us/core/StructureDefinition/us-core-ethnicity",
        "extension": [ {
          "url": "ombCategory",
          "valueCoding": {
            "system": "urn:oid:2.16.840.1.113883.6.238",
            "code": "2186-5",
            "display": "Not Hispanic or Latino",
            "userSelected": true
          }
        }, {
          "url": "text",
          "valueString": "Not Hispanic or Latino"
        } ]
      } ],
      "identifier": [ {
        "type": {
          "coding": [ {
            "system": "http://terminology.hl7.org/CodeSystem/v2-0203",
            "code": "MR"
          } ]
        },
        "system": "https://bonnie-fhir.healthit.gov/",
        "value": "64d3efc27483504df34e44b1"
      } ],
      "name": [ {
        "family": "NumFail",
        "given": [ "VLduringMPwithEncAfter90DaysDRC" ]
      } ],
      "gender": "female",
      "birthDate": "2018-05-12"
    }
  }, {
    "fullUrl": "https://madie.cms.gov/Condition/1157ba14-a196-479d-b804-b1791c436571",
    "resource": {
      "resourceType": "Condition",
      "id": "1157ba14-a196-479d-b804-b1791c436571",
      "meta": {
        "profile": [ "http://hl7.org/fhir/us/qicore/StructureDefinition/qicore-condition-problems-health-concerns" ]
      },
      "clinicalStatus": {
        "coding": [ {
          "system": "http://terminology.hl7.org/CodeSystem/condition-clinical",
          "code": "active",
          "display": "active",
          "userSelected": true
        } ]
      },
      "category": [ {
        "coding": [ {
          "system": "http://terminology.hl7.org/CodeSystem/condition-category",
          "code": "problem-list-item",
          "display": "Problem List Item"
        } ]
      } ],
      "code": {
        "coding": [ {
          "system": "http://hl7.org/fhir/sid/icd-9-cm",
          "version": "2013",
          "code": "042",
          "display": "Human immunodeficiency virus [HIV] disease",
          "userSelected": true
        }, {
          "system": "http://snomed.info/sct",
          "version": "http://snomed.info/sct/731000124108/version/20250301",
          "code": "165816005",
          "userSelected": true
        } ]
      },
      "subject": {
        "reference": "Patient/8b83ee2c-fbad-4b89-a7e0-10f7d749d60f"
      },
      "onsetDateTime": "2021-05-12T08:00:00.000+00:00"
    }
  }, {
    "fullUrl": "https://madie.cms.gov/Observation/9667f6a9-ccbc-417d-85dc-5de09e32093b",
    "resource": {
      "resourceType": "Observation",
      "id": "9667f6a9-ccbc-417d-85dc-5de09e32093b",
      "meta": {
        "profile": [ "http://hl7.org/fhir/us/qicore/StructureDefinition/qicore-observation-lab" ]
      },
      "status": "final",
      "category": [ {
        "coding": [ {
          "system": "http://terminology.hl7.org/CodeSystem/observation-category",
          "code": "laboratory",
          "display": "Laboratory"
        } ]
      }, {
        "coding": [ {
          "system": "http://terminology.hl7.org/CodeSystem/observation-category",
          "code": "survey"
        } ]
      } ],
      "code": {
        "coding": [ {
          "system": "http://loinc.org",
          "version": "2.73",
          "code": "10351-5",
          "display": "HIV 1 RNA [Units/volume] (viral load) in Serum or Plasma by Probe with amplification",
          "userSelected": true
        } ]
      },
      "subject": {
        "reference": "Patient/8b83ee2c-fbad-4b89-a7e0-10f7d749d60f"
      },
      "effectiveDateTime": "2026-01-30T08:00:00.000+00:00",
      "issued": "2026-01-30T08:00:00.000+00:00",
      "dataAbsentReason": {
        "coding": [ {
          "system": "http://terminology.hl7.org/CodeSystem/data-absent-reason",
          "code": "unknown",
          "display": "Unknown"
        } ]
      }
    }
  }, {
    "fullUrl": "https://madie.cms.gov/Encounter/a3186a41-6907-4b81-92a1-e2304e900406",
    "resource": {
      "resourceType": "Encounter",
      "id": "a3186a41-6907-4b81-92a1-e2304e900406",
      "meta": {
        "profile": [ "http://hl7.org/fhir/us/qicore/StructureDefinition/qicore-encounter" ]
      },
      "status": "finished",
      "class": {
        "system": "http://terminology.hl7.org/CodeSystem/v3-ActCode",
        "code": "AMB",
        "display": "ambulatory"
      },
      "type": [ {
        "coding": [ {
          "system": "http://www.ama-assn.org/go/cpt",
          "code": "99429",
          "display": "Unlisted preventive medicine service",
          "userSelected": true
        } ]
      } ],
      "subject": {
        "reference": "Patient/8b83ee2c-fbad-4b89-a7e0-10f7d749d60f"
      },
      "period": {
        "start": "2026-02-22T08:00:00.000+00:00",
        "end": "2026-02-22T08:15:00.000+00:00"
      }
    }
  }, {
    "fullUrl": "https://madie.cms.gov/Coverage/29e5e8ea-bcd5-47b9-ba54-f9282068876c",
    "resource": {
      "resourceType": "Coverage",
      "id": "29e5e8ea-bcd5-47b9-ba54-f9282068876c",
      "meta": {
        "profile": [ "http://hl7.org/fhir/us/qicore/StructureDefinition/qicore-coverage" ]
      },
      "status": "active",
      "subscriberId": "123456",
      "beneficiary": {
        "reference": "Patient/8b83ee2c-fbad-4b89-a7e0-10f7d749d60f"
      },
      "relationship": {
        "coding": [ {
          "system": "http://terminology.hl7.org/CodeSystem/subscriber-relationship",
          "code": "self",
          "display": "Self"
        } ]
      },
      "payor": [ {
        "reference": "Organization/83d22228-7ffc-433b-9c97-518ad8b40e49"
      } ]
    }
  }, {
    "fullUrl": "https://madie.cms.gov/Organization/83d22228-7ffc-433b-9c97-518ad8b40e49",
    "resource": {
      "resourceType": "Organization",
      "id": "83d22228-7ffc-433b-9c97-518ad8b40e49",
      "meta": {
        "profile": [ "http://hl7.org/fhir/us/qicore/StructureDefinition/qicore-organization" ]
      },
      "identifier": [ {
        "use": "temp",
        "system": "urn:oid:2.16.840.1.113883.4.4",
        "value": "21-3259825"
      } ],
      "active": true,
      "type": [ {
        "coding": [ {
          "system": "http://terminology.hl7.org/CodeSystem/organization-type",
          "code": "pay",
          "display": "Payer"
        } ]
      } ],
      "name": "Blue Cross Blue Shield of Texas",
      "telecom": [ {
        "system": "phone",
        "value": "(+1) 972-766-6900"
      } ],
      "address": [ {
        "use": "billing",
        "type": "postal",
        "line": [ "P.O. Box 660044" ],
        "city": "Dallas",
        "state": "TX",
        "postalCode": "75266-0044",
        "country": "USA"
      } ]
    }
  }, {
    "fullUrl": "https://madie.cms.gov/Practitioner/a243e946-f7c8-4b04-a62b-4c1e6bd5fec8",
    "resource": {
      "resourceType": "Practitioner",
      "id": "a243e946-f7c8-4b04-a62b-4c1e6bd5fec8",
      "meta": {
        "profile": [ "http://hl7.org/fhir/us/qicore/StructureDefinition/qicore-practitioner" ]
      },
      "identifier": [ {
        "system": "http://hl7.org/fhir/sid/us-npi",
        "value": "1689411712"
      } ],
      "name": [ {
        "family": "Evil",
        "prefix": [ "Dr" ]
      } ]
    }
  }, {
    "fullUrl": "https://madie.cms.gov/MeasureReport/e879bf86-a0c4-46a5-8e3a-e2808a916faf",
    "resource": {
      "resourceType": "MeasureReport",
      "id": "e879bf86-a0c4-46a5-8e3a-e2808a916faf",
      "meta": {
        "profile": [ "http://hl7.org/fhir/us/cqfmeasures/StructureDefinition/test-case-cqfm" ]
      },
      "contained": [ {
        "resourceType": "Parameters",
        "id": "c49d4d6e-558b-4150-8bd4-b27df21bc1bd-parameters",
        "parameter": [ {
          "name": "subject",
          "valueString": "8b83ee2c-fbad-4b89-a7e0-10f7d749d60f"
        } ]
      } ],
      "extension": [ {
        "url": "http://hl7.org/fhir/StructureDefinition/cqf-inputParameters",
        "valueReference": {
          "reference": "#c49d4d6e-558b-4150-8bd4-b27df21bc1bd-parameters"
        }
      }, {
        "url": "http://hl7.org/fhir/us/cqfmeasures/StructureDefinition/cqfm-testCaseDescription",
        "valueMarkdown": "Patient has a viral load test during the measurement period with an encounter before 90 days. Encounter is unlisted preventive medicine service."
      } ],
      "modifierExtension": [ {
        "url": "http://hl7.org/fhir/us/cqfmeasures/StructureDefinition/cqfm-isTestCase",
        "valueBoolean": true
      } ],
      "status": "complete",
      "type": "individual",
      "measure": "https://madie.cms.gov/Measure/CMS1157FHIRHIVRetention",
      "period": {
        "start": "2026-01-01",
        "end": "2026-12-31"
      },
      "group": [ {
        "id": "Group_1",
        "population": [ {
          "id": "InitialPopulation_1",
          "code": {
            "coding": [ {
              "system": "http://terminology.hl7.org/CodeSystem/measure-population",
              "code": "initial-population",
              "display": "Initial Population"
            } ]
          },
          "count": 1
        }, {
          "id": "Denominator_1",
          "code": {
            "coding": [ {
              "system": "http://terminology.hl7.org/CodeSystem/measure-population",
              "code": "denominator",
              "display": "Denominator"
            } ]
          },
          "count": 1
        }, {
          "id": "Numerator_1",
          "code": {
            "coding": [ {
              "system": "http://terminology.hl7.org/CodeSystem/measure-population",
              "code": "numerator",
              "display": "Numerator"
            } ]
          },
          "count": 0
        } ],
        "measureScore": {
          "value": 1.0
        }
      } ],
      "evaluatedResource": [ {
        "reference": "Patient/8b83ee2c-fbad-4b89-a7e0-10f7d749d60f"
      }, {
        "reference": "Condition/1157ba14-a196-479d-b804-b1791c436571"
      }, {
        "reference": "Observation/9667f6a9-ccbc-417d-85dc-5de09e32093b"
      }, {
        "reference": "Encounter/a3186a41-6907-4b81-92a1-e2304e900406"
      }, {
        "reference": "Coverage/29e5e8ea-bcd5-47b9-ba54-f9282068876c"
      }, {
        "reference": "Organization/83d22228-7ffc-433b-9c97-518ad8b40e49"
      }, {
        "reference": "Practitioner/a243e946-f7c8-4b04-a62b-4c1e6bd5fec8"
      } ]
    }
  } ]
}