{
  "resourceType": "Bundle",
  "id": "62c880ec0111a60120dc2204",
  "type": "transaction",
  "entry": [ {
    "fullUrl": "https://madie.cms.gov/Patient/da126090-7372-47c7-a703-8a06a0216fc0",
    "resource": {
      "resourceType": "Patient",
      "id": "da126090-7372-47c7-a703-8a06a0216fc0",
      "meta": {
        "profile": [ "http://hl7.org/fhir/us/qicore/StructureDefinition/qicore-patient" ]
      },
      "text": {
        "status": "generated",
        "div": "<div xmlns=\"http://www.w3.org/1999/xhtml\"><div class=\"hapiHeaderText\">Chemo31DaysAfterEnc<b>IPPFailPop1</b></div><table class=\"hapiPropertyTable\"><tbody><tr><td>Identifier</td><td>09c33a9a5b2609125bb8f430c38a15f0</td></tr><tr><td>Date of birth</td><td><span>19 October 1961</span></td></tr></tbody></table></div>"
      },
      "extension": [ {
        "url": "http://hl7.org/fhir/us/core/StructureDefinition/us-core-race",
        "extension": [ {
          "url": "ombCategory",
          "valueCoding": {
            "system": "urn:oid:2.16.840.1.113883.6.238",
            "code": "2106-3",
            "display": "White",
            "userSelected": true
          }
        }, {
          "url": "text",
          "valueString": "White"
        } ]
      }, {
        "url": "http://hl7.org/fhir/us/core/StructureDefinition/us-core-ethnicity",
        "extension": [ {
          "url": "ombCategory",
          "valueCoding": {
            "system": "urn:oid:2.16.840.1.113883.6.238",
            "code": "2135-2",
            "display": "Hispanic or Latino",
            "userSelected": true
          }
        }, {
          "url": "text",
          "valueString": "Hispanic or Latino"
        } ]
      } ],
      "identifier": [ {
        "type": {
          "coding": [ {
            "system": "http://terminology.hl7.org/CodeSystem/v2-0203",
            "code": "MR"
          } ]
        },
        "system": "https://bonnie-fhir.healthit.gov/",
        "value": "62c880ec0111a60120dc2204"
      } ],
      "active": true,
      "name": [ {
        "use": "usual",
        "family": "IPPFailPop1",
        "given": [ "Chemo31DaysAfterEnc" ]
      } ],
      "gender": "female",
      "birthDate": "1962-10-19"
    },
    "request": {
      "method": "PUT",
      "url": "Patient/da126090-7372-47c7-a703-8a06a0216fc0"
    }
  }, {
    "fullUrl": "https://madie.cms.gov/Condition/396f3931-0733-4e5b-bde0-9633e9a27215",
    "resource": {
      "resourceType": "Condition",
      "id": "396f3931-0733-4e5b-bde0-9633e9a27215",
      "meta": {
        "profile": [ "http://hl7.org/fhir/us/qicore/StructureDefinition/qicore-condition" ]
      },
      "clinicalStatus": {
        "coding": [ {
          "system": "http://terminology.hl7.org/CodeSystem/condition-clinical",
          "code": "active",
          "display": "active"
        } ]
      },
      "verificationStatus": {
        "coding": [ {
          "system": "http://terminology.hl7.org/CodeSystem/condition-ver-status",
          "code": "confirmed",
          "display": "Confirmed"
        } ]
      },
      "category": [ {
        "coding": [ {
          "system": "http://terminology.hl7.org/CodeSystem/condition-category",
          "code": "problem-list-item",
          "display": "Problem List Item"
        } ]
      } ],
      "code": {
        "coding": [ {
          "system": "http://snomed.info/sct",
          "code": "80914001"
        } ]
      },
      "subject": {
        "reference": "Patient/da126090-7372-47c7-a703-8a06a0216fc0"
      },
      "onsetDateTime": "2022-01-11T10:00:00.000+00:00"
    },
    "request": {
      "method": "PUT",
      "url": "Condition/396f3931-0733-4e5b-bde0-9633e9a27215"
    }
  }, {
    "fullUrl": "https://madie.cms.gov/Encounter/aa52a820-6c2e-401d-81b2-d915bdcb7a4a",
    "resource": {
      "resourceType": "Encounter",
      "id": "aa52a820-6c2e-401d-81b2-d915bdcb7a4a",
      "meta": {
        "profile": [ "http://hl7.org/fhir/us/qicore/StructureDefinition/qicore-encounter" ]
      },
      "status": "finished",
      "class": {
        "system": "http://terminology.hl7.org/CodeSystem/v3-ActCode",
        "code": "AMB",
        "display": "ambulatory",
        "userSelected": true
      },
      "type": [ {
        "coding": [ {
          "system": "http://www.ama-assn.org/go/cpt",
          "code": "99202"
        } ]
      } ],
      "subject": {
        "reference": "Patient/da126090-7372-47c7-a703-8a06a0216fc0"
      },
      "period": {
        "start": "2026-02-15T13:00:00.000+00:00",
        "end": "2026-02-15T14:00:00.000+00:00"
      }
    },
    "request": {
      "method": "PUT",
      "url": "Encounter/aa52a820-6c2e-401d-81b2-d915bdcb7a4a"
    }
  }, {
    "fullUrl": "https://madie.cms.gov/Coverage/6e2b4ce3-687a-4895-bcee-b845b98581a3",
    "resource": {
      "resourceType": "Coverage",
      "id": "6e2b4ce3-687a-4895-bcee-b845b98581a3",
      "meta": {
        "profile": [ "http://hl7.org/fhir/us/qicore/StructureDefinition/qicore-coverage" ]
      },
      "status": "active",
      "beneficiary": {
        "reference": "Patient/da126090-7372-47c7-a703-8a06a0216fc0"
      },
      "period": {
        "start": "1962-10-19T08:00:00.000+00:00"
      },
      "payor": [ {
        "reference": "Organization/f432a60d-0294-40ef-9fc2-c765277b3c87"
      } ]
    },
    "request": {
      "method": "PUT",
      "url": "Coverage/6e2b4ce3-687a-4895-bcee-b845b98581a3"
    }
  }, {
    "fullUrl": "https://madie.cms.gov/Procedure/c1afc03f-4a26-4673-9efd-eeceaf51989f",
    "resource": {
      "resourceType": "Procedure",
      "id": "c1afc03f-4a26-4673-9efd-eeceaf51989f",
      "meta": {
        "profile": [ "http://hl7.org/fhir/us/qicore/StructureDefinition/qicore-procedure" ]
      },
      "extension": [ {
        "url": "http://hl7.org/fhir/us/qicore/StructureDefinition/qicore-recorded",
        "valueDateTime": "2026-01-17T12:35:00.000+00:00"
      } ],
      "status": "completed",
      "code": {
        "coding": [ {
          "system": "http://snomed.info/sct",
          "code": "169396008"
        } ]
      },
      "subject": {
        "reference": "Patient/da126090-7372-47c7-a703-8a06a0216fc0"
      },
      "performedPeriod": {
        "start": "2026-01-17T11:00:00.000+00:00",
        "end": "2026-01-17T11:00:00.000+00:00"
      }
    },
    "request": {
      "method": "PUT",
      "url": "Procedure/c1afc03f-4a26-4673-9efd-eeceaf51989f"
    }
  }, {
    "fullUrl": "https://madie.cms.gov/Procedure/9f5d46a7-026f-4da2-92b4-7661d6d9d447",
    "resource": {
      "resourceType": "Procedure",
      "id": "9f5d46a7-026f-4da2-92b4-7661d6d9d447",
      "meta": {
        "profile": [ "http://hl7.org/fhir/us/qicore/StructureDefinition/qicore-procedure" ]
      },
      "extension": [ {
        "url": "http://hl7.org/fhir/us/qicore/StructureDefinition/qicore-recorded",
        "valueDateTime": "2026-03-17T12:35:00.000+00:00"
      } ],
      "status": "completed",
      "code": {
        "coding": [ {
          "system": "http://snomed.info/sct",
          "code": "169396008"
        } ]
      },
      "subject": {
        "reference": "Patient/da126090-7372-47c7-a703-8a06a0216fc0"
      },
      "performedPeriod": {
        "start": "2013-03-17T14:40:00.000+00:00",
        "end": "2013-03-17T14:40:00.000+00:00"
      }
    },
    "request": {
      "method": "PUT",
      "url": "Procedure/9f5d46a7-026f-4da2-92b4-7661d6d9d447"
    }
  }, {
    "fullUrl": "https://madie.cms.gov/Organization/f432a60d-0294-40ef-9fc2-c765277b3c87",
    "resource": {
      "resourceType": "Organization",
      "id": "f432a60d-0294-40ef-9fc2-c765277b3c87",
      "meta": {
        "profile": [ "http://hl7.org/fhir/us/qicore/StructureDefinition/qicore-organization" ]
      },
      "identifier": [ {
        "use": "temp",
        "system": "urn:oid:2.16.840.1.113883.4.4",
        "value": "21-3259825"
      } ],
      "active": true,
      "type": [ {
        "coding": [ {
          "system": "http://terminology.hl7.org/CodeSystem/organization-type",
          "code": "pay",
          "display": "Payer"
        } ]
      } ],
      "name": "Blue Cross Blue Shield of Texas",
      "telecom": [ {
        "system": "phone",
        "value": "(+1) 972-766-6900"
      } ],
      "address": [ {
        "use": "billing",
        "type": "postal",
        "line": [ "P.O. Box 660044" ],
        "city": "Dallas",
        "state": "TX",
        "postalCode": "75266-0044",
        "country": "USA"
      } ]
    },
    "request": {
      "method": "PUT",
      "url": "Organization/f432a60d-0294-40ef-9fc2-c765277b3c87"
    }
  }, {
    "fullUrl": "https://madie.cms.gov/Practitioner/17b260d1-bce9-4e72-94dc-f54198c5e669",
    "resource": {
      "resourceType": "Practitioner",
      "id": "17b260d1-bce9-4e72-94dc-f54198c5e669",
      "meta": {
        "profile": [ "http://hl7.org/fhir/us/qicore/StructureDefinition/qicore-practitioner" ]
      },
      "identifier": [ {
        "system": "http://hl7.org/fhir/sid/us-npi",
        "value": "123456"
      } ],
      "name": [ {
        "family": "Evil",
        "prefix": [ "Dr" ]
      } ]
    },
    "request": {
      "method": "PUT",
      "url": "Practitioner/17b260d1-bce9-4e72-94dc-f54198c5e669"
    }
  }, {
    "fullUrl": "https://madie.cms.gov/MeasureReport/fdf404e9-8ba7-4ba7-b412-ba41e3137c80",
    "resource": {
      "resourceType": "MeasureReport",
      "id": "fdf404e9-8ba7-4ba7-b412-ba41e3137c80",
      "meta": {
        "profile": [ "http://hl7.org/fhir/us/cqfmeasures/StructureDefinition/test-case-cqfm" ]
      },
      "contained": [ {
        "resourceType": "Parameters",
        "id": "dbcaf7c0-03fb-40ef-856d-c3efd04bee9e-parameters",
        "parameter": [ {
          "name": "subject",
          "valueString": "da126090-7372-47c7-a703-8a06a0216fc0"
        } ]
      } ],
      "extension": [ {
        "url": "http://hl7.org/fhir/StructureDefinition/cqf-inputParameters",
        "valueReference": {
          "reference": "#dbcaf7c0-03fb-40ef-856d-c3efd04bee9e-parameters"
        }
      }, {
        "url": "http://hl7.org/fhir/us/cqfmeasures/StructureDefinition/cqfm-testCaseDescription",
        "valueMarkdown": "Patient with cancer diagnosis that overlaps the office visit during measurement period, but second chemo was administered 31 days after office visit.\n"
      } ],
      "modifierExtension": [ {
        "url": "http://hl7.org/fhir/us/cqfmeasures/StructureDefinition/cqfm-isTestCase",
        "valueBoolean": true
      } ],
      "status": "complete",
      "type": "individual",
      "measure": "https://madie.cms.gov/Measure/CMS157FHIRPainIntensityQuantified",
      "period": {
        "start": "2026-01-01",
        "end": "2026-12-31"
      },
      "group": [ {
        "id": "Group_1",
        "population": [ {
          "id": "InitialPopulation_1",
          "code": {
            "coding": [ {
              "system": "http://terminology.hl7.org/CodeSystem/measure-population",
              "code": "initial-population",
              "display": "Initial Population"
            } ]
          },
          "count": 0
        }, {
          "id": "Denominator_1",
          "code": {
            "coding": [ {
              "system": "http://terminology.hl7.org/CodeSystem/measure-population",
              "code": "denominator",
              "display": "Denominator"
            } ]
          },
          "count": 0
        }, {
          "id": "Numerator_1",
          "code": {
            "coding": [ {
              "system": "http://terminology.hl7.org/CodeSystem/measure-population",
              "code": "numerator",
              "display": "Numerator"
            } ]
          },
          "count": 0
        } ],
        "measureScore": {
          "value": 0.0
        }
      }, {
        "id": "Group_2",
        "population": [ {
          "id": "InitialPopulation_2",
          "code": {
            "coding": [ {
              "system": "http://terminology.hl7.org/CodeSystem/measure-population",
              "code": "initial-population",
              "display": "Initial Population"
            } ]
          },
          "count": 0
        }, {
          "id": "Denominator_2",
          "code": {
            "coding": [ {
              "system": "http://terminology.hl7.org/CodeSystem/measure-population",
              "code": "denominator",
              "display": "Denominator"
            } ]
          },
          "count": 0
        }, {
          "id": "Numerator_2",
          "code": {
            "coding": [ {
              "system": "http://terminology.hl7.org/CodeSystem/measure-population",
              "code": "numerator",
              "display": "Numerator"
            } ]
          },
          "count": 0
        } ],
        "measureScore": {
          "value": 0.0
        }
      } ],
      "evaluatedResource": [ {
        "reference": "Patient/da126090-7372-47c7-a703-8a06a0216fc0"
      }, {
        "reference": "Condition/396f3931-0733-4e5b-bde0-9633e9a27215"
      }, {
        "reference": "Encounter/aa52a820-6c2e-401d-81b2-d915bdcb7a4a"
      }, {
        "reference": "Coverage/6e2b4ce3-687a-4895-bcee-b845b98581a3"
      }, {
        "reference": "Procedure/c1afc03f-4a26-4673-9efd-eeceaf51989f"
      }, {
        "reference": "Procedure/9f5d46a7-026f-4da2-92b4-7661d6d9d447"
      }, {
        "reference": "Organization/f432a60d-0294-40ef-9fc2-c765277b3c87"
      }, {
        "reference": "Practitioner/17b260d1-bce9-4e72-94dc-f54198c5e669"
      } ]
    },
    "request": {
      "method": "PUT",
      "url": "MeasureReport/fdf404e9-8ba7-4ba7-b412-ba41e3137c80"
    }
  } ]
}