{
  "resourceType": "Bundle",
  "id": "64d123121252352a0771c3c9",
  "type": "transaction",
  "entry": [ {
    "fullUrl": "https://madie.cms.gov/Patient/c244ed99-6bb8-4c43-a14d-f982297b3401",
    "resource": {
      "resourceType": "Patient",
      "id": "c244ed99-6bb8-4c43-a14d-f982297b3401",
      "meta": {
        "profile": [ "http://hl7.org/fhir/us/qicore/StructureDefinition/qicore-patient" ]
      },
      "extension": [ {
        "url": "http://hl7.org/fhir/us/core/StructureDefinition/us-core-race",
        "extension": [ {
          "url": "ombCategory",
          "valueCoding": {
            "system": "urn:oid:2.16.840.1.113883.6.238",
            "code": "1002-5",
            "display": "American Indian or Alaska Native",
            "userSelected": true
          }
        }, {
          "url": "text",
          "valueString": "American Indian or Alaska Native"
        } ]
      }, {
        "url": "http://hl7.org/fhir/us/core/StructureDefinition/us-core-ethnicity",
        "extension": [ {
          "url": "ombCategory",
          "valueCoding": {
            "system": "urn:oid:2.16.840.1.113883.6.238",
            "code": "2186-5",
            "display": "Not Hispanic or Latino",
            "userSelected": true
          }
        }, {
          "url": "text",
          "valueString": "Not Hispanic or Latino"
        } ]
      } ],
      "identifier": [ {
        "type": {
          "coding": [ {
            "system": "http://terminology.hl7.org/CodeSystem/v2-0203",
            "code": "MR"
          } ]
        },
        "system": "https://bonnie-fhir.healthit.gov/",
        "value": "64d123121252352a0771c3c9"
      } ],
      "name": [ {
        "family": "IPFail",
        "given": [ "AgeOver17WEnc" ]
      } ],
      "gender": "male",
      "birthDate": "2007-12-31"
    },
    "request": {
      "method": "PUT",
      "url": "Patient/c244ed99-6bb8-4c43-a14d-f982297b3401"
    }
  }, {
    "fullUrl": "https://madie.cms.gov/Encounter/e20b0201-8009-4844-8b61-189a0d952a62",
    "resource": {
      "resourceType": "Encounter",
      "id": "e20b0201-8009-4844-8b61-189a0d952a62",
      "status": "finished",
      "class": {
        "system": "http://terminology.hl7.org/CodeSystem/v3-ActCode",
        "code": "AMB",
        "display": "ambulatory",
        "userSelected": true
      },
      "type": [ {
        "coding": [ {
          "system": "http://www.ama-assn.org/go/cpt",
          "code": "99203",
          "userSelected": true
        } ]
      } ],
      "subject": {
        "reference": "Patient/c244ed99-6bb8-4c43-a14d-f982297b3401"
      },
      "period": {
        "start": "2027-10-25T10:30:00.000+00:00",
        "end": "2027-10-25T11:07:00.000+00:00"
      },
      "diagnosis": [ {
        "condition": {
          "reference": "Condition/e6c8f512-cc9d-4221-adbe-4957b5857b70"
        },
        "use": {
          "coding": [ {
            "system": "http://snomed.info/sct",
            "version": "2022-09",
            "code": "10811161000119107",
            "display": "Major depressive disorder in mother complicating pregnancy (disorder)",
            "userSelected": true
          } ]
        }
      } ]
    },
    "request": {
      "method": "PUT",
      "url": "Encounter/e20b0201-8009-4844-8b61-189a0d952a62"
    }
  }, {
    "fullUrl": "https://madie.cms.gov/Condition/e6c8f512-cc9d-4221-adbe-4957b5857b70",
    "resource": {
      "resourceType": "Condition",
      "id": "e6c8f512-cc9d-4221-adbe-4957b5857b70",
      "category": [ {
        "coding": [ {
          "system": "http://terminology.hl7.org/CodeSystem/condition-category",
          "code": "encounter-diagnosis",
          "display": "Encounter Diagnosis"
        } ]
      } ],
      "code": {
        "coding": [ {
          "system": "http://snomed.info/sct",
          "version": "2022-09",
          "code": "10811121000119102",
          "display": "Major depressive disorder in mother complicating childbirth (disorder)",
          "userSelected": true
        } ]
      },
      "subject": {
        "reference": "Patient/c244ed99-6bb8-4c43-a14d-f982297b3401"
      },
      "recordedDate": "2027-10-25T10:30:00.000+00:00"
    },
    "request": {
      "method": "PUT",
      "url": "Condition/e6c8f512-cc9d-4221-adbe-4957b5857b70"
    }
  }, {
    "fullUrl": "https://madie.cms.gov/Coverage/2b028355-979a-4e7d-8fcb-856b74ff3bea",
    "resource": {
      "resourceType": "Coverage",
      "id": "2b028355-979a-4e7d-8fcb-856b74ff3bea",
      "status": "active",
      "type": {
        "coding": [ {
          "system": "http://www.nlm.nih.gov/research/umls/sop",
          "version": "9.2",
          "code": "1",
          "display": "MEDICARE",
          "userSelected": true
        } ]
      },
      "beneficiary": {
        "reference": "Patient/c244ed99-6bb8-4c43-a14d-f982297b3401"
      },
      "period": {
        "start": "2027-01-29T08:00:00.000+00:00",
        "end": "2027-12-29T08:15:00.000+00:00"
      },
      "payor": [ {
        "reference": "Organization/fc9e154b-d88b-48f8-b16a-e8f53f89bc98"
      } ]
    },
    "request": {
      "method": "PUT",
      "url": "Coverage/2b028355-979a-4e7d-8fcb-856b74ff3bea"
    }
  }, {
    "fullUrl": "https://madie.cms.gov/Organization/fc9e154b-d88b-48f8-b16a-e8f53f89bc98",
    "resource": {
      "resourceType": "Organization",
      "id": "fc9e154b-d88b-48f8-b16a-e8f53f89bc98",
      "meta": {
        "profile": [ "http://hl7.org/fhir/us/qicore/StructureDefinition/qicore-organization" ]
      },
      "identifier": [ {
        "use": "temp",
        "system": "urn:oid:2.16.840.1.113883.4.4",
        "value": "21-3259825"
      } ],
      "active": true,
      "type": [ {
        "coding": [ {
          "system": "http://terminology.hl7.org/CodeSystem/organization-type",
          "code": "pay",
          "display": "Payer"
        } ]
      } ],
      "name": "Blue Cross Blue Shield of Texas",
      "telecom": [ {
        "system": "phone",
        "value": "(+1) 972-766-6900"
      } ],
      "address": [ {
        "use": "billing",
        "type": "postal",
        "line": [ "P.O. Box 660044" ],
        "city": "Dallas",
        "state": "TX",
        "postalCode": "75266-0044",
        "country": "USA"
      } ]
    },
    "request": {
      "method": "PUT",
      "url": "Organization/fc9e154b-d88b-48f8-b16a-e8f53f89bc98"
    }
  }, {
    "fullUrl": "https://madie.cms.gov/Practitioner/24501339-6af8-4423-84ae-1e86af83b9e4",
    "resource": {
      "resourceType": "Practitioner",
      "id": "24501339-6af8-4423-84ae-1e86af83b9e4",
      "identifier": [ {
        "system": "http://hl7.org/fhir/sid/us-npi",
        "value": "123456"
      } ],
      "name": [ {
        "family": "Evil",
        "prefix": [ "Dr" ]
      } ]
    },
    "request": {
      "method": "PUT",
      "url": "Practitioner/24501339-6af8-4423-84ae-1e86af83b9e4"
    }
  }, {
    "fullUrl": "https://madie.cms.gov/MeasureReport/11500d07-6802-4743-8970-bb5a63b0176e",
    "resource": {
      "resourceType": "MeasureReport",
      "id": "11500d07-6802-4743-8970-bb5a63b0176e",
      "meta": {
        "profile": [ "http://hl7.org/fhir/us/cqfmeasures/StructureDefinition/test-case-cqfm" ]
      },
      "contained": [ {
        "resourceType": "Parameters",
        "id": "45599345-eaf9-4100-8dfc-df843e6b89b2-parameters",
        "parameter": [ {
          "name": "subject",
          "valueString": "c244ed99-6bb8-4c43-a14d-f982297b3401"
        } ]
      } ],
      "extension": [ {
        "url": "http://hl7.org/fhir/StructureDefinition/cqf-inputParameters",
        "valueReference": {
          "reference": "#45599345-eaf9-4100-8dfc-df843e6b89b2-parameters"
        }
      }, {
        "url": "http://hl7.org/fhir/us/cqfmeasures/StructureDefinition/cqfm-testCaseDescription",
        "valueMarkdown": "Patient is over 17 years during Office Visit encounter with Depression diagnosis.  Since the patient turns 17 day before start of MP, the case exceeds upper age limit so fails the IPP criteria"
      } ],
      "modifierExtension": [ {
        "url": "http://hl7.org/fhir/us/cqfmeasures/StructureDefinition/cqfm-isTestCase",
        "valueBoolean": true
      } ],
      "status": "complete",
      "type": "individual",
      "measure": "https://madie.cms.gov/Measure/CMS177FHIRChildMDDSuicideAssmt",
      "period": {
        "start": "2026-01-01",
        "end": "2026-12-31"
      },
      "group": [ {
        "id": "Group_1",
        "population": [ {
          "id": "InitialPopulation_1",
          "code": {
            "coding": [ {
              "system": "http://terminology.hl7.org/CodeSystem/measure-population",
              "code": "initial-population",
              "display": "Initial Population"
            } ]
          },
          "count": 0
        }, {
          "id": "Denominator_1",
          "code": {
            "coding": [ {
              "system": "http://terminology.hl7.org/CodeSystem/measure-population",
              "code": "denominator",
              "display": "Denominator"
            } ]
          },
          "count": 0
        }, {
          "id": "Numerator_1",
          "code": {
            "coding": [ {
              "system": "http://terminology.hl7.org/CodeSystem/measure-population",
              "code": "numerator",
              "display": "Numerator"
            } ]
          },
          "count": 0
        } ],
        "measureScore": {
          "value": 0.0
        }
      } ],
      "evaluatedResource": [ {
        "reference": "Patient/c244ed99-6bb8-4c43-a14d-f982297b3401"
      }, {
        "reference": "Encounter/e20b0201-8009-4844-8b61-189a0d952a62"
      }, {
        "reference": "Condition/e6c8f512-cc9d-4221-adbe-4957b5857b70"
      }, {
        "reference": "Coverage/2b028355-979a-4e7d-8fcb-856b74ff3bea"
      }, {
        "reference": "Organization/fc9e154b-d88b-48f8-b16a-e8f53f89bc98"
      }, {
        "reference": "Practitioner/24501339-6af8-4423-84ae-1e86af83b9e4"
      } ]
    },
    "request": {
      "method": "PUT",
      "url": "MeasureReport/11500d07-6802-4743-8970-bb5a63b0176e"
    }
  } ]
}