{
  "resourceType": "Bundle",
  "id": "62fd4b710968f82603aac88c",
  "type": "collection",
  "entry": [ {
    "fullUrl": "https://madie.cms.gov/Patient/3c747b52-446b-4107-aff5-a6121d5e9ffc",
    "resource": {
      "resourceType": "Patient",
      "id": "3c747b52-446b-4107-aff5-a6121d5e9ffc",
      "meta": {
        "profile": [ "http://hl7.org/fhir/us/qicore/StructureDefinition/qicore-patient" ]
      },
      "extension": [ {
        "url": "http://hl7.org/fhir/us/core/StructureDefinition/us-core-race",
        "extension": [ {
          "url": "ombCategory",
          "valueCoding": {
            "system": "urn:oid:2.16.840.1.113883.6.238",
            "code": "2054-5",
            "display": "Black or African American",
            "userSelected": true
          }
        }, {
          "url": "text",
          "valueString": "Black or African American"
        } ]
      }, {
        "url": "http://hl7.org/fhir/us/core/StructureDefinition/us-core-ethnicity",
        "extension": [ {
          "url": "ombCategory",
          "valueCoding": {
            "system": "urn:oid:2.16.840.1.113883.6.238",
            "code": "2186-5",
            "display": "Not Hispanic or Latino",
            "userSelected": true
          }
        }, {
          "url": "text",
          "valueString": "Not Hispanic or Latino"
        } ]
      } ],
      "identifier": [ {
        "type": {
          "coding": [ {
            "system": "http://terminology.hl7.org/CodeSystem/v2-0203",
            "code": "MR"
          } ]
        },
        "system": "https://bonnie-fhir.healthit.gov/",
        "value": "62fd4b710968f82603aac88c"
      } ],
      "name": [ {
        "family": "IPFail",
        "given": [ "EncBeforeMP" ]
      } ],
      "gender": "female",
      "birthDate": "2001-12-31"
    }
  }, {
    "fullUrl": "https://madie.cms.gov/Encounter/5bf5a711-6d5c-480c-9ce0-e4f18786f232",
    "resource": {
      "resourceType": "Encounter",
      "id": "5bf5a711-6d5c-480c-9ce0-e4f18786f232",
      "meta": {
        "profile": [ "http://hl7.org/fhir/us/qicore/StructureDefinition/qicore-encounter" ]
      },
      "status": "finished",
      "class": {
        "system": "http://terminology.hl7.org/CodeSystem/v3-ActCode",
        "code": "AMB",
        "display": "ambulatory"
      },
      "type": [ {
        "coding": [ {
          "system": "http://www.ama-assn.org/go/cpt",
          "version": "2021",
          "code": "99385",
          "display": "Initial comprehensive preventive medicine evaluation and management of an individual including an age and gender appropriate history, examination, counseling/anticipatory guidance/risk factor reduction interventions, and the ordering of laboratory/diagnostic procedures, new patient; 18-39 years",
          "userSelected": true
        } ]
      } ],
      "subject": {
        "reference": "Patient/3c747b52-446b-4107-aff5-a6121d5e9ffc"
      },
      "period": {
        "start": "2025-12-31T23:00:00.000+00:00",
        "end": "2025-12-31T23:59:00.000+00:00"
      }
    }
  }, {
    "fullUrl": "https://madie.cms.gov/ServiceRequest/d1b1b7d9-5891-426b-9968-dbd32e2511b1",
    "resource": {
      "resourceType": "ServiceRequest",
      "id": "d1b1b7d9-5891-426b-9968-dbd32e2511b1",
      "meta": {
        "profile": [ "http://hl7.org/fhir/us/qicore/StructureDefinition/qicore-servicerequest" ]
      },
      "status": "active",
      "intent": "order",
      "code": {
        "coding": [ {
          "system": "http://snomed.info/sct",
          "version": "http://snomed.info/sct/731000124108/version/20250301",
          "code": "103696004",
          "display": "Patient referral to specialist (procedure)",
          "userSelected": true
        } ]
      },
      "subject": {
        "reference": "Patient/3c747b52-446b-4107-aff5-a6121d5e9ffc"
      },
      "authoredOn": "2026-08-08T08:00:00.000+00:00"
    }
  }, {
    "fullUrl": "https://madie.cms.gov/Coverage/7c6a823f-0a89-4fe0-9f49-721689ad7fe8",
    "resource": {
      "resourceType": "Coverage",
      "id": "7c6a823f-0a89-4fe0-9f49-721689ad7fe8",
      "meta": {
        "profile": [ "http://hl7.org/fhir/us/qicore/StructureDefinition/qicore-coverage" ]
      },
      "status": "active",
      "subscriberId": "123456",
      "beneficiary": {
        "reference": "Patient/3c747b52-446b-4107-aff5-a6121d5e9ffc"
      },
      "relationship": {
        "coding": [ {
          "system": "http://terminology.hl7.org/CodeSystem/subscriber-relationship",
          "code": "self",
          "display": "Self"
        } ]
      },
      "payor": [ {
        "reference": "Organization/f796286f-cedd-479a-8a7b-39a8be2024fd"
      } ]
    }
  }, {
    "fullUrl": "https://madie.cms.gov/Organization/f796286f-cedd-479a-8a7b-39a8be2024fd",
    "resource": {
      "resourceType": "Organization",
      "id": "f796286f-cedd-479a-8a7b-39a8be2024fd",
      "meta": {
        "profile": [ "http://hl7.org/fhir/us/qicore/StructureDefinition/qicore-organization" ]
      },
      "identifier": [ {
        "use": "temp",
        "system": "urn:oid:2.16.840.1.113883.4.4",
        "value": "21-3259825"
      } ],
      "active": true,
      "type": [ {
        "coding": [ {
          "system": "http://terminology.hl7.org/CodeSystem/organization-type",
          "code": "pay",
          "display": "Payer"
        } ]
      } ],
      "name": "Blue Cross Blue Shield of Texas",
      "telecom": [ {
        "system": "phone",
        "value": "(+1) 972-766-6900"
      } ],
      "address": [ {
        "use": "billing",
        "type": "postal",
        "line": [ "P.O. Box 660044" ],
        "city": "Dallas",
        "state": "TX",
        "postalCode": "75266-0044",
        "country": "USA"
      } ]
    }
  }, {
    "fullUrl": "https://madie.cms.gov/Practitioner/5d1f091f-a3ec-4f09-8acd-f388cdcb243e",
    "resource": {
      "resourceType": "Practitioner",
      "id": "5d1f091f-a3ec-4f09-8acd-f388cdcb243e",
      "meta": {
        "profile": [ "http://hl7.org/fhir/us/qicore/StructureDefinition/qicore-practitioner" ]
      },
      "identifier": [ {
        "system": "http://hl7.org/fhir/sid/us-npi",
        "value": "1689411712"
      } ],
      "name": [ {
        "family": "Evil",
        "prefix": [ "Dr" ]
      } ]
    }
  }, {
    "fullUrl": "https://madie.cms.gov/MeasureReport/d297cddb-b542-4bdb-887d-35b557a0a42c",
    "resource": {
      "resourceType": "MeasureReport",
      "id": "d297cddb-b542-4bdb-887d-35b557a0a42c",
      "meta": {
        "profile": [ "http://hl7.org/fhir/us/cqfmeasures/StructureDefinition/test-case-cqfm" ]
      },
      "contained": [ {
        "resourceType": "Parameters",
        "id": "cc0e9293-a4db-487f-aae8-2194f9e479cc-parameters",
        "parameter": [ {
          "name": "subject",
          "valueString": "3c747b52-446b-4107-aff5-a6121d5e9ffc"
        } ]
      } ],
      "extension": [ {
        "url": "http://hl7.org/fhir/StructureDefinition/cqf-inputParameters",
        "valueReference": {
          "reference": "#cc0e9293-a4db-487f-aae8-2194f9e479cc-parameters"
        }
      }, {
        "url": "http://hl7.org/fhir/us/cqfmeasures/StructureDefinition/cqfm-testCaseDescription",
        "valueMarkdown": "Encounter before MP ( \"start\" : \"202x-12-31T23:00:00.000+00:00\", \"end\" : \"202x-12-31T23:59:00.000+00:00\") status finished with valid Referral Status Active Intent Order"
      } ],
      "modifierExtension": [ {
        "url": "http://hl7.org/fhir/us/cqfmeasures/StructureDefinition/cqfm-isTestCase",
        "valueBoolean": true
      } ],
      "status": "complete",
      "type": "individual",
      "measure": "https://madie.cms.gov/Measure/CMS50FHIRReceiptofSpecialistReport",
      "period": {
        "start": "2026-01-01",
        "end": "2026-12-31"
      },
      "group": [ {
        "id": "Group_1",
        "population": [ {
          "id": "InitialPopulation_1",
          "code": {
            "coding": [ {
              "system": "http://terminology.hl7.org/CodeSystem/measure-population",
              "code": "initial-population",
              "display": "Initial Population"
            } ]
          },
          "count": 0
        }, {
          "id": "Denominator_1",
          "code": {
            "coding": [ {
              "system": "http://terminology.hl7.org/CodeSystem/measure-population",
              "code": "denominator",
              "display": "Denominator"
            } ]
          },
          "count": 0
        }, {
          "id": "Numerator_1",
          "code": {
            "coding": [ {
              "system": "http://terminology.hl7.org/CodeSystem/measure-population",
              "code": "numerator",
              "display": "Numerator"
            } ]
          },
          "count": 0
        } ],
        "measureScore": {
          "value": 1.0
        }
      } ],
      "evaluatedResource": [ {
        "reference": "Patient/3c747b52-446b-4107-aff5-a6121d5e9ffc"
      }, {
        "reference": "Encounter/5bf5a711-6d5c-480c-9ce0-e4f18786f232"
      }, {
        "reference": "ServiceRequest/d1b1b7d9-5891-426b-9968-dbd32e2511b1"
      }, {
        "reference": "Coverage/7c6a823f-0a89-4fe0-9f49-721689ad7fe8"
      }, {
        "reference": "Organization/f796286f-cedd-479a-8a7b-39a8be2024fd"
      }, {
        "reference": "Practitioner/5d1f091f-a3ec-4f09-8acd-f388cdcb243e"
      } ]
    }
  } ]
}