{
  "resourceType": "Bundle",
  "id": "59461ae12a56ae63756d88ee",
  "type": "transaction",
  "entry": [ {
    "fullUrl": "https://madie.cms.gov/Patient/e24d8c71-61dc-4e0d-bfc1-a5ebc186706d",
    "resource": {
      "resourceType": "Patient",
      "id": "e24d8c71-61dc-4e0d-bfc1-a5ebc186706d",
      "meta": {
        "profile": [ "http://hl7.org/fhir/us/qicore/StructureDefinition/qicore-patient" ]
      },
      "extension": [ {
        "url": "http://hl7.org/fhir/us/core/StructureDefinition/us-core-ethnicity",
        "extension": [ {
          "url": "ombCategory",
          "valueCoding": {
            "system": "urn:oid:2.16.840.1.113883.6.238",
            "code": "2135-2",
            "display": "Hispanic or Latino",
            "userSelected": true
          }
        }, {
          "url": "text",
          "valueString": "Hispanic or Latino"
        } ]
      } ],
      "identifier": [ {
        "system": "http://hospital.smarthealthit.org",
        "value": "999999999"
      } ],
      "name": [ {
        "family": "DENEXPass",
        "given": [ "OpioidUseDisorderBeforeEnc" ]
      } ],
      "gender": "male",
      "birthDate": "2001-12-01"
    },
    "request": {
      "method": "PUT",
      "url": "Patient/e24d8c71-61dc-4e0d-bfc1-a5ebc186706d"
    }
  }, {
    "fullUrl": "https://madie.cms.gov/Encounter/c2c52427-49ae-4d68-9720-9a297084690a",
    "resource": {
      "resourceType": "Encounter",
      "id": "c2c52427-49ae-4d68-9720-9a297084690a",
      "meta": {
        "profile": [ "http://hl7.org/fhir/us/qicore/StructureDefinition/qicore-encounter" ]
      },
      "status": "finished",
      "class": {
        "system": "http://terminology.hl7.org/CodeSystem/v3-ActCode",
        "code": "IMP",
        "display": "inpatient encounter"
      },
      "type": [ {
        "coding": [ {
          "system": "http://snomed.info/sct",
          "code": "183452005",
          "display": "Emergency hospital admission (procedure)",
          "userSelected": true
        } ]
      } ],
      "subject": {
        "reference": "Patient/e24d8c71-61dc-4e0d-bfc1-a5ebc186706d"
      },
      "period": {
        "start": "2026-12-08T10:00:00.000+00:00",
        "end": "2026-12-31T10:15:00.000+00:00"
      }
    },
    "request": {
      "method": "PUT",
      "url": "Encounter/c2c52427-49ae-4d68-9720-9a297084690a"
    }
  }, {
    "fullUrl": "https://madie.cms.gov/MedicationRequest/8e268cc6-2a76-4fe5-9292-6f0a9d00fe8f",
    "resource": {
      "resourceType": "MedicationRequest",
      "id": "8e268cc6-2a76-4fe5-9292-6f0a9d00fe8f",
      "meta": {
        "profile": [ "http://hl7.org/fhir/us/qicore/StructureDefinition/qicore-medicationrequest" ]
      },
      "status": "completed",
      "intent": "order",
      "category": [ {
        "coding": [ {
          "system": "http://terminology.hl7.org/CodeSystem/medicationrequest-category",
          "code": "community",
          "display": "Community",
          "userSelected": true
        } ]
      } ],
      "doNotPerform": false,
      "medicationCodeableConcept": {
        "coding": [ {
          "system": "http://www.nlm.nih.gov/research/umls/rxnorm",
          "code": "1298088",
          "display": "flurazepam hydrochloride 15 MG Oral Capsule",
          "userSelected": true
        } ]
      },
      "subject": {
        "reference": "Patient/e24d8c71-61dc-4e0d-bfc1-a5ebc186706d"
      },
      "authoredOn": "2026-12-31T10:00:00.000+00:00",
      "requester": {
        "reference": "Practitioner/5f936139-3461-41c4-ad43-f4f7276825ce"
      }
    },
    "request": {
      "method": "PUT",
      "url": "MedicationRequest/8e268cc6-2a76-4fe5-9292-6f0a9d00fe8f"
    }
  }, {
    "fullUrl": "https://madie.cms.gov/MedicationRequest/b9cc73a7-1b83-482d-b749-9cf97efd9aa6",
    "resource": {
      "resourceType": "MedicationRequest",
      "id": "b9cc73a7-1b83-482d-b749-9cf97efd9aa6",
      "meta": {
        "profile": [ "http://hl7.org/fhir/us/qicore/StructureDefinition/qicore-medicationrequest" ]
      },
      "status": "active",
      "intent": "reflex-order",
      "category": [ {
        "coding": [ {
          "system": "http://terminology.hl7.org/CodeSystem/medicationrequest-category",
          "code": "discharge",
          "display": "Discharge",
          "userSelected": true
        } ]
      } ],
      "doNotPerform": false,
      "medicationCodeableConcept": {
        "coding": [ {
          "system": "http://www.nlm.nih.gov/research/umls/rxnorm",
          "code": "1666338",
          "display": "buprenorphine 2.9 MG / naloxone 0.71 MG Sublingual Tablet",
          "userSelected": true
        } ]
      },
      "subject": {
        "reference": "Patient/e24d8c71-61dc-4e0d-bfc1-a5ebc186706d"
      },
      "authoredOn": "2026-12-22T13:00:00.000+00:00",
      "requester": {
        "reference": "Practitioner/5f936139-3461-41c4-ad43-f4f7276825ce"
      }
    },
    "request": {
      "method": "PUT",
      "url": "MedicationRequest/b9cc73a7-1b83-482d-b749-9cf97efd9aa6"
    }
  }, {
    "fullUrl": "https://madie.cms.gov/Condition/7f3adadb-d9ee-4f6f-9710-bb2d514b06c0",
    "resource": {
      "resourceType": "Condition",
      "id": "7f3adadb-d9ee-4f6f-9710-bb2d514b06c0",
      "meta": {
        "profile": [ "http://hl7.org/fhir/us/qicore/StructureDefinition/qicore-condition-problems-health-concerns" ]
      },
      "clinicalStatus": {
        "coding": [ {
          "system": "http://terminology.hl7.org/CodeSystem/condition-clinical",
          "code": "active",
          "display": "active",
          "userSelected": true
        } ]
      },
      "verificationStatus": {
        "coding": [ {
          "system": "http://terminology.hl7.org/CodeSystem/condition-ver-status",
          "code": "confirmed",
          "display": "Confirmed",
          "userSelected": true
        } ]
      },
      "category": [ {
        "coding": [ {
          "system": "http://terminology.hl7.org/CodeSystem/condition-category",
          "code": "problem-list-item",
          "display": "Problem List Item"
        }, {
          "system": "http://snomed.info/sct",
          "code": "439401001",
          "display": "Diagnosis"
        } ]
      } ],
      "code": {
        "coding": [ {
          "system": "http://snomed.info/sct",
          "code": "1255013006",
          "display": "Combined opioid with non-opioid substance dependence (disorder)",
          "userSelected": true
        } ]
      },
      "subject": {
        "reference": "Patient/e24d8c71-61dc-4e0d-bfc1-a5ebc186706d"
      },
      "onsetPeriod": {
        "start": "2026-01-01T10:00:00.000+00:00"
      }
    },
    "request": {
      "method": "PUT",
      "url": "Condition/7f3adadb-d9ee-4f6f-9710-bb2d514b06c0"
    }
  }, {
    "fullUrl": "https://madie.cms.gov/Practitioner/5f936139-3461-41c4-ad43-f4f7276825ce",
    "resource": {
      "resourceType": "Practitioner",
      "id": "5f936139-3461-41c4-ad43-f4f7276825ce",
      "meta": {
        "profile": [ "http://hl7.org/fhir/us/qicore/StructureDefinition/qicore-practitioner" ]
      },
      "identifier": [ {
        "system": "http://hl7.org/fhir/sid/us-npi",
        "value": "9999999896"
      } ],
      "active": true,
      "name": [ {
        "family": "Ramires",
        "given": [ "Alma" ],
        "prefix": [ "Dr" ]
      } ],
      "address": [ {
        "use": "home",
        "line": [ "534 Erewhon St" ],
        "city": "Netherville",
        "state": "IN",
        "postalCode": "46131"
      } ],
      "qualification": [ {
        "identifier": [ {
          "system": "http://goodhealth.org/prIdentifier",
          "value": "12345"
        } ],
        "code": {
          "coding": [ {
            "system": "http://terminology.hl7.org/CodeSystem/v2-0360|2.7",
            "code": "BS",
            "display": "Bachelor of Science"
          } ],
          "text": "Bachelor of Science"
        },
        "period": {
          "start": "1995"
        },
        "issuer": {
          "display": "Example University"
        }
      } ]
    },
    "request": {
      "method": "PUT",
      "url": "Practitioner/5f936139-3461-41c4-ad43-f4f7276825ce"
    }
  }, {
    "fullUrl": "https://madie.cms.gov/Coverage/2dffc524-3337-442e-b4e0-1fea2b05b517",
    "resource": {
      "resourceType": "Coverage",
      "id": "2dffc524-3337-442e-b4e0-1fea2b05b517",
      "meta": {
        "profile": [ "http://hl7.org/fhir/us/qicore/StructureDefinition/qicore-coverage" ]
      },
      "status": "active",
      "subscriberId": "523435",
      "beneficiary": {
        "reference": "Patient/e24d8c71-61dc-4e0d-bfc1-a5ebc186706d"
      },
      "relationship": {
        "coding": [ {
          "system": "http://terminology.hl7.org/CodeSystem/subscriber-relationship",
          "code": "self"
        } ]
      },
      "payor": [ {
        "reference": "Organization/433606ea-264d-414a-9f8b-b82fb0b659a0"
      } ]
    },
    "request": {
      "method": "PUT",
      "url": "Coverage/2dffc524-3337-442e-b4e0-1fea2b05b517"
    }
  }, {
    "fullUrl": "https://madie.cms.gov/Organization/433606ea-264d-414a-9f8b-b82fb0b659a0",
    "resource": {
      "resourceType": "Organization",
      "id": "433606ea-264d-414a-9f8b-b82fb0b659a0",
      "meta": {
        "profile": [ "http://hl7.org/fhir/us/qicore/StructureDefinition/qicore-organization" ]
      },
      "identifier": [ {
        "use": "temp",
        "system": "urn:oid:2.16.840.1.113883.4.4",
        "value": "21-3259825"
      } ],
      "active": true,
      "type": [ {
        "coding": [ {
          "system": "http://terminology.hl7.org/CodeSystem/organization-type",
          "code": "pay",
          "display": "Payer"
        } ]
      } ],
      "name": "Blue Cross Blue Shield of Texas",
      "telecom": [ {
        "system": "phone",
        "value": "(+1) 972-766-6900"
      } ],
      "address": [ {
        "use": "billing",
        "type": "postal",
        "line": [ "P.O. Box 660044" ],
        "city": "Dallas",
        "state": "TX",
        "postalCode": "75266-0044",
        "country": "USA"
      } ]
    },
    "request": {
      "method": "PUT",
      "url": "Organization/433606ea-264d-414a-9f8b-b82fb0b659a0"
    }
  }, {
    "fullUrl": "https://madie.cms.gov/MeasureReport/fac0e6d5-29e5-44d9-bdb1-ba51284573d6",
    "resource": {
      "resourceType": "MeasureReport",
      "id": "fac0e6d5-29e5-44d9-bdb1-ba51284573d6",
      "meta": {
        "profile": [ "http://hl7.org/fhir/us/cqfmeasures/StructureDefinition/test-case-cqfm" ]
      },
      "contained": [ {
        "resourceType": "Parameters",
        "id": "0647cb1c-7048-4259-930a-3249f83c2844-parameters",
        "parameter": [ {
          "name": "subject",
          "valueString": "e24d8c71-61dc-4e0d-bfc1-a5ebc186706d"
        } ]
      } ],
      "extension": [ {
        "url": "http://hl7.org/fhir/StructureDefinition/cqf-inputParameters",
        "valueReference": {
          "reference": "#0647cb1c-7048-4259-930a-3249f83c2844-parameters"
        }
      }, {
        "url": "http://hl7.org/fhir/us/cqfmeasures/StructureDefinition/cqfm-testCaseDescription",
        "valueMarkdown": "Correct age, inpatient encounter 12/8-12/31 during MP, MedReq-1 discharge on a benzo, MedReq-2 MOUD, Condition of opioid use disorder OUD before enc 1/1 1000"
      } ],
      "modifierExtension": [ {
        "url": "http://hl7.org/fhir/us/cqfmeasures/StructureDefinition/cqfm-isTestCase",
        "valueBoolean": true
      } ],
      "status": "complete",
      "type": "individual",
      "measure": "https://madie.cms.gov/Measure/CMS506FHIRSafeUseofOpioids",
      "period": {
        "start": "2026-01-01",
        "end": "2026-12-31"
      },
      "group": [ {
        "id": "Group_1",
        "population": [ {
          "id": "InitialPopulation_1",
          "code": {
            "coding": [ {
              "system": "http://terminology.hl7.org/CodeSystem/measure-population",
              "code": "initial-population",
              "display": "Initial Population"
            } ]
          },
          "count": 1
        }, {
          "id": "Denominator_1",
          "code": {
            "coding": [ {
              "system": "http://terminology.hl7.org/CodeSystem/measure-population",
              "code": "denominator",
              "display": "Denominator"
            } ]
          },
          "count": 1
        }, {
          "id": "DenominatorExclusion_1",
          "code": {
            "coding": [ {
              "system": "http://terminology.hl7.org/CodeSystem/measure-population",
              "code": "denominator-exclusion",
              "display": "Denominator Exclusion"
            } ]
          },
          "count": 1
        }, {
          "id": "Numerator_1",
          "code": {
            "coding": [ {
              "system": "http://terminology.hl7.org/CodeSystem/measure-population",
              "code": "numerator",
              "display": "Numerator"
            } ]
          },
          "count": 0
        } ],
        "measureScore": {
          "value": 0.0
        }
      } ],
      "evaluatedResource": [ {
        "reference": "Patient/e24d8c71-61dc-4e0d-bfc1-a5ebc186706d"
      }, {
        "reference": "Encounter/c2c52427-49ae-4d68-9720-9a297084690a"
      }, {
        "reference": "MedicationRequest/8e268cc6-2a76-4fe5-9292-6f0a9d00fe8f"
      }, {
        "reference": "MedicationRequest/b9cc73a7-1b83-482d-b749-9cf97efd9aa6"
      }, {
        "reference": "Condition/7f3adadb-d9ee-4f6f-9710-bb2d514b06c0"
      }, {
        "reference": "Practitioner/5f936139-3461-41c4-ad43-f4f7276825ce"
      }, {
        "reference": "Coverage/2dffc524-3337-442e-b4e0-1fea2b05b517"
      }, {
        "reference": "Organization/433606ea-264d-414a-9f8b-b82fb0b659a0"
      } ]
    },
    "request": {
      "method": "PUT",
      "url": "MeasureReport/fac0e6d5-29e5-44d9-bdb1-ba51284573d6"
    }
  } ]
}