{
  "resourceType": "Bundle",
  "id": "612e6eb302c62a011f2ef479",
  "type": "transaction",
  "entry": [ {
    "fullUrl": "https://madie.cms.gov/Patient/eea9698a-bf0d-4128-afc2-a646062acbef",
    "resource": {
      "resourceType": "Patient",
      "id": "eea9698a-bf0d-4128-afc2-a646062acbef",
      "meta": {
        "profile": [ "http://hl7.org/fhir/us/qicore/StructureDefinition/qicore-patient" ]
      },
      "text": {
        "status": "generated",
        "div": "<div xmlns=\"http://www.w3.org/1999/xhtml\"><div class=\"hapiHeaderText\">ComfortMeasures1MinB4ICU <b>DENEXPASS </b></div><table class=\"hapiPropertyTable\"><tbody><tr><td>Identifier</td><td>1d0273693925f8e335ce9eb65ed102e1</td></tr><tr><td>Date of birth</td><td><span>03 March 1974</span></td></tr></tbody></table></div>"
      },
      "extension": [ {
        "url": "http://hl7.org/fhir/us/core/StructureDefinition/us-core-race",
        "extension": [ {
          "url": "ombCategory",
          "valueCoding": {
            "system": "urn:oid:2.16.840.1.113883.6.238",
            "code": "1002-5",
            "display": "American Indian or Alaska Native",
            "userSelected": true
          }
        }, {
          "url": "text",
          "valueString": "American Indian or Alaska Native"
        } ]
      }, {
        "url": "http://hl7.org/fhir/us/core/StructureDefinition/us-core-ethnicity",
        "extension": [ {
          "url": "ombCategory",
          "valueCoding": {
            "system": "urn:oid:2.16.840.1.113883.6.238",
            "code": "2135-2",
            "display": "Hispanic or Latino",
            "userSelected": true
          }
        }, {
          "url": "text",
          "valueString": "Hispanic or Latino"
        } ]
      } ],
      "identifier": [ {
        "type": {
          "coding": [ {
            "system": "http://terminology.hl7.org/CodeSystem/v2-0203",
            "code": "MR"
          } ]
        },
        "system": "https://bonnie-fhir.healthit.gov/",
        "value": "612e6eb302c62a011f2ef479"
      } ],
      "active": true,
      "name": [ {
        "use": "usual",
        "family": "DENEXPass",
        "given": [ "ComfortMeasures1MinB4ICU" ]
      } ],
      "gender": "female",
      "birthDate": "1975-03-03"
    },
    "request": {
      "method": "PUT",
      "url": "Patient/eea9698a-bf0d-4128-afc2-a646062acbef"
    }
  }, {
    "fullUrl": "https://madie.cms.gov/Encounter/19c39f5f-3fa8-497a-9ab1-2ea317f30c5d",
    "resource": {
      "resourceType": "Encounter",
      "id": "19c39f5f-3fa8-497a-9ab1-2ea317f30c5d",
      "meta": {
        "profile": [ "http://hl7.org/fhir/us/qicore/StructureDefinition/qicore-encounter" ]
      },
      "status": "finished",
      "class": {
        "system": "http://terminology.hl7.org/CodeSystem/v3-ActCode",
        "code": "IMP",
        "display": "inpatient encounter"
      },
      "type": [ {
        "coding": [ {
          "system": "http://snomed.info/sct",
          "code": "8715000"
        } ]
      } ],
      "subject": {
        "reference": "Patient/eea9698a-bf0d-4128-afc2-a646062acbef"
      },
      "period": {
        "start": "2026-12-04T08:00:00.000+00:00",
        "end": "2026-12-30T08:15:00.000+00:00"
      },
      "length": {
        "value": 26.0,
        "unit": "days"
      },
      "location": [ {
        "location": {
          "reference": "Location/8d698e27-c238-4866-ad4d-10b3d7070f2e"
        },
        "period": {
          "start": "2026-12-04T08:00:00.000+00:00",
          "end": "2026-12-08T08:15:00.000+00:00"
        }
      } ]
    },
    "request": {
      "method": "PUT",
      "url": "Encounter/19c39f5f-3fa8-497a-9ab1-2ea317f30c5d"
    }
  }, {
    "fullUrl": "https://madie.cms.gov/ServiceRequest/db8a112e-1c42-4ebd-a9ee-cb2e21a2d307",
    "resource": {
      "resourceType": "ServiceRequest",
      "id": "db8a112e-1c42-4ebd-a9ee-cb2e21a2d307",
      "meta": {
        "profile": [ "http://hl7.org/fhir/us/qicore/StructureDefinition/qicore-servicerequest" ]
      },
      "status": "completed",
      "intent": "order",
      "code": {
        "coding": [ {
          "system": "http://snomed.info/sct",
          "code": "133918004"
        } ]
      },
      "subject": {
        "reference": "Patient/eea9698a-bf0d-4128-afc2-a646062acbef"
      },
      "authoredOn": "2026-12-04T08:00:00.000+00:00"
    },
    "request": {
      "method": "PUT",
      "url": "ServiceRequest/db8a112e-1c42-4ebd-a9ee-cb2e21a2d307"
    }
  }, {
    "fullUrl": "https://madie.cms.gov/Coverage/a81901ca-ce6c-41f9-aced-00946489dabd",
    "resource": {
      "resourceType": "Coverage",
      "id": "a81901ca-ce6c-41f9-aced-00946489dabd",
      "status": "active",
      "beneficiary": {
        "reference": "Patient/eea9698a-bf0d-4128-afc2-a646062acbef"
      },
      "period": {
        "start": "1975-03-03T08:00:00.000+00:00"
      },
      "payor": [ {
        "reference": "Organization/35c757ba-7c1f-4079-81a9-ffc955db7335"
      } ]
    },
    "request": {
      "method": "PUT",
      "url": "Coverage/a81901ca-ce6c-41f9-aced-00946489dabd"
    }
  }, {
    "fullUrl": "https://madie.cms.gov/Location/8d698e27-c238-4866-ad4d-10b3d7070f2e",
    "resource": {
      "resourceType": "Location",
      "id": "8d698e27-c238-4866-ad4d-10b3d7070f2e",
      "meta": {
        "profile": [ "http://hl7.org/fhir/us/qicore/StructureDefinition/qicore-location" ]
      },
      "identifier": [ {
        "use": "usual",
        "system": "http://exampleoflocation.com",
        "value": "B1-S.F2"
      } ],
      "name": "Medical Surgical East, first floor",
      "type": [ {
        "coding": [ {
          "system": "https://www.cdc.gov/nhsn/cdaportal/terminology/codesystem/hsloc.html",
          "code": "1025-6",
          "display": "Trauma Critical Care",
          "userSelected": true
        } ]
      } ]
    },
    "request": {
      "method": "PUT",
      "url": "Location/8d698e27-c238-4866-ad4d-10b3d7070f2e"
    }
  }, {
    "fullUrl": "https://madie.cms.gov/Organization/35c757ba-7c1f-4079-81a9-ffc955db7335",
    "resource": {
      "resourceType": "Organization",
      "id": "35c757ba-7c1f-4079-81a9-ffc955db7335",
      "meta": {
        "profile": [ "http://hl7.org/fhir/us/qicore/StructureDefinition/qicore-organization" ]
      },
      "identifier": [ {
        "use": "temp",
        "system": "urn:oid:2.16.840.1.113883.4.4",
        "value": "21-3259825"
      } ],
      "active": true,
      "type": [ {
        "coding": [ {
          "system": "http://terminology.hl7.org/CodeSystem/organization-type",
          "code": "pay",
          "display": "Payer"
        } ]
      } ],
      "name": "Blue Cross Blue Shield of Texas",
      "telecom": [ {
        "system": "phone",
        "value": "(+1) 972-766-6900"
      } ],
      "address": [ {
        "use": "billing",
        "type": "postal",
        "line": [ "P.O. Box 660044" ],
        "city": "Dallas",
        "state": "TX",
        "postalCode": "75266-0044",
        "country": "USA"
      } ]
    },
    "request": {
      "method": "PUT",
      "url": "Organization/35c757ba-7c1f-4079-81a9-ffc955db7335"
    }
  }, {
    "fullUrl": "https://madie.cms.gov/Practitioner/5004d4ff-d2ba-4b52-b0a1-1d1583455209",
    "resource": {
      "resourceType": "Practitioner",
      "id": "5004d4ff-d2ba-4b52-b0a1-1d1583455209",
      "identifier": [ {
        "system": "http://hl7.org/fhir/sid/us-npi",
        "value": "123456"
      } ],
      "name": [ {
        "family": "Evil",
        "prefix": [ "Dr" ]
      } ]
    },
    "request": {
      "method": "PUT",
      "url": "Practitioner/5004d4ff-d2ba-4b52-b0a1-1d1583455209"
    }
  }, {
    "fullUrl": "https://madie.cms.gov/MeasureReport/07254f9a-bee0-475c-a22c-5141a3c3ad84",
    "resource": {
      "resourceType": "MeasureReport",
      "id": "07254f9a-bee0-475c-a22c-5141a3c3ad84",
      "meta": {
        "profile": [ "http://hl7.org/fhir/us/cqfmeasures/StructureDefinition/test-case-cqfm" ]
      },
      "contained": [ {
        "resourceType": "Parameters",
        "id": "928045bf-b689-4cf4-9afb-707bc0f518a2-parameters",
        "parameter": [ {
          "name": "subject",
          "valueString": "eea9698a-bf0d-4128-afc2-a646062acbef"
        } ]
      } ],
      "extension": [ {
        "url": "http://hl7.org/fhir/StructureDefinition/cqf-inputParameters",
        "valueReference": {
          "reference": "#928045bf-b689-4cf4-9afb-707bc0f518a2-parameters"
        }
      }, {
        "url": "http://hl7.org/fhir/us/cqfmeasures/StructureDefinition/cqfm-testCaseDescription",
        "valueMarkdown": "comfort measures order starts during IP encounter, 1 minute before ICU admission\n"
      } ],
      "modifierExtension": [ {
        "url": "http://hl7.org/fhir/us/cqfmeasures/StructureDefinition/cqfm-isTestCase",
        "valueBoolean": true
      } ],
      "status": "complete",
      "type": "individual",
      "measure": "https://madie.cms.gov/Measure/CMS190FHIRVTEProphylaxisICU",
      "period": {
        "start": "2026-01-01",
        "end": "2026-12-31"
      },
      "group": [ {
        "id": "Group_1",
        "population": [ {
          "id": "InitialPopulation_1",
          "code": {
            "coding": [ {
              "system": "http://terminology.hl7.org/CodeSystem/measure-population",
              "code": "initial-population",
              "display": "Initial Population"
            } ]
          },
          "count": 1
        }, {
          "id": "Denominator_1",
          "code": {
            "coding": [ {
              "system": "http://terminology.hl7.org/CodeSystem/measure-population",
              "code": "denominator",
              "display": "Denominator"
            } ]
          },
          "count": 1
        }, {
          "id": "DenominatorExclusion_1",
          "code": {
            "coding": [ {
              "system": "http://terminology.hl7.org/CodeSystem/measure-population",
              "code": "denominator-exclusion",
              "display": "Denominator Exclusion"
            } ]
          },
          "count": 1
        }, {
          "id": "Numerator_1",
          "code": {
            "coding": [ {
              "system": "http://terminology.hl7.org/CodeSystem/measure-population",
              "code": "numerator",
              "display": "Numerator"
            } ]
          },
          "count": 0
        }, {
          "id": "DenominatorException_1",
          "code": {
            "coding": [ {
              "system": "http://terminology.hl7.org/CodeSystem/measure-population",
              "code": "denominator-exception",
              "display": "Denominator Exception"
            } ]
          },
          "count": 0
        } ],
        "measureScore": {
          "value": 0.0
        }
      } ],
      "evaluatedResource": [ {
        "reference": "Patient/eea9698a-bf0d-4128-afc2-a646062acbef"
      }, {
        "reference": "Encounter/19c39f5f-3fa8-497a-9ab1-2ea317f30c5d"
      }, {
        "reference": "ServiceRequest/db8a112e-1c42-4ebd-a9ee-cb2e21a2d307"
      }, {
        "reference": "Coverage/a81901ca-ce6c-41f9-aced-00946489dabd"
      }, {
        "reference": "Location/8d698e27-c238-4866-ad4d-10b3d7070f2e"
      }, {
        "reference": "Organization/35c757ba-7c1f-4079-81a9-ffc955db7335"
      }, {
        "reference": "Practitioner/5004d4ff-d2ba-4b52-b0a1-1d1583455209"
      } ]
    },
    "request": {
      "method": "PUT",
      "url": "MeasureReport/07254f9a-bee0-475c-a22c-5141a3c3ad84"
    }
  } ]
}