{
  "resourceType": "Bundle",
  "id": "612e6ae802c62a011f2ebb43",
  "type": "transaction",
  "entry": [ {
    "fullUrl": "https://madie.cms.gov/Patient/9b6d2fc2-6e25-4c0a-b4cb-3ca7f85be9b4",
    "resource": {
      "resourceType": "Patient",
      "id": "9b6d2fc2-6e25-4c0a-b4cb-3ca7f85be9b4",
      "meta": {
        "profile": [ "http://hl7.org/fhir/us/qicore/StructureDefinition/qicore-patient" ]
      },
      "text": {
        "status": "generated",
        "div": "<div xmlns=\"http://www.w3.org/1999/xhtml\"><div class=\"hapiHeaderText\">CMPerfDrgObsGT1HrBFAdmCMODayBFAdm <b>DENEXFAIL </b></div><table class=\"hapiPropertyTable\"><tbody><tr><td>Identifier</td><td>d874f5a6c52d811bf5e5d1093e0795b3dc8691e8a7d30647cbc3be67b679e144</td></tr><tr><td>Date of birth</td><td><span>02 January 1974</span></td></tr></tbody></table></div>"
      },
      "extension": [ {
        "url": "http://hl7.org/fhir/us/core/StructureDefinition/us-core-race",
        "extension": [ {
          "url": "ombCategory",
          "valueCoding": {
            "system": "urn:oid:2.16.840.1.113883.6.238",
            "code": "1002-5",
            "display": "American Indian or Alaska Native",
            "userSelected": true
          }
        }, {
          "url": "text",
          "valueString": "American Indian or Alaska Native"
        } ]
      }, {
        "url": "http://hl7.org/fhir/us/core/StructureDefinition/us-core-ethnicity",
        "extension": [ {
          "url": "ombCategory",
          "valueCoding": {
            "system": "urn:oid:2.16.840.1.113883.6.238",
            "code": "2135-2",
            "display": "Hispanic or Latino",
            "userSelected": true
          }
        }, {
          "url": "text",
          "valueString": "Hispanic or Latino"
        } ]
      } ],
      "identifier": [ {
        "type": {
          "coding": [ {
            "system": "http://terminology.hl7.org/CodeSystem/v2-0203",
            "code": "MR"
          } ]
        },
        "system": "https://bonnie-fhir.healthit.gov/",
        "value": "612e6ae802c62a011f2ebb43"
      } ],
      "active": true,
      "name": [ {
        "use": "usual",
        "family": "DENEXFail",
        "given": [ "CMPerfDrgObsGT1HrBFAdmCMODayBFAdm" ]
      } ],
      "gender": "male",
      "birthDate": "1975-01-02"
    },
    "request": {
      "method": "PUT",
      "url": "Patient/9b6d2fc2-6e25-4c0a-b4cb-3ca7f85be9b4"
    }
  }, {
    "fullUrl": "https://madie.cms.gov/Encounter/a8dab1ea-7b90-48a8-aac8-912239afa65f",
    "resource": {
      "resourceType": "Encounter",
      "id": "a8dab1ea-7b90-48a8-aac8-912239afa65f",
      "meta": {
        "profile": [ "http://hl7.org/fhir/us/qicore/StructureDefinition/qicore-encounter" ]
      },
      "status": "finished",
      "class": {
        "system": "http://terminology.hl7.org/CodeSystem/v3-ActCode",
        "code": "EMER",
        "display": "emergency"
      },
      "type": [ {
        "coding": [ {
          "system": "http://snomed.info/sct",
          "code": "4525004"
        } ]
      } ],
      "subject": {
        "reference": "Patient/9b6d2fc2-6e25-4c0a-b4cb-3ca7f85be9b4"
      },
      "period": {
        "start": "2026-10-31T04:00:00.000+00:00",
        "end": "2026-11-01T05:15:00.000+00:00"
      },
      "length": {
        "value": 1.0,
        "unit": "days"
      }
    },
    "request": {
      "method": "PUT",
      "url": "Encounter/a8dab1ea-7b90-48a8-aac8-912239afa65f"
    }
  }, {
    "fullUrl": "https://madie.cms.gov/Encounter/f0302a96-ecc0-4254-aad7-0cb3a40ebaab",
    "resource": {
      "resourceType": "Encounter",
      "id": "f0302a96-ecc0-4254-aad7-0cb3a40ebaab",
      "meta": {
        "profile": [ "http://hl7.org/fhir/us/qicore/StructureDefinition/qicore-encounter" ]
      },
      "status": "finished",
      "class": {
        "system": "http://terminology.hl7.org/CodeSystem/v3-ActCode",
        "code": "IMP",
        "display": "inpatient encounter"
      },
      "type": [ {
        "coding": [ {
          "system": "http://snomed.info/sct",
          "code": "8715000"
        } ]
      } ],
      "subject": {
        "reference": "Patient/9b6d2fc2-6e25-4c0a-b4cb-3ca7f85be9b4"
      },
      "period": {
        "start": "2026-11-01T08:00:00.000+00:00",
        "end": "2026-11-26T08:15:00.000+00:00"
      },
      "length": {
        "value": 25.0,
        "unit": "days"
      }
    },
    "request": {
      "method": "PUT",
      "url": "Encounter/f0302a96-ecc0-4254-aad7-0cb3a40ebaab"
    }
  }, {
    "fullUrl": "https://madie.cms.gov/Encounter/eb41be43-6647-487d-aafc-6d7db8b42108",
    "resource": {
      "resourceType": "Encounter",
      "id": "eb41be43-6647-487d-aafc-6d7db8b42108",
      "meta": {
        "profile": [ "http://hl7.org/fhir/us/qicore/StructureDefinition/qicore-encounter" ]
      },
      "status": "finished",
      "class": {
        "system": "http://terminology.hl7.org/CodeSystem/v3-ActCode",
        "code": "OBSENC",
        "display": "observation encounter"
      },
      "type": [ {
        "coding": [ {
          "system": "http://snomed.info/sct",
          "code": "448951000124107"
        } ]
      } ],
      "subject": {
        "reference": "Patient/9b6d2fc2-6e25-4c0a-b4cb-3ca7f85be9b4"
      },
      "period": {
        "start": "2026-11-01T05:20:00.000+00:00",
        "end": "2026-11-01T06:30:00.000+00:00"
      }
    },
    "request": {
      "method": "PUT",
      "url": "Encounter/eb41be43-6647-487d-aafc-6d7db8b42108"
    }
  }, {
    "fullUrl": "https://madie.cms.gov/Procedure/0e0bfb6e-b973-48d9-9a9b-49f460a06eea",
    "resource": {
      "resourceType": "Procedure",
      "id": "0e0bfb6e-b973-48d9-9a9b-49f460a06eea",
      "meta": {
        "profile": [ "http://hl7.org/fhir/us/qicore/StructureDefinition/qicore-procedure" ]
      },
      "extension": [ {
        "url": "http://hl7.org/fhir/us/qicore/StructureDefinition/qicore-recorded",
        "valueDateTime": "2013-12-04T13:35:00.000+00:00"
      } ],
      "status": "in-progress",
      "code": {
        "coding": [ {
          "system": "http://snomed.info/sct",
          "code": "133918004"
        } ]
      },
      "subject": {
        "reference": "Patient/9b6d2fc2-6e25-4c0a-b4cb-3ca7f85be9b4"
      },
      "performedPeriod": {
        "start": "2026-10-31T06:00:00.000+00:00"
      }
    },
    "request": {
      "method": "PUT",
      "url": "Procedure/0e0bfb6e-b973-48d9-9a9b-49f460a06eea"
    }
  }, {
    "fullUrl": "https://madie.cms.gov/Coverage/9cbe2e92-88da-40a9-a460-9debea29edae",
    "resource": {
      "resourceType": "Coverage",
      "id": "9cbe2e92-88da-40a9-a460-9debea29edae",
      "status": "active",
      "beneficiary": {
        "reference": "Patient/9b6d2fc2-6e25-4c0a-b4cb-3ca7f85be9b4"
      },
      "period": {
        "start": "1975-01-02T08:00:00.000+00:00"
      },
      "payor": [ {
        "reference": "Organization/26d5a724-2d5d-48eb-9431-e26bdce657b5"
      } ]
    },
    "request": {
      "method": "PUT",
      "url": "Coverage/9cbe2e92-88da-40a9-a460-9debea29edae"
    }
  }, {
    "fullUrl": "https://madie.cms.gov/Organization/26d5a724-2d5d-48eb-9431-e26bdce657b5",
    "resource": {
      "resourceType": "Organization",
      "id": "26d5a724-2d5d-48eb-9431-e26bdce657b5",
      "meta": {
        "profile": [ "http://hl7.org/fhir/us/qicore/StructureDefinition/qicore-organization" ]
      },
      "identifier": [ {
        "use": "temp",
        "system": "urn:oid:2.16.840.1.113883.4.4",
        "value": "21-3259825"
      } ],
      "active": true,
      "type": [ {
        "coding": [ {
          "system": "http://terminology.hl7.org/CodeSystem/organization-type",
          "code": "pay",
          "display": "Payer"
        } ]
      } ],
      "name": "Blue Cross Blue Shield of Texas",
      "telecom": [ {
        "system": "phone",
        "value": "(+1) 972-766-6900"
      } ],
      "address": [ {
        "use": "billing",
        "type": "postal",
        "line": [ "P.O. Box 660044" ],
        "city": "Dallas",
        "state": "TX",
        "postalCode": "75266-0044",
        "country": "USA"
      } ]
    },
    "request": {
      "method": "PUT",
      "url": "Organization/26d5a724-2d5d-48eb-9431-e26bdce657b5"
    }
  }, {
    "fullUrl": "https://madie.cms.gov/Practitioner/292713ba-04c7-4f1c-a276-4c5441db4fa4",
    "resource": {
      "resourceType": "Practitioner",
      "id": "292713ba-04c7-4f1c-a276-4c5441db4fa4",
      "identifier": [ {
        "system": "http://hl7.org/fhir/sid/us-npi",
        "value": "123456"
      } ],
      "name": [ {
        "family": "Evil",
        "prefix": [ "Dr" ]
      } ]
    },
    "request": {
      "method": "PUT",
      "url": "Practitioner/292713ba-04c7-4f1c-a276-4c5441db4fa4"
    }
  }, {
    "fullUrl": "https://madie.cms.gov/MeasureReport/0ecd0ad2-66e5-415d-a199-1c84e1816588",
    "resource": {
      "resourceType": "MeasureReport",
      "id": "0ecd0ad2-66e5-415d-a199-1c84e1816588",
      "meta": {
        "profile": [ "http://hl7.org/fhir/us/cqfmeasures/StructureDefinition/test-case-cqfm" ]
      },
      "contained": [ {
        "resourceType": "Parameters",
        "id": "f0462b6d-ce0d-482d-9f0a-af8ad32849a7-parameters",
        "parameter": [ {
          "name": "subject",
          "valueString": "9b6d2fc2-6e25-4c0a-b4cb-3ca7f85be9b4"
        } ]
      } ],
      "extension": [ {
        "url": "http://hl7.org/fhir/StructureDefinition/cqf-inputParameters",
        "valueReference": {
          "reference": "#f0462b6d-ce0d-482d-9f0a-af8ad32849a7-parameters"
        }
      }, {
        "url": "http://hl7.org/fhir/us/cqfmeasures/StructureDefinition/cqfm-testCaseDescription",
        "valueMarkdown": "comfort measures performed in Observation, and Obs > 1hr prior to Adm. This case fails because CMO is 1 day before Adm.\n"
      } ],
      "modifierExtension": [ {
        "url": "http://hl7.org/fhir/us/cqfmeasures/StructureDefinition/cqfm-isTestCase",
        "valueBoolean": true
      } ],
      "status": "complete",
      "type": "individual",
      "measure": "https://madie.cms.gov/Measure/CMS108FHIRVTEProphylaxis",
      "period": {
        "start": "2026-01-01",
        "end": "2026-12-31"
      },
      "group": [ {
        "id": "Group_1",
        "population": [ {
          "id": "InitialPopulation_1",
          "code": {
            "coding": [ {
              "system": "http://terminology.hl7.org/CodeSystem/measure-population",
              "code": "initial-population",
              "display": "Initial Population"
            } ]
          },
          "count": 1
        }, {
          "id": "Denominator_1",
          "code": {
            "coding": [ {
              "system": "http://terminology.hl7.org/CodeSystem/measure-population",
              "code": "denominator",
              "display": "Denominator"
            } ]
          },
          "count": 1
        }, {
          "id": "DenominatorExclusion_1",
          "code": {
            "coding": [ {
              "system": "http://terminology.hl7.org/CodeSystem/measure-population",
              "code": "denominator-exclusion",
              "display": "Denominator Exclusion"
            } ]
          },
          "count": 0
        }, {
          "id": "Numerator_1",
          "code": {
            "coding": [ {
              "system": "http://terminology.hl7.org/CodeSystem/measure-population",
              "code": "numerator",
              "display": "Numerator"
            } ]
          },
          "count": 0
        } ],
        "measureScore": {
          "value": 0.0
        }
      } ],
      "evaluatedResource": [ {
        "reference": "Patient/9b6d2fc2-6e25-4c0a-b4cb-3ca7f85be9b4"
      }, {
        "reference": "Encounter/a8dab1ea-7b90-48a8-aac8-912239afa65f"
      }, {
        "reference": "Encounter/f0302a96-ecc0-4254-aad7-0cb3a40ebaab"
      }, {
        "reference": "Encounter/eb41be43-6647-487d-aafc-6d7db8b42108"
      }, {
        "reference": "Procedure/0e0bfb6e-b973-48d9-9a9b-49f460a06eea"
      }, {
        "reference": "Coverage/9cbe2e92-88da-40a9-a460-9debea29edae"
      }, {
        "reference": "Organization/26d5a724-2d5d-48eb-9431-e26bdce657b5"
      }, {
        "reference": "Practitioner/292713ba-04c7-4f1c-a276-4c5441db4fa4"
      } ]
    },
    "request": {
      "method": "PUT",
      "url": "MeasureReport/0ecd0ad2-66e5-415d-a199-1c84e1816588"
    }
  } ]
}