{
  "resourceType": "Bundle",
  "id": "6109650498086b538055a0d8",
  "type": "transaction",
  "entry": [ {
    "fullUrl": "https://madie.cms.gov/Patient/42af4050-5017-4ba0-9134-1749332f4dcf",
    "resource": {
      "resourceType": "Patient",
      "id": "42af4050-5017-4ba0-9134-1749332f4dcf",
      "meta": {
        "profile": [ "http://hl7.org/fhir/us/qicore/StructureDefinition/qicore-patient" ]
      },
      "text": {
        "status": "generated",
        "div": "<div xmlns=\"http://www.w3.org/1999/xhtml\"><div class=\"hapiHeaderText\">RiskAssessPsychFamilyEnc <b>NUMERPASS </b></div><table class=\"hapiPropertyTable\"><tbody><tr><td>Identifier</td><td>611d7229559c821433393e98d4ad09de</td></tr><tr><td>Date of birth</td><td><span>01 January 1996</span></td></tr></tbody></table></div>"
      },
      "extension": [ {
        "url": "http://hl7.org/fhir/us/core/StructureDefinition/us-core-race",
        "extension": [ {
          "url": "ombCategory",
          "valueCoding": {
            "system": "urn:oid:2.16.840.1.113883.6.238",
            "code": "1002-5",
            "display": "American Indian or Alaska Native",
            "userSelected": true
          }
        }, {
          "url": "text",
          "valueString": "American Indian or Alaska Native"
        } ]
      }, {
        "url": "http://hl7.org/fhir/us/core/StructureDefinition/us-core-ethnicity",
        "extension": [ {
          "url": "ombCategory",
          "valueCoding": {
            "system": "urn:oid:2.16.840.1.113883.6.238",
            "code": "2135-2",
            "display": "Hispanic or Latino",
            "userSelected": true
          }
        }, {
          "url": "text",
          "valueString": "Hispanic or Latino"
        } ]
      } ],
      "identifier": [ {
        "type": {
          "coding": [ {
            "system": "http://terminology.hl7.org/CodeSystem/v2-0203",
            "code": "MR"
          } ]
        },
        "system": "https://bonnie-fhir.healthit.gov/",
        "value": "6109650498086b538055a0d8"
      } ],
      "active": true,
      "name": [ {
        "use": "usual",
        "family": "NUMPass",
        "given": [ "RiskAssessPsychotherEnc" ]
      } ],
      "gender": "female",
      "birthDate": "2016-01-01"
    },
    "request": {
      "method": "PUT",
      "url": "Patient/42af4050-5017-4ba0-9134-1749332f4dcf"
    }
  }, {
    "fullUrl": "https://madie.cms.gov/Encounter/35b75183-1822-4761-b07f-813e5455b43a",
    "resource": {
      "resourceType": "Encounter",
      "id": "35b75183-1822-4761-b07f-813e5455b43a",
      "meta": {
        "profile": [ "http://hl7.org/fhir/us/qicore/StructureDefinition/qicore-encounter" ]
      },
      "status": "finished",
      "class": {
        "system": "http://terminology.hl7.org/CodeSystem/v3-ActCode",
        "code": "AMB",
        "display": "ambulatory",
        "userSelected": true
      },
      "type": [ {
        "coding": [ {
          "system": "http://www.ama-assn.org/go/cpt",
          "code": "90792"
        } ]
      } ],
      "subject": {
        "reference": "Patient/42af4050-5017-4ba0-9134-1749332f4dcf"
      },
      "period": {
        "start": "2026-07-18T11:00:00.000+00:00",
        "end": "2026-07-18T11:30:00.000+00:00"
      },
      "length": {
        "value": 0.0,
        "unit": "days"
      },
      "reasonCode": [ {
        "coding": [ {
          "system": "http://snomed.info/sct",
          "version": "2023-09",
          "code": "191610000",
          "display": "Recurrent major depressive episodes, mild (disorder)",
          "userSelected": true
        } ]
      } ],
      "diagnosis": [ {
        "condition": {
          "reference": "Condition/da917830-8dbf-4568-b1df-695b5a8c56f6"
        },
        "use": {
          "coding": [ {
            "system": "http://snomed.info/sct",
            "code": "10811161000119107",
            "display": "Major Depressive Disorder-Active"
          } ]
        }
      } ]
    },
    "request": {
      "method": "PUT",
      "url": "Encounter/35b75183-1822-4761-b07f-813e5455b43a"
    }
  }, {
    "fullUrl": "https://madie.cms.gov/Condition/da917830-8dbf-4568-b1df-695b5a8c56f6",
    "resource": {
      "resourceType": "Condition",
      "id": "da917830-8dbf-4568-b1df-695b5a8c56f6",
      "meta": {
        "profile": [ "http://hl7.org/fhir/us/qicore/StructureDefinition/qicore-condition" ]
      },
      "clinicalStatus": {
        "coding": [ {
          "system": "http://terminology.hl7.org/CodeSystem/condition-clinical",
          "code": "active",
          "display": "Active",
          "userSelected": true
        } ]
      },
      "verificationStatus": {
        "coding": [ {
          "system": "http://terminology.hl7.org/CodeSystem/condition-ver-status",
          "code": "confirmed",
          "display": "Confirmed",
          "userSelected": true
        } ]
      },
      "category": [ {
        "coding": [ {
          "system": "http://terminology.hl7.org/CodeSystem/condition-category",
          "code": "encounter-diagnosis",
          "display": "Encounter Diagnosis"
        } ]
      } ],
      "code": {
        "coding": [ {
          "system": "http://snomed.info/sct",
          "code": "2618002",
          "userSelected": true
        } ]
      },
      "subject": {
        "reference": "Patient/42af4050-5017-4ba0-9134-1749332f4dcf"
      },
      "recordedDate": "2026-07-18T08:00:00.000+00:00"
    },
    "request": {
      "method": "PUT",
      "url": "Condition/da917830-8dbf-4568-b1df-695b5a8c56f6"
    }
  }, {
    "fullUrl": "https://madie.cms.gov/Procedure/2c931d78-c11d-4b43-bac6-0f89f87ee81e",
    "resource": {
      "resourceType": "Procedure",
      "id": "2c931d78-c11d-4b43-bac6-0f89f87ee81e",
      "meta": {
        "profile": [ "http://hl7.org/fhir/us/qicore/StructureDefinition/qicore-procedure" ]
      },
      "extension": [ {
        "url": "http://hl7.org/fhir/us/qicore/StructureDefinition/qicore-recorded",
        "valueDateTime": "2026-07-18T11:01:00.000+00:00"
      } ],
      "status": "completed",
      "code": {
        "coding": [ {
          "system": "http://snomed.info/sct",
          "code": "225337009",
          "display": "Suicide risk assessment (procedure)",
          "userSelected": true
        } ]
      },
      "subject": {
        "reference": "Patient/42af4050-5017-4ba0-9134-1749332f4dcf"
      },
      "performedDateTime": "2026-07-18T11:01:00.000+00:00"
    },
    "request": {
      "method": "PUT",
      "url": "Procedure/2c931d78-c11d-4b43-bac6-0f89f87ee81e"
    }
  }, {
    "fullUrl": "https://madie.cms.gov/Coverage/9111aee2-1d88-4d4c-aec2-063fa0259750",
    "resource": {
      "resourceType": "Coverage",
      "id": "9111aee2-1d88-4d4c-aec2-063fa0259750",
      "meta": {
        "profile": [ "http://hl7.org/fhir/us/qicore/StructureDefinition/qicore-coverage" ]
      },
      "status": "active",
      "type": {
        "coding": [ {
          "system": "https://nahdo.org/sopt",
          "code": "113",
          "userSelected": true
        } ]
      },
      "beneficiary": {
        "reference": "Patient/42af4050-5017-4ba0-9134-1749332f4dcf"
      },
      "period": {
        "start": "2026-01-18T11:00:00.000+00:00",
        "end": "2026-11-18T11:30:00.000+00:00"
      },
      "payor": [ {
        "reference": "Organization/bcc14a74-df75-4739-ae49-648b5dfeecbf"
      } ]
    },
    "request": {
      "method": "PUT",
      "url": "Coverage/9111aee2-1d88-4d4c-aec2-063fa0259750"
    }
  }, {
    "fullUrl": "https://madie.cms.gov/Organization/bcc14a74-df75-4739-ae49-648b5dfeecbf",
    "resource": {
      "resourceType": "Organization",
      "id": "bcc14a74-df75-4739-ae49-648b5dfeecbf",
      "meta": {
        "profile": [ "http://hl7.org/fhir/us/qicore/StructureDefinition/qicore-organization" ]
      },
      "identifier": [ {
        "use": "temp",
        "system": "urn:oid:2.16.840.1.113883.4.4",
        "value": "21-3259825"
      } ],
      "active": true,
      "type": [ {
        "coding": [ {
          "system": "http://terminology.hl7.org/CodeSystem/organization-type",
          "code": "pay",
          "display": "Payer"
        } ]
      } ],
      "name": "Blue Cross Blue Shield of Texas",
      "telecom": [ {
        "system": "phone",
        "value": "(+1) 972-766-6900"
      } ],
      "address": [ {
        "use": "billing",
        "type": "postal",
        "line": [ "P.O. Box 660044" ],
        "city": "Dallas",
        "state": "TX",
        "postalCode": "75266-0044",
        "country": "USA"
      } ]
    },
    "request": {
      "method": "PUT",
      "url": "Organization/bcc14a74-df75-4739-ae49-648b5dfeecbf"
    }
  }, {
    "fullUrl": "https://madie.cms.gov/Practitioner/a595e055-c488-4ad7-b1fa-f1c0ea436700",
    "resource": {
      "resourceType": "Practitioner",
      "id": "a595e055-c488-4ad7-b1fa-f1c0ea436700",
      "meta": {
        "profile": [ "http://hl7.org/fhir/us/qicore/StructureDefinition/qicore-practitioner" ]
      },
      "identifier": [ {
        "system": "http://hl7.org/fhir/sid/us-npi",
        "value": "123456"
      } ],
      "name": [ {
        "family": "Evil",
        "prefix": [ "Dr" ]
      } ]
    },
    "request": {
      "method": "PUT",
      "url": "Practitioner/a595e055-c488-4ad7-b1fa-f1c0ea436700"
    }
  }, {
    "fullUrl": "https://madie.cms.gov/MeasureReport/54a2b552-cf86-4e96-b6a8-b58d480460e4",
    "resource": {
      "resourceType": "MeasureReport",
      "id": "54a2b552-cf86-4e96-b6a8-b58d480460e4",
      "meta": {
        "profile": [ "http://hl7.org/fhir/us/cqfmeasures/StructureDefinition/test-case-cqfm" ]
      },
      "contained": [ {
        "resourceType": "Parameters",
        "id": "09b3080b-30cb-4e0d-9218-d07218c2230d-parameters",
        "parameter": [ {
          "name": "subject",
          "valueString": "42af4050-5017-4ba0-9134-1749332f4dcf"
        } ]
      } ],
      "extension": [ {
        "url": "http://hl7.org/fhir/StructureDefinition/cqf-inputParameters",
        "valueReference": {
          "reference": "#09b3080b-30cb-4e0d-9218-d07218c2230d-parameters"
        }
      }, {
        "url": "http://hl7.org/fhir/us/cqfmeasures/StructureDefinition/cqfm-testCaseDescription",
        "valueMarkdown": "Patient completes suicide risk assessment during Psych Visit Diagnostic Evaluation encounter in the MP"
      } ],
      "modifierExtension": [ {
        "url": "http://hl7.org/fhir/us/cqfmeasures/StructureDefinition/cqfm-isTestCase",
        "valueBoolean": true
      } ],
      "status": "complete",
      "type": "individual",
      "measure": "https://madie.cms.gov/Measure/CMS177FHIRChildMDDSuicideAssmt",
      "period": {
        "start": "2026-01-01",
        "end": "2026-12-31"
      },
      "group": [ {
        "id": "Group_1",
        "population": [ {
          "id": "InitialPopulation_1",
          "code": {
            "coding": [ {
              "system": "http://terminology.hl7.org/CodeSystem/measure-population",
              "code": "initial-population",
              "display": "Initial Population"
            } ]
          },
          "count": 1
        }, {
          "id": "Denominator_1",
          "code": {
            "coding": [ {
              "system": "http://terminology.hl7.org/CodeSystem/measure-population",
              "code": "denominator",
              "display": "Denominator"
            } ]
          },
          "count": 1
        }, {
          "id": "Numerator_1",
          "code": {
            "coding": [ {
              "system": "http://terminology.hl7.org/CodeSystem/measure-population",
              "code": "numerator",
              "display": "Numerator"
            } ]
          },
          "count": 1
        } ],
        "measureScore": {
          "value": 0.0
        }
      } ],
      "evaluatedResource": [ {
        "reference": "Patient/42af4050-5017-4ba0-9134-1749332f4dcf"
      }, {
        "reference": "Encounter/35b75183-1822-4761-b07f-813e5455b43a"
      }, {
        "reference": "Condition/da917830-8dbf-4568-b1df-695b5a8c56f6"
      }, {
        "reference": "Procedure/2c931d78-c11d-4b43-bac6-0f89f87ee81e"
      }, {
        "reference": "Coverage/9111aee2-1d88-4d4c-aec2-063fa0259750"
      }, {
        "reference": "Organization/bcc14a74-df75-4739-ae49-648b5dfeecbf"
      }, {
        "reference": "Practitioner/a595e055-c488-4ad7-b1fa-f1c0ea436700"
      } ]
    },
    "request": {
      "method": "PUT",
      "url": "MeasureReport/54a2b552-cf86-4e96-b6a8-b58d480460e4"
    }
  } ]
}