{
  "resourceType": "Bundle",
  "id": "63487c300968f801225401d0",
  "type": "transaction",
  "entry": [ {
    "fullUrl": "https://madie.cms.gov/Patient/6131e62d-2869-4814-9060-4442dbcdc7be",
    "resource": {
      "resourceType": "Patient",
      "id": "6131e62d-2869-4814-9060-4442dbcdc7be",
      "meta": {
        "profile": [ "http://hl7.org/fhir/us/qicore/StructureDefinition/qicore-patient" ]
      },
      "text": {
        "status": "generated",
        "div": "<div xmlns=\"http://www.w3.org/1999/xhtml\"><div class=\"hapiHeaderText\">AssessPerfAbnPresRelvtPeriodAFTimeOfDelivDuringEnc<b>DENEXFAIL</b></div><table class=\"hapiPropertyTable\"><tbody><tr><td>Identifier</td><td>db09244543fe550232b604cb7d87decbeb851047882e641e3fe736fdce398a0a</td></tr><tr><td>Date of birth</td><td><span>14 February 1985</span></td></tr></tbody></table></div>"
      },
      "extension": [ {
        "url": "http://hl7.org/fhir/us/core/StructureDefinition/us-core-race",
        "extension": [ {
          "url": "ombCategory",
          "valueCoding": {
            "system": "urn:oid:2.16.840.1.113883.6.238",
            "code": "1002-5",
            "display": "American Indian or Alaska Native",
            "userSelected": true
          }
        }, {
          "url": "text",
          "valueString": "American Indian or Alaska Native"
        } ]
      }, {
        "url": "http://hl7.org/fhir/us/core/StructureDefinition/us-core-ethnicity",
        "extension": [ {
          "url": "ombCategory",
          "valueCoding": {
            "system": "urn:oid:2.16.840.1.113883.6.238",
            "code": "2135-2",
            "display": "Hispanic or Latino",
            "userSelected": true
          }
        }, {
          "url": "text",
          "valueString": "Hispanic or Latino"
        } ]
      } ],
      "identifier": [ {
        "type": {
          "coding": [ {
            "system": "http://terminology.hl7.org/CodeSystem/v2-0203",
            "code": "MR"
          } ]
        },
        "system": "https://bonnie-fhir.healthit.gov/",
        "value": "63487c300968f801225401d0"
      } ],
      "active": true,
      "name": [ {
        "use": "usual",
        "family": "DENEXFail",
        "given": [ "AssessPerfAbnPresRelvtPeriodAFTimeOfDelivDuringEnc" ]
      } ],
      "gender": "female",
      "birthDate": "1998-02-14"
    },
    "request": {
      "method": "PUT",
      "url": "Patient/6131e62d-2869-4814-9060-4442dbcdc7be"
    }
  }, {
    "fullUrl": "https://madie.cms.gov/Observation/a6b44492-67cb-4c2e-ab8d-6304d62618f5",
    "resource": {
      "resourceType": "Observation",
      "id": "a6b44492-67cb-4c2e-ab8d-6304d62618f5",
      "meta": {
        "profile": [ "http://hl7.org/fhir/us/qicore/StructureDefinition/qicore-simple-observation" ]
      },
      "status": "final",
      "category": [ {
        "coding": [ {
          "system": "http://terminology.hl7.org/CodeSystem/observation-category",
          "code": "exam",
          "display": "exam",
          "userSelected": true
        } ]
      } ],
      "code": {
        "coding": [ {
          "system": "http://loinc.org",
          "code": "11996-6"
        } ]
      },
      "subject": {
        "reference": "Patient/6131e62d-2869-4814-9060-4442dbcdc7be"
      },
      "effectiveDateTime": "2026-06-08T08:00:00.000+00:00",
      "performer": [ {
        "reference": "Organization/example1",
        "display": "Hendricks Country Hospital"
      } ],
      "valueInteger": 1
    },
    "request": {
      "method": "PUT",
      "url": "Observation/a6b44492-67cb-4c2e-ab8d-6304d62618f5"
    }
  }, {
    "fullUrl": "https://madie.cms.gov/Observation/af4c9182-df49-4bee-95dc-e8f9660015c6",
    "resource": {
      "resourceType": "Observation",
      "id": "af4c9182-df49-4bee-95dc-e8f9660015c6",
      "meta": {
        "profile": [ "http://hl7.org/fhir/us/qicore/StructureDefinition/qicore-simple-observation" ]
      },
      "status": "final",
      "category": [ {
        "coding": [ {
          "system": "http://terminology.hl7.org/CodeSystem/observation-category",
          "code": "exam",
          "display": "exam",
          "userSelected": true
        } ]
      } ],
      "code": {
        "coding": [ {
          "system": "http://loinc.org",
          "code": "11884-4"
        } ]
      },
      "subject": {
        "reference": "Patient/6131e62d-2869-4814-9060-4442dbcdc7be"
      },
      "effectiveDateTime": "2026-06-08T08:00:00.000+00:00",
      "performer": [ {
        "reference": "Organization/example1",
        "display": "Hendricks Country Hospital"
      } ],
      "valueQuantity": {
        "value": 43,
        "system": "http://unitsofmeasure.org",
        "code": "wk"
      }
    },
    "request": {
      "method": "PUT",
      "url": "Observation/af4c9182-df49-4bee-95dc-e8f9660015c6"
    }
  }, {
    "fullUrl": "https://madie.cms.gov/Observation/65e52c40-39d7-489d-8ee0-8789aaacdba5",
    "resource": {
      "resourceType": "Observation",
      "id": "65e52c40-39d7-489d-8ee0-8789aaacdba5",
      "meta": {
        "profile": [ "http://hl7.org/fhir/us/qicore/StructureDefinition/qicore-simple-observation" ]
      },
      "status": "final",
      "category": [ {
        "coding": [ {
          "system": "http://terminology.hl7.org/CodeSystem/observation-category",
          "code": "exam",
          "display": "exam",
          "userSelected": true
        } ]
      } ],
      "code": {
        "coding": [ {
          "system": "http://loinc.org",
          "code": "93857-1"
        } ]
      },
      "subject": {
        "reference": "Patient/6131e62d-2869-4814-9060-4442dbcdc7be"
      },
      "effectiveDateTime": "2026-06-08T20:30:00.000+00:00",
      "performer": [ {
        "reference": "Organization/example1",
        "display": "Hendricks Country Hospital"
      } ],
      "valueDateTime": "2026-06-08T08:30:00.000+00:00"
    },
    "request": {
      "method": "PUT",
      "url": "Observation/65e52c40-39d7-489d-8ee0-8789aaacdba5"
    }
  }, {
    "fullUrl": "https://madie.cms.gov/Observation/c5619e49-2f0a-4830-b749-d28d90150f52",
    "resource": {
      "resourceType": "Observation",
      "id": "c5619e49-2f0a-4830-b749-d28d90150f52",
      "meta": {
        "profile": [ "http://hl7.org/fhir/us/qicore/StructureDefinition/qicore-simple-observation" ]
      },
      "status": "final",
      "category": [ {
        "coding": [ {
          "system": "http://terminology.hl7.org/CodeSystem/observation-category",
          "code": "exam",
          "display": "exam",
          "userSelected": true
        } ]
      } ],
      "code": {
        "coding": [ {
          "system": "http://snomed.info/sct",
          "code": "18559007"
        } ]
      },
      "subject": {
        "reference": "Patient/6131e62d-2869-4814-9060-4442dbcdc7be"
      },
      "effectivePeriod": {
        "start": "2026-06-08T08:35:00.000+00:00",
        "end": "2026-06-08T08:35:00.000+00:00"
      },
      "performer": [ {
        "reference": "Organization/example1",
        "display": "Hendricks Country Hospital"
      } ]
    },
    "request": {
      "method": "PUT",
      "url": "Observation/c5619e49-2f0a-4830-b749-d28d90150f52"
    }
  }, {
    "fullUrl": "https://madie.cms.gov/Encounter/c58f7703-83af-4d9c-b628-5358dba7fb85",
    "resource": {
      "resourceType": "Encounter",
      "id": "c58f7703-83af-4d9c-b628-5358dba7fb85",
      "meta": {
        "profile": [ "http://hl7.org/fhir/us/qicore/StructureDefinition/qicore-encounter" ]
      },
      "status": "finished",
      "class": {
        "system": "http://terminology.hl7.org/CodeSystem/v3-ActCode",
        "code": "IMP",
        "display": "inpatient encounter"
      },
      "type": [ {
        "coding": [ {
          "system": "http://snomed.info/sct",
          "code": "8715000"
        } ]
      } ],
      "subject": {
        "reference": "Patient/6131e62d-2869-4814-9060-4442dbcdc7be"
      },
      "period": {
        "start": "2026-06-08T08:00:00.000+00:00",
        "end": "2026-06-10T08:15:00.000+00:00"
      },
      "reasonReference": [ {
        "reference": "Condition/c02e482d-bcbf-4676-8bec-1859108df8f6"
      } ]
    },
    "request": {
      "method": "PUT",
      "url": "Encounter/c58f7703-83af-4d9c-b628-5358dba7fb85"
    }
  }, {
    "fullUrl": "https://madie.cms.gov/Procedure/f46a9887-6c21-4c89-b8b9-c462dfbeaa89",
    "resource": {
      "resourceType": "Procedure",
      "id": "f46a9887-6c21-4c89-b8b9-c462dfbeaa89",
      "meta": {
        "profile": [ "http://hl7.org/fhir/us/qicore/StructureDefinition/qicore-procedure" ]
      },
      "extension": [ {
        "url": "http://hl7.org/fhir/us/qicore/StructureDefinition/qicore-recorded",
        "valueDateTime": "2014-04-05T13:35:00.000+00:00"
      } ],
      "status": "completed",
      "code": {
        "coding": [ {
          "system": "http://snomed.info/sct",
          "code": "4504004"
        } ]
      },
      "subject": {
        "reference": "Patient/6131e62d-2869-4814-9060-4442dbcdc7be"
      },
      "performedPeriod": {
        "start": "2026-06-08T20:00:00.000+00:00",
        "end": "2026-06-18T20:00:00.000+00:00"
      }
    },
    "request": {
      "method": "PUT",
      "url": "Procedure/f46a9887-6c21-4c89-b8b9-c462dfbeaa89"
    }
  }, {
    "fullUrl": "https://madie.cms.gov/Condition/c02e482d-bcbf-4676-8bec-1859108df8f6",
    "resource": {
      "resourceType": "Condition",
      "id": "c02e482d-bcbf-4676-8bec-1859108df8f6",
      "meta": {
        "profile": [ "http://hl7.org/fhir/us/qicore/StructureDefinition/qicore-condition-encounter-diagnosis" ]
      },
      "category": [ {
        "coding": [ {
          "system": "http://terminology.hl7.org/CodeSystem/condition-category",
          "code": "encounter-diagnosis",
          "display": "Encounter Diagnosis"
        } ]
      } ],
      "code": {
        "coding": [ {
          "system": "http://snomed.info/sct",
          "version": "2022-09",
          "code": "169826009",
          "display": "Single live birth (finding)",
          "userSelected": true
        } ]
      },
      "subject": {
        "reference": "Patient/6131e62d-2869-4814-9060-4442dbcdc7be"
      },
      "encounter": {
        "reference": "Encounter/c58f7703-83af-4d9c-b628-5358dba7fb85"
      },
      "recordedDate": "2026-10-17T08:00:00.000+00:00"
    },
    "request": {
      "method": "PUT",
      "url": "Condition/c02e482d-bcbf-4676-8bec-1859108df8f6"
    }
  }, {
    "fullUrl": "https://madie.cms.gov/Coverage/4db51cba-2f2a-4d9a-aeee-3568c5e75aed",
    "resource": {
      "resourceType": "Coverage",
      "id": "4db51cba-2f2a-4d9a-aeee-3568c5e75aed",
      "meta": {
        "profile": [ "http://hl7.org/fhir/us/qicore/StructureDefinition/qicore-coverage" ]
      },
      "status": "active",
      "subscriberId": "523435",
      "beneficiary": {
        "reference": "Patient/6131e62d-2869-4814-9060-4442dbcdc7be"
      },
      "relationship": {
        "coding": [ {
          "system": "http://terminology.hl7.org/CodeSystem/subscriber-relationship",
          "code": "self"
        } ]
      },
      "payor": [ {
        "reference": "Organization/12f45929-c29c-4671-bb7e-4dabf5d54b92"
      } ]
    },
    "request": {
      "method": "PUT",
      "url": "Coverage/4db51cba-2f2a-4d9a-aeee-3568c5e75aed"
    }
  }, {
    "fullUrl": "https://madie.cms.gov/Organization/12f45929-c29c-4671-bb7e-4dabf5d54b92",
    "resource": {
      "resourceType": "Organization",
      "id": "12f45929-c29c-4671-bb7e-4dabf5d54b92",
      "meta": {
        "profile": [ "http://hl7.org/fhir/us/qicore/StructureDefinition/qicore-organization" ]
      },
      "identifier": [ {
        "use": "temp",
        "system": "urn:oid:2.16.840.1.113883.4.4",
        "value": "21-3259825"
      } ],
      "active": true,
      "type": [ {
        "coding": [ {
          "system": "http://terminology.hl7.org/CodeSystem/organization-type",
          "code": "pay",
          "display": "Payer"
        } ]
      } ],
      "name": "Blue Cross Blue Shield of Texas",
      "telecom": [ {
        "system": "phone",
        "value": "(+1) 972-766-6900"
      } ],
      "address": [ {
        "use": "billing",
        "type": "postal",
        "line": [ "P.O. Box 660044" ],
        "city": "Dallas",
        "state": "TX",
        "postalCode": "75266-0044",
        "country": "USA"
      } ]
    },
    "request": {
      "method": "PUT",
      "url": "Organization/12f45929-c29c-4671-bb7e-4dabf5d54b92"
    }
  }, {
    "fullUrl": "https://madie.cms.gov/Practitioner/bf8bddc8-5456-42b5-a974-53a3963b4c89",
    "resource": {
      "resourceType": "Practitioner",
      "id": "bf8bddc8-5456-42b5-a974-53a3963b4c89",
      "meta": {
        "profile": [ "http://hl7.org/fhir/us/qicore/StructureDefinition/qicore-practitioner" ]
      },
      "identifier": [ {
        "system": "http://hl7.org/fhir/sid/us-npi",
        "value": "1234567890"
      } ],
      "name": [ {
        "family": "Evil",
        "prefix": [ "Dr" ]
      } ]
    },
    "request": {
      "method": "PUT",
      "url": "Practitioner/bf8bddc8-5456-42b5-a974-53a3963b4c89"
    }
  }, {
    "fullUrl": "https://madie.cms.gov/MeasureReport/256f584c-01ad-48e2-a801-329e84da8b24",
    "resource": {
      "resourceType": "MeasureReport",
      "id": "256f584c-01ad-48e2-a801-329e84da8b24",
      "meta": {
        "profile": [ "http://hl7.org/fhir/us/cqfmeasures/StructureDefinition/test-case-cqfm" ]
      },
      "contained": [ {
        "resourceType": "Parameters",
        "id": "87ed92ec-a6e9-4c56-91ba-b6370e673fec-parameters",
        "parameter": [ {
          "name": "subject",
          "valueString": "6131e62d-2869-4814-9060-4442dbcdc7be"
        } ]
      } ],
      "extension": [ {
        "url": "http://hl7.org/fhir/StructureDefinition/cqf-inputParameters",
        "valueReference": {
          "reference": "#87ed92ec-a6e9-4c56-91ba-b6370e673fec-parameters"
        }
      }, {
        "url": "http://hl7.org/fhir/us/cqfmeasures/StructureDefinition/cqfm-testCaseDescription",
        "valueMarkdown": "EGA 43 weeks; Failed DenExcl because Assessment performed Abnormal presentation relevant Period after time of delivery and during Enc \n"
      } ],
      "modifierExtension": [ {
        "url": "http://hl7.org/fhir/us/cqfmeasures/StructureDefinition/cqfm-isTestCase",
        "valueBoolean": true
      } ],
      "status": "complete",
      "type": "individual",
      "measure": "https://madie.cms.gov/Measure/CMS0334FHIRPCCesareanBirth",
      "period": {
        "start": "2026-01-01",
        "end": "2026-12-31"
      },
      "group": [ {
        "id": "Group_1",
        "population": [ {
          "id": "InitialPopulation_1",
          "code": {
            "coding": [ {
              "system": "http://terminology.hl7.org/CodeSystem/measure-population",
              "code": "initial-population",
              "display": "Initial Population"
            } ]
          },
          "count": 1
        }, {
          "id": "Denominator_1",
          "code": {
            "coding": [ {
              "system": "http://terminology.hl7.org/CodeSystem/measure-population",
              "code": "denominator",
              "display": "Denominator"
            } ]
          },
          "count": 1
        }, {
          "id": "DenominatorExclusion_1",
          "code": {
            "coding": [ {
              "system": "http://terminology.hl7.org/CodeSystem/measure-population",
              "code": "denominator-exclusion",
              "display": "Denominator Exclusion"
            } ]
          },
          "count": 0
        }, {
          "id": "Numerator_1",
          "code": {
            "coding": [ {
              "system": "http://terminology.hl7.org/CodeSystem/measure-population",
              "code": "numerator",
              "display": "Numerator"
            } ]
          },
          "count": 0
        } ],
        "measureScore": {
          "value": 0.0
        }
      } ],
      "evaluatedResource": [ {
        "reference": "Patient/6131e62d-2869-4814-9060-4442dbcdc7be"
      }, {
        "reference": "Observation/a6b44492-67cb-4c2e-ab8d-6304d62618f5"
      }, {
        "reference": "Observation/af4c9182-df49-4bee-95dc-e8f9660015c6"
      }, {
        "reference": "Observation/65e52c40-39d7-489d-8ee0-8789aaacdba5"
      }, {
        "reference": "Observation/c5619e49-2f0a-4830-b749-d28d90150f52"
      }, {
        "reference": "Encounter/c58f7703-83af-4d9c-b628-5358dba7fb85"
      }, {
        "reference": "Procedure/f46a9887-6c21-4c89-b8b9-c462dfbeaa89"
      }, {
        "reference": "Condition/c02e482d-bcbf-4676-8bec-1859108df8f6"
      }, {
        "reference": "Coverage/4db51cba-2f2a-4d9a-aeee-3568c5e75aed"
      }, {
        "reference": "Organization/12f45929-c29c-4671-bb7e-4dabf5d54b92"
      }, {
        "reference": "Practitioner/bf8bddc8-5456-42b5-a974-53a3963b4c89"
      } ]
    },
    "request": {
      "method": "PUT",
      "url": "MeasureReport/256f584c-01ad-48e2-a801-329e84da8b24"
    }
  } ]
}