{
  "resourceType": "Bundle",
  "id": "63487c2d0968f80122540144",
  "type": "transaction",
  "entry": [ {
    "fullUrl": "https://madie.cms.gov/Patient/20bb7712-ab47-4505-bfbf-5bebe074afa2",
    "resource": {
      "resourceType": "Patient",
      "id": "20bb7712-ab47-4505-bfbf-5bebe074afa2",
      "meta": {
        "profile": [ "http://hl7.org/fhir/us/qicore/StructureDefinition/qicore-patient" ]
      },
      "text": {
        "status": "generated",
        "div": "<div xmlns=\"http://www.w3.org/1999/xhtml\"><div class=\"hapiHeaderText\">AssessParity1Gravida2 <b>DENOMFail</b></div><table class=\"hapiPropertyTable\"><tbody><tr><td>Identifier</td><td>e960a66b595990cb41cd1209fad2cf00</td></tr><tr><td>Date of birth</td><td><span>14 February 1985</span></td></tr></tbody></table></div>"
      },
      "extension": [ {
        "url": "http://hl7.org/fhir/us/core/StructureDefinition/us-core-race",
        "extension": [ {
          "url": "ombCategory",
          "valueCoding": {
            "system": "urn:oid:2.16.840.1.113883.6.238",
            "code": "1002-5",
            "display": "American Indian or Alaska Native",
            "userSelected": true
          }
        }, {
          "url": "text",
          "valueString": "American Indian or Alaska Native"
        } ]
      }, {
        "url": "http://hl7.org/fhir/us/core/StructureDefinition/us-core-ethnicity",
        "extension": [ {
          "url": "ombCategory",
          "valueCoding": {
            "system": "urn:oid:2.16.840.1.113883.6.238",
            "code": "2135-2",
            "display": "Hispanic or Latino",
            "userSelected": true
          }
        }, {
          "url": "text",
          "valueString": "Hispanic or Latino"
        } ]
      } ],
      "identifier": [ {
        "type": {
          "coding": [ {
            "system": "http://terminology.hl7.org/CodeSystem/v2-0203",
            "code": "MR"
          } ]
        },
        "system": "https://bonnie-fhir.healthit.gov/",
        "value": "63487c2d0968f80122540144"
      } ],
      "active": true,
      "name": [ {
        "use": "usual",
        "family": "DENOMFail",
        "given": [ "AssessParity1Gravida2" ]
      } ],
      "gender": "female",
      "birthDate": "1998-02-14"
    },
    "request": {
      "method": "PUT",
      "url": "Patient/20bb7712-ab47-4505-bfbf-5bebe074afa2"
    }
  }, {
    "fullUrl": "https://madie.cms.gov/Observation/0af82bae-67ad-4dba-b33a-09cddb335bf6",
    "resource": {
      "resourceType": "Observation",
      "id": "0af82bae-67ad-4dba-b33a-09cddb335bf6",
      "meta": {
        "profile": [ "http://hl7.org/fhir/us/qicore/StructureDefinition/qicore-simple-observation" ]
      },
      "status": "final",
      "category": [ {
        "coding": [ {
          "system": "http://terminology.hl7.org/CodeSystem/observation-category",
          "code": "exam",
          "display": "exam",
          "userSelected": true
        } ]
      } ],
      "code": {
        "coding": [ {
          "system": "http://loinc.org",
          "code": "11977-6"
        } ]
      },
      "subject": {
        "reference": "Patient/20bb7712-ab47-4505-bfbf-5bebe074afa2"
      },
      "effectiveDateTime": "2026-03-08T09:00:00.000+00:00",
      "valueInteger": 1
    },
    "request": {
      "method": "PUT",
      "url": "Observation/0af82bae-67ad-4dba-b33a-09cddb335bf6"
    }
  }, {
    "fullUrl": "https://madie.cms.gov/Observation/20e98f9b-ad7a-4a65-9cea-64d629de88d3",
    "resource": {
      "resourceType": "Observation",
      "id": "20e98f9b-ad7a-4a65-9cea-64d629de88d3",
      "meta": {
        "profile": [ "http://hl7.org/fhir/us/qicore/StructureDefinition/qicore-simple-observation" ]
      },
      "status": "final",
      "category": [ {
        "coding": [ {
          "system": "http://terminology.hl7.org/CodeSystem/observation-category",
          "code": "exam",
          "display": "exam",
          "userSelected": true
        } ]
      } ],
      "code": {
        "coding": [ {
          "system": "http://loinc.org",
          "code": "11996-6"
        } ]
      },
      "subject": {
        "reference": "Patient/20bb7712-ab47-4505-bfbf-5bebe074afa2"
      },
      "effectiveDateTime": "2026-03-09T08:00:00.000+00:00",
      "valueInteger": 0
    },
    "request": {
      "method": "PUT",
      "url": "Observation/20e98f9b-ad7a-4a65-9cea-64d629de88d3"
    }
  }, {
    "fullUrl": "https://madie.cms.gov/Observation/4f4dd237-05a2-4a58-a97a-14b01dcc9f67",
    "resource": {
      "resourceType": "Observation",
      "id": "4f4dd237-05a2-4a58-a97a-14b01dcc9f67",
      "meta": {
        "profile": [ "http://hl7.org/fhir/us/qicore/StructureDefinition/qicore-simple-observation" ]
      },
      "status": "final",
      "category": [ {
        "coding": [ {
          "system": "http://terminology.hl7.org/CodeSystem/observation-category",
          "code": "exam",
          "display": "exam",
          "userSelected": true
        } ]
      } ],
      "code": {
        "coding": [ {
          "system": "http://loinc.org",
          "code": "11884-4"
        } ]
      },
      "subject": {
        "reference": "Patient/20bb7712-ab47-4505-bfbf-5bebe074afa2"
      },
      "effectiveDateTime": "2026-06-08T21:00:00.000+00:00",
      "valueQuantity": {
        "value": 38,
        "system": "http://unitsofmeasure.org",
        "code": "wk"
      }
    },
    "request": {
      "method": "PUT",
      "url": "Observation/4f4dd237-05a2-4a58-a97a-14b01dcc9f67"
    }
  }, {
    "fullUrl": "https://madie.cms.gov/Observation/3bc70bc0-408a-4a4e-9672-5be740863272",
    "resource": {
      "resourceType": "Observation",
      "id": "3bc70bc0-408a-4a4e-9672-5be740863272",
      "meta": {
        "profile": [ "http://hl7.org/fhir/us/qicore/StructureDefinition/qicore-simple-observation" ]
      },
      "status": "final",
      "category": [ {
        "coding": [ {
          "system": "http://terminology.hl7.org/CodeSystem/observation-category",
          "code": "exam",
          "display": "exam",
          "userSelected": true
        } ]
      } ],
      "code": {
        "coding": [ {
          "system": "http://loinc.org",
          "code": "93857-1"
        } ]
      },
      "subject": {
        "reference": "Patient/20bb7712-ab47-4505-bfbf-5bebe074afa2"
      },
      "effectiveDateTime": "2026-06-08T21:00:00.000+00:00",
      "valueDateTime": "2026-06-08T21:00:00.000+00:00"
    },
    "request": {
      "method": "PUT",
      "url": "Observation/3bc70bc0-408a-4a4e-9672-5be740863272"
    }
  }, {
    "fullUrl": "https://madie.cms.gov/Encounter/9ead2dc9-b3da-4dbc-b29c-40a97b5d78c0",
    "resource": {
      "resourceType": "Encounter",
      "id": "9ead2dc9-b3da-4dbc-b29c-40a97b5d78c0",
      "meta": {
        "profile": [ "http://hl7.org/fhir/us/qicore/StructureDefinition/qicore-encounter" ]
      },
      "status": "finished",
      "class": {
        "system": "http://terminology.hl7.org/CodeSystem/v3-ActCode",
        "code": "IMP",
        "display": "inpatient encounter"
      },
      "type": [ {
        "coding": [ {
          "system": "http://snomed.info/sct",
          "code": "8715000"
        } ]
      } ],
      "subject": {
        "reference": "Patient/20bb7712-ab47-4505-bfbf-5bebe074afa2"
      },
      "period": {
        "start": "2026-06-08T08:00:00.000+00:00",
        "end": "2026-06-10T08:15:00.000+00:00"
      },
      "length": {
        "value": 2,
        "unit": "days"
      },
      "reasonReference": [ {
        "reference": "Condition/225cfe7a-dd72-41d8-aa06-e08fbe911a47"
      } ]
    },
    "request": {
      "method": "PUT",
      "url": "Encounter/9ead2dc9-b3da-4dbc-b29c-40a97b5d78c0"
    }
  }, {
    "fullUrl": "https://madie.cms.gov/Procedure/5a7bcd6b-455a-4aa2-ba4f-066920f12981",
    "resource": {
      "resourceType": "Procedure",
      "id": "5a7bcd6b-455a-4aa2-ba4f-066920f12981",
      "meta": {
        "profile": [ "http://hl7.org/fhir/us/qicore/StructureDefinition/qicore-procedure" ]
      },
      "extension": [ {
        "url": "http://hl7.org/fhir/us/qicore/StructureDefinition/qicore-recorded",
        "valueDateTime": "2014-04-05T13:35:00.000+00:00"
      } ],
      "status": "completed",
      "code": {
        "coding": [ {
          "system": "http://snomed.info/sct",
          "code": "4504004"
        } ]
      },
      "subject": {
        "reference": "Patient/20bb7712-ab47-4505-bfbf-5bebe074afa2"
      },
      "performedPeriod": {
        "start": "2026-06-08T20:00:00.000+00:00",
        "end": "2026-06-08T21:15:00.000+00:00"
      }
    },
    "request": {
      "method": "PUT",
      "url": "Procedure/5a7bcd6b-455a-4aa2-ba4f-066920f12981"
    }
  }, {
    "fullUrl": "https://madie.cms.gov/Condition/225cfe7a-dd72-41d8-aa06-e08fbe911a47",
    "resource": {
      "resourceType": "Condition",
      "id": "225cfe7a-dd72-41d8-aa06-e08fbe911a47",
      "meta": {
        "profile": [ "http://hl7.org/fhir/us/qicore/StructureDefinition/qicore-condition-encounter-diagnosis" ]
      },
      "category": [ {
        "coding": [ {
          "system": "http://terminology.hl7.org/CodeSystem/condition-category",
          "code": "encounter-diagnosis",
          "display": "Encounter Diagnosis"
        } ]
      } ],
      "code": {
        "coding": [ {
          "system": "http://snomed.info/sct",
          "version": "2022-09",
          "code": "169826009",
          "display": "Single live birth from singleton pregnancy (finding)",
          "userSelected": true
        } ]
      },
      "subject": {
        "reference": "Patient/20bb7712-ab47-4505-bfbf-5bebe074afa2"
      },
      "encounter": {
        "reference": "Encounter/9ead2dc9-b3da-4dbc-b29c-40a97b5d78c0"
      },
      "recordedDate": "2026-10-21T08:00:00.000+00:00"
    },
    "request": {
      "method": "PUT",
      "url": "Condition/225cfe7a-dd72-41d8-aa06-e08fbe911a47"
    }
  }, {
    "fullUrl": "https://madie.cms.gov/Coverage/0b1edae2-4ff3-4002-8058-83a342e7bd66",
    "resource": {
      "resourceType": "Coverage",
      "id": "0b1edae2-4ff3-4002-8058-83a342e7bd66",
      "meta": {
        "profile": [ "http://hl7.org/fhir/us/qicore/StructureDefinition/qicore-coverage" ]
      },
      "status": "active",
      "subscriberId": "523435",
      "beneficiary": {
        "reference": "Patient/20bb7712-ab47-4505-bfbf-5bebe074afa2"
      },
      "relationship": {
        "coding": [ {
          "system": "http://terminology.hl7.org/CodeSystem/subscriber-relationship",
          "code": "self"
        } ]
      },
      "payor": [ {
        "reference": "Organization/0a8e9092-ed03-4945-9a73-9202baf661fd"
      } ]
    },
    "request": {
      "method": "PUT",
      "url": "Coverage/0b1edae2-4ff3-4002-8058-83a342e7bd66"
    }
  }, {
    "fullUrl": "https://madie.cms.gov/Organization/0a8e9092-ed03-4945-9a73-9202baf661fd",
    "resource": {
      "resourceType": "Organization",
      "id": "0a8e9092-ed03-4945-9a73-9202baf661fd",
      "meta": {
        "profile": [ "http://hl7.org/fhir/us/qicore/StructureDefinition/qicore-organization" ]
      },
      "identifier": [ {
        "use": "temp",
        "system": "urn:oid:2.16.840.1.113883.4.4",
        "value": "21-3259825"
      } ],
      "active": true,
      "type": [ {
        "coding": [ {
          "system": "http://terminology.hl7.org/CodeSystem/organization-type",
          "code": "pay",
          "display": "Payer"
        } ]
      } ],
      "name": "Blue Cross Blue Shield of Texas",
      "telecom": [ {
        "system": "phone",
        "value": "(+1) 972-766-6900"
      } ],
      "address": [ {
        "use": "billing",
        "type": "postal",
        "line": [ "P.O. Box 660044" ],
        "city": "Dallas",
        "state": "TX",
        "postalCode": "75266-0044",
        "country": "USA"
      } ]
    },
    "request": {
      "method": "PUT",
      "url": "Organization/0a8e9092-ed03-4945-9a73-9202baf661fd"
    }
  }, {
    "fullUrl": "https://madie.cms.gov/Practitioner/6aef571f-ba3c-45d6-9452-7b5b5b443369",
    "resource": {
      "resourceType": "Practitioner",
      "id": "6aef571f-ba3c-45d6-9452-7b5b5b443369",
      "meta": {
        "profile": [ "http://hl7.org/fhir/us/qicore/StructureDefinition/qicore-practitioner" ]
      },
      "identifier": [ {
        "system": "http://hl7.org/fhir/sid/us-npi",
        "value": "1234567890"
      } ],
      "name": [ {
        "family": "Evil",
        "prefix": [ "Dr" ]
      } ]
    },
    "request": {
      "method": "PUT",
      "url": "Practitioner/6aef571f-ba3c-45d6-9452-7b5b5b443369"
    }
  }, {
    "fullUrl": "https://madie.cms.gov/MeasureReport/96c074ac-493e-4905-82d0-ab1fc0600121",
    "resource": {
      "resourceType": "MeasureReport",
      "id": "96c074ac-493e-4905-82d0-ab1fc0600121",
      "meta": {
        "profile": [ "http://hl7.org/fhir/us/cqfmeasures/StructureDefinition/test-case-cqfm" ]
      },
      "contained": [ {
        "resourceType": "Parameters",
        "id": "d1ec1336-8a4d-406d-97e0-5312e8a4a672-parameters",
        "parameter": [ {
          "name": "subject",
          "valueString": "20bb7712-ab47-4505-bfbf-5bebe074afa2"
        } ]
      } ],
      "extension": [ {
        "url": "http://hl7.org/fhir/StructureDefinition/cqf-inputParameters",
        "valueReference": {
          "reference": "#d1ec1336-8a4d-406d-97e0-5312e8a4a672-parameters"
        }
      }, {
        "url": "http://hl7.org/fhir/us/cqfmeasures/StructureDefinition/cqfm-testCaseDescription",
        "valueMarkdown": "Pass IP,  Parity 1 (not nulliparous), gravida 2.  This test case shows a potential problem with the concepts present in the Delivery Procedures value set. I believe this value set would be used when the delivery procedure was not a cesarean section.\n"
      } ],
      "modifierExtension": [ {
        "url": "http://hl7.org/fhir/us/cqfmeasures/StructureDefinition/cqfm-isTestCase",
        "valueBoolean": true
      } ],
      "status": "complete",
      "type": "individual",
      "measure": "https://madie.cms.gov/Measure/CMS0334FHIRPCCesareanBirth",
      "period": {
        "start": "2026-01-01",
        "end": "2026-12-31"
      },
      "group": [ {
        "id": "Group_1",
        "population": [ {
          "id": "InitialPopulation_1",
          "code": {
            "coding": [ {
              "system": "http://terminology.hl7.org/CodeSystem/measure-population",
              "code": "initial-population",
              "display": "Initial Population"
            } ]
          },
          "count": 1
        }, {
          "id": "Denominator_1",
          "code": {
            "coding": [ {
              "system": "http://terminology.hl7.org/CodeSystem/measure-population",
              "code": "denominator",
              "display": "Denominator"
            } ]
          },
          "count": 0
        }, {
          "id": "DenominatorExclusion_1",
          "code": {
            "coding": [ {
              "system": "http://terminology.hl7.org/CodeSystem/measure-population",
              "code": "denominator-exclusion",
              "display": "Denominator Exclusion"
            } ]
          },
          "count": 0
        }, {
          "id": "Numerator_1",
          "code": {
            "coding": [ {
              "system": "http://terminology.hl7.org/CodeSystem/measure-population",
              "code": "numerator",
              "display": "Numerator"
            } ]
          },
          "count": 0
        } ],
        "measureScore": {
          "value": 0.0
        }
      } ],
      "evaluatedResource": [ {
        "reference": "Patient/20bb7712-ab47-4505-bfbf-5bebe074afa2"
      }, {
        "reference": "Observation/0af82bae-67ad-4dba-b33a-09cddb335bf6"
      }, {
        "reference": "Observation/20e98f9b-ad7a-4a65-9cea-64d629de88d3"
      }, {
        "reference": "Observation/4f4dd237-05a2-4a58-a97a-14b01dcc9f67"
      }, {
        "reference": "Observation/3bc70bc0-408a-4a4e-9672-5be740863272"
      }, {
        "reference": "Encounter/9ead2dc9-b3da-4dbc-b29c-40a97b5d78c0"
      }, {
        "reference": "Procedure/5a7bcd6b-455a-4aa2-ba4f-066920f12981"
      }, {
        "reference": "Condition/225cfe7a-dd72-41d8-aa06-e08fbe911a47"
      }, {
        "reference": "Coverage/0b1edae2-4ff3-4002-8058-83a342e7bd66"
      }, {
        "reference": "Organization/0a8e9092-ed03-4945-9a73-9202baf661fd"
      }, {
        "reference": "Practitioner/6aef571f-ba3c-45d6-9452-7b5b5b443369"
      } ]
    },
    "request": {
      "method": "PUT",
      "url": "MeasureReport/96c074ac-493e-4905-82d0-ab1fc0600121"
    }
  } ]
}