{
  "resourceType": "Bundle",
  "id": "64998d9ccea95c34d9e57771",
  "type": "collection",
  "entry": [ {
    "fullUrl": "https://madie.cms.gov/Patient/c3a81338-d107-4762-84a8-3a8ce88b781a",
    "resource": {
      "resourceType": "Patient",
      "id": "c3a81338-d107-4762-84a8-3a8ce88b781a",
      "meta": {
        "profile": [ "http://hl7.org/fhir/us/qicore/StructureDefinition/qicore-patient" ]
      },
      "extension": [ {
        "url": "http://hl7.org/fhir/us/core/StructureDefinition/us-core-race",
        "extension": [ {
          "url": "ombCategory",
          "valueCoding": {
            "system": "urn:oid:2.16.840.1.113883.6.238",
            "code": "2076-8",
            "display": "Native Hawaiian or Other Pacific Islander",
            "userSelected": true
          }
        }, {
          "url": "text",
          "valueString": "Native Hawaiian or Other Pacific Islander"
        } ]
      }, {
        "url": "http://hl7.org/fhir/us/core/StructureDefinition/us-core-ethnicity",
        "extension": [ {
          "url": "ombCategory",
          "valueCoding": {
            "system": "urn:oid:2.16.840.1.113883.6.238",
            "code": "2186-5",
            "display": "Not Hispanic or Latino",
            "userSelected": true
          }
        }, {
          "url": "text",
          "valueString": "Not Hispanic or Latino"
        } ]
      } ],
      "identifier": [ {
        "type": {
          "coding": [ {
            "system": "http://terminology.hl7.org/CodeSystem/v2-0203",
            "code": "MR"
          } ]
        },
        "system": "https://bonnie-fhir.healthit.gov/",
        "value": "64998d9ccea95c34d9e57771"
      } ],
      "name": [ {
        "family": "NumPass",
        "given": [ "2TestsduringMP1Over1Less" ]
      } ],
      "gender": "female",
      "birthDate": "1987-05-25"
    }
  }, {
    "fullUrl": "https://madie.cms.gov/Encounter/2c9677d9-10fa-46b9-a9fc-37dde103652b",
    "resource": {
      "resourceType": "Encounter",
      "id": "2c9677d9-10fa-46b9-a9fc-37dde103652b",
      "meta": {
        "profile": [ "http://hl7.org/fhir/us/qicore/StructureDefinition/qicore-encounter" ]
      },
      "status": "finished",
      "class": {
        "system": "http://terminology.hl7.org/CodeSystem/v3-ActCode",
        "code": "AMB",
        "display": "ambulatory"
      },
      "type": [ {
        "coding": [ {
          "system": "http://www.ama-assn.org/go/cpt",
          "version": "2023",
          "code": "99381",
          "display": "Initial comprehensive preventive medicine evaluation and management of an individual including an age and gender appropriate history, examination, counseling/anticipatory guidance/risk factor reduction interventions, and the ordering of laboratory/diagnostic procedures, new patient; infant (age younger than 1 year)",
          "userSelected": true
        } ]
      } ],
      "subject": {
        "reference": "Patient/c3a81338-d107-4762-84a8-3a8ce88b781a"
      },
      "period": {
        "start": "2026-03-07T10:00:00.000+00:00",
        "end": "2026-03-07T10:30:00.000+00:00"
      }
    }
  }, {
    "fullUrl": "https://madie.cms.gov/Condition/b70b65cd-3473-4c02-a3bc-eb66a903a9b7",
    "resource": {
      "resourceType": "Condition",
      "id": "b70b65cd-3473-4c02-a3bc-eb66a903a9b7",
      "meta": {
        "profile": [ "http://hl7.org/fhir/us/qicore/StructureDefinition/qicore-condition-problems-health-concerns" ]
      },
      "clinicalStatus": {
        "coding": [ {
          "system": "http://terminology.hl7.org/CodeSystem/condition-clinical",
          "code": "active",
          "display": "active",
          "userSelected": true
        } ]
      },
      "category": [ {
        "coding": [ {
          "system": "http://terminology.hl7.org/CodeSystem/condition-category",
          "code": "problem-list-item",
          "display": "Problem List Item"
        } ]
      } ],
      "code": {
        "coding": [ {
          "system": "http://hl7.org/fhir/sid/icd-9-cm",
          "version": "2013",
          "code": "042",
          "display": "Human immunodeficiency virus [HIV] disease",
          "userSelected": true
        }, {
          "system": "http://snomed.info/sct",
          "version": "http://snomed.info/sct/731000124108/version/20250301",
          "code": "165816005",
          "userSelected": true
        } ]
      },
      "subject": {
        "reference": "Patient/c3a81338-d107-4762-84a8-3a8ce88b781a"
      },
      "onsetDateTime": "2020-12-02T12:00:00.000+00:00",
      "recordedDate": "2020-12-02T12:00:00.000+00:00"
    }
  }, {
    "fullUrl": "https://madie.cms.gov/Observation/97299615-605f-4d8f-9900-67e69205c0aa",
    "resource": {
      "resourceType": "Observation",
      "id": "97299615-605f-4d8f-9900-67e69205c0aa",
      "meta": {
        "profile": [ "http://hl7.org/fhir/us/qicore/StructureDefinition/qicore-observation-lab" ]
      },
      "status": "final",
      "category": [ {
        "coding": [ {
          "system": "http://terminology.hl7.org/CodeSystem/observation-category",
          "code": "laboratory",
          "display": "Laboratory"
        } ]
      }, {
        "coding": [ {
          "system": "http://terminology.hl7.org/CodeSystem/observation-category",
          "code": "survey"
        } ]
      } ],
      "code": {
        "coding": [ {
          "system": "http://loinc.org",
          "version": "2.73",
          "code": "10351-5",
          "display": "HIV 1 RNA [Units/volume] (viral load) in Serum or Plasma by Probe with amplification",
          "userSelected": true
        } ]
      },
      "subject": {
        "reference": "Patient/c3a81338-d107-4762-84a8-3a8ce88b781a"
      },
      "effectiveDateTime": "2026-03-07T08:00:00.000+00:00",
      "issued": "2026-03-07T08:00:00.000+00:00",
      "valueQuantity": {
        "value": 208,
        "unit": "{copies}/mL"
      }
    }
  }, {
    "fullUrl": "https://madie.cms.gov/Observation/c6992b3d-037e-4b10-8643-824caf1626f9",
    "resource": {
      "resourceType": "Observation",
      "id": "c6992b3d-037e-4b10-8643-824caf1626f9",
      "meta": {
        "profile": [ "http://hl7.org/fhir/us/qicore/StructureDefinition/qicore-observation-lab" ]
      },
      "status": "final",
      "category": [ {
        "coding": [ {
          "system": "http://terminology.hl7.org/CodeSystem/observation-category",
          "code": "laboratory",
          "display": "Laboratory"
        } ]
      }, {
        "coding": [ {
          "system": "http://terminology.hl7.org/CodeSystem/observation-category",
          "code": "survey"
        } ]
      } ],
      "code": {
        "coding": [ {
          "system": "http://loinc.org",
          "version": "2.73",
          "code": "10351-5",
          "display": "HIV 1 RNA [Units/volume] (viral load) in Serum or Plasma by Probe with amplification",
          "userSelected": true
        } ]
      },
      "subject": {
        "reference": "Patient/c3a81338-d107-4762-84a8-3a8ce88b781a"
      },
      "effectiveDateTime": "2026-12-31T08:02:00.000+00:00",
      "issued": "2026-12-31T08:02:00.000+00:00",
      "valueQuantity": {
        "value": 160,
        "unit": "{copies}/mL"
      }
    }
  }, {
    "fullUrl": "https://madie.cms.gov/Coverage/71bdfe6a-4cc5-4692-aeaa-32b5c7f01f12",
    "resource": {
      "resourceType": "Coverage",
      "id": "71bdfe6a-4cc5-4692-aeaa-32b5c7f01f12",
      "meta": {
        "profile": [ "http://hl7.org/fhir/us/qicore/StructureDefinition/qicore-coverage" ]
      },
      "status": "active",
      "subscriberId": "123456",
      "beneficiary": {
        "reference": "Patient/c3a81338-d107-4762-84a8-3a8ce88b781a"
      },
      "relationship": {
        "coding": [ {
          "system": "http://terminology.hl7.org/CodeSystem/subscriber-relationship",
          "code": "self",
          "display": "Self"
        } ]
      },
      "payor": [ {
        "reference": "Organization/f0143ae6-1095-4d54-96ce-932c23a98d98"
      } ]
    }
  }, {
    "fullUrl": "https://madie.cms.gov/Organization/f0143ae6-1095-4d54-96ce-932c23a98d98",
    "resource": {
      "resourceType": "Organization",
      "id": "f0143ae6-1095-4d54-96ce-932c23a98d98",
      "meta": {
        "profile": [ "http://hl7.org/fhir/us/qicore/StructureDefinition/qicore-organization" ]
      },
      "identifier": [ {
        "use": "temp",
        "system": "urn:oid:2.16.840.1.113883.4.4",
        "value": "21-3259825"
      } ],
      "active": true,
      "type": [ {
        "coding": [ {
          "system": "http://terminology.hl7.org/CodeSystem/organization-type",
          "code": "pay",
          "display": "Payer"
        } ]
      } ],
      "name": "Blue Cross Blue Shield of Texas",
      "telecom": [ {
        "system": "phone",
        "value": "(+1) 972-766-6900"
      } ],
      "address": [ {
        "use": "billing",
        "type": "postal",
        "line": [ "P.O. Box 660044" ],
        "city": "Dallas",
        "state": "TX",
        "postalCode": "75266-0044",
        "country": "USA"
      } ]
    }
  }, {
    "fullUrl": "https://madie.cms.gov/Practitioner/38d1032f-ba13-4945-b7c1-3fe0ea94feb2",
    "resource": {
      "resourceType": "Practitioner",
      "id": "38d1032f-ba13-4945-b7c1-3fe0ea94feb2",
      "meta": {
        "profile": [ "http://hl7.org/fhir/us/qicore/StructureDefinition/qicore-practitioner" ]
      },
      "identifier": [ {
        "system": "http://hl7.org/fhir/sid/us-npi",
        "value": "1689411712"
      } ],
      "name": [ {
        "family": "Evil",
        "prefix": [ "Dr" ]
      } ]
    }
  }, {
    "fullUrl": "https://madie.cms.gov/MeasureReport/96ff5fd8-6216-42d8-8bf9-aec6089a81d6",
    "resource": {
      "resourceType": "MeasureReport",
      "id": "96ff5fd8-6216-42d8-8bf9-aec6089a81d6",
      "meta": {
        "profile": [ "http://hl7.org/fhir/us/cqfmeasures/StructureDefinition/test-case-cqfm" ]
      },
      "contained": [ {
        "resourceType": "Parameters",
        "id": "5d5d988c-2181-41a2-aa99-8fd26ce0c52e-parameters",
        "parameter": [ {
          "name": "subject",
          "valueString": "c3a81338-d107-4762-84a8-3a8ce88b781a"
        } ]
      } ],
      "extension": [ {
        "url": "http://hl7.org/fhir/StructureDefinition/cqf-inputParameters",
        "valueReference": {
          "reference": "#5d5d988c-2181-41a2-aa99-8fd26ce0c52e-parameters"
        }
      }, {
        "url": "http://hl7.org/fhir/us/cqfmeasures/StructureDefinition/cqfm-testCaseDescription",
        "valueMarkdown": "Patient with a diagnosis of HIV years before start of the MP and a qualifying encounter during the MP with 2 tests during the MP, most recent under 200"
      } ],
      "modifierExtension": [ {
        "url": "http://hl7.org/fhir/us/cqfmeasures/StructureDefinition/cqfm-isTestCase",
        "valueBoolean": true
      } ],
      "status": "complete",
      "type": "individual",
      "measure": "https://madie.cms.gov/Measure/CMS314FHIRHIVViralSuppression",
      "period": {
        "start": "2026-01-01",
        "end": "2026-12-31"
      },
      "group": [ {
        "id": "Group_1",
        "population": [ {
          "id": "InitialPopulation_1",
          "code": {
            "coding": [ {
              "system": "http://terminology.hl7.org/CodeSystem/measure-population",
              "code": "initial-population",
              "display": "Initial Population"
            } ]
          },
          "count": 1
        }, {
          "id": "Denominator_1",
          "code": {
            "coding": [ {
              "system": "http://terminology.hl7.org/CodeSystem/measure-population",
              "code": "denominator",
              "display": "Denominator"
            } ]
          },
          "count": 1
        }, {
          "id": "Numerator_1",
          "code": {
            "coding": [ {
              "system": "http://terminology.hl7.org/CodeSystem/measure-population",
              "code": "numerator",
              "display": "Numerator"
            } ]
          },
          "count": 1
        } ],
        "measureScore": {
          "value": 1.0
        }
      } ],
      "evaluatedResource": [ {
        "reference": "Patient/c3a81338-d107-4762-84a8-3a8ce88b781a"
      }, {
        "reference": "Encounter/2c9677d9-10fa-46b9-a9fc-37dde103652b"
      }, {
        "reference": "Condition/b70b65cd-3473-4c02-a3bc-eb66a903a9b7"
      }, {
        "reference": "Observation/97299615-605f-4d8f-9900-67e69205c0aa"
      }, {
        "reference": "Observation/c6992b3d-037e-4b10-8643-824caf1626f9"
      }, {
        "reference": "Coverage/71bdfe6a-4cc5-4692-aeaa-32b5c7f01f12"
      }, {
        "reference": "Organization/f0143ae6-1095-4d54-96ce-932c23a98d98"
      }, {
        "reference": "Practitioner/38d1032f-ba13-4945-b7c1-3fe0ea94feb2"
      } ]
    }
  } ]
}