{
  "resourceType": "Bundle",
  "id": "63487c2f0968f8012254018f",
  "type": "transaction",
  "entry": [ {
    "fullUrl": "https://madie.cms.gov/Patient/996a87a2-020a-49e6-bc06-79ecc49cfa73",
    "resource": {
      "resourceType": "Patient",
      "id": "996a87a2-020a-49e6-bc06-79ecc49cfa73",
      "meta": {
        "profile": [ "http://hl7.org/fhir/us/qicore/StructureDefinition/qicore-patient" ]
      },
      "text": {
        "status": "generated",
        "div": "<div xmlns=\"http://www.w3.org/1999/xhtml\"><div class=\"hapiHeaderText\">AssessPreTerm0RelDate42wksB4DelivDateTime<b>DENOMFail</b></div><table class=\"hapiPropertyTable\"><tbody><tr><td>Identifier</td><td>ae2c858214ff9b1ffdc193923955b0f25c757408279ae2f0e7ea89ca980dbad8</td></tr><tr><td>Date of birth</td><td><span>14 February 1985</span></td></tr></tbody></table></div>"
      },
      "extension": [ {
        "url": "http://hl7.org/fhir/us/core/StructureDefinition/us-core-race",
        "extension": [ {
          "url": "ombCategory",
          "valueCoding": {
            "system": "urn:oid:2.16.840.1.113883.6.238",
            "code": "1002-5",
            "display": "American Indian or Alaska Native",
            "userSelected": true
          }
        }, {
          "url": "text",
          "valueString": "American Indian or Alaska Native"
        } ]
      }, {
        "url": "http://hl7.org/fhir/us/core/StructureDefinition/us-core-ethnicity",
        "extension": [ {
          "url": "ombCategory",
          "valueCoding": {
            "system": "urn:oid:2.16.840.1.113883.6.238",
            "code": "2135-2",
            "display": "Hispanic or Latino",
            "userSelected": true
          }
        }, {
          "url": "text",
          "valueString": "Hispanic or Latino"
        } ]
      } ],
      "identifier": [ {
        "type": {
          "coding": [ {
            "system": "http://terminology.hl7.org/CodeSystem/v2-0203",
            "code": "MR"
          } ]
        },
        "system": "https://bonnie-fhir.healthit.gov/",
        "value": "63487c2f0968f8012254018f"
      } ],
      "active": true,
      "name": [ {
        "use": "usual",
        "family": "DENOMFail",
        "given": [ "AssessPreTerm0RelPerStartTime42wksB4DelivDateTime" ]
      } ],
      "gender": "female",
      "birthDate": "1998-02-14"
    },
    "request": {
      "method": "PUT",
      "url": "Patient/996a87a2-020a-49e6-bc06-79ecc49cfa73"
    }
  }, {
    "fullUrl": "https://madie.cms.gov/Observation/cea82f65-5eca-4342-bcf6-08893f7d5e3c",
    "resource": {
      "resourceType": "Observation",
      "id": "cea82f65-5eca-4342-bcf6-08893f7d5e3c",
      "meta": {
        "profile": [ "http://hl7.org/fhir/us/qicore/StructureDefinition/qicore-simple-observation" ]
      },
      "status": "final",
      "category": [ {
        "coding": [ {
          "system": "http://terminology.hl7.org/CodeSystem/observation-category",
          "code": "exam",
          "display": "exam",
          "userSelected": true
        } ]
      } ],
      "code": {
        "coding": [ {
          "system": "http://loinc.org",
          "code": "11637-6"
        } ]
      },
      "subject": {
        "reference": "Patient/996a87a2-020a-49e6-bc06-79ecc49cfa73"
      },
      "effectivePeriod": {
        "start": "2025-08-14T19:59:00.000+00:00",
        "end": "2025-08-19T20:00:00.000+00:00"
      },
      "performer": [ {
        "reference": "Organization/example1",
        "display": "Hendricks Country Hospital"
      } ],
      "valueInteger": 0
    },
    "request": {
      "method": "PUT",
      "url": "Observation/cea82f65-5eca-4342-bcf6-08893f7d5e3c"
    }
  }, {
    "fullUrl": "https://madie.cms.gov/Observation/083beaf1-f81b-4995-9053-fe0b51e9861a",
    "resource": {
      "resourceType": "Observation",
      "id": "083beaf1-f81b-4995-9053-fe0b51e9861a",
      "meta": {
        "profile": [ "http://hl7.org/fhir/us/qicore/StructureDefinition/qicore-simple-observation" ]
      },
      "status": "final",
      "category": [ {
        "coding": [ {
          "system": "http://terminology.hl7.org/CodeSystem/observation-category",
          "code": "exam",
          "display": "exam",
          "userSelected": true
        } ]
      } ],
      "code": {
        "coding": [ {
          "system": "http://loinc.org",
          "code": "11639-2"
        } ]
      },
      "subject": {
        "reference": "Patient/996a87a2-020a-49e6-bc06-79ecc49cfa73"
      },
      "effectiveDateTime": "2025-09-19T09:00:00.000+00:00",
      "performer": [ {
        "reference": "Organization/example1",
        "display": "Hendricks Country Hospital"
      } ],
      "valueInteger": 0
    },
    "request": {
      "method": "PUT",
      "url": "Observation/083beaf1-f81b-4995-9053-fe0b51e9861a"
    }
  }, {
    "fullUrl": "https://madie.cms.gov/Observation/e8a139b6-1b2e-41db-824d-2f1ab11d2108",
    "resource": {
      "resourceType": "Observation",
      "id": "e8a139b6-1b2e-41db-824d-2f1ab11d2108",
      "meta": {
        "profile": [ "http://hl7.org/fhir/us/qicore/StructureDefinition/qicore-simple-observation" ]
      },
      "status": "final",
      "category": [ {
        "coding": [ {
          "system": "http://terminology.hl7.org/CodeSystem/observation-category",
          "code": "exam",
          "display": "exam",
          "userSelected": true
        } ]
      } ],
      "code": {
        "coding": [ {
          "system": "http://loinc.org",
          "code": "11884-4"
        } ]
      },
      "subject": {
        "reference": "Patient/996a87a2-020a-49e6-bc06-79ecc49cfa73"
      },
      "effectiveDateTime": "2026-06-08T20:00:00.000+00:00",
      "performer": [ {
        "reference": "Organization/example1",
        "display": "Hendricks Country Hospital"
      } ],
      "valueQuantity": {
        "value": 42,
        "system": "http://unitsofmeasure.org",
        "code": "wk"
      }
    },
    "request": {
      "method": "PUT",
      "url": "Observation/e8a139b6-1b2e-41db-824d-2f1ab11d2108"
    }
  }, {
    "fullUrl": "https://madie.cms.gov/Observation/1b93e2e3-039f-4b4f-8755-b65f2a3e3259",
    "resource": {
      "resourceType": "Observation",
      "id": "1b93e2e3-039f-4b4f-8755-b65f2a3e3259",
      "meta": {
        "profile": [ "http://hl7.org/fhir/us/qicore/StructureDefinition/qicore-simple-observation" ]
      },
      "status": "final",
      "category": [ {
        "coding": [ {
          "system": "http://terminology.hl7.org/CodeSystem/observation-category",
          "code": "exam",
          "display": "exam",
          "userSelected": true
        } ]
      } ],
      "code": {
        "coding": [ {
          "system": "http://loinc.org",
          "code": "93857-1"
        } ]
      },
      "subject": {
        "reference": "Patient/996a87a2-020a-49e6-bc06-79ecc49cfa73"
      },
      "effectiveDateTime": "2026-06-08T20:00:00.000+00:00",
      "performer": [ {
        "reference": "Organization/example1",
        "display": "Hendricks Country Hospital"
      } ],
      "valueDateTime": "2026-06-08T20:00:00.000+00:00"
    },
    "request": {
      "method": "PUT",
      "url": "Observation/1b93e2e3-039f-4b4f-8755-b65f2a3e3259"
    }
  }, {
    "fullUrl": "https://madie.cms.gov/Encounter/89cefd14-8739-4560-88a3-6ef4215b91dc",
    "resource": {
      "resourceType": "Encounter",
      "id": "89cefd14-8739-4560-88a3-6ef4215b91dc",
      "meta": {
        "profile": [ "http://hl7.org/fhir/us/qicore/StructureDefinition/qicore-encounter" ]
      },
      "status": "finished",
      "class": {
        "system": "http://terminology.hl7.org/CodeSystem/v3-ActCode",
        "code": "IMP",
        "display": "inpatient encounter"
      },
      "type": [ {
        "coding": [ {
          "system": "http://snomed.info/sct",
          "code": "8715000"
        } ]
      } ],
      "subject": {
        "reference": "Patient/996a87a2-020a-49e6-bc06-79ecc49cfa73"
      },
      "period": {
        "start": "2026-06-08T08:00:00.000+00:00",
        "end": "2026-06-10T08:15:00.000+00:00"
      },
      "length": {
        "value": 2,
        "unit": "days"
      },
      "reasonCode": [ {
        "coding": [ {
          "system": "http://snomed.info/sct",
          "code": "169826009",
          "display": "Single live birth from singleton pregnancy (finding)"
        } ]
      } ]
    },
    "request": {
      "method": "PUT",
      "url": "Encounter/89cefd14-8739-4560-88a3-6ef4215b91dc"
    }
  }, {
    "fullUrl": "https://madie.cms.gov/Procedure/23c34cf5-9ff2-4046-8898-e06fb39cb6a1",
    "resource": {
      "resourceType": "Procedure",
      "id": "23c34cf5-9ff2-4046-8898-e06fb39cb6a1",
      "meta": {
        "profile": [ "http://hl7.org/fhir/us/qicore/StructureDefinition/qicore-procedure" ]
      },
      "extension": [ {
        "url": "http://hl7.org/fhir/us/qicore/StructureDefinition/qicore-recorded",
        "valueDateTime": "2014-04-05T13:35:00.000+00:00"
      } ],
      "status": "completed",
      "code": {
        "coding": [ {
          "system": "http://www.cms.gov/Medicare/Coding/ICD10",
          "code": "10D00Z0"
        }, {
          "system": "http://snomed.info/sct",
          "code": "4504004"
        } ]
      },
      "subject": {
        "reference": "Patient/996a87a2-020a-49e6-bc06-79ecc49cfa73"
      },
      "performedPeriod": {
        "start": "2026-06-08T20:00:00.000+00:00",
        "end": "2026-06-08T20:15:00.000+00:00"
      }
    },
    "request": {
      "method": "PUT",
      "url": "Procedure/23c34cf5-9ff2-4046-8898-e06fb39cb6a1"
    }
  }, {
    "fullUrl": "https://madie.cms.gov/Condition/29bb6d72-4f5a-4e31-97bf-1e45a7a3b0ee",
    "resource": {
      "resourceType": "Condition",
      "id": "29bb6d72-4f5a-4e31-97bf-1e45a7a3b0ee",
      "meta": {
        "profile": [ "http://hl7.org/fhir/us/qicore/StructureDefinition/qicore-condition-encounter-diagnosis" ]
      },
      "category": [ {
        "coding": [ {
          "system": "http://terminology.hl7.org/CodeSystem/condition-category",
          "code": "encounter-diagnosis",
          "display": "Encounter Diagnosis"
        } ]
      } ],
      "code": {
        "coding": [ {
          "system": "http://snomed.info/sct",
          "version": "2022-09",
          "code": "169826009",
          "display": "Single live birth from singleton pregnancy (finding)",
          "userSelected": true
        } ]
      },
      "subject": {
        "reference": "Patient/996a87a2-020a-49e6-bc06-79ecc49cfa73"
      },
      "encounter": {
        "reference": "Encounter/89cefd14-8739-4560-88a3-6ef4215b91dc"
      },
      "recordedDate": "2026-10-20T08:00:00.000+00:00"
    },
    "request": {
      "method": "PUT",
      "url": "Condition/29bb6d72-4f5a-4e31-97bf-1e45a7a3b0ee"
    }
  }, {
    "fullUrl": "https://madie.cms.gov/Coverage/eae45497-11db-41bd-bcb6-6810b4a7bdd8",
    "resource": {
      "resourceType": "Coverage",
      "id": "eae45497-11db-41bd-bcb6-6810b4a7bdd8",
      "meta": {
        "profile": [ "http://hl7.org/fhir/us/qicore/StructureDefinition/qicore-coverage" ]
      },
      "status": "active",
      "subscriberId": "523435",
      "beneficiary": {
        "reference": "Patient/996a87a2-020a-49e6-bc06-79ecc49cfa73"
      },
      "relationship": {
        "coding": [ {
          "system": "http://terminology.hl7.org/CodeSystem/subscriber-relationship",
          "code": "self"
        } ]
      },
      "payor": [ {
        "reference": "Organization/6c0797fb-b883-4a4b-b649-fd8e9111337d"
      } ]
    },
    "request": {
      "method": "PUT",
      "url": "Coverage/eae45497-11db-41bd-bcb6-6810b4a7bdd8"
    }
  }, {
    "fullUrl": "https://madie.cms.gov/Organization/6c0797fb-b883-4a4b-b649-fd8e9111337d",
    "resource": {
      "resourceType": "Organization",
      "id": "6c0797fb-b883-4a4b-b649-fd8e9111337d",
      "meta": {
        "profile": [ "http://hl7.org/fhir/us/qicore/StructureDefinition/qicore-organization" ]
      },
      "identifier": [ {
        "use": "temp",
        "system": "urn:oid:2.16.840.1.113883.4.4",
        "value": "21-3259825"
      } ],
      "active": true,
      "type": [ {
        "coding": [ {
          "system": "http://terminology.hl7.org/CodeSystem/organization-type",
          "code": "pay",
          "display": "Payer"
        } ]
      } ],
      "name": "Blue Cross Blue Shield of Texas",
      "telecom": [ {
        "system": "phone",
        "value": "(+1) 972-766-6900"
      } ],
      "address": [ {
        "use": "billing",
        "type": "postal",
        "line": [ "P.O. Box 660044" ],
        "city": "Dallas",
        "state": "TX",
        "postalCode": "75266-0044",
        "country": "USA"
      } ]
    },
    "request": {
      "method": "PUT",
      "url": "Organization/6c0797fb-b883-4a4b-b649-fd8e9111337d"
    }
  }, {
    "fullUrl": "https://madie.cms.gov/Practitioner/929e39d6-f56b-4b46-b7f3-664e5df58329",
    "resource": {
      "resourceType": "Practitioner",
      "id": "929e39d6-f56b-4b46-b7f3-664e5df58329",
      "meta": {
        "profile": [ "http://hl7.org/fhir/us/qicore/StructureDefinition/qicore-practitioner" ]
      },
      "identifier": [ {
        "system": "http://hl7.org/fhir/sid/us-npi",
        "value": "1234567899"
      } ],
      "name": [ {
        "family": "Evil",
        "prefix": [ "Dr" ]
      } ]
    },
    "request": {
      "method": "PUT",
      "url": "Practitioner/929e39d6-f56b-4b46-b7f3-664e5df58329"
    }
  }, {
    "fullUrl": "https://madie.cms.gov/MeasureReport/ed988077-1e03-44a5-b5d3-c37b26e221ee",
    "resource": {
      "resourceType": "MeasureReport",
      "id": "ed988077-1e03-44a5-b5d3-c37b26e221ee",
      "meta": {
        "profile": [ "http://hl7.org/fhir/us/cqfmeasures/StructureDefinition/test-case-cqfm" ]
      },
      "contained": [ {
        "resourceType": "Parameters",
        "id": "34c03136-96c6-445d-ba62-966057b6424f-parameters",
        "parameter": [ {
          "name": "subject",
          "valueString": "996a87a2-020a-49e6-bc06-79ecc49cfa73"
        } ]
      } ],
      "extension": [ {
        "url": "http://hl7.org/fhir/StructureDefinition/cqf-inputParameters",
        "valueReference": {
          "reference": "#34c03136-96c6-445d-ba62-966057b6424f-parameters"
        }
      }, {
        "url": "http://hl7.org/fhir/us/cqfmeasures/StructureDefinition/cqfm-testCaseDescription",
        "valueMarkdown": "Preterm = 0, Relative Period Start Time is 42 weeks 1 Minute before Delivery Date/Time.  Denom will fail."
      } ],
      "modifierExtension": [ {
        "url": "http://hl7.org/fhir/us/cqfmeasures/StructureDefinition/cqfm-isTestCase",
        "valueBoolean": true
      } ],
      "status": "complete",
      "type": "individual",
      "measure": "https://madie.cms.gov/Measure/CMS0334FHIRPCCesareanBirth",
      "period": {
        "start": "2026-01-01",
        "end": "2026-12-31"
      },
      "group": [ {
        "id": "Group_1",
        "population": [ {
          "id": "InitialPopulation_1",
          "code": {
            "coding": [ {
              "system": "http://terminology.hl7.org/CodeSystem/measure-population",
              "code": "initial-population",
              "display": "Initial Population"
            } ]
          },
          "count": 1
        }, {
          "id": "Denominator_1",
          "code": {
            "coding": [ {
              "system": "http://terminology.hl7.org/CodeSystem/measure-population",
              "code": "denominator",
              "display": "Denominator"
            } ]
          },
          "count": 0
        }, {
          "id": "DenominatorExclusion_1",
          "code": {
            "coding": [ {
              "system": "http://terminology.hl7.org/CodeSystem/measure-population",
              "code": "denominator-exclusion",
              "display": "Denominator Exclusion"
            } ]
          },
          "count": 0
        }, {
          "id": "Numerator_1",
          "code": {
            "coding": [ {
              "system": "http://terminology.hl7.org/CodeSystem/measure-population",
              "code": "numerator",
              "display": "Numerator"
            } ]
          },
          "count": 0
        } ],
        "measureScore": {
          "value": 0.0
        }
      } ],
      "evaluatedResource": [ {
        "reference": "Patient/996a87a2-020a-49e6-bc06-79ecc49cfa73"
      }, {
        "reference": "Observation/cea82f65-5eca-4342-bcf6-08893f7d5e3c"
      }, {
        "reference": "Observation/083beaf1-f81b-4995-9053-fe0b51e9861a"
      }, {
        "reference": "Observation/e8a139b6-1b2e-41db-824d-2f1ab11d2108"
      }, {
        "reference": "Observation/1b93e2e3-039f-4b4f-8755-b65f2a3e3259"
      }, {
        "reference": "Encounter/89cefd14-8739-4560-88a3-6ef4215b91dc"
      }, {
        "reference": "Procedure/23c34cf5-9ff2-4046-8898-e06fb39cb6a1"
      }, {
        "reference": "Condition/29bb6d72-4f5a-4e31-97bf-1e45a7a3b0ee"
      }, {
        "reference": "Coverage/eae45497-11db-41bd-bcb6-6810b4a7bdd8"
      }, {
        "reference": "Organization/6c0797fb-b883-4a4b-b649-fd8e9111337d"
      }, {
        "reference": "Practitioner/929e39d6-f56b-4b46-b7f3-664e5df58329"
      } ]
    },
    "request": {
      "method": "PUT",
      "url": "MeasureReport/ed988077-1e03-44a5-b5d3-c37b26e221ee"
    }
  } ]
}