{
  "resourceType": "Bundle",
  "id": "SDEPass-SDECoverage",
  "type": "transaction",
  "entry": [ {
    "fullUrl": "https://madie.cms.gov/Patient/eab86b9c-b8e8-4f60-837f-8f9aa6f039ee",
    "resource": {
      "resourceType": "Patient",
      "id": "eab86b9c-b8e8-4f60-837f-8f9aa6f039ee",
      "meta": {
        "profile": [ "http://hl7.org/fhir/us/qicore/StructureDefinition/qicore-patient" ]
      },
      "extension": [ {
        "url": "http://hl7.org/fhir/us/core/StructureDefinition/us-core-race",
        "extension": [ {
          "url": "ombCategory",
          "valueCoding": {
            "system": "urn:oid:2.16.840.1.113883.6.238",
            "code": "2028-9",
            "display": "Asian",
            "userSelected": true
          }
        }, {
          "url": "text",
          "valueString": "Asian"
        }, {
          "url": "detailed",
          "valueCoding": {
            "system": "urn:oid:2.16.840.1.113883.6.238",
            "code": "1653-5",
            "display": "Tohono O'Odham"
          }
        } ]
      }, {
        "url": "http://hl7.org/fhir/us/core/StructureDefinition/us-core-ethnicity",
        "extension": [ {
          "url": "ombCategory",
          "valueCoding": {
            "system": "urn:oid:2.16.840.1.113883.6.238",
            "code": "2135-2",
            "display": "Hispanic or Latino",
            "userSelected": true
          }
        }, {
          "url": "text",
          "valueString": "Hispanic or Latino"
        }, {
          "url": "detailed",
          "valueCoding": {
            "system": "urn:oid:2.16.840.1.113883.6.238",
            "code": "2180-8",
            "display": "Puerto Rican"
          }
        } ]
      }, {
        "url": "http://hl7.org/fhir/us/core/StructureDefinition/us-core-sex",
        "valueCode": "248152002"
      } ],
      "identifier": [ {
        "system": "http://hospital.smarthealthit.org",
        "value": "999999995"
      } ],
      "name": [ {
        "family": "SDE",
        "given": [ "SDECoverage" ]
      } ],
      "gender": "unknown",
      "birthDate": "2007-12-31"
    },
    "request": {
      "method": "PUT",
      "url": "Patient/eab86b9c-b8e8-4f60-837f-8f9aa6f039ee"
    }
  }, {
    "fullUrl": "https://madie.cms.gov/Encounter/7dac3a26-6ef4-4881-906f-ffec9b68329a",
    "resource": {
      "resourceType": "Encounter",
      "id": "7dac3a26-6ef4-4881-906f-ffec9b68329a",
      "meta": {
        "profile": [ "http://hl7.org/fhir/us/qicore/StructureDefinition/qicore-encounter" ]
      },
      "status": "finished",
      "class": {
        "system": "http://terminology.hl7.org/CodeSystem/v3-ActCode",
        "code": "AMB",
        "display": "ambulatory"
      },
      "type": [ {
        "coding": [ {
          "system": "http://snomed.info/sct",
          "code": "401267002",
          "display": "Telephone triage encounter (procedure)"
        } ]
      } ],
      "subject": {
        "reference": "Patient/eab86b9c-b8e8-4f60-837f-8f9aa6f039ee"
      },
      "period": {
        "start": "2026-01-01T00:00:00.000+00:00",
        "end": "2026-01-01T00:00:00.000+00:00"
      }
    },
    "request": {
      "method": "PUT",
      "url": "Encounter/7dac3a26-6ef4-4881-906f-ffec9b68329a"
    }
  }, {
    "fullUrl": "https://madie.cms.gov/Coverage/0c3664d6-6c1b-4b4f-b9a6-54af02705553",
    "resource": {
      "resourceType": "Coverage",
      "id": "0c3664d6-6c1b-4b4f-b9a6-54af02705553",
      "meta": {
        "profile": [ "http://hl7.org/fhir/us/qicore/StructureDefinition/qicore-coverage" ]
      },
      "identifier": [ {
        "system": "http://benefitsinc.com/certificate",
        "value": "12345"
      } ],
      "status": "active",
      "type": {
        "coding": [ {
          "system": "https://nahdo.org/sopt",
          "code": "59",
          "display": "Other Private Insurance"
        } ]
      },
      "policyHolder": {
        "reference": "Patient/eab86b9c-b8e8-4f60-837f-8f9aa6f039ee"
      },
      "subscriber": {
        "reference": "Patient/eab86b9c-b8e8-4f60-837f-8f9aa6f039ee"
      },
      "subscriberId": "12191",
      "beneficiary": {
        "reference": "Patient/eab86b9c-b8e8-4f60-837f-8f9aa6f039ee"
      },
      "dependent": "0",
      "relationship": {
        "coding": [ {
          "system": "http://terminology.hl7.org/CodeSystem/subscriber-relationship",
          "code": "self"
        } ]
      },
      "period": {
        "start": "2023-01-01T06:00:00.000+00:00",
        "end": "2023-01-01T11:06:01.000+00:00"
      },
      "payor": [ {
        "reference": "Patient/eab86b9c-b8e8-4f60-837f-8f9aa6f039ee"
      } ],
      "order": 9
    },
    "request": {
      "method": "PUT",
      "url": "Coverage/0c3664d6-6c1b-4b4f-b9a6-54af02705553"
    }
  }, {
    "fullUrl": "https://madie.cms.gov/Condition/2032ebe7-984d-4a90-bc5d-0584ce2ccad2",
    "resource": {
      "resourceType": "Condition",
      "id": "2032ebe7-984d-4a90-bc5d-0584ce2ccad2",
      "meta": {
        "profile": [ "http://hl7.org/fhir/us/qicore/StructureDefinition/qicore-condition-encounter-diagnosis" ]
      },
      "clinicalStatus": {
        "coding": [ {
          "system": "http://terminology.hl7.org/CodeSystem/condition-clinical",
          "code": "active"
        } ]
      },
      "category": [ {
        "coding": [ {
          "system": "http://terminology.hl7.org/CodeSystem/condition-category",
          "code": "encounter-diagnosis",
          "display": "Encounter Diagnosis"
        } ]
      } ],
      "code": {
        "coding": [ {
          "system": "http://snomed.info/sct",
          "code": "102781000119107",
          "display": "Sensory neuropathy due to type 1 diabetes mellitus (disorder)"
        } ]
      },
      "subject": {
        "reference": "Patient/eab86b9c-b8e8-4f60-837f-8f9aa6f039ee"
      },
      "onsetDateTime": "2026-01-01T00:00:00.000+00:00"
    },
    "request": {
      "method": "PUT",
      "url": "Condition/2032ebe7-984d-4a90-bc5d-0584ce2ccad2"
    }
  }, {
    "fullUrl": "https://madie.cms.gov/MeasureReport/5e0d8a67-3a1b-4be7-ab42-74bda40b2261",
    "resource": {
      "resourceType": "MeasureReport",
      "id": "5e0d8a67-3a1b-4be7-ab42-74bda40b2261",
      "meta": {
        "profile": [ "http://hl7.org/fhir/us/cqfmeasures/StructureDefinition/test-case-cqfm" ]
      },
      "contained": [ {
        "resourceType": "Parameters",
        "id": "e7066d11-e76f-46ee-bcfb-384d49080a8b-parameters",
        "parameter": [ {
          "name": "subject",
          "valueString": "eab86b9c-b8e8-4f60-837f-8f9aa6f039ee"
        } ]
      } ],
      "extension": [ {
        "url": "http://hl7.org/fhir/StructureDefinition/cqf-inputParameters",
        "valueReference": {
          "reference": "#e7066d11-e76f-46ee-bcfb-384d49080a8b-parameters"
        }
      }, {
        "url": "http://hl7.org/fhir/us/cqfmeasures/StructureDefinition/cqfm-testCaseDescription",
        "valueMarkdown": "For meeting SDE 100% coverage - patient sex female"
      } ],
      "modifierExtension": [ {
        "url": "http://hl7.org/fhir/us/cqfmeasures/StructureDefinition/cqfm-isTestCase",
        "valueBoolean": true
      } ],
      "status": "complete",
      "type": "individual",
      "measure": "https://madie.cms.gov/Measure/CMS131FHIRDiabetesEyeExam",
      "period": {
        "start": "2026-01-01",
        "end": "2026-12-31"
      },
      "group": [ {
        "id": "Group_1",
        "population": [ {
          "id": "InitialPopulation_1",
          "code": {
            "coding": [ {
              "system": "http://terminology.hl7.org/CodeSystem/measure-population",
              "code": "initial-population",
              "display": "Initial Population"
            } ]
          },
          "count": 1
        }, {
          "id": "Denominator_1",
          "code": {
            "coding": [ {
              "system": "http://terminology.hl7.org/CodeSystem/measure-population",
              "code": "denominator",
              "display": "Denominator"
            } ]
          },
          "count": 1
        }, {
          "id": "DenominatorExclusion_1",
          "code": {
            "coding": [ {
              "system": "http://terminology.hl7.org/CodeSystem/measure-population",
              "code": "denominator-exclusion",
              "display": "Denominator Exclusion"
            } ]
          },
          "count": 0
        }, {
          "id": "Numerator_1",
          "code": {
            "coding": [ {
              "system": "http://terminology.hl7.org/CodeSystem/measure-population",
              "code": "numerator",
              "display": "Numerator"
            } ]
          },
          "count": 0
        } ],
        "measureScore": {
          "value": 1.0
        }
      } ],
      "evaluatedResource": [ {
        "reference": "Patient/eab86b9c-b8e8-4f60-837f-8f9aa6f039ee"
      }, {
        "reference": "Encounter/7dac3a26-6ef4-4881-906f-ffec9b68329a"
      }, {
        "reference": "Coverage/0c3664d6-6c1b-4b4f-b9a6-54af02705553"
      }, {
        "reference": "Condition/2032ebe7-984d-4a90-bc5d-0584ce2ccad2"
      } ]
    },
    "request": {
      "method": "PUT",
      "url": "MeasureReport/5e0d8a67-3a1b-4be7-ab42-74bda40b2261"
    }
  } ]
}