{
  "resourceType": "Bundle",
  "id": "641369694b11b147841ab8ab",
  "type": "transaction",
  "entry": [ {
    "fullUrl": "https://madie.cms.gov/Patient/b6ac3dd1-ff55-4152-be9a-153cad2ba2a2",
    "resource": {
      "resourceType": "Patient",
      "id": "b6ac3dd1-ff55-4152-be9a-153cad2ba2a2",
      "meta": {
        "profile": [ "http://hl7.org/fhir/us/qicore/StructureDefinition/qicore-patient" ]
      },
      "extension": [ {
        "url": "http://hl7.org/fhir/us/core/StructureDefinition/us-core-race",
        "extension": [ {
          "url": "ombCategory",
          "valueCoding": {
            "system": "urn:oid:2.16.840.1.113883.6.238",
            "code": "2076-8",
            "display": "Native Hawaiian or Other Pacific Islander",
            "userSelected": true
          }
        }, {
          "url": "text",
          "valueString": "Native Hawaiian or Other Pacific Islander"
        } ]
      }, {
        "url": "http://hl7.org/fhir/us/core/StructureDefinition/us-core-ethnicity",
        "extension": [ {
          "url": "ombCategory",
          "valueCoding": {
            "system": "urn:oid:2.16.840.1.113883.6.238",
            "code": "2186-5",
            "display": "Not Hispanic or Latino",
            "userSelected": true
          }
        }, {
          "url": "text",
          "valueString": "Not Hispanic or Latino"
        } ]
      } ],
      "identifier": [ {
        "type": {
          "coding": [ {
            "system": "http://terminology.hl7.org/CodeSystem/v2-0203",
            "code": "MR"
          } ]
        },
        "system": "https://bonnie-fhir.healthit.gov/",
        "value": "641369694b11b147841ab8ab"
      } ],
      "name": [ {
        "family": "DENEXPass",
        "given": [ "EncounterPerfPalliativeCare" ]
      } ],
      "gender": "male",
      "birthDate": "1965-03-22"
    },
    "request": {
      "method": "PUT",
      "url": "Patient/b6ac3dd1-ff55-4152-be9a-153cad2ba2a2"
    }
  }, {
    "fullUrl": "https://madie.cms.gov/Condition/412ce4a1-628d-4d5e-a19d-5f2a15ed4d30",
    "resource": {
      "resourceType": "Condition",
      "id": "412ce4a1-628d-4d5e-a19d-5f2a15ed4d30",
      "meta": {
        "profile": [ "http://hl7.org/fhir/us/qicore/StructureDefinition/qicore-condition-encounter-diagnosis" ]
      },
      "clinicalStatus": {
        "coding": [ {
          "system": "http://terminology.hl7.org/CodeSystem/condition-clinical",
          "code": "active",
          "display": "active",
          "userSelected": true
        } ]
      },
      "category": [ {
        "coding": [ {
          "system": "http://terminology.hl7.org/CodeSystem/condition-category",
          "code": "encounter-diagnosis",
          "display": "Encounter Diagnosis",
          "userSelected": true
        } ]
      } ],
      "code": {
        "coding": [ {
          "system": "http://snomed.info/sct",
          "version": "2021-09",
          "code": "102781000119107",
          "display": "Sensory neuropathy due to type 1 diabetes mellitus (disorder)",
          "userSelected": true
        } ]
      },
      "subject": {
        "reference": "Patient/b6ac3dd1-ff55-4152-be9a-153cad2ba2a2"
      },
      "onsetDateTime": "2025-11-08T08:00:00.000+00:00"
    },
    "request": {
      "method": "PUT",
      "url": "Condition/412ce4a1-628d-4d5e-a19d-5f2a15ed4d30"
    }
  }, {
    "fullUrl": "https://madie.cms.gov/Encounter/46c3e911-575f-427f-8a77-50bf310443f7",
    "resource": {
      "resourceType": "Encounter",
      "id": "46c3e911-575f-427f-8a77-50bf310443f7",
      "meta": {
        "profile": [ "http://hl7.org/fhir/us/qicore/StructureDefinition/qicore-encounter" ]
      },
      "status": "finished",
      "class": {
        "system": "http://terminology.hl7.org/CodeSystem/v3-ActCode",
        "code": "AMB",
        "display": "ambulatory",
        "userSelected": true
      },
      "type": [ {
        "coding": [ {
          "system": "http://snomed.info/sct",
          "version": "2021-09",
          "code": "444971000124105",
          "display": "Annual wellness visit (procedure)",
          "userSelected": true
        } ]
      } ],
      "subject": {
        "reference": "Patient/b6ac3dd1-ff55-4152-be9a-153cad2ba2a2"
      },
      "period": {
        "start": "2026-03-16T08:00:00.000+00:00",
        "end": "2026-03-16T08:15:00.000+00:00"
      }
    },
    "request": {
      "method": "PUT",
      "url": "Encounter/46c3e911-575f-427f-8a77-50bf310443f7"
    }
  }, {
    "fullUrl": "https://madie.cms.gov/Encounter/ecfaca0d-2b8d-4b22-ad37-62b4ab7f8123",
    "resource": {
      "resourceType": "Encounter",
      "id": "ecfaca0d-2b8d-4b22-ad37-62b4ab7f8123",
      "meta": {
        "profile": [ "http://hl7.org/fhir/us/qicore/StructureDefinition/qicore-encounter" ]
      },
      "status": "finished",
      "class": {
        "system": "http://terminology.hl7.org/CodeSystem/v3-ActCode",
        "code": "AMB",
        "display": "ambulatory",
        "userSelected": true
      },
      "type": [ {
        "coding": [ {
          "system": "http://snomed.info/sct",
          "version": "2021-09",
          "code": "305284002",
          "display": "Admission by palliative care physician (procedure)",
          "userSelected": true
        } ]
      } ],
      "subject": {
        "reference": "Patient/b6ac3dd1-ff55-4152-be9a-153cad2ba2a2"
      },
      "period": {
        "start": "2026-03-16T08:00:00.000+00:00",
        "end": "2026-03-16T08:15:00.000+00:00"
      }
    },
    "request": {
      "method": "PUT",
      "url": "Encounter/ecfaca0d-2b8d-4b22-ad37-62b4ab7f8123"
    }
  }, {
    "fullUrl": "https://madie.cms.gov/MeasureReport/e9edfb1a-5fcc-4e64-8087-94a9c47088af",
    "resource": {
      "resourceType": "MeasureReport",
      "id": "e9edfb1a-5fcc-4e64-8087-94a9c47088af",
      "meta": {
        "profile": [ "http://hl7.org/fhir/us/cqfmeasures/StructureDefinition/test-case-cqfm" ]
      },
      "contained": [ {
        "resourceType": "Parameters",
        "id": "63d50d72-cebe-4359-9379-963a4d89f438-parameters",
        "parameter": [ {
          "name": "subject",
          "valueString": "b6ac3dd1-ff55-4152-be9a-153cad2ba2a2"
        } ]
      } ],
      "extension": [ {
        "url": "http://hl7.org/fhir/StructureDefinition/cqf-inputParameters",
        "valueReference": {
          "reference": "#63d50d72-cebe-4359-9379-963a4d89f438-parameters"
        }
      }, {
        "url": "http://hl7.org/fhir/us/cqfmeasures/StructureDefinition/cqfm-testCaseDescription",
        "valueMarkdown": "This patient is 71 years old with a qualifying encounter and active diabetes diagnosis, with a Palliative Care in the Measurement Period. This case tests the denominator exclusion criteria."
      } ],
      "modifierExtension": [ {
        "url": "http://hl7.org/fhir/us/cqfmeasures/StructureDefinition/cqfm-isTestCase",
        "valueBoolean": true
      } ],
      "status": "complete",
      "type": "individual",
      "measure": "https://madie.cms.gov/Measure/CMS951FHIRKidneyHealthEval",
      "period": {
        "start": "2026-01-01",
        "end": "2026-12-31"
      },
      "group": [ {
        "id": "Group_1",
        "population": [ {
          "id": "InitialPopulation_1",
          "code": {
            "coding": [ {
              "system": "http://terminology.hl7.org/CodeSystem/measure-population",
              "code": "initial-population",
              "display": "Initial Population"
            } ]
          },
          "count": 1
        }, {
          "id": "Denominator_1",
          "code": {
            "coding": [ {
              "system": "http://terminology.hl7.org/CodeSystem/measure-population",
              "code": "denominator",
              "display": "Denominator"
            } ]
          },
          "count": 1
        }, {
          "id": "DenominatorExclusion_1",
          "code": {
            "coding": [ {
              "system": "http://terminology.hl7.org/CodeSystem/measure-population",
              "code": "denominator-exclusion",
              "display": "Denominator Exclusion"
            } ]
          },
          "count": 1
        }, {
          "id": "Numerator_1",
          "code": {
            "coding": [ {
              "system": "http://terminology.hl7.org/CodeSystem/measure-population",
              "code": "numerator",
              "display": "Numerator"
            } ]
          },
          "count": 0
        } ],
        "measureScore": {
          "value": 1.0
        }
      } ],
      "evaluatedResource": [ {
        "reference": "Patient/b6ac3dd1-ff55-4152-be9a-153cad2ba2a2"
      }, {
        "reference": "Condition/412ce4a1-628d-4d5e-a19d-5f2a15ed4d30"
      }, {
        "reference": "Encounter/46c3e911-575f-427f-8a77-50bf310443f7"
      }, {
        "reference": "Encounter/ecfaca0d-2b8d-4b22-ad37-62b4ab7f8123"
      } ]
    },
    "request": {
      "method": "PUT",
      "url": "MeasureReport/e9edfb1a-5fcc-4e64-8087-94a9c47088af"
    }
  } ]
}