{
  "resourceType": "Bundle",
  "id": "tests-NUMERFail-TwoLabTestsNoGlucoseResults-bundle",
  "type": "transaction",
  "entry": [ {
    "fullUrl": "https://madie.cms.gov/Encounter/d445569f-1f7c-4361-b2af-e8a1d541b2fb",
    "resource": {
      "resourceType": "Encounter",
      "id": "d445569f-1f7c-4361-b2af-e8a1d541b2fb",
      "meta": {
        "profile": [ "http://hl7.org/fhir/us/qicore/StructureDefinition/qicore-encounter" ]
      },
      "status": "finished",
      "class": {
        "system": "http://terminology.hl7.org/CodeSystem/v3-ActCode",
        "code": "IMP",
        "display": "Inpatient encounter"
      },
      "type": [ {
        "coding": [ {
          "system": "http://snomed.info/sct",
          "code": "183452005",
          "display": "Emergency hospital admission"
        } ]
      } ],
      "subject": {
        "reference": "Patient/4dfc0e9d-b9e5-423c-9354-e9fcb83eda20"
      },
      "period": {
        "start": "2026-01-11T08:00:00.000Z",
        "end": "2026-01-12T21:00:00.000Z"
      }
    },
    "request": {
      "method": "PUT",
      "url": "Encounter/d445569f-1f7c-4361-b2af-e8a1d541b2fb"
    }
  }, {
    "fullUrl": "https://madie.cms.gov/MedicationAdministration/ba925bb7-760e-43ec-9d27-80c79a9ccc9a",
    "resource": {
      "resourceType": "MedicationAdministration",
      "id": "ba925bb7-760e-43ec-9d27-80c79a9ccc9a",
      "meta": {
        "profile": [ "http://hl7.org/fhir/us/qicore/StructureDefinition/qicore-medicationadministration" ]
      },
      "status": "completed",
      "medicationCodeableConcept": {
        "coding": [ {
          "system": "http://www.nlm.nih.gov/research/umls/rxnorm",
          "code": "1654910",
          "display": "insulin, regular, human 12 UNT Inhalation Powder"
        } ]
      },
      "subject": {
        "reference": "Patient/4dfc0e9d-b9e5-423c-9354-e9fcb83eda20"
      },
      "effectivePeriod": {
        "start": "2026-01-11T08:00:00.000Z",
        "end": "2026-01-11T09:00:00.000Z"
      }
    },
    "request": {
      "method": "PUT",
      "url": "MedicationAdministration/ba925bb7-760e-43ec-9d27-80c79a9ccc9a"
    }
  }, {
    "fullUrl": "https://madie.cms.gov/Observation/88912aec-a0f7-48b0-8802-48f98e69fdd2",
    "resource": {
      "resourceType": "Observation",
      "id": "88912aec-a0f7-48b0-8802-48f98e69fdd2",
      "meta": {
        "profile": [ "http://hl7.org/fhir/us/qicore/StructureDefinition/qicore-observation-lab" ]
      },
      "status": "final",
      "category": [ {
        "coding": [ {
          "system": "http://terminology.hl7.org/CodeSystem/observation-category",
          "code": "laboratory",
          "display": "Laboratory"
        } ],
        "text": "Laboratory"
      } ],
      "code": {
        "coding": [ {
          "system": "http://loinc.org",
          "code": "1556-0",
          "display": "Fasting glucose [Mass/volume] in Capillary blood"
        } ]
      },
      "subject": {
        "reference": "Patient/4dfc0e9d-b9e5-423c-9354-e9fcb83eda20"
      },
      "effectivePeriod": {
        "start": "2026-01-11T08:00:00.000Z",
        "end": "2026-01-11T08:00:00.000Z"
      },
      "issued": "2026-01-11T08:00:00.000Z",
      "valueCodeableConcept": {
        "coding": [ {
          "system": "http://snomed.info/sct",
          "code": "260385009",
          "display": "Negative"
        }, {
          "system": "https://hl7.org/fhir/R4/codesystem-data-absent-reason.html",
          "code": "unknown",
          "display": "Unknown"
        } ],
        "text": "Glucose value not present"
      }
    },
    "request": {
      "method": "PUT",
      "url": "Observation/88912aec-a0f7-48b0-8802-48f98e69fdd2"
    }
  }, {
    "fullUrl": "https://madie.cms.gov/Observation/d48a36e3-0fef-4da6-ba5e-00687d4c758f",
    "resource": {
      "resourceType": "Observation",
      "id": "d48a36e3-0fef-4da6-ba5e-00687d4c758f",
      "meta": {
        "profile": [ "http://hl7.org/fhir/us/qicore/StructureDefinition/qicore-observation-lab" ]
      },
      "status": "final",
      "category": [ {
        "coding": [ {
          "system": "http://terminology.hl7.org/CodeSystem/observation-category",
          "code": "laboratory",
          "display": "Laboratory"
        } ],
        "text": "Laboratory"
      } ],
      "code": {
        "coding": [ {
          "system": "http://loinc.org",
          "code": "1556-0",
          "display": "Fasting glucose [Mass/volume] in Capillary blood"
        } ]
      },
      "subject": {
        "reference": "Patient/4dfc0e9d-b9e5-423c-9354-e9fcb83eda20"
      },
      "effectivePeriod": {
        "start": "2026-01-11T09:01:00.000Z",
        "end": "2026-01-11T09:01:00.000Z"
      },
      "issued": "2026-01-11T09:01:00.000Z",
      "valueCodeableConcept": {
        "coding": [ {
          "system": "http://snomed.info/sct",
          "code": "260385009",
          "display": "Negative"
        }, {
          "system": "https://hl7.org/fhir/R4/codesystem-data-absent-reason.html",
          "code": "unknown",
          "display": "Unknown"
        } ],
        "text": "Glucose value not present"
      }
    },
    "request": {
      "method": "PUT",
      "url": "Observation/d48a36e3-0fef-4da6-ba5e-00687d4c758f"
    }
  }, {
    "fullUrl": "https://madie.cms.gov/Patient/4dfc0e9d-b9e5-423c-9354-e9fcb83eda20",
    "resource": {
      "resourceType": "Patient",
      "id": "4dfc0e9d-b9e5-423c-9354-e9fcb83eda20",
      "meta": {
        "profile": [ "http://hl7.org/fhir/us/qicore/StructureDefinition/qicore-patient" ]
      },
      "extension": [ {
        "url": "http://hl7.org/fhir/us/core/StructureDefinition/us-core-race",
        "extension": [ {
          "url": "ombCategory",
          "valueCoding": {
            "system": "urn:oid:2.16.840.1.113883.6.238",
            "code": "2106-3",
            "display": "White"
          }
        }, {
          "url": "text",
          "valueString": "White"
        } ]
      }, {
        "url": "http://hl7.org/fhir/us/core/StructureDefinition/us-core-ethnicity",
        "extension": [ {
          "url": "ombCategory",
          "valueCoding": {
            "system": "urn:oid:2.16.840.1.113883.6.238",
            "code": "2135-2",
            "display": "Hispanic or Latino"
          }
        }, {
          "url": "text",
          "valueString": "Hispanic or Latino"
        } ]
      }, {
        "url": "http://hl7.org/fhir/us/core/StructureDefinition/us-core-sex",
        "valueCode": "248153007"
      } ],
      "identifier": [ {
        "system": "http://hospital.smarthealthit.org",
        "value": "999999999"
      } ],
      "name": [ {
        "family": "CMSNUMERFail",
        "given": [ "TwoLabTestsNoGlucoseResults" ]
      } ],
      "gender": "female",
      "birthDate": "2000-07-11"
    },
    "request": {
      "method": "PUT",
      "url": "Patient/4dfc0e9d-b9e5-423c-9354-e9fcb83eda20"
    }
  }, {
    "fullUrl": "https://madie.cms.gov/MeasureReport/80a2819b-d7b9-4190-af69-a2b5cb73a466",
    "resource": {
      "resourceType": "MeasureReport",
      "id": "80a2819b-d7b9-4190-af69-a2b5cb73a466",
      "meta": {
        "profile": [ "http://hl7.org/fhir/us/cqfmeasures/StructureDefinition/test-case-cqfm" ]
      },
      "contained": [ {
        "resourceType": "Parameters",
        "id": "8856bf14-acb1-4a52-bb73-28b2c6907235-parameters",
        "parameter": [ {
          "name": "subject",
          "valueString": "4dfc0e9d-b9e5-423c-9354-e9fcb83eda20"
        } ]
      } ],
      "extension": [ {
        "url": "http://hl7.org/fhir/StructureDefinition/cqf-inputParameters",
        "valueReference": {
          "reference": "#8856bf14-acb1-4a52-bb73-28b2c6907235-parameters"
        }
      }, {
        "url": "http://hl7.org/fhir/us/cqfmeasures/StructureDefinition/cqfm-testCaseDescription",
        "valueMarkdown": "Encounter, meds administered, two glucose lab tests but no results. Must have results and must be LT 40 to meet numerator. \n\n(CMS #18)"
      } ],
      "modifierExtension": [ {
        "url": "http://hl7.org/fhir/us/cqfmeasures/StructureDefinition/cqfm-isTestCase",
        "valueBoolean": true
      } ],
      "status": "complete",
      "type": "individual",
      "measure": "https://madie.cms.gov/Measure/NHSNGlycemicControlHypoglycemiaInitialPopulation",
      "period": {
        "start": "2026-01-01",
        "end": "2026-12-31"
      },
      "group": [ {
        "id": "Group_1",
        "population": [ {
          "id": "InitialPopulation_1",
          "code": {
            "coding": [ {
              "system": "http://terminology.hl7.org/CodeSystem/measure-population",
              "code": "initial-population",
              "display": "Initial Population"
            } ]
          },
          "count": 1
        } ],
        "measureScore": {
          "value": 0.0
        }
      } ],
      "evaluatedResource": [ {
        "reference": "Encounter/d445569f-1f7c-4361-b2af-e8a1d541b2fb"
      }, {
        "reference": "MedicationAdministration/ba925bb7-760e-43ec-9d27-80c79a9ccc9a"
      }, {
        "reference": "Observation/88912aec-a0f7-48b0-8802-48f98e69fdd2"
      }, {
        "reference": "Observation/d48a36e3-0fef-4da6-ba5e-00687d4c758f"
      }, {
        "reference": "Patient/4dfc0e9d-b9e5-423c-9354-e9fcb83eda20"
      } ]
    },
    "request": {
      "method": "PUT",
      "url": "MeasureReport/80a2819b-d7b9-4190-af69-a2b5cb73a466"
    }
  } ]
}