{
  "resourceType": "Bundle",
  "id": "657cbdc9b4f1f0343662347a",
  "type": "transaction",
  "entry": [ {
    "fullUrl": "https://madie.cms.gov/Patient/12283321-75ca-4c3a-9019-002284d81e89",
    "resource": {
      "resourceType": "Patient",
      "id": "12283321-75ca-4c3a-9019-002284d81e89",
      "meta": {
        "profile": [ "http://hl7.org/fhir/us/qicore/StructureDefinition/qicore-patient" ]
      },
      "extension": [ {
        "url": "http://hl7.org/fhir/us/core/StructureDefinition/us-core-race",
        "extension": [ {
          "url": "ombCategory",
          "valueCoding": {
            "system": "urn:oid:2.16.840.1.113883.6.238",
            "code": "2106-3",
            "display": "White",
            "userSelected": true
          }
        }, {
          "url": "text",
          "valueString": "White"
        } ]
      }, {
        "url": "http://hl7.org/fhir/us/core/StructureDefinition/us-core-ethnicity",
        "extension": [ {
          "url": "ombCategory",
          "valueCoding": {
            "system": "urn:oid:2.16.840.1.113883.6.238",
            "code": "2186-5",
            "display": "Not Hispanic or Latino",
            "userSelected": true
          }
        }, {
          "url": "text",
          "valueString": "Not Hispanic or Latino"
        } ]
      } ],
      "identifier": [ {
        "type": {
          "coding": [ {
            "system": "http://terminology.hl7.org/CodeSystem/v2-0203",
            "code": "MR"
          } ]
        },
        "system": "https://bonnie-fhir.healthit.gov/",
        "value": "657cbdc9b4f1f0343662347a"
      } ],
      "name": [ {
        "family": "InitialPopulationEncountersFail",
        "given": [ "MedicationRequestAfterEncEnd" ]
      } ],
      "gender": "female",
      "birthDate": "2008-01-01"
    },
    "request": {
      "method": "PUT",
      "url": "Patient/12283321-75ca-4c3a-9019-002284d81e89"
    }
  }, {
    "fullUrl": "https://madie.cms.gov/Encounter/4c71083b-69c5-4276-be8c-0b9d340f3440",
    "resource": {
      "resourceType": "Encounter",
      "id": "4c71083b-69c5-4276-be8c-0b9d340f3440",
      "meta": {
        "profile": [ "http://hl7.org/fhir/us/qicore/StructureDefinition/qicore-encounter" ]
      },
      "status": "finished",
      "class": {
        "system": "http://terminology.hl7.org/CodeSystem/v3-ActCode",
        "code": "ACUTE",
        "display": "inpatient acute"
      },
      "type": [ {
        "coding": [ {
          "system": "http://snomed.info/sct",
          "version": "2024",
          "code": "32485007",
          "display": "Hospital admission (procedure)",
          "userSelected": true
        } ]
      } ],
      "subject": {
        "reference": "Patient/12283321-75ca-4c3a-9019-002284d81e89"
      },
      "period": {
        "start": "2026-01-01T08:00:00.000+00:00",
        "end": "2026-01-02T09:15:00.000+00:00"
      },
      "diagnosis": [ {
        "condition": {
          "reference": "Condition/96515cbe-4dfe-43a9-97c9-49bf5aab7b66"
        },
        "use": {
          "coding": [ {
            "system": "http://terminology.hl7.org/CodeSystem/diagnosis-role",
            "code": "billing"
          } ]
        },
        "rank": 1
      } ]
    },
    "request": {
      "method": "PUT",
      "url": "Encounter/4c71083b-69c5-4276-be8c-0b9d340f3440"
    }
  }, {
    "fullUrl": "https://madie.cms.gov/Location/ec01d05a-d14c-4168-b8ca-5ec3d19c1155",
    "resource": {
      "resourceType": "Location",
      "id": "ec01d05a-d14c-4168-b8ca-5ec3d19c1155",
      "meta": {
        "profile": [ "http://hl7.org/fhir/us/qicore/StructureDefinition/qicore-location" ]
      },
      "identifier": [ {
        "use": "usual",
        "system": "http://exampleoflocation.com",
        "value": "B1-S.F2"
      } ],
      "name": "Medical Surgical East, first floor",
      "type": [ {
        "coding": [ {
          "system": "https://www.cdc.gov/nhsn/cdaportal/terminology/codesystem/hsloc.html",
          "code": "1028-0",
          "display": "Medical Cardiac Critical Care",
          "userSelected": true
        } ]
      } ]
    },
    "request": {
      "method": "PUT",
      "url": "Location/ec01d05a-d14c-4168-b8ca-5ec3d19c1155"
    }
  }, {
    "fullUrl": "https://madie.cms.gov/MedicationRequest/4d4dd3f4-5774-4f3c-bed8-47184d05cd8b",
    "resource": {
      "resourceType": "MedicationRequest",
      "id": "4d4dd3f4-5774-4f3c-bed8-47184d05cd8b",
      "meta": {
        "profile": [ "http://hl7.org/fhir/us/qicore/StructureDefinition/qicore-medicationrequest" ]
      },
      "status": "completed",
      "intent": "order",
      "medicationCodeableConcept": {
        "coding": [ {
          "system": "http://www.nlm.nih.gov/research/umls/rxnorm",
          "version": "06052023",
          "code": "1007184"
        } ]
      },
      "subject": {
        "reference": "Patient/12283321-75ca-4c3a-9019-002284d81e89"
      },
      "authoredOn": "2026-01-02T09:30:00.000+00:00",
      "requester": {
        "reference": "Practitioner/33d87640-6b2a-40b0-ab11-542478a88d5a"
      },
      "dosageInstruction": [ {
        "timing": {
          "repeat": {
            "boundsPeriod": {
              "start": "2025-01-01T08:15:00.000+00:00"
            }
          }
        }
      } ]
    },
    "request": {
      "method": "PUT",
      "url": "MedicationRequest/4d4dd3f4-5774-4f3c-bed8-47184d05cd8b"
    }
  }, {
    "fullUrl": "https://madie.cms.gov/Coverage/42e7a431-ed5f-4c8e-adbf-f8e961540fc2",
    "resource": {
      "resourceType": "Coverage",
      "id": "42e7a431-ed5f-4c8e-adbf-f8e961540fc2",
      "meta": {
        "profile": [ "http://hl7.org/fhir/us/qicore/StructureDefinition/qicore-coverage" ]
      },
      "identifier": [ {
        "system": "http://benefitsinc.com/certificate",
        "value": "12345"
      } ],
      "status": "active",
      "type": {
        "coding": [ {
          "system": "https://nahdo.org/sopt",
          "version": "1.0.1",
          "code": "1",
          "display": "MEDICARE",
          "userSelected": true
        } ]
      },
      "subscriberId": "AB9876",
      "beneficiary": {
        "reference": "Patient/12283321-75ca-4c3a-9019-002284d81e89"
      },
      "relationship": {
        "coding": [ {
          "system": "http://terminology.hl7.org/CodeSystem/subscriber-relationship",
          "code": "self"
        } ]
      },
      "payor": [ {
        "reference": "Organization/2afaa94c-dec4-4817-b132-8b9fca9644a2"
      } ]
    },
    "request": {
      "method": "PUT",
      "url": "Coverage/42e7a431-ed5f-4c8e-adbf-f8e961540fc2"
    }
  }, {
    "fullUrl": "https://madie.cms.gov/Organization/2afaa94c-dec4-4817-b132-8b9fca9644a2",
    "resource": {
      "resourceType": "Organization",
      "id": "2afaa94c-dec4-4817-b132-8b9fca9644a2",
      "meta": {
        "profile": [ "http://hl7.org/fhir/us/qicore/StructureDefinition/qicore-organization" ]
      },
      "identifier": [ {
        "use": "temp",
        "system": "urn:oid:2.16.840.1.113883.4.4",
        "value": "21-3259825"
      } ],
      "active": true,
      "type": [ {
        "coding": [ {
          "system": "http://terminology.hl7.org/CodeSystem/organization-type",
          "code": "pay",
          "display": "Payer"
        } ]
      } ],
      "name": "Blue Cross Blue Shield of Texas",
      "telecom": [ {
        "system": "phone",
        "value": "(+1) 972-766-6900"
      } ],
      "address": [ {
        "use": "billing",
        "type": "postal",
        "line": [ "P.O. Box 660044" ],
        "city": "Dallas",
        "state": "TX",
        "postalCode": "75266-0044",
        "country": "USA"
      } ]
    },
    "request": {
      "method": "PUT",
      "url": "Organization/2afaa94c-dec4-4817-b132-8b9fca9644a2"
    }
  }, {
    "fullUrl": "https://madie.cms.gov/Practitioner/0f9d4943-ddba-46e5-81ba-e92f82201a89",
    "resource": {
      "resourceType": "Practitioner",
      "id": "0f9d4943-ddba-46e5-81ba-e92f82201a89",
      "meta": {
        "profile": [ "http://hl7.org/fhir/us/qicore/StructureDefinition/qicore-practitioner" ]
      },
      "identifier": [ {
        "system": "http://hl7.org/fhir/sid/us-npi",
        "value": "0723660813"
      } ],
      "name": [ {
        "family": "Evil",
        "prefix": [ "Dr" ]
      } ]
    },
    "request": {
      "method": "PUT",
      "url": "Practitioner/0f9d4943-ddba-46e5-81ba-e92f82201a89"
    }
  }, {
    "fullUrl": "https://madie.cms.gov/MeasureReport/956964a6-c91c-4eff-99cb-c731c5f85599",
    "resource": {
      "resourceType": "MeasureReport",
      "id": "956964a6-c91c-4eff-99cb-c731c5f85599",
      "meta": {
        "profile": [ "http://hl7.org/fhir/us/cqfmeasures/StructureDefinition/test-case-cqfm" ]
      },
      "contained": [ {
        "resourceType": "Parameters",
        "id": "0f4873ca-68bc-467b-8b94-192cf8134c84-parameters",
        "parameter": [ {
          "name": "subject",
          "valueString": "12283321-75ca-4c3a-9019-002284d81e89"
        } ]
      } ],
      "extension": [ {
        "url": "http://hl7.org/fhir/StructureDefinition/cqf-inputParameters",
        "valueReference": {
          "reference": "#0f4873ca-68bc-467b-8b94-192cf8134c84-parameters"
        }
      }, {
        "url": "http://hl7.org/fhir/us/cqfmeasures/StructureDefinition/cqfm-testCaseDescription",
        "valueMarkdown": "Inpatient encounter with diabetic medication after end of encounter"
      } ],
      "modifierExtension": [ {
        "url": "http://hl7.org/fhir/us/cqfmeasures/StructureDefinition/cqfm-isTestCase",
        "valueBoolean": true
      } ],
      "status": "complete",
      "type": "individual",
      "measure": "https://madie.cms.gov/Measure/NHSNGlycemicControlHypoglycemiaInitialPopulation",
      "period": {
        "start": "2026-01-01",
        "end": "2026-12-31"
      },
      "group": [ {
        "id": "Group_1",
        "population": [ {
          "id": "InitialPopulation_1",
          "code": {
            "coding": [ {
              "system": "http://terminology.hl7.org/CodeSystem/measure-population",
              "code": "initial-population",
              "display": "Initial Population"
            } ]
          },
          "count": 0
        } ],
        "measureScore": {
          "value": 0.0
        }
      } ],
      "evaluatedResource": [ {
        "reference": "Patient/12283321-75ca-4c3a-9019-002284d81e89"
      }, {
        "reference": "Encounter/4c71083b-69c5-4276-be8c-0b9d340f3440"
      }, {
        "reference": "Location/ec01d05a-d14c-4168-b8ca-5ec3d19c1155"
      }, {
        "reference": "MedicationRequest/4d4dd3f4-5774-4f3c-bed8-47184d05cd8b"
      }, {
        "reference": "Coverage/42e7a431-ed5f-4c8e-adbf-f8e961540fc2"
      }, {
        "reference": "Organization/2afaa94c-dec4-4817-b132-8b9fca9644a2"
      }, {
        "reference": "Practitioner/0f9d4943-ddba-46e5-81ba-e92f82201a89"
      } ]
    },
    "request": {
      "method": "PUT",
      "url": "MeasureReport/956964a6-c91c-4eff-99cb-c731c5f85599"
    }
  } ]
}