{
  "resourceType": "Bundle",
  "id": "62c880ec0111a60120dc220b",
  "type": "transaction",
  "entry": [ {
    "fullUrl": "https://madie.cms.gov/Patient/f0f73fe9-f8ae-4994-911f-1745e5efbce3",
    "resource": {
      "resourceType": "Patient",
      "id": "f0f73fe9-f8ae-4994-911f-1745e5efbce3",
      "meta": {
        "profile": [ "http://hl7.org/fhir/us/qicore/StructureDefinition/qicore-patient" ]
      },
      "text": {
        "status": "generated",
        "div": "<div xmlns=\"http://www.w3.org/1999/xhtml\"><div class=\"hapiHeaderText\">CancerDxEndsPriorOfficeEnc<b>IPPFAILPOP1</b></div><table class=\"hapiPropertyTable\"><tbody><tr><td>Identifier</td><td>2c49e0586ead45a42884f353188a6a41</td></tr><tr><td>Date of birth</td><td><span>15 May 1966</span></td></tr></tbody></table></div>"
      },
      "extension": [ {
        "url": "http://hl7.org/fhir/us/core/StructureDefinition/us-core-race",
        "extension": [ {
          "url": "ombCategory",
          "valueCoding": {
            "system": "urn:oid:2.16.840.1.113883.6.238",
            "code": "1002-5",
            "display": "American Indian or Alaska Native",
            "userSelected": true
          }
        }, {
          "url": "text",
          "valueString": "American Indian or Alaska Native"
        } ]
      }, {
        "url": "http://hl7.org/fhir/us/core/StructureDefinition/us-core-ethnicity",
        "extension": [ {
          "url": "ombCategory",
          "valueCoding": {
            "system": "urn:oid:2.16.840.1.113883.6.238",
            "code": "2135-2",
            "display": "Hispanic or Latino",
            "userSelected": true
          }
        }, {
          "url": "text",
          "valueString": "Hispanic or Latino"
        } ]
      } ],
      "identifier": [ {
        "type": {
          "coding": [ {
            "system": "http://terminology.hl7.org/CodeSystem/v2-0203",
            "code": "MR"
          } ]
        },
        "system": "https://bonnie-fhir.healthit.gov/",
        "value": "62c880ec0111a60120dc220b"
      } ],
      "active": true,
      "name": [ {
        "use": "usual",
        "family": "IPPFailPop1",
        "given": [ "CancerDxEndsPriorEnc" ]
      } ],
      "gender": "male",
      "birthDate": "1967-05-15"
    },
    "request": {
      "method": "PUT",
      "url": "Patient/f0f73fe9-f8ae-4994-911f-1745e5efbce3"
    }
  }, {
    "fullUrl": "https://madie.cms.gov/Condition/3325239c-700e-48ae-8a87-b87d47f459db",
    "resource": {
      "resourceType": "Condition",
      "id": "3325239c-700e-48ae-8a87-b87d47f459db",
      "meta": {
        "profile": [ "http://hl7.org/fhir/us/qicore/StructureDefinition/qicore-condition-problems-health-concerns" ]
      },
      "clinicalStatus": {
        "coding": [ {
          "system": "http://terminology.hl7.org/CodeSystem/condition-clinical",
          "code": "remission",
          "display": "remission",
          "userSelected": true
        } ]
      },
      "verificationStatus": {
        "coding": [ {
          "system": "http://terminology.hl7.org/CodeSystem/condition-ver-status",
          "code": "confirmed",
          "display": "Confirmed"
        } ]
      },
      "category": [ {
        "coding": [ {
          "system": "http://terminology.hl7.org/CodeSystem/condition-category",
          "code": "problem-list-item",
          "display": "Problem List Item"
        } ]
      } ],
      "code": {
        "coding": [ {
          "system": "http://snomed.info/sct",
          "code": "278453007"
        } ]
      },
      "subject": {
        "reference": "Patient/f0f73fe9-f8ae-4994-911f-1745e5efbce3"
      },
      "onsetDateTime": "2026-01-02T14:00:00.000+00:00",
      "abatementDateTime": "2026-02-10T14:45:00.000+00:00"
    },
    "request": {
      "method": "PUT",
      "url": "Condition/3325239c-700e-48ae-8a87-b87d47f459db"
    }
  }, {
    "fullUrl": "https://madie.cms.gov/Encounter/1abee9e4-9901-4b90-afd7-dd2de31e5144",
    "resource": {
      "resourceType": "Encounter",
      "id": "1abee9e4-9901-4b90-afd7-dd2de31e5144",
      "meta": {
        "profile": [ "http://hl7.org/fhir/us/qicore/StructureDefinition/qicore-encounter" ]
      },
      "status": "finished",
      "class": {
        "system": "http://terminology.hl7.org/CodeSystem/v3-ActCode",
        "code": "AMB",
        "display": "ambulatory",
        "userSelected": true
      },
      "type": [ {
        "coding": [ {
          "system": "http://www.ama-assn.org/go/cpt",
          "code": "99213"
        } ]
      } ],
      "subject": {
        "reference": "Patient/f0f73fe9-f8ae-4994-911f-1745e5efbce3"
      },
      "period": {
        "start": "2026-02-11T11:45:00.000+00:00",
        "end": "2026-02-11T11:45:00.000+00:00"
      }
    },
    "request": {
      "method": "PUT",
      "url": "Encounter/1abee9e4-9901-4b90-afd7-dd2de31e5144"
    }
  }, {
    "fullUrl": "https://madie.cms.gov/Coverage/056eb61e-874a-4804-beac-9d4e4b8d1384",
    "resource": {
      "resourceType": "Coverage",
      "id": "056eb61e-874a-4804-beac-9d4e4b8d1384",
      "meta": {
        "profile": [ "http://hl7.org/fhir/us/qicore/StructureDefinition/qicore-coverage" ]
      },
      "status": "active",
      "beneficiary": {
        "reference": "Patient/f0f73fe9-f8ae-4994-911f-1745e5efbce3"
      },
      "period": {
        "start": "1967-05-15T08:00:00.000+00:00"
      },
      "payor": [ {
        "reference": "Organization/99000859-bf87-4e86-bdf9-4737b9cc0da0"
      } ]
    },
    "request": {
      "method": "PUT",
      "url": "Coverage/056eb61e-874a-4804-beac-9d4e4b8d1384"
    }
  }, {
    "fullUrl": "https://madie.cms.gov/Procedure/03219036-7492-4e68-8488-0249f85455d4",
    "resource": {
      "resourceType": "Procedure",
      "id": "03219036-7492-4e68-8488-0249f85455d4",
      "meta": {
        "profile": [ "http://hl7.org/fhir/us/qicore/StructureDefinition/qicore-procedure" ]
      },
      "extension": [ {
        "url": "http://hl7.org/fhir/us/qicore/StructureDefinition/qicore-recorded",
        "valueDateTime": "2026-02-11T10:55:00.000+00:00"
      } ],
      "status": "completed",
      "code": {
        "coding": [ {
          "system": "http://www.ama-assn.org/go/cpt",
          "code": "96446"
        } ]
      },
      "subject": {
        "reference": "Patient/f0f73fe9-f8ae-4994-911f-1745e5efbce3"
      },
      "performedPeriod": {
        "start": "2026-02-11T10:50:00.000+00:00",
        "end": "2026-02-11T10:50:00.000+00:00"
      }
    },
    "request": {
      "method": "PUT",
      "url": "Procedure/03219036-7492-4e68-8488-0249f85455d4"
    }
  }, {
    "fullUrl": "https://madie.cms.gov/Procedure/22a8e520-4154-4f58-b896-4594856212a4",
    "resource": {
      "resourceType": "Procedure",
      "id": "22a8e520-4154-4f58-b896-4594856212a4",
      "meta": {
        "profile": [ "http://hl7.org/fhir/us/qicore/StructureDefinition/qicore-procedure" ]
      },
      "extension": [ {
        "url": "http://hl7.org/fhir/us/qicore/StructureDefinition/qicore-recorded",
        "valueDateTime": "2026-02-23T11:50:00.000+00:00"
      } ],
      "status": "completed",
      "code": {
        "coding": [ {
          "system": "http://www.ama-assn.org/go/cpt",
          "code": "96446"
        } ]
      },
      "subject": {
        "reference": "Patient/f0f73fe9-f8ae-4994-911f-1745e5efbce3"
      },
      "performedPeriod": {
        "start": "2026-02-23T11:45:00.000+00:00",
        "end": "2026-02-23T11:45:00.000+00:00"
      }
    },
    "request": {
      "method": "PUT",
      "url": "Procedure/22a8e520-4154-4f58-b896-4594856212a4"
    }
  }, {
    "fullUrl": "https://madie.cms.gov/Organization/99000859-bf87-4e86-bdf9-4737b9cc0da0",
    "resource": {
      "resourceType": "Organization",
      "id": "99000859-bf87-4e86-bdf9-4737b9cc0da0",
      "meta": {
        "profile": [ "http://hl7.org/fhir/us/qicore/StructureDefinition/qicore-organization" ]
      },
      "identifier": [ {
        "use": "temp",
        "system": "urn:oid:2.16.840.1.113883.4.4",
        "value": "21-3259825"
      } ],
      "active": true,
      "type": [ {
        "coding": [ {
          "system": "http://terminology.hl7.org/CodeSystem/organization-type",
          "code": "pay",
          "display": "Payer"
        } ]
      } ],
      "name": "Blue Cross Blue Shield of Texas",
      "telecom": [ {
        "system": "phone",
        "value": "(+1) 972-766-6900"
      } ],
      "address": [ {
        "use": "billing",
        "type": "postal",
        "line": [ "P.O. Box 660044" ],
        "city": "Dallas",
        "state": "TX",
        "postalCode": "75266-0044",
        "country": "USA"
      } ]
    },
    "request": {
      "method": "PUT",
      "url": "Organization/99000859-bf87-4e86-bdf9-4737b9cc0da0"
    }
  }, {
    "fullUrl": "https://madie.cms.gov/Practitioner/73631277-4240-4d12-9fcc-f3adb6fa9f01",
    "resource": {
      "resourceType": "Practitioner",
      "id": "73631277-4240-4d12-9fcc-f3adb6fa9f01",
      "meta": {
        "profile": [ "http://hl7.org/fhir/us/qicore/StructureDefinition/qicore-practitioner" ]
      },
      "identifier": [ {
        "system": "http://hl7.org/fhir/sid/us-npi",
        "value": "123456"
      } ],
      "name": [ {
        "family": "Evil",
        "prefix": [ "Dr" ]
      } ]
    },
    "request": {
      "method": "PUT",
      "url": "Practitioner/73631277-4240-4d12-9fcc-f3adb6fa9f01"
    }
  }, {
    "fullUrl": "https://madie.cms.gov/MeasureReport/6275cf77-da24-43dd-85ff-fc93ff333bbe",
    "resource": {
      "resourceType": "MeasureReport",
      "id": "6275cf77-da24-43dd-85ff-fc93ff333bbe",
      "meta": {
        "profile": [ "http://hl7.org/fhir/us/cqfmeasures/StructureDefinition/test-case-cqfm" ]
      },
      "contained": [ {
        "resourceType": "Parameters",
        "id": "6bfe7e71-7843-414f-a917-cd2abc2b231e-parameters",
        "parameter": [ {
          "name": "subject",
          "valueString": "f0f73fe9-f8ae-4994-911f-1745e5efbce3"
        } ]
      } ],
      "extension": [ {
        "url": "http://hl7.org/fhir/StructureDefinition/cqf-inputParameters",
        "valueReference": {
          "reference": "#6bfe7e71-7843-414f-a917-cd2abc2b231e-parameters"
        }
      }, {
        "url": "http://hl7.org/fhir/us/cqfmeasures/StructureDefinition/cqfm-testCaseDescription",
        "valueMarkdown": "Patient with cancer diagnosis ending before office visit.\n"
      } ],
      "modifierExtension": [ {
        "url": "http://hl7.org/fhir/us/cqfmeasures/StructureDefinition/cqfm-isTestCase",
        "valueBoolean": true
      } ],
      "status": "complete",
      "type": "individual",
      "measure": "https://madie.cms.gov/Measure/CMS157FHIRPainIntensityQuantified",
      "period": {
        "start": "2026-01-01",
        "end": "2026-12-31"
      },
      "group": [ {
        "id": "Group_1",
        "population": [ {
          "id": "InitialPopulation_1",
          "code": {
            "coding": [ {
              "system": "http://terminology.hl7.org/CodeSystem/measure-population",
              "code": "initial-population",
              "display": "Initial Population"
            } ]
          },
          "count": 0
        }, {
          "id": "Denominator_1",
          "code": {
            "coding": [ {
              "system": "http://terminology.hl7.org/CodeSystem/measure-population",
              "code": "denominator",
              "display": "Denominator"
            } ]
          },
          "count": 0
        }, {
          "id": "Numerator_1",
          "code": {
            "coding": [ {
              "system": "http://terminology.hl7.org/CodeSystem/measure-population",
              "code": "numerator",
              "display": "Numerator"
            } ]
          },
          "count": 0
        } ],
        "measureScore": {
          "value": 0.0
        }
      }, {
        "id": "Group_2",
        "population": [ {
          "id": "InitialPopulation_2",
          "code": {
            "coding": [ {
              "system": "http://terminology.hl7.org/CodeSystem/measure-population",
              "code": "initial-population",
              "display": "Initial Population"
            } ]
          },
          "count": 0
        }, {
          "id": "Denominator_2",
          "code": {
            "coding": [ {
              "system": "http://terminology.hl7.org/CodeSystem/measure-population",
              "code": "denominator",
              "display": "Denominator"
            } ]
          },
          "count": 0
        }, {
          "id": "Numerator_2",
          "code": {
            "coding": [ {
              "system": "http://terminology.hl7.org/CodeSystem/measure-population",
              "code": "numerator",
              "display": "Numerator"
            } ]
          },
          "count": 0
        } ],
        "measureScore": {
          "value": 0.0
        }
      } ],
      "evaluatedResource": [ {
        "reference": "Patient/f0f73fe9-f8ae-4994-911f-1745e5efbce3"
      }, {
        "reference": "Condition/3325239c-700e-48ae-8a87-b87d47f459db"
      }, {
        "reference": "Encounter/1abee9e4-9901-4b90-afd7-dd2de31e5144"
      }, {
        "reference": "Coverage/056eb61e-874a-4804-beac-9d4e4b8d1384"
      }, {
        "reference": "Procedure/03219036-7492-4e68-8488-0249f85455d4"
      }, {
        "reference": "Procedure/22a8e520-4154-4f58-b896-4594856212a4"
      }, {
        "reference": "Organization/99000859-bf87-4e86-bdf9-4737b9cc0da0"
      }, {
        "reference": "Practitioner/73631277-4240-4d12-9fcc-f3adb6fa9f01"
      } ]
    },
    "request": {
      "method": "PUT",
      "url": "MeasureReport/6275cf77-da24-43dd-85ff-fc93ff333bbe"
    }
  } ]
}