{
  "resourceType": "Bundle",
  "id": "642713b678c9438489949adf",
  "type": "collection",
  "entry": [ {
    "fullUrl": "https://madie.cms.gov/Patient/04c67cc9-bf23-4f31-988c-8bac7e96f938",
    "resource": {
      "resourceType": "Patient",
      "id": "04c67cc9-bf23-4f31-988c-8bac7e96f938",
      "meta": {
        "profile": [ "http://hl7.org/fhir/us/qicore/StructureDefinition/qicore-patient" ]
      },
      "extension": [ {
        "url": "http://hl7.org/fhir/us/core/StructureDefinition/us-core-race",
        "extension": [ {
          "url": "ombCategory",
          "valueCoding": {
            "system": "urn:oid:2.16.840.1.113883.6.238",
            "code": "1002-5",
            "display": "American Indian or Alaska Native",
            "userSelected": true
          }
        }, {
          "url": "text",
          "valueString": "American Indian or Alaska Native"
        } ]
      }, {
        "url": "http://hl7.org/fhir/us/core/StructureDefinition/us-core-ethnicity",
        "extension": [ {
          "url": "ombCategory",
          "valueCoding": {
            "system": "urn:oid:2.16.840.1.113883.6.238",
            "code": "2135-2",
            "display": "Hispanic or Latino",
            "userSelected": true
          }
        }, {
          "url": "text",
          "valueString": "Hispanic or Latino"
        } ]
      } ],
      "identifier": [ {
        "type": {
          "coding": [ {
            "system": "http://terminology.hl7.org/CodeSystem/v2-0203",
            "code": "MR"
          } ]
        },
        "system": "https://bonnie-fhir.healthit.gov/",
        "value": "642713b678c9438489949adf"
      } ],
      "name": [ {
        "family": "NUMERFail",
        "given": [ "AssessmentAfterEnc" ]
      } ],
      "gender": "female",
      "birthDate": "1979-01-02"
    }
  }, {
    "fullUrl": "https://madie.cms.gov/Condition/ef072810-78f2-4386-bb63-11d10c623615",
    "resource": {
      "resourceType": "Condition",
      "id": "ef072810-78f2-4386-bb63-11d10c623615",
      "meta": {
        "profile": [ "http://hl7.org/fhir/us/qicore/StructureDefinition/qicore-condition-problems-health-concerns" ]
      },
      "clinicalStatus": {
        "coding": [ {
          "system": "http://terminology.hl7.org/CodeSystem/condition-clinical",
          "code": "active",
          "display": "Active",
          "userSelected": true
        } ]
      },
      "verificationStatus": {
        "coding": [ {
          "system": "http://terminology.hl7.org/CodeSystem/condition-ver-status",
          "code": "confirmed",
          "display": "Confirmed",
          "userSelected": true
        } ]
      },
      "category": [ {
        "coding": [ {
          "system": "http://terminology.hl7.org/CodeSystem/condition-category",
          "code": "encounter-diagnosis",
          "display": "Encounter Diagnosis",
          "userSelected": true
        } ]
      }, {
        "coding": [ {
          "system": "http://terminology.hl7.org/CodeSystem/condition-category",
          "code": "problem-list-item",
          "display": "Problem List Item"
        } ]
      } ],
      "code": {
        "coding": [ {
          "system": "http://hl7.org/fhir/sid/icd-10-cm",
          "version": "2023",
          "code": "G31.83",
          "userSelected": true
        } ]
      },
      "subject": {
        "reference": "Patient/04c67cc9-bf23-4f31-988c-8bac7e96f938"
      },
      "onsetPeriod": {
        "start": "2023-03-30T08:00:00.000+00:00"
      }
    }
  }, {
    "fullUrl": "https://madie.cms.gov/Encounter/b7f60de8-e299-452a-9850-d0358a1eadfb",
    "resource": {
      "resourceType": "Encounter",
      "id": "b7f60de8-e299-452a-9850-d0358a1eadfb",
      "meta": {
        "profile": [ "http://hl7.org/fhir/us/qicore/StructureDefinition/qicore-encounter" ]
      },
      "status": "finished",
      "class": {
        "system": "http://terminology.hl7.org/CodeSystem/v3-ActCode",
        "code": "AMB",
        "display": "ambulatory",
        "userSelected": true
      },
      "type": [ {
        "coding": [ {
          "system": "http://www.ama-assn.org/go/cpt",
          "version": "2023",
          "code": "99212",
          "userSelected": true
        } ]
      } ],
      "subject": {
        "reference": "Patient/04c67cc9-bf23-4f31-988c-8bac7e96f938"
      },
      "period": {
        "start": "2026-03-31T08:00:00.000+00:00",
        "end": "2026-03-31T08:35:00.000+00:00"
      }
    }
  }, {
    "fullUrl": "https://madie.cms.gov/Encounter/3b48fab8-d8c7-44bb-9248-c99eadc862b7",
    "resource": {
      "resourceType": "Encounter",
      "id": "3b48fab8-d8c7-44bb-9248-c99eadc862b7",
      "meta": {
        "profile": [ "http://hl7.org/fhir/us/qicore/StructureDefinition/qicore-encounter" ]
      },
      "status": "finished",
      "class": {
        "system": "http://terminology.hl7.org/CodeSystem/v3-ActCode",
        "code": "AMB",
        "display": "ambulatory",
        "userSelected": true
      },
      "type": [ {
        "coding": [ {
          "system": "http://snomed.info/sct",
          "version": "http://snomed.info/sct/731000124108/version/202303",
          "code": "185463005",
          "display": "Visit out of hours (procedure)",
          "userSelected": true
        } ]
      } ],
      "subject": {
        "reference": "Patient/04c67cc9-bf23-4f31-988c-8bac7e96f938"
      },
      "period": {
        "start": "2026-08-31T08:00:00.000+00:00",
        "end": "2026-08-31T08:35:00.000+00:00"
      }
    }
  }, {
    "fullUrl": "https://madie.cms.gov/Observation/31d8d861-3a38-434b-baa3-0a2982c1e3e8",
    "resource": {
      "resourceType": "Observation",
      "id": "31d8d861-3a38-434b-baa3-0a2982c1e3e8",
      "meta": {
        "profile": [ "http://hl7.org/fhir/us/qicore/StructureDefinition/qicore-observation-screening-assessment" ]
      },
      "status": "final",
      "category": [ {
        "coding": [ {
          "system": "http://terminology.hl7.org/CodeSystem/observation-category",
          "code": "survey",
          "display": "Survey",
          "userSelected": true
        } ]
      } ],
      "code": {
        "coding": [ {
          "system": "http://loinc.org",
          "version": "2.73",
          "code": "58151-2",
          "display": "Prior assessment Brief Interview for Mental Status (BIMS) summary score [MDSv3]",
          "userSelected": true
        } ]
      },
      "subject": {
        "reference": "Patient/04c67cc9-bf23-4f31-988c-8bac7e96f938"
      },
      "effectiveDateTime": "2026-10-31T08:00:00.000+00:00",
      "issued": "2026-10-31T08:00:00.000+00:00",
      "valueInteger": 26
    }
  }, {
    "fullUrl": "https://madie.cms.gov/Coverage/96c85f50-ec7f-4757-8dd4-714b4f686cbb",
    "resource": {
      "resourceType": "Coverage",
      "id": "96c85f50-ec7f-4757-8dd4-714b4f686cbb",
      "meta": {
        "profile": [ "http://hl7.org/fhir/us/qicore/StructureDefinition/qicore-coverage" ]
      },
      "status": "active",
      "subscriberId": "123456",
      "beneficiary": {
        "reference": "Patient/04c67cc9-bf23-4f31-988c-8bac7e96f938"
      },
      "relationship": {
        "coding": [ {
          "system": "http://terminology.hl7.org/CodeSystem/subscriber-relationship",
          "code": "self",
          "display": "Self"
        } ]
      },
      "payor": [ {
        "reference": "Organization/61bb8e64-69ba-4498-b6df-0218b1419750"
      } ]
    }
  }, {
    "fullUrl": "https://madie.cms.gov/Organization/61bb8e64-69ba-4498-b6df-0218b1419750",
    "resource": {
      "resourceType": "Organization",
      "id": "61bb8e64-69ba-4498-b6df-0218b1419750",
      "meta": {
        "profile": [ "http://hl7.org/fhir/us/qicore/StructureDefinition/qicore-organization" ]
      },
      "identifier": [ {
        "use": "temp",
        "system": "urn:oid:2.16.840.1.113883.4.4",
        "value": "21-3259825"
      } ],
      "active": true,
      "type": [ {
        "coding": [ {
          "system": "http://terminology.hl7.org/CodeSystem/organization-type",
          "code": "pay",
          "display": "Payer"
        } ]
      } ],
      "name": "Blue Cross Blue Shield of Texas",
      "telecom": [ {
        "system": "phone",
        "value": "(+1) 972-766-6900"
      } ],
      "address": [ {
        "use": "billing",
        "type": "postal",
        "line": [ "P.O. Box 660044" ],
        "city": "Dallas",
        "state": "TX",
        "postalCode": "75266-0044",
        "country": "USA"
      } ]
    }
  }, {
    "fullUrl": "https://madie.cms.gov/Practitioner/17583b00-ddc4-4ef8-a328-9eac92808c0c",
    "resource": {
      "resourceType": "Practitioner",
      "id": "17583b00-ddc4-4ef8-a328-9eac92808c0c",
      "identifier": [ {
        "system": "http://hl7.org/fhir/sid/us-npi",
        "value": "1689411712"
      } ],
      "name": [ {
        "family": "Evil",
        "prefix": [ "Dr" ]
      } ]
    }
  }, {
    "fullUrl": "https://madie.cms.gov/MeasureReport/da3ea45d-9f19-43f1-93e0-ca4feaa797b8",
    "resource": {
      "resourceType": "MeasureReport",
      "id": "da3ea45d-9f19-43f1-93e0-ca4feaa797b8",
      "meta": {
        "profile": [ "http://hl7.org/fhir/us/cqfmeasures/StructureDefinition/test-case-cqfm" ]
      },
      "contained": [ {
        "resourceType": "Parameters",
        "id": "813c5445-31a1-4dcd-adc4-75d1caea0432-parameters",
        "parameter": [ {
          "name": "subject",
          "valueString": "04c67cc9-bf23-4f31-988c-8bac7e96f938"
        } ]
      } ],
      "extension": [ {
        "url": "http://hl7.org/fhir/StructureDefinition/cqf-inputParameters",
        "valueReference": {
          "reference": "#813c5445-31a1-4dcd-adc4-75d1caea0432-parameters"
        }
      }, {
        "url": "http://hl7.org/fhir/us/cqfmeasures/StructureDefinition/cqfm-testCaseDescription",
        "valueMarkdown": "Assessment issued after dementia encounter failing numerator window 12months through encounter"
      } ],
      "modifierExtension": [ {
        "url": "http://hl7.org/fhir/us/cqfmeasures/StructureDefinition/cqfm-isTestCase",
        "valueBoolean": true
      } ],
      "status": "complete",
      "type": "individual",
      "measure": "https://madie.cms.gov/Measure/CMS149FHIRDementiaCognitiveAssess",
      "period": {
        "start": "2026-01-01",
        "end": "2026-12-31"
      },
      "group": [ {
        "id": "Group_1",
        "population": [ {
          "id": "InitialPopulation_1",
          "code": {
            "coding": [ {
              "system": "http://terminology.hl7.org/CodeSystem/measure-population",
              "code": "initial-population",
              "display": "Initial Population"
            } ]
          },
          "count": 1
        }, {
          "id": "Denominator_1",
          "code": {
            "coding": [ {
              "system": "http://terminology.hl7.org/CodeSystem/measure-population",
              "code": "denominator",
              "display": "Denominator"
            } ]
          },
          "count": 1
        }, {
          "id": "Numerator_1",
          "code": {
            "coding": [ {
              "system": "http://terminology.hl7.org/CodeSystem/measure-population",
              "code": "numerator",
              "display": "Numerator"
            } ]
          },
          "count": 0
        }, {
          "id": "DenominatorException_1",
          "code": {
            "coding": [ {
              "system": "http://terminology.hl7.org/CodeSystem/measure-population",
              "code": "denominator-exception",
              "display": "Denominator Exception"
            } ]
          },
          "count": 0
        } ],
        "measureScore": {
          "value": 1.0
        }
      } ],
      "evaluatedResource": [ {
        "reference": "Patient/04c67cc9-bf23-4f31-988c-8bac7e96f938"
      }, {
        "reference": "Condition/ef072810-78f2-4386-bb63-11d10c623615"
      }, {
        "reference": "Encounter/b7f60de8-e299-452a-9850-d0358a1eadfb"
      }, {
        "reference": "Encounter/3b48fab8-d8c7-44bb-9248-c99eadc862b7"
      }, {
        "reference": "Observation/31d8d861-3a38-434b-baa3-0a2982c1e3e8"
      }, {
        "reference": "Coverage/96c85f50-ec7f-4757-8dd4-714b4f686cbb"
      }, {
        "reference": "Organization/61bb8e64-69ba-4498-b6df-0218b1419750"
      }, {
        "reference": "Practitioner/17583b00-ddc4-4ef8-a328-9eac92808c0c"
      } ]
    }
  } ]
}