{
  "resourceType": "Bundle",
  "id": "63487c300968f801225401c0",
  "type": "transaction",
  "entry": [ {
    "fullUrl": "https://madie.cms.gov/Patient/df8636f3-8f53-4835-b81c-ef707f527d50",
    "resource": {
      "resourceType": "Patient",
      "id": "df8636f3-8f53-4835-b81c-ef707f527d50",
      "meta": {
        "profile": [ "http://hl7.org/fhir/us/qicore/StructureDefinition/qicore-patient" ]
      },
      "text": {
        "status": "generated",
        "div": "<div xmlns=\"http://www.w3.org/1999/xhtml\"><div class=\"hapiHeaderText\">AssessPerfNotAbnPres<b>DENEXFAIL</b></div><table class=\"hapiPropertyTable\"><tbody><tr><td>Identifier</td><td>db09244543fe550232b604cb7d87decbeb851047882e641e3fe736fdce398a0a</td></tr><tr><td>Date of birth</td><td><span>14 February 1985</span></td></tr></tbody></table></div>"
      },
      "extension": [ {
        "url": "http://hl7.org/fhir/us/core/StructureDefinition/us-core-race",
        "extension": [ {
          "url": "ombCategory",
          "valueCoding": {
            "system": "urn:oid:2.16.840.1.113883.6.238",
            "code": "1002-5",
            "display": "American Indian or Alaska Native",
            "userSelected": true
          }
        }, {
          "url": "text",
          "valueString": "American Indian or Alaska Native"
        } ]
      }, {
        "url": "http://hl7.org/fhir/us/core/StructureDefinition/us-core-ethnicity",
        "extension": [ {
          "url": "ombCategory",
          "valueCoding": {
            "system": "urn:oid:2.16.840.1.113883.6.238",
            "code": "2135-2",
            "display": "Hispanic or Latino",
            "userSelected": true
          }
        }, {
          "url": "text",
          "valueString": "Hispanic or Latino"
        } ]
      } ],
      "identifier": [ {
        "type": {
          "coding": [ {
            "system": "http://terminology.hl7.org/CodeSystem/v2-0203",
            "code": "MR"
          } ]
        },
        "system": "https://bonnie-fhir.healthit.gov/",
        "value": "63487c300968f801225401c0"
      } ],
      "active": true,
      "name": [ {
        "use": "usual",
        "family": "DENEXFail",
        "given": [ "AssessPerfNotAbnPres" ]
      } ],
      "gender": "female",
      "birthDate": "1998-02-14"
    },
    "request": {
      "method": "PUT",
      "url": "Patient/df8636f3-8f53-4835-b81c-ef707f527d50"
    }
  }, {
    "fullUrl": "https://madie.cms.gov/Observation/4ae2df6f-2aca-4cc9-88d1-093383a1557e",
    "resource": {
      "resourceType": "Observation",
      "id": "4ae2df6f-2aca-4cc9-88d1-093383a1557e",
      "meta": {
        "profile": [ "http://hl7.org/fhir/us/qicore/StructureDefinition/qicore-simple-observation" ]
      },
      "status": "final",
      "category": [ {
        "coding": [ {
          "system": "http://terminology.hl7.org/CodeSystem/observation-category",
          "code": "exam",
          "display": "exam",
          "userSelected": true
        } ]
      } ],
      "code": {
        "coding": [ {
          "system": "http://loinc.org",
          "code": "11996-6"
        } ]
      },
      "subject": {
        "reference": "Patient/df8636f3-8f53-4835-b81c-ef707f527d50"
      },
      "effectiveDateTime": "2026-06-08T08:00:00.000+00:00",
      "performer": [ {
        "reference": "Organization/example1",
        "display": "Hendricks Country Hospital"
      } ],
      "valueInteger": 1
    },
    "request": {
      "method": "PUT",
      "url": "Observation/4ae2df6f-2aca-4cc9-88d1-093383a1557e"
    }
  }, {
    "fullUrl": "https://madie.cms.gov/Observation/b5185e5b-173c-427b-bda1-6561a51beb33",
    "resource": {
      "resourceType": "Observation",
      "id": "b5185e5b-173c-427b-bda1-6561a51beb33",
      "meta": {
        "profile": [ "http://hl7.org/fhir/us/qicore/StructureDefinition/qicore-simple-observation" ]
      },
      "status": "final",
      "category": [ {
        "coding": [ {
          "system": "http://terminology.hl7.org/CodeSystem/observation-category",
          "code": "exam",
          "display": "exam",
          "userSelected": true
        } ]
      } ],
      "code": {
        "coding": [ {
          "system": "http://loinc.org",
          "code": "11884-4"
        } ]
      },
      "subject": {
        "reference": "Patient/df8636f3-8f53-4835-b81c-ef707f527d50"
      },
      "effectiveDateTime": "2026-06-08T08:00:00.000+00:00",
      "performer": [ {
        "reference": "Organization/example1",
        "display": "Hendricks Country Hospital"
      } ],
      "valueQuantity": {
        "value": 43,
        "system": "http://unitsofmeasure.org",
        "code": "wk"
      }
    },
    "request": {
      "method": "PUT",
      "url": "Observation/b5185e5b-173c-427b-bda1-6561a51beb33"
    }
  }, {
    "fullUrl": "https://madie.cms.gov/Observation/b7fcf542-b473-4d27-ba40-430e50d1f51f",
    "resource": {
      "resourceType": "Observation",
      "id": "b7fcf542-b473-4d27-ba40-430e50d1f51f",
      "meta": {
        "profile": [ "http://hl7.org/fhir/us/qicore/StructureDefinition/qicore-simple-observation" ]
      },
      "status": "final",
      "category": [ {
        "coding": [ {
          "system": "http://terminology.hl7.org/CodeSystem/observation-category",
          "code": "exam",
          "display": "exam",
          "userSelected": true
        } ]
      } ],
      "code": {
        "coding": [ {
          "system": "http://loinc.org",
          "code": "93857-1"
        } ]
      },
      "subject": {
        "reference": "Patient/df8636f3-8f53-4835-b81c-ef707f527d50"
      },
      "effectiveDateTime": "2026-06-08T20:00:00.000+00:00",
      "performer": [ {
        "reference": "Organization/example1",
        "display": "Hendricks Country Hospital"
      } ],
      "valueDateTime": "2026-06-08T20:00:00.000+00:00"
    },
    "request": {
      "method": "PUT",
      "url": "Observation/b7fcf542-b473-4d27-ba40-430e50d1f51f"
    }
  }, {
    "fullUrl": "https://madie.cms.gov/Observation/cc824eb1-3319-444a-b78e-f622db3f117d",
    "resource": {
      "resourceType": "Observation",
      "id": "cc824eb1-3319-444a-b78e-f622db3f117d",
      "meta": {
        "profile": [ "http://hl7.org/fhir/us/qicore/StructureDefinition/qicore-simple-observation" ]
      },
      "status": "final",
      "category": [ {
        "coding": [ {
          "system": "http://terminology.hl7.org/CodeSystem/observation-category",
          "code": "exam",
          "display": "exam",
          "userSelected": true
        } ]
      } ],
      "code": {
        "coding": [ {
          "system": "http://snomed.info/sct",
          "code": "9999999"
        } ]
      },
      "subject": {
        "reference": "Patient/df8636f3-8f53-4835-b81c-ef707f527d50"
      },
      "effectiveDateTime": "2026-06-08T08:00:00.000+00:00",
      "performer": [ {
        "reference": "Organization/example1",
        "display": "Hendricks Country Hospital"
      } ]
    },
    "request": {
      "method": "PUT",
      "url": "Observation/cc824eb1-3319-444a-b78e-f622db3f117d"
    }
  }, {
    "fullUrl": "https://madie.cms.gov/Encounter/216e4c2a-2234-4442-bd80-1494da7f2d1d",
    "resource": {
      "resourceType": "Encounter",
      "id": "216e4c2a-2234-4442-bd80-1494da7f2d1d",
      "meta": {
        "profile": [ "http://hl7.org/fhir/us/qicore/StructureDefinition/qicore-encounter" ]
      },
      "status": "finished",
      "class": {
        "system": "http://terminology.hl7.org/CodeSystem/v3-ActCode",
        "code": "IMP",
        "display": "inpatient encounter"
      },
      "type": [ {
        "coding": [ {
          "system": "http://snomed.info/sct",
          "code": "8715000"
        } ]
      } ],
      "subject": {
        "reference": "Patient/df8636f3-8f53-4835-b81c-ef707f527d50"
      },
      "period": {
        "start": "2026-06-08T08:00:00.000+00:00",
        "end": "2026-06-10T08:15:00.000+00:00"
      },
      "reasonCode": [ {
        "coding": [ {
          "system": "http://snomed.info/sct",
          "code": "169826009",
          "display": "Single live birth from singleton pregnancy (finding)"
        } ]
      } ]
    },
    "request": {
      "method": "PUT",
      "url": "Encounter/216e4c2a-2234-4442-bd80-1494da7f2d1d"
    }
  }, {
    "fullUrl": "https://madie.cms.gov/Procedure/7d9a7e83-2908-4a68-b565-f0ff62f692ad",
    "resource": {
      "resourceType": "Procedure",
      "id": "7d9a7e83-2908-4a68-b565-f0ff62f692ad",
      "meta": {
        "profile": [ "http://hl7.org/fhir/us/qicore/StructureDefinition/qicore-procedure" ]
      },
      "extension": [ {
        "url": "http://hl7.org/fhir/us/qicore/StructureDefinition/qicore-recorded",
        "valueDateTime": "2014-04-05T13:35:00.000+00:00"
      } ],
      "status": "completed",
      "code": {
        "coding": [ {
          "system": "http://www.cms.gov/Medicare/Coding/ICD10",
          "code": "10D00Z0"
        }, {
          "system": "http://snomed.info/sct",
          "code": "4504004"
        } ]
      },
      "subject": {
        "reference": "Patient/df8636f3-8f53-4835-b81c-ef707f527d50"
      },
      "performedPeriod": {
        "start": "2026-06-08T20:00:00.000+00:00",
        "end": "2026-06-18T20:00:00.000+00:00"
      }
    },
    "request": {
      "method": "PUT",
      "url": "Procedure/7d9a7e83-2908-4a68-b565-f0ff62f692ad"
    }
  }, {
    "fullUrl": "https://madie.cms.gov/Condition/6c675881-6397-4cfe-9ef2-3dd500e18a67",
    "resource": {
      "resourceType": "Condition",
      "id": "6c675881-6397-4cfe-9ef2-3dd500e18a67",
      "meta": {
        "profile": [ "http://hl7.org/fhir/us/qicore/StructureDefinition/qicore-condition-encounter-diagnosis" ]
      },
      "category": [ {
        "coding": [ {
          "system": "http://terminology.hl7.org/CodeSystem/condition-category",
          "code": "encounter-diagnosis",
          "display": "Encounter Diagnosis"
        } ]
      } ],
      "code": {
        "coding": [ {
          "system": "http://snomed.info/sct",
          "version": "2022-09",
          "code": "169826009",
          "display": "Single live birth (finding)",
          "userSelected": true
        } ]
      },
      "subject": {
        "reference": "Patient/df8636f3-8f53-4835-b81c-ef707f527d50"
      },
      "encounter": {
        "reference": "Encounter/216e4c2a-2234-4442-bd80-1494da7f2d1d"
      },
      "recordedDate": "2026-10-17T08:00:00.000+00:00"
    },
    "request": {
      "method": "PUT",
      "url": "Condition/6c675881-6397-4cfe-9ef2-3dd500e18a67"
    }
  }, {
    "fullUrl": "https://madie.cms.gov/Coverage/6c0c3a11-b3e8-46bf-9901-4d7d036aa9a1",
    "resource": {
      "resourceType": "Coverage",
      "id": "6c0c3a11-b3e8-46bf-9901-4d7d036aa9a1",
      "meta": {
        "profile": [ "http://hl7.org/fhir/us/qicore/StructureDefinition/qicore-coverage" ]
      },
      "status": "active",
      "subscriberId": "523435",
      "beneficiary": {
        "reference": "Patient/df8636f3-8f53-4835-b81c-ef707f527d50"
      },
      "relationship": {
        "coding": [ {
          "system": "http://terminology.hl7.org/CodeSystem/subscriber-relationship",
          "code": "self"
        } ]
      },
      "payor": [ {
        "reference": "Organization/9ef48c0c-83bb-4cd7-a522-08ab70fe7ba7"
      } ]
    },
    "request": {
      "method": "PUT",
      "url": "Coverage/6c0c3a11-b3e8-46bf-9901-4d7d036aa9a1"
    }
  }, {
    "fullUrl": "https://madie.cms.gov/Organization/9ef48c0c-83bb-4cd7-a522-08ab70fe7ba7",
    "resource": {
      "resourceType": "Organization",
      "id": "9ef48c0c-83bb-4cd7-a522-08ab70fe7ba7",
      "meta": {
        "profile": [ "http://hl7.org/fhir/us/qicore/StructureDefinition/qicore-organization" ]
      },
      "identifier": [ {
        "use": "temp",
        "system": "urn:oid:2.16.840.1.113883.4.4",
        "value": "21-3259825"
      } ],
      "active": true,
      "type": [ {
        "coding": [ {
          "system": "http://terminology.hl7.org/CodeSystem/organization-type",
          "code": "pay",
          "display": "Payer"
        } ]
      } ],
      "name": "Blue Cross Blue Shield of Texas",
      "telecom": [ {
        "system": "phone",
        "value": "(+1) 972-766-6900"
      } ],
      "address": [ {
        "use": "billing",
        "type": "postal",
        "line": [ "P.O. Box 660044" ],
        "city": "Dallas",
        "state": "TX",
        "postalCode": "75266-0044",
        "country": "USA"
      } ]
    },
    "request": {
      "method": "PUT",
      "url": "Organization/9ef48c0c-83bb-4cd7-a522-08ab70fe7ba7"
    }
  }, {
    "fullUrl": "https://madie.cms.gov/Practitioner/ca206d88-d35e-4996-a314-bc31e5802d64",
    "resource": {
      "resourceType": "Practitioner",
      "id": "ca206d88-d35e-4996-a314-bc31e5802d64",
      "meta": {
        "profile": [ "http://hl7.org/fhir/us/qicore/StructureDefinition/qicore-practitioner" ]
      },
      "identifier": [ {
        "system": "http://hl7.org/fhir/sid/us-npi",
        "value": "1234567890"
      } ],
      "name": [ {
        "family": "Evil",
        "prefix": [ "Dr" ]
      } ]
    },
    "request": {
      "method": "PUT",
      "url": "Practitioner/ca206d88-d35e-4996-a314-bc31e5802d64"
    }
  }, {
    "fullUrl": "https://madie.cms.gov/MeasureReport/28d6fb27-d95e-45f1-b182-709ff873f0d7",
    "resource": {
      "resourceType": "MeasureReport",
      "id": "28d6fb27-d95e-45f1-b182-709ff873f0d7",
      "meta": {
        "profile": [ "http://hl7.org/fhir/us/cqfmeasures/StructureDefinition/test-case-cqfm" ]
      },
      "contained": [ {
        "resourceType": "Parameters",
        "id": "f64b1efa-ef33-4e8c-9ef6-8f8f5af63421-parameters",
        "parameter": [ {
          "name": "subject",
          "valueString": "df8636f3-8f53-4835-b81c-ef707f527d50"
        } ]
      } ],
      "extension": [ {
        "url": "http://hl7.org/fhir/StructureDefinition/cqf-inputParameters",
        "valueReference": {
          "reference": "#f64b1efa-ef33-4e8c-9ef6-8f8f5af63421-parameters"
        }
      }, {
        "url": "http://hl7.org/fhir/us/cqfmeasures/StructureDefinition/cqfm-testCaseDescription",
        "valueMarkdown": "EGA 43 weeks; Assessment performed but NOT Abnormal presentation , gravida 1, \n"
      } ],
      "modifierExtension": [ {
        "url": "http://hl7.org/fhir/us/cqfmeasures/StructureDefinition/cqfm-isTestCase",
        "valueBoolean": true
      } ],
      "status": "complete",
      "type": "individual",
      "measure": "https://madie.cms.gov/Measure/CMS0334FHIRPCCesareanBirth",
      "period": {
        "start": "2026-01-01",
        "end": "2026-12-31"
      },
      "group": [ {
        "id": "Group_1",
        "population": [ {
          "id": "InitialPopulation_1",
          "code": {
            "coding": [ {
              "system": "http://terminology.hl7.org/CodeSystem/measure-population",
              "code": "initial-population",
              "display": "Initial Population"
            } ]
          },
          "count": 1
        }, {
          "id": "Denominator_1",
          "code": {
            "coding": [ {
              "system": "http://terminology.hl7.org/CodeSystem/measure-population",
              "code": "denominator",
              "display": "Denominator"
            } ]
          },
          "count": 1
        }, {
          "id": "DenominatorExclusion_1",
          "code": {
            "coding": [ {
              "system": "http://terminology.hl7.org/CodeSystem/measure-population",
              "code": "denominator-exclusion",
              "display": "Denominator Exclusion"
            } ]
          },
          "count": 0
        }, {
          "id": "Numerator_1",
          "code": {
            "coding": [ {
              "system": "http://terminology.hl7.org/CodeSystem/measure-population",
              "code": "numerator",
              "display": "Numerator"
            } ]
          },
          "count": 0
        } ],
        "measureScore": {
          "value": 0.0
        }
      } ],
      "evaluatedResource": [ {
        "reference": "Patient/df8636f3-8f53-4835-b81c-ef707f527d50"
      }, {
        "reference": "Observation/4ae2df6f-2aca-4cc9-88d1-093383a1557e"
      }, {
        "reference": "Observation/b5185e5b-173c-427b-bda1-6561a51beb33"
      }, {
        "reference": "Observation/b7fcf542-b473-4d27-ba40-430e50d1f51f"
      }, {
        "reference": "Observation/cc824eb1-3319-444a-b78e-f622db3f117d"
      }, {
        "reference": "Encounter/216e4c2a-2234-4442-bd80-1494da7f2d1d"
      }, {
        "reference": "Procedure/7d9a7e83-2908-4a68-b565-f0ff62f692ad"
      }, {
        "reference": "Condition/6c675881-6397-4cfe-9ef2-3dd500e18a67"
      }, {
        "reference": "Coverage/6c0c3a11-b3e8-46bf-9901-4d7d036aa9a1"
      }, {
        "reference": "Organization/9ef48c0c-83bb-4cd7-a522-08ab70fe7ba7"
      }, {
        "reference": "Practitioner/ca206d88-d35e-4996-a314-bc31e5802d64"
      } ]
    },
    "request": {
      "method": "PUT",
      "url": "MeasureReport/28d6fb27-d95e-45f1-b182-709ff873f0d7"
    }
  } ]
}