{
  "resourceType": "Bundle",
  "id": "657cbdc9b4f1f0343662347a",
  "type": "transaction",
  "entry": [ {
    "fullUrl": "https://madie.cms.gov/Patient/9d6e376f-0bd5-4a36-8991-435c0e7c1bcc",
    "resource": {
      "resourceType": "Patient",
      "id": "9d6e376f-0bd5-4a36-8991-435c0e7c1bcc",
      "meta": {
        "profile": [ "http://hl7.org/fhir/us/qicore/StructureDefinition/qicore-patient" ]
      },
      "extension": [ {
        "url": "http://hl7.org/fhir/us/core/StructureDefinition/us-core-race",
        "extension": [ {
          "url": "ombCategory",
          "valueCoding": {
            "system": "urn:oid:2.16.840.1.113883.6.238",
            "code": "2106-3",
            "display": "White",
            "userSelected": true
          }
        }, {
          "url": "text",
          "valueString": "White"
        } ]
      }, {
        "url": "http://hl7.org/fhir/us/core/StructureDefinition/us-core-ethnicity",
        "extension": [ {
          "url": "ombCategory",
          "valueCoding": {
            "system": "urn:oid:2.16.840.1.113883.6.238",
            "code": "2186-5",
            "display": "Not Hispanic or Latino",
            "userSelected": true
          }
        }, {
          "url": "text",
          "valueString": "Not Hispanic or Latino"
        } ]
      } ],
      "identifier": [ {
        "type": {
          "coding": [ {
            "system": "http://terminology.hl7.org/CodeSystem/v2-0203",
            "code": "MR"
          } ]
        },
        "system": "https://bonnie-fhir.healthit.gov/",
        "value": "657cbdc9b4f1f0343662347a"
      } ],
      "name": [ {
        "family": "InitialPopulationEncounterFail",
        "given": [ "EncounterStatusUnknown" ]
      } ],
      "gender": "female",
      "birthDate": "2008-01-01"
    },
    "request": {
      "method": "PUT",
      "url": "Patient/9d6e376f-0bd5-4a36-8991-435c0e7c1bcc"
    }
  }, {
    "fullUrl": "https://madie.cms.gov/Encounter/1847ca1c-22e8-45a3-bf6f-86764762aa2f",
    "resource": {
      "resourceType": "Encounter",
      "id": "1847ca1c-22e8-45a3-bf6f-86764762aa2f",
      "meta": {
        "profile": [ "http://hl7.org/fhir/us/qicore/StructureDefinition/qicore-encounter" ]
      },
      "status": "unknown",
      "class": {
        "system": "http://terminology.hl7.org/CodeSystem/v3-ActCode",
        "code": "ACUTE",
        "display": "inpatient acute"
      },
      "type": [ {
        "coding": [ {
          "system": "http://snomed.info/sct",
          "version": "2024",
          "code": "32485007",
          "display": "Hospital admission (procedure)",
          "userSelected": true
        } ]
      } ],
      "subject": {
        "reference": "Patient/9d6e376f-0bd5-4a36-8991-435c0e7c1bcc"
      },
      "period": {
        "start": "2026-01-01T08:00:00.000+00:00",
        "end": "2026-01-02T09:15:00.000+00:00"
      },
      "diagnosis": [ {
        "condition": {
          "reference": "Condition/96515cbe-4dfe-43a9-97c9-49bf5aab7b66"
        },
        "use": {
          "coding": [ {
            "system": "http://terminology.hl7.org/CodeSystem/diagnosis-role",
            "code": "billing"
          } ]
        },
        "rank": 1
      } ]
    },
    "request": {
      "method": "PUT",
      "url": "Encounter/1847ca1c-22e8-45a3-bf6f-86764762aa2f"
    }
  }, {
    "fullUrl": "https://madie.cms.gov/Location/27441bf8-5222-41d7-afbe-fe2ab120c6b7",
    "resource": {
      "resourceType": "Location",
      "id": "27441bf8-5222-41d7-afbe-fe2ab120c6b7",
      "meta": {
        "profile": [ "http://hl7.org/fhir/us/qicore/StructureDefinition/qicore-location" ]
      },
      "identifier": [ {
        "use": "usual",
        "system": "http://exampleoflocation.com",
        "value": "B1-S.F2"
      } ],
      "name": "Medical Surgical East, first floor",
      "type": [ {
        "coding": [ {
          "system": "https://www.cdc.gov/nhsn/cdaportal/terminology/codesystem/hsloc.html",
          "code": "1028-0",
          "display": "Medical Cardiac Critical Care",
          "userSelected": true
        } ]
      } ]
    },
    "request": {
      "method": "PUT",
      "url": "Location/27441bf8-5222-41d7-afbe-fe2ab120c6b7"
    }
  }, {
    "fullUrl": "https://madie.cms.gov/MedicationRequest/f85694d1-d760-45ce-98c6-ba2e8b2332e0",
    "resource": {
      "resourceType": "MedicationRequest",
      "id": "f85694d1-d760-45ce-98c6-ba2e8b2332e0",
      "meta": {
        "profile": [ "http://hl7.org/fhir/us/qicore/StructureDefinition/qicore-medicationrequest" ]
      },
      "status": "completed",
      "intent": "order",
      "medicationCodeableConcept": {
        "coding": [ {
          "system": "http://www.nlm.nih.gov/research/umls/rxnorm",
          "version": "06052023",
          "code": "1007184"
        } ]
      },
      "subject": {
        "reference": "Patient/9d6e376f-0bd5-4a36-8991-435c0e7c1bcc"
      },
      "authoredOn": "2026-01-01T08:15:00.000+00:00",
      "requester": {
        "reference": "Practitioner/33d87640-6b2a-40b0-ab11-542478a88d5a"
      },
      "dosageInstruction": [ {
        "timing": {
          "repeat": {
            "boundsPeriod": {
              "start": "2025-01-01T08:15:00.000+00:00"
            }
          }
        }
      } ]
    },
    "request": {
      "method": "PUT",
      "url": "MedicationRequest/f85694d1-d760-45ce-98c6-ba2e8b2332e0"
    }
  }, {
    "fullUrl": "https://madie.cms.gov/Coverage/502eff40-a626-401e-a198-5b1081f9d31a",
    "resource": {
      "resourceType": "Coverage",
      "id": "502eff40-a626-401e-a198-5b1081f9d31a",
      "meta": {
        "profile": [ "http://hl7.org/fhir/us/qicore/StructureDefinition/qicore-coverage" ]
      },
      "identifier": [ {
        "system": "http://benefitsinc.com/certificate",
        "value": "12345"
      } ],
      "status": "active",
      "type": {
        "coding": [ {
          "system": "https://nahdo.org/sopt",
          "version": "1.0.1",
          "code": "1",
          "display": "MEDICARE",
          "userSelected": true
        } ]
      },
      "subscriberId": "AB9876",
      "beneficiary": {
        "reference": "Patient/9d6e376f-0bd5-4a36-8991-435c0e7c1bcc"
      },
      "relationship": {
        "coding": [ {
          "system": "http://terminology.hl7.org/CodeSystem/subscriber-relationship",
          "code": "self"
        } ]
      },
      "payor": [ {
        "reference": "Organization/0cc427fa-477b-4acc-bdc7-c1d363dc1376"
      } ]
    },
    "request": {
      "method": "PUT",
      "url": "Coverage/502eff40-a626-401e-a198-5b1081f9d31a"
    }
  }, {
    "fullUrl": "https://madie.cms.gov/Organization/0cc427fa-477b-4acc-bdc7-c1d363dc1376",
    "resource": {
      "resourceType": "Organization",
      "id": "0cc427fa-477b-4acc-bdc7-c1d363dc1376",
      "meta": {
        "profile": [ "http://hl7.org/fhir/us/qicore/StructureDefinition/qicore-organization" ]
      },
      "identifier": [ {
        "use": "temp",
        "system": "urn:oid:2.16.840.1.113883.4.4",
        "value": "21-3259825"
      } ],
      "active": true,
      "type": [ {
        "coding": [ {
          "system": "http://terminology.hl7.org/CodeSystem/organization-type",
          "code": "pay",
          "display": "Payer"
        } ]
      } ],
      "name": "Blue Cross Blue Shield of Texas",
      "telecom": [ {
        "system": "phone",
        "value": "(+1) 972-766-6900"
      } ],
      "address": [ {
        "use": "billing",
        "type": "postal",
        "line": [ "P.O. Box 660044" ],
        "city": "Dallas",
        "state": "TX",
        "postalCode": "75266-0044",
        "country": "USA"
      } ]
    },
    "request": {
      "method": "PUT",
      "url": "Organization/0cc427fa-477b-4acc-bdc7-c1d363dc1376"
    }
  }, {
    "fullUrl": "https://madie.cms.gov/Practitioner/76962d4e-92d0-4024-b84c-d38f21f8e5cc",
    "resource": {
      "resourceType": "Practitioner",
      "id": "76962d4e-92d0-4024-b84c-d38f21f8e5cc",
      "meta": {
        "profile": [ "http://hl7.org/fhir/us/qicore/StructureDefinition/qicore-practitioner" ]
      },
      "identifier": [ {
        "system": "http://hl7.org/fhir/sid/us-npi",
        "value": "0723660813"
      } ],
      "name": [ {
        "family": "Evil",
        "prefix": [ "Dr" ]
      } ]
    },
    "request": {
      "method": "PUT",
      "url": "Practitioner/76962d4e-92d0-4024-b84c-d38f21f8e5cc"
    }
  }, {
    "fullUrl": "https://madie.cms.gov/MeasureReport/8904607e-c6d1-4575-9467-4a3e72e99106",
    "resource": {
      "resourceType": "MeasureReport",
      "id": "8904607e-c6d1-4575-9467-4a3e72e99106",
      "meta": {
        "profile": [ "http://hl7.org/fhir/us/cqfmeasures/StructureDefinition/test-case-cqfm" ]
      },
      "contained": [ {
        "resourceType": "Parameters",
        "id": "7ae28bad-0148-4872-896a-8b409b0d14e1-parameters",
        "parameter": [ {
          "name": "subject",
          "valueString": "9d6e376f-0bd5-4a36-8991-435c0e7c1bcc"
        } ]
      } ],
      "extension": [ {
        "url": "http://hl7.org/fhir/StructureDefinition/cqf-inputParameters",
        "valueReference": {
          "reference": "#7ae28bad-0148-4872-896a-8b409b0d14e1-parameters"
        }
      }, {
        "url": "http://hl7.org/fhir/us/cqfmeasures/StructureDefinition/cqfm-testCaseDescription",
        "valueMarkdown": "Inpatient encounter with diabetic medication during MP, encounter status \"unknown\" - not part of approved codes for measure"
      } ],
      "modifierExtension": [ {
        "url": "http://hl7.org/fhir/us/cqfmeasures/StructureDefinition/cqfm-isTestCase",
        "valueBoolean": true
      } ],
      "status": "complete",
      "type": "individual",
      "measure": "https://madie.cms.gov/Measure/NHSNGlycemicControlHypoglycemiaInitialPopulation",
      "period": {
        "start": "2026-01-01",
        "end": "2026-12-31"
      },
      "group": [ {
        "id": "Group_1",
        "population": [ {
          "id": "InitialPopulation_1",
          "code": {
            "coding": [ {
              "system": "http://terminology.hl7.org/CodeSystem/measure-population",
              "code": "initial-population",
              "display": "Initial Population"
            } ]
          },
          "count": 0
        } ],
        "measureScore": {
          "value": 0.0
        }
      } ],
      "evaluatedResource": [ {
        "reference": "Patient/9d6e376f-0bd5-4a36-8991-435c0e7c1bcc"
      }, {
        "reference": "Encounter/1847ca1c-22e8-45a3-bf6f-86764762aa2f"
      }, {
        "reference": "Location/27441bf8-5222-41d7-afbe-fe2ab120c6b7"
      }, {
        "reference": "MedicationRequest/f85694d1-d760-45ce-98c6-ba2e8b2332e0"
      }, {
        "reference": "Coverage/502eff40-a626-401e-a198-5b1081f9d31a"
      }, {
        "reference": "Organization/0cc427fa-477b-4acc-bdc7-c1d363dc1376"
      }, {
        "reference": "Practitioner/76962d4e-92d0-4024-b84c-d38f21f8e5cc"
      } ]
    },
    "request": {
      "method": "PUT",
      "url": "MeasureReport/8904607e-c6d1-4575-9467-4a3e72e99106"
    }
  } ]
}