{
  "resourceType": "Bundle",
  "id": "tests-IPPFail-MedGivenInObservTransferToIPMoreThan1Hour-bundle",
  "type": "transaction",
  "entry": [ {
    "fullUrl": "https://madie.cms.gov/Encounter/f18cf40d-ddc6-44d9-b3b7-4ab0416b636d",
    "resource": {
      "resourceType": "Encounter",
      "id": "f18cf40d-ddc6-44d9-b3b7-4ab0416b636d",
      "meta": {
        "profile": [ "http://hl7.org/fhir/us/qicore/StructureDefinition/qicore-encounter" ]
      },
      "status": "finished",
      "class": {
        "system": "http://terminology.hl7.org/CodeSystem/v3-ActCode",
        "code": "IMP",
        "display": "Inpatient encounter"
      },
      "type": [ {
        "coding": [ {
          "system": "http://snomed.info/sct",
          "code": "183452005",
          "display": "Inpatient encounter"
        } ]
      } ],
      "period": {
        "start": "2026-07-11T10:01:00.000+00:00",
        "end": "2026-07-13T21:00:00.000+00:00"
      }
    },
    "request": {
      "method": "PUT",
      "url": "Encounter/f18cf40d-ddc6-44d9-b3b7-4ab0416b636d"
    }
  }, {
    "fullUrl": "https://madie.cms.gov/Encounter/917d4e22-a0c5-4e91-b819-d35d92f611f5",
    "resource": {
      "resourceType": "Encounter",
      "id": "917d4e22-a0c5-4e91-b819-d35d92f611f5",
      "meta": {
        "profile": [ "http://hl7.org/fhir/us/qicore/StructureDefinition/qicore-encounter" ]
      },
      "status": "finished",
      "class": {
        "system": "http://terminology.hl7.org/CodeSystem/v3-ActCode",
        "code": "OBS",
        "display": "Observation services"
      },
      "type": [ {
        "coding": [ {
          "system": "http://snomed.info/sct",
          "code": "448951000124107",
          "display": "Observation services"
        } ]
      } ],
      "period": {
        "start": "2026-07-11T08:00:00.000+00:00",
        "end": "2026-07-11T09:00:00.000+00:00"
      }
    },
    "request": {
      "method": "PUT",
      "url": "Encounter/917d4e22-a0c5-4e91-b819-d35d92f611f5"
    }
  }, {
    "fullUrl": "https://madie.cms.gov/MedicationAdministration/eaddbcc1-c9d1-4c72-bc62-b22e61e807a8",
    "resource": {
      "resourceType": "MedicationAdministration",
      "id": "eaddbcc1-c9d1-4c72-bc62-b22e61e807a8",
      "meta": {
        "profile": [ "http://hl7.org/fhir/us/qicore/StructureDefinition/qicore-medicationadministration" ]
      },
      "status": "completed",
      "medicationCodeableConcept": {
        "coding": [ {
          "system": "http://www.nlm.nih.gov/research/umls/rxnorm",
          "code": "1544488",
          "display": "Hypoglycemics Severe Hypoglycemia"
        } ]
      },
      "subject": {
        "reference": "Patient/423a396b-7d81-476d-b2ea-bc8bba062ce2"
      },
      "effectivePeriod": {
        "start": "2026-07-11T08:00:00.000+00:00",
        "end": "2026-07-11T09:00:00.000+00:00"
      }
    },
    "request": {
      "method": "PUT",
      "url": "MedicationAdministration/eaddbcc1-c9d1-4c72-bc62-b22e61e807a8"
    }
  }, {
    "fullUrl": "https://madie.cms.gov/Patient/423a396b-7d81-476d-b2ea-bc8bba062ce2",
    "resource": {
      "resourceType": "Patient",
      "id": "423a396b-7d81-476d-b2ea-bc8bba062ce2",
      "meta": {
        "profile": [ "http://hl7.org/fhir/us/qicore/StructureDefinition/qicore-patient" ]
      },
      "extension": [ {
        "url": "http://hl7.org/fhir/us/core/StructureDefinition/us-core-race",
        "extension": [ {
          "url": "ombCategory",
          "valueCoding": {
            "system": "urn:oid:2.16.840.1.113883.6.238",
            "code": "2106-3",
            "display": "White"
          }
        }, {
          "url": "text",
          "valueString": "White"
        } ]
      }, {
        "url": "http://hl7.org/fhir/us/core/StructureDefinition/us-core-ethnicity",
        "extension": [ {
          "url": "ombCategory",
          "valueCoding": {
            "system": "urn:oid:2.16.840.1.113883.6.238",
            "code": "2135-2",
            "display": "Hispanic or Latino"
          }
        }, {
          "url": "text",
          "valueString": "Hispanic or Latino"
        } ]
      }, {
        "url": "http://hl7.org/fhir/us/core/StructureDefinition/us-core-sex",
        "valueCode": "248153007"
      } ],
      "identifier": [ {
        "system": "http://hospital.smarthealthit.org",
        "value": "999999999"
      } ],
      "name": [ {
        "family": "Example",
        "given": [ "Patient" ]
      } ],
      "gender": "female",
      "birthDate": "2000-07-11"
    },
    "request": {
      "method": "PUT",
      "url": "Patient/423a396b-7d81-476d-b2ea-bc8bba062ce2"
    }
  }, {
    "fullUrl": "https://madie.cms.gov/MeasureReport/71abfe6c-655f-4ad2-8e11-d07275f052b0",
    "resource": {
      "resourceType": "MeasureReport",
      "id": "71abfe6c-655f-4ad2-8e11-d07275f052b0",
      "meta": {
        "profile": [ "http://hl7.org/fhir/us/cqfmeasures/StructureDefinition/test-case-cqfm" ]
      },
      "contained": [ {
        "resourceType": "Parameters",
        "id": "d2637e61-7a40-4cf6-b39b-7b88577832dd-parameters",
        "parameter": [ {
          "name": "subject",
          "valueString": "423a396b-7d81-476d-b2ea-bc8bba062ce2"
        } ]
      } ],
      "extension": [ {
        "url": "http://hl7.org/fhir/StructureDefinition/cqf-inputParameters",
        "valueReference": {
          "reference": "#d2637e61-7a40-4cf6-b39b-7b88577832dd-parameters"
        }
      }, {
        "url": "http://hl7.org/fhir/us/cqfmeasures/StructureDefinition/cqfm-testCaseDescription",
        "valueMarkdown": "Pt started in Observation, hypoglycemic administered during Observ stay. Pt transferred to inpatient but transfer occurred 1 hour + 1 minute after end of observation stay. Transfer must be within hour or less to meet IPP. "
      } ],
      "modifierExtension": [ {
        "url": "http://hl7.org/fhir/us/cqfmeasures/StructureDefinition/cqfm-isTestCase",
        "valueBoolean": true
      } ],
      "status": "complete",
      "type": "individual",
      "measure": "https://madie.cms.gov/Measure/CMS816FHIRHHHypo",
      "period": {
        "start": "2026-01-01",
        "end": "2026-12-31"
      },
      "group": [ {
        "id": "Group_1",
        "population": [ {
          "id": "InitialPopulation_1",
          "code": {
            "coding": [ {
              "system": "http://terminology.hl7.org/CodeSystem/measure-population",
              "code": "initial-population",
              "display": "Initial Population"
            } ]
          },
          "count": 0
        }, {
          "id": "Denominator_1",
          "code": {
            "coding": [ {
              "system": "http://terminology.hl7.org/CodeSystem/measure-population",
              "code": "denominator",
              "display": "Denominator"
            } ]
          },
          "count": 0
        }, {
          "id": "Numerator_1",
          "code": {
            "coding": [ {
              "system": "http://terminology.hl7.org/CodeSystem/measure-population",
              "code": "numerator",
              "display": "Numerator"
            } ]
          },
          "count": 0
        } ],
        "measureScore": {
          "value": 0.0
        }
      } ],
      "evaluatedResource": [ {
        "reference": "Encounter/f18cf40d-ddc6-44d9-b3b7-4ab0416b636d"
      }, {
        "reference": "Encounter/917d4e22-a0c5-4e91-b819-d35d92f611f5"
      }, {
        "reference": "MedicationAdministration/eaddbcc1-c9d1-4c72-bc62-b22e61e807a8"
      }, {
        "reference": "Patient/423a396b-7d81-476d-b2ea-bc8bba062ce2"
      } ]
    },
    "request": {
      "method": "PUT",
      "url": "MeasureReport/71abfe6c-655f-4ad2-8e11-d07275f052b0"
    }
  } ]
}