{
  "resourceType": "Bundle",
  "id": "6617e30316793f5a4fae16fe",
  "type": "transaction",
  "entry": [ {
    "fullUrl": "https://madie.cms.gov/Patient/8aa551b0-bb5a-435d-909c-9503d7c984d6",
    "resource": {
      "resourceType": "Patient",
      "id": "8aa551b0-bb5a-435d-909c-9503d7c984d6",
      "meta": {
        "profile": [ "http://hl7.org/fhir/us/qicore/StructureDefinition/qicore-patient" ]
      },
      "extension": [ {
        "url": "http://hl7.org/fhir/us/core/StructureDefinition/us-core-race",
        "extension": [ {
          "url": "ombCategory",
          "valueCoding": {
            "system": "urn:oid:2.16.840.1.113883.6.238",
            "code": "1002-5",
            "display": "American Indian or Alaska Native",
            "userSelected": true
          }
        }, {
          "url": "text",
          "valueString": "American Indian or Alaska Native"
        } ]
      }, {
        "url": "http://hl7.org/fhir/us/core/StructureDefinition/us-core-ethnicity",
        "extension": [ {
          "url": "ombCategory",
          "valueCoding": {
            "system": "urn:oid:2.16.840.1.113883.6.238",
            "code": "2135-2",
            "display": "Hispanic or Latino",
            "userSelected": true
          }
        }, {
          "url": "text",
          "valueString": "Hispanic or Latino"
        } ]
      }, {
        "url": "http://hl7.org/fhir/us/core/StructureDefinition/us-core-sex",
        "valueCode": "248153007"
      } ],
      "identifier": [ {
        "type": {
          "coding": [ {
            "system": "http://terminology.hl7.org/CodeSystem/v2-0203",
            "code": "MR"
          } ]
        },
        "system": "https://bonnie-fhir.healthit.gov/",
        "value": "6617e30316793f5a4fae16fe"
      } ],
      "name": [ {
        "family": "NUMERStrat2Pass",
        "given": [ "MultEncLOSwithObs" ]
      } ],
      "gender": "male",
      "birthDate": "2009-01-01"
    },
    "request": {
      "method": "PUT",
      "url": "Patient/8aa551b0-bb5a-435d-909c-9503d7c984d6"
    }
  }, {
    "fullUrl": "https://madie.cms.gov/Encounter/9693c9dd-977e-44f7-bc89-44d7207bdd9d",
    "resource": {
      "resourceType": "Encounter",
      "id": "9693c9dd-977e-44f7-bc89-44d7207bdd9d",
      "meta": {
        "profile": [ "http://hl7.org/fhir/us/qicore/StructureDefinition/qicore-encounter" ]
      },
      "status": "finished",
      "class": {
        "system": "http://terminology.hl7.org/CodeSystem/v3-ActCode",
        "code": "EMER",
        "display": "emergency"
      },
      "type": [ {
        "coding": [ {
          "system": "http://snomed.info/sct",
          "version": "2023-09",
          "code": "4525004",
          "display": "Emergency department patient visit (procedure)",
          "userSelected": true
        } ]
      } ],
      "subject": {
        "reference": "Patient/8aa551b0-bb5a-435d-909c-9503d7c984d6"
      },
      "period": {
        "start": "2027-08-15T04:20:00.000+00:00",
        "end": "2027-08-15T12:21:00.000+00:00"
      },
      "diagnosis": [ {
        "condition": {
          "reference": "Condition/behavioral-health-diagnosis-without-substance-use-disorders-9d16"
        },
        "use": {
          "coding": [ {
            "system": "http://terminology.hl7.org/CodeSystem/diagnosis-role",
            "code": "billing"
          } ]
        },
        "rank": 1
      } ],
      "location": [ {
        "location": {
          "reference": "Location/d905d85c-a06e-49bd-9e88-eeaf5651501b"
        },
        "period": {
          "start": "2027-08-15T04:20:00.000+00:00",
          "end": "2027-08-15T12:21:00.000+00:00"
        }
      } ]
    },
    "request": {
      "method": "PUT",
      "url": "Encounter/9693c9dd-977e-44f7-bc89-44d7207bdd9d"
    }
  }, {
    "fullUrl": "https://madie.cms.gov/Encounter/f18d168c-ce94-4e9b-88b2-b8df9b3850f1",
    "resource": {
      "resourceType": "Encounter",
      "id": "f18d168c-ce94-4e9b-88b2-b8df9b3850f1",
      "meta": {
        "profile": [ "http://hl7.org/fhir/us/qicore/StructureDefinition/qicore-encounter" ]
      },
      "status": "finished",
      "class": {
        "system": "http://terminology.hl7.org/CodeSystem/v3-ActCode",
        "code": "EMER",
        "display": "emergency"
      },
      "type": [ {
        "coding": [ {
          "system": "http://snomed.info/sct",
          "version": "2023-09",
          "code": "4525004",
          "display": "Emergency department patient visit (procedure)",
          "userSelected": true
        } ]
      } ],
      "subject": {
        "reference": "Patient/8aa551b0-bb5a-435d-909c-9503d7c984d6"
      },
      "period": {
        "start": "2027-02-14T05:55:00.000+00:00",
        "end": "2027-02-14T15:20:00.000+00:00"
      },
      "diagnosis": [ {
        "condition": {
          "reference": "Condition/behavioral-health-diagnosis-without-substance-use-disorders-9d16"
        },
        "use": {
          "coding": [ {
            "system": "http://terminology.hl7.org/CodeSystem/diagnosis-role",
            "code": "billing"
          } ]
        },
        "rank": 1
      } ],
      "location": [ {
        "location": {
          "reference": "Location/6ce15d44-96ee-4108-bb71-7b925378d619"
        },
        "period": {
          "start": "2027-02-14T05:45:00.000+00:00",
          "end": "2027-02-14T15:25:00.000+00:00"
        }
      } ]
    },
    "request": {
      "method": "PUT",
      "url": "Encounter/f18d168c-ce94-4e9b-88b2-b8df9b3850f1"
    }
  }, {
    "fullUrl": "https://madie.cms.gov/Location/d905d85c-a06e-49bd-9e88-eeaf5651501b",
    "resource": {
      "resourceType": "Location",
      "id": "d905d85c-a06e-49bd-9e88-eeaf5651501b",
      "meta": {
        "profile": [ "http://hl7.org/fhir/us/qicore/StructureDefinition/qicore-location" ]
      },
      "identifier": [ {
        "use": "usual",
        "system": "http://exampleoflocation.com",
        "value": "B1-S.F2"
      } ],
      "name": "Local ED",
      "type": [ {
        "coding": [ {
          "system": "https://www.cdc.gov/nhsn/cdaportal/terminology/codesystem/hsloc.html",
          "version": "2022",
          "code": "1108-0",
          "display": "Emergency Department",
          "userSelected": true
        } ]
      } ]
    },
    "request": {
      "method": "PUT",
      "url": "Location/d905d85c-a06e-49bd-9e88-eeaf5651501b"
    }
  }, {
    "fullUrl": "https://madie.cms.gov/Location/6ce15d44-96ee-4108-bb71-7b925378d619",
    "resource": {
      "resourceType": "Location",
      "id": "6ce15d44-96ee-4108-bb71-7b925378d619",
      "meta": {
        "profile": [ "http://hl7.org/fhir/us/qicore/StructureDefinition/qicore-location" ]
      },
      "identifier": [ {
        "use": "usual",
        "system": "http://exampleoflocation.com",
        "value": "B1-S.F2"
      } ],
      "name": "Local ED",
      "type": [ {
        "coding": [ {
          "system": "https://www.cdc.gov/nhsn/cdaportal/terminology/codesystem/hsloc.html",
          "version": "2022",
          "code": "1108-0",
          "display": "Emergency Department",
          "userSelected": true
        } ]
      } ]
    },
    "request": {
      "method": "PUT",
      "url": "Location/6ce15d44-96ee-4108-bb71-7b925378d619"
    }
  }, {
    "fullUrl": "https://madie.cms.gov/Encounter/2cdfb269-5227-4a46-ad3d-b8a2379ca502",
    "resource": {
      "resourceType": "Encounter",
      "id": "2cdfb269-5227-4a46-ad3d-b8a2379ca502",
      "meta": {
        "profile": [ "http://hl7.org/fhir/us/qicore/StructureDefinition/qicore-encounter" ]
      },
      "status": "finished",
      "class": {
        "system": "http://terminology.hl7.org/CodeSystem/v3-ActCode",
        "code": "EMER",
        "display": "emergency"
      },
      "type": [ {
        "coding": [ {
          "system": "http://snomed.info/sct",
          "code": "448951000124107",
          "display": "Admission to observation unit (procedure)",
          "userSelected": true
        } ]
      } ],
      "subject": {
        "reference": "Patient/8aa551b0-bb5a-435d-909c-9503d7c984d6"
      },
      "period": {
        "start": "2027-08-15T06:15:00.000+00:00",
        "end": "2027-08-15T12:20:00.000+00:00"
      }
    },
    "request": {
      "method": "PUT",
      "url": "Encounter/2cdfb269-5227-4a46-ad3d-b8a2379ca502"
    }
  }, {
    "fullUrl": "https://madie.cms.gov/Condition/ff742d57-e8b8-4568-8c10-60e486168c3a",
    "resource": {
      "resourceType": "Condition",
      "id": "ff742d57-e8b8-4568-8c10-60e486168c3a",
      "meta": {
        "profile": [ "http://hl7.org/fhir/us/qicore/StructureDefinition/qicore-condition-encounter-diagnosis" ]
      },
      "category": [ {
        "coding": [ {
          "system": "http://terminology.hl7.org/CodeSystem/condition-category",
          "code": "encounter-diagnosis",
          "display": "Encounter Diagnosis"
        } ]
      } ],
      "code": {
        "coding": [ {
          "system": "http://snomed.info/sct",
          "version": "2023-09",
          "code": "10674711000119105",
          "display": "Acute severe exacerbation of asthma co-occurrent with allergic rhinitis (disorder)",
          "userSelected": true
        } ]
      },
      "subject": {
        "reference": "Patient/8aa551b0-bb5a-435d-909c-9503d7c984d6"
      },
      "recordedDate": "2026-04-18T08:00:00.000+00:00"
    },
    "request": {
      "method": "PUT",
      "url": "Condition/ff742d57-e8b8-4568-8c10-60e486168c3a"
    }
  }, {
    "fullUrl": "https://madie.cms.gov/Claim/aea217c0-f841-4b9c-a1b6-3b1227a9428f",
    "resource": {
      "resourceType": "Claim",
      "id": "aea217c0-f841-4b9c-a1b6-3b1227a9428f",
      "meta": {
        "profile": [ "http://hl7.org/fhir/us/qicore/StructureDefinition/qicore-claim" ]
      },
      "status": "active",
      "type": {
        "coding": [ {
          "system": "http://terminology.hl7.org/CodeSystem/claim-type",
          "code": "institutional"
        } ]
      },
      "use": "claim",
      "patient": {
        "reference": "Patient/8aa551b0-bb5a-435d-909c-9503d7c984d6"
      },
      "created": "2027-02-14",
      "provider": {
        "reference": "Practitioner/91c5ddeb-ed23-4b0c-85da-44f7f4143e13"
      },
      "priority": {
        "coding": [ {
          "system": "http://terminology.hl7.org/CodeSystem/processpriority",
          "code": "normal"
        } ]
      },
      "diagnosis": [ {
        "sequence": 1,
        "diagnosisReference": {
          "reference": "Condition/ff742d57-e8b8-4568-8c10-60e486168c3a"
        },
        "type": [ {
          "coding": [ {
            "system": "http://terminology.hl7.org/CodeSystem/ex-diagnosistype",
            "code": "principal"
          } ]
        } ]
      } ],
      "insurance": [ {
        "sequence": 1,
        "focal": true,
        "coverage": {
          "reference": "Coverage/401ca6f5-9d9b-4df3-8aa8-820677cd7a46"
        }
      } ],
      "item": [ {
        "sequence": 1,
        "diagnosisSequence": [ 1 ],
        "productOrService": {
          "coding": [ {
            "system": "http://terminology.hl7.org/CodeSystem/ex-USCLS",
            "code": "99555"
          } ]
        },
        "encounter": [ {
          "reference": "Encounter/9693c9dd-977e-44f7-bc89-44d7207bdd9d"
        } ]
      } ]
    },
    "request": {
      "method": "PUT",
      "url": "Claim/aea217c0-f841-4b9c-a1b6-3b1227a9428f"
    }
  }, {
    "fullUrl": "https://madie.cms.gov/Claim/aea217c0-f841-4b9c-a1b6-3b1227a9428f2",
    "resource": {
      "resourceType": "Claim",
      "id": "aea217c0-f841-4b9c-a1b6-3b1227a9428f2",
      "meta": {
        "profile": [ "http://hl7.org/fhir/us/qicore/StructureDefinition/qicore-claim" ]
      },
      "status": "active",
      "type": {
        "coding": [ {
          "system": "http://terminology.hl7.org/CodeSystem/claim-type",
          "code": "institutional"
        } ]
      },
      "use": "claim",
      "patient": {
        "reference": "Patient/8aa551b0-bb5a-435d-909c-9503d7c984d6"
      },
      "created": "2027-08-15",
      "provider": {
        "reference": "Practitioner/91c5ddeb-ed23-4b0c-85da-44f7f4143e13"
      },
      "priority": {
        "coding": [ {
          "system": "http://terminology.hl7.org/CodeSystem/processpriority",
          "code": "normal"
        } ]
      },
      "diagnosis": [ {
        "sequence": 1,
        "diagnosisReference": {
          "reference": "Condition/ff742d57-e8b8-4568-8c10-60e486168c3a"
        },
        "type": [ {
          "coding": [ {
            "system": "http://terminology.hl7.org/CodeSystem/ex-diagnosistype",
            "code": "principal"
          } ]
        } ]
      } ],
      "insurance": [ {
        "sequence": 1,
        "focal": true,
        "coverage": {
          "reference": "Coverage/401ca6f5-9d9b-4df3-8aa8-820677cd7a46"
        }
      } ],
      "item": [ {
        "sequence": 1,
        "diagnosisSequence": [ 1 ],
        "productOrService": {
          "coding": [ {
            "system": "http://terminology.hl7.org/CodeSystem/ex-USCLS",
            "code": "99555"
          } ]
        },
        "encounter": [ {
          "reference": "Encounter/f18d168c-ce94-4e9b-88b2-b8df9b3850f1"
        } ]
      } ]
    },
    "request": {
      "method": "PUT",
      "url": "Claim/aea217c0-f841-4b9c-a1b6-3b1227a9428f2"
    }
  }, {
    "fullUrl": "https://madie.cms.gov/Coverage/401ca6f5-9d9b-4df3-8aa8-820677cd7a46",
    "resource": {
      "resourceType": "Coverage",
      "id": "401ca6f5-9d9b-4df3-8aa8-820677cd7a46",
      "meta": {
        "profile": [ "http://hl7.org/fhir/us/qicore/StructureDefinition/qicore-coverage" ]
      },
      "identifier": [ {
        "type": {
          "coding": [ {
            "system": "http://terminology.hl7.org/CodeSystem/v2-0203",
            "code": "MB"
          } ]
        }
      } ],
      "status": "active",
      "beneficiary": {
        "reference": "Patient/8aa551b0-bb5a-435d-909c-9503d7c984d6"
      },
      "relationship": {
        "coding": [ {
          "system": "http://terminology.hl7.org/CodeSystem/subscriber-relationship",
          "code": "self"
        } ]
      },
      "payor": [ {
        "reference": "Organization/77c5d50a-52bf-450c-aa25-fb42099f812e"
      } ]
    },
    "request": {
      "method": "PUT",
      "url": "Coverage/401ca6f5-9d9b-4df3-8aa8-820677cd7a46"
    }
  }, {
    "fullUrl": "https://madie.cms.gov/Organization/77c5d50a-52bf-450c-aa25-fb42099f812e",
    "resource": {
      "resourceType": "Organization",
      "id": "77c5d50a-52bf-450c-aa25-fb42099f812e",
      "meta": {
        "profile": [ "http://hl7.org/fhir/us/qicore/StructureDefinition/qicore-organization" ]
      },
      "identifier": [ {
        "use": "temp",
        "system": "urn:oid:2.16.840.1.113883.4.4",
        "value": "21-3259825"
      } ],
      "active": true,
      "type": [ {
        "coding": [ {
          "system": "http://terminology.hl7.org/CodeSystem/organization-type",
          "code": "pay",
          "display": "Payer"
        } ]
      } ],
      "name": "Blue Cross Blue Shield of Texas",
      "telecom": [ {
        "system": "phone",
        "value": "(+1) 972-766-6900"
      } ],
      "address": [ {
        "use": "billing",
        "type": "postal",
        "line": [ "P.O. Box 660044" ],
        "city": "Dallas",
        "state": "TX",
        "postalCode": "75266-0044",
        "country": "USA"
      } ]
    },
    "request": {
      "method": "PUT",
      "url": "Organization/77c5d50a-52bf-450c-aa25-fb42099f812e"
    }
  }, {
    "fullUrl": "https://madie.cms.gov/Practitioner/91c5ddeb-ed23-4b0c-85da-44f7f4143e13",
    "resource": {
      "resourceType": "Practitioner",
      "id": "91c5ddeb-ed23-4b0c-85da-44f7f4143e13",
      "meta": {
        "profile": [ "http://hl7.org/fhir/us/qicore/StructureDefinition/qicore-practitioner" ]
      },
      "identifier": [ {
        "system": "http://hl7.org/fhir/sid/us-npi",
        "value": "9999999896"
      } ],
      "name": [ {
        "family": "Evil",
        "prefix": [ "Dr" ]
      } ]
    },
    "request": {
      "method": "PUT",
      "url": "Practitioner/91c5ddeb-ed23-4b0c-85da-44f7f4143e13"
    }
  }, {
    "fullUrl": "https://madie.cms.gov/MeasureReport/5104ca88-b924-4ee8-8392-3461514ae235",
    "resource": {
      "resourceType": "MeasureReport",
      "id": "5104ca88-b924-4ee8-8392-3461514ae235",
      "meta": {
        "profile": [ "http://hl7.org/fhir/us/cqfmeasures/StructureDefinition/test-case-cqfm" ]
      },
      "contained": [ {
        "resourceType": "Parameters",
        "id": "1a7e3839-7bb2-4443-a9f1-5eced3ba4895-parameters",
        "parameter": [ {
          "name": "subject",
          "valueString": "8aa551b0-bb5a-435d-909c-9503d7c984d6"
        } ]
      } ],
      "extension": [ {
        "url": "http://hl7.org/fhir/StructureDefinition/cqf-inputParameters",
        "valueReference": {
          "reference": "#1a7e3839-7bb2-4443-a9f1-5eced3ba4895-parameters"
        }
      }, {
        "url": "http://hl7.org/fhir/us/cqfmeasures/StructureDefinition/cqfm-testCaseDescription",
        "valueMarkdown": "Adult, Multiple encounters, asthma, over 481 mins LOS, one encounter with observation stay."
      } ],
      "modifierExtension": [ {
        "url": "http://hl7.org/fhir/us/cqfmeasures/StructureDefinition/cqfm-isTestCase",
        "valueBoolean": true
      } ],
      "status": "complete",
      "type": "individual",
      "measure": "https://madie.cms.gov/Measure/CMS1244FHIRECATHOQR",
      "period": {
        "start": "2027-01-01",
        "end": "2027-12-31"
      },
      "group": [ {
        "id": "Group_1",
        "population": [ {
          "id": "InitialPopulation_1",
          "code": {
            "coding": [ {
              "system": "http://terminology.hl7.org/CodeSystem/measure-population",
              "code": "initial-population",
              "display": "Initial Population"
            } ]
          },
          "count": 2
        }, {
          "id": "Denominator_1",
          "code": {
            "coding": [ {
              "system": "http://terminology.hl7.org/CodeSystem/measure-population",
              "code": "denominator",
              "display": "Denominator"
            } ]
          },
          "count": 2
        }, {
          "id": "Numerator_1",
          "code": {
            "coding": [ {
              "system": "http://terminology.hl7.org/CodeSystem/measure-population",
              "code": "numerator",
              "display": "Numerator"
            } ]
          },
          "count": 1
        } ],
        "measureScore": {
          "value": 0.0
        },
        "stratifier": [ {
          "id": "Stratification_1_1",
          "code": [ {
            "text": "Strata-1"
          } ],
          "stratum": [ {
            "value": {
              "text": "Strata-1"
            },
            "population": [ {
              "id": "InitialPopulation_1",
              "code": {
                "coding": [ {
                  "system": "http://terminology.hl7.org/CodeSystem/measure-population",
                  "code": "initial-population",
                  "display": "Initial Population"
                } ]
              },
              "count": 0
            }, {
              "id": "Denominator_1",
              "code": {
                "coding": [ {
                  "system": "http://terminology.hl7.org/CodeSystem/measure-population",
                  "code": "denominator",
                  "display": "Denominator"
                } ]
              },
              "count": 0
            }, {
              "id": "Numerator_1",
              "code": {
                "coding": [ {
                  "system": "http://terminology.hl7.org/CodeSystem/measure-population",
                  "code": "numerator",
                  "display": "Numerator"
                } ]
              },
              "count": 0
            } ]
          } ]
        }, {
          "id": "Stratification_1_2",
          "code": [ {
            "text": "Strata-2"
          } ],
          "stratum": [ {
            "value": {
              "text": "Strata-2"
            },
            "population": [ {
              "id": "InitialPopulation_1",
              "code": {
                "coding": [ {
                  "system": "http://terminology.hl7.org/CodeSystem/measure-population",
                  "code": "initial-population",
                  "display": "Initial Population"
                } ]
              },
              "count": 2
            }, {
              "id": "Denominator_1",
              "code": {
                "coding": [ {
                  "system": "http://terminology.hl7.org/CodeSystem/measure-population",
                  "code": "denominator",
                  "display": "Denominator"
                } ]
              },
              "count": 2
            }, {
              "id": "Numerator_1",
              "code": {
                "coding": [ {
                  "system": "http://terminology.hl7.org/CodeSystem/measure-population",
                  "code": "numerator",
                  "display": "Numerator"
                } ]
              },
              "count": 1
            } ]
          } ]
        }, {
          "id": "Stratification_1_3",
          "code": [ {
            "text": "Strata-3"
          } ],
          "stratum": [ {
            "value": {
              "text": "Strata-3"
            },
            "population": [ {
              "id": "InitialPopulation_1",
              "code": {
                "coding": [ {
                  "system": "http://terminology.hl7.org/CodeSystem/measure-population",
                  "code": "initial-population",
                  "display": "Initial Population"
                } ]
              },
              "count": 0
            }, {
              "id": "Denominator_1",
              "code": {
                "coding": [ {
                  "system": "http://terminology.hl7.org/CodeSystem/measure-population",
                  "code": "denominator",
                  "display": "Denominator"
                } ]
              },
              "count": 0
            }, {
              "id": "Numerator_1",
              "code": {
                "coding": [ {
                  "system": "http://terminology.hl7.org/CodeSystem/measure-population",
                  "code": "numerator",
                  "display": "Numerator"
                } ]
              },
              "count": 0
            } ]
          } ]
        }, {
          "id": "Stratification_1_4",
          "code": [ {
            "text": "Strata-4"
          } ],
          "stratum": [ {
            "value": {
              "text": "Strata-4"
            },
            "population": [ {
              "id": "InitialPopulation_1",
              "code": {
                "coding": [ {
                  "system": "http://terminology.hl7.org/CodeSystem/measure-population",
                  "code": "initial-population",
                  "display": "Initial Population"
                } ]
              },
              "count": 0
            }, {
              "id": "Denominator_1",
              "code": {
                "coding": [ {
                  "system": "http://terminology.hl7.org/CodeSystem/measure-population",
                  "code": "denominator",
                  "display": "Denominator"
                } ]
              },
              "count": 0
            }, {
              "id": "Numerator_1",
              "code": {
                "coding": [ {
                  "system": "http://terminology.hl7.org/CodeSystem/measure-population",
                  "code": "numerator",
                  "display": "Numerator"
                } ]
              },
              "count": 0
            } ]
          } ]
        } ]
      } ],
      "evaluatedResource": [ {
        "reference": "Patient/8aa551b0-bb5a-435d-909c-9503d7c984d6"
      }, {
        "reference": "Encounter/9693c9dd-977e-44f7-bc89-44d7207bdd9d"
      }, {
        "reference": "Encounter/f18d168c-ce94-4e9b-88b2-b8df9b3850f1"
      }, {
        "reference": "Location/d905d85c-a06e-49bd-9e88-eeaf5651501b"
      }, {
        "reference": "Location/6ce15d44-96ee-4108-bb71-7b925378d619"
      }, {
        "reference": "Encounter/2cdfb269-5227-4a46-ad3d-b8a2379ca502"
      }, {
        "reference": "Condition/ff742d57-e8b8-4568-8c10-60e486168c3a"
      }, {
        "reference": "Claim/aea217c0-f841-4b9c-a1b6-3b1227a9428f"
      }, {
        "reference": "Claim/aea217c0-f841-4b9c-a1b6-3b1227a9428f2"
      }, {
        "reference": "Coverage/401ca6f5-9d9b-4df3-8aa8-820677cd7a46"
      }, {
        "reference": "Organization/77c5d50a-52bf-450c-aa25-fb42099f812e"
      }, {
        "reference": "Practitioner/91c5ddeb-ed23-4b0c-85da-44f7f4143e13"
      } ]
    },
    "request": {
      "method": "PUT",
      "url": "MeasureReport/5104ca88-b924-4ee8-8392-3461514ae235"
    }
  } ]
}