{
  "resourceType": "Bundle",
  "id": "6129131b02c62a011f2e5c89",
  "type": "transaction",
  "entry": [ {
    "fullUrl": "https://madie.cms.gov/Patient/451b6853-3734-4c1c-b37e-5904629e0350",
    "resource": {
      "resourceType": "Patient",
      "id": "451b6853-3734-4c1c-b37e-5904629e0350",
      "meta": {
        "profile": [ "http://hl7.org/fhir/us/qicore/StructureDefinition/qicore-patient" ]
      },
      "text": {
        "status": "generated",
        "div": "<div xmlns=\"http://www.w3.org/1999/xhtml\"><div class=\"hapiHeaderText\">3Enc2WithAntithrombotic1WithExcep1Exclu <b>NUMER&amp;DENEXCEPPASS- LCG </b></div><table class=\"hapiPropertyTable\"><tbody><tr><td>Identifier</td><td>be14f222c0646cc5d7ac050774528f5e42a5a6df28c00c64454006e7ac2a1af3</td></tr><tr><td>Date of birth</td><td><span>31 May 1989</span></td></tr></tbody></table></div>"
      },
      "extension": [ {
        "url": "http://hl7.org/fhir/us/core/StructureDefinition/us-core-race",
        "extension": [ {
          "url": "ombCategory",
          "valueCoding": {
            "system": "urn:oid:2.16.840.1.113883.6.238",
            "code": "1002-5",
            "display": "American Indian or Alaska Native",
            "userSelected": true
          }
        }, {
          "url": "text",
          "valueString": "American Indian or Alaska Native"
        } ]
      }, {
        "url": "http://hl7.org/fhir/us/core/StructureDefinition/us-core-ethnicity",
        "extension": [ {
          "url": "ombCategory",
          "valueCoding": {
            "system": "urn:oid:2.16.840.1.113883.6.238",
            "code": "2135-2",
            "display": "Hispanic or Latino",
            "userSelected": true
          }
        }, {
          "url": "text",
          "valueString": "Hispanic or Latino"
        } ]
      } ],
      "identifier": [ {
        "type": {
          "coding": [ {
            "system": "http://terminology.hl7.org/CodeSystem/v2-0203",
            "code": "MR"
          } ]
        },
        "system": "https://bonnie-fhir.healthit.gov/",
        "value": "6129131b02c62a011f2e5c89"
      } ],
      "active": true,
      "name": [ {
        "use": "usual",
        "family": "NUMER&DENEXCEPPass- LCG",
        "given": [ "3Enc2WithAntithrombotic1WithExcep1Exclu" ]
      } ],
      "gender": "male",
      "birthDate": "1999-05-31"
    },
    "request": {
      "method": "PUT",
      "url": "Patient/451b6853-3734-4c1c-b37e-5904629e0350"
    }
  }, {
    "fullUrl": "https://madie.cms.gov/Encounter/b0308413-2403-4ecb-a9b6-cd87180a7579",
    "resource": {
      "resourceType": "Encounter",
      "id": "b0308413-2403-4ecb-a9b6-cd87180a7579",
      "meta": {
        "profile": [ "http://hl7.org/fhir/us/qicore/StructureDefinition/qicore-encounter" ]
      },
      "status": "finished",
      "class": {
        "system": "http://terminology.hl7.org/CodeSystem/v3-ActCode",
        "code": "IMP",
        "display": "inpatient encounter",
        "userSelected": true
      },
      "type": [ {
        "coding": [ {
          "system": "http://snomed.info/sct",
          "code": "183452005"
        } ]
      } ],
      "subject": {
        "reference": "Patient/451b6853-3734-4c1c-b37e-5904629e0350"
      },
      "period": {
        "start": "2026-06-14T09:30:00.000+00:00",
        "end": "2026-06-25T10:30:00.000+00:00"
      },
      "length": {
        "value": 0,
        "unit": "days"
      },
      "diagnosis": [ {
        "condition": {
          "reference": "Condition/e94d3065-dccf-45a6-aeb1-9bfac7c75a5e"
        },
        "use": {
          "coding": [ {
            "system": "http://terminology.hl7.org/CodeSystem/diagnosis-role",
            "code": "billing",
            "display": "Billing"
          } ]
        },
        "rank": 1
      } ]
    },
    "request": {
      "method": "PUT",
      "url": "Encounter/b0308413-2403-4ecb-a9b6-cd87180a7579"
    }
  }, {
    "fullUrl": "https://madie.cms.gov/Encounter/b9ee5db2-6c5d-43ef-8615-7830cfdad53a",
    "resource": {
      "resourceType": "Encounter",
      "id": "b9ee5db2-6c5d-43ef-8615-7830cfdad53a",
      "meta": {
        "profile": [ "http://hl7.org/fhir/us/qicore/StructureDefinition/qicore-encounter" ]
      },
      "status": "finished",
      "class": {
        "system": "http://terminology.hl7.org/CodeSystem/v3-ActCode",
        "code": "IMP",
        "display": "inpatient encounter",
        "userSelected": true
      },
      "type": [ {
        "coding": [ {
          "system": "http://snomed.info/sct",
          "code": "32485007"
        } ]
      } ],
      "subject": {
        "reference": "Patient/451b6853-3734-4c1c-b37e-5904629e0350"
      },
      "period": {
        "start": "2026-06-26T09:30:00.000+00:00",
        "end": "2026-10-12T10:30:00.000+00:00"
      },
      "length": {
        "value": 119,
        "unit": "days"
      },
      "diagnosis": [ {
        "condition": {
          "reference": "Condition/6207a4f0-ed5f-4b1d-9c66-4f7188c8dc1a"
        },
        "use": {
          "coding": [ {
            "system": "http://terminology.hl7.org/CodeSystem/diagnosis-role",
            "code": "billing",
            "display": "Billing"
          } ]
        },
        "rank": 1
      } ],
      "hospitalization": {
        "dischargeDisposition": {
          "coding": [ {
            "system": "http://snomed.info/sct",
            "code": "428361000124107",
            "display": "Discharge to home for hospice care (procedure)"
          } ]
        }
      }
    },
    "request": {
      "method": "PUT",
      "url": "Encounter/b9ee5db2-6c5d-43ef-8615-7830cfdad53a"
    }
  }, {
    "fullUrl": "https://madie.cms.gov/Encounter/1648f21f-1a2c-4625-ad86-c56bb506308d",
    "resource": {
      "resourceType": "Encounter",
      "id": "1648f21f-1a2c-4625-ad86-c56bb506308d",
      "meta": {
        "profile": [ "http://hl7.org/fhir/us/qicore/StructureDefinition/qicore-encounter" ]
      },
      "status": "finished",
      "class": {
        "system": "http://terminology.hl7.org/CodeSystem/v3-ActCode",
        "code": "IMP",
        "display": "inpatient encounter",
        "userSelected": true
      },
      "type": [ {
        "coding": [ {
          "system": "http://snomed.info/sct",
          "code": "183452005"
        } ]
      } ],
      "subject": {
        "reference": "Patient/451b6853-3734-4c1c-b37e-5904629e0350"
      },
      "period": {
        "start": "2026-01-15T11:00:00.000+00:00",
        "end": "2026-01-20T22:15:00.000+00:00"
      },
      "diagnosis": [ {
        "condition": {
          "reference": "Condition/fe420bbd-8c75-48e7-960a-83c5b7362fef"
        },
        "use": {
          "coding": [ {
            "system": "http://terminology.hl7.org/CodeSystem/diagnosis-role",
            "code": "billing",
            "display": "Billing"
          } ]
        },
        "rank": 1
      } ]
    },
    "request": {
      "method": "PUT",
      "url": "Encounter/1648f21f-1a2c-4625-ad86-c56bb506308d"
    }
  }, {
    "fullUrl": "https://madie.cms.gov/ServiceRequest/4c70c036-da2b-4449-b2b8-1e0a7b908ca5",
    "resource": {
      "resourceType": "ServiceRequest",
      "id": "4c70c036-da2b-4449-b2b8-1e0a7b908ca5",
      "meta": {
        "profile": [ "http://hl7.org/fhir/us/qicore/StructureDefinition/qicore-servicerequest" ]
      },
      "status": "active",
      "intent": "order",
      "code": {
        "coding": [ {
          "system": "http://snomed.info/sct",
          "code": "133918004"
        } ]
      },
      "subject": {
        "reference": "Patient/451b6853-3734-4c1c-b37e-5904629e0350"
      },
      "authoredOn": "2026-01-15T11:00:00.000+00:00"
    },
    "request": {
      "method": "PUT",
      "url": "ServiceRequest/4c70c036-da2b-4449-b2b8-1e0a7b908ca5"
    }
  }, {
    "fullUrl": "https://madie.cms.gov/MedicationRequest/f8391920-879e-4bb4-a687-5bc47dd4a95b",
    "resource": {
      "resourceType": "MedicationRequest",
      "id": "f8391920-879e-4bb4-a687-5bc47dd4a95b",
      "meta": {
        "profile": [ "http://hl7.org/fhir/us/qicore/StructureDefinition/qicore-medicationrequest" ]
      },
      "status": "active",
      "intent": "order",
      "category": [ {
        "coding": [ {
          "system": "http://terminology.hl7.org/CodeSystem/medicationrequest-category",
          "code": "discharge",
          "display": "Discharge",
          "userSelected": true
        } ]
      } ],
      "medicationCodeableConcept": {
        "coding": [ {
          "system": "http://www.nlm.nih.gov/research/umls/rxnorm",
          "code": "1037045"
        } ]
      },
      "subject": {
        "reference": "Patient/451b6853-3734-4c1c-b37e-5904629e0350"
      },
      "authoredOn": "2026-10-10T10:00:00.000+00:00",
      "requester": {
        "reference": "Practitioner/example"
      }
    },
    "request": {
      "method": "PUT",
      "url": "MedicationRequest/f8391920-879e-4bb4-a687-5bc47dd4a95b"
    }
  }, {
    "fullUrl": "https://madie.cms.gov/MedicationRequest/7434e734-49b4-4667-8b3d-dc28002c84af",
    "resource": {
      "resourceType": "MedicationRequest",
      "id": "7434e734-49b4-4667-8b3d-dc28002c84af",
      "meta": {
        "profile": [ "http://hl7.org/fhir/us/qicore/StructureDefinition/qicore-medicationrequest" ]
      },
      "status": "active",
      "intent": "order",
      "category": [ {
        "coding": [ {
          "system": "http://terminology.hl7.org/CodeSystem/medicationrequest-category",
          "code": "discharge",
          "display": "Discharge",
          "userSelected": true
        } ]
      } ],
      "medicationCodeableConcept": {
        "coding": [ {
          "system": "http://www.nlm.nih.gov/research/umls/rxnorm",
          "code": "1037045"
        } ]
      },
      "subject": {
        "reference": "Patient/451b6853-3734-4c1c-b37e-5904629e0350"
      },
      "authoredOn": "2026-06-14T09:30:00.000+00:00",
      "requester": {
        "reference": "Practitioner/example"
      }
    },
    "request": {
      "method": "PUT",
      "url": "MedicationRequest/7434e734-49b4-4667-8b3d-dc28002c84af"
    }
  }, {
    "fullUrl": "https://madie.cms.gov/MedicationRequest/982cdebb-4927-46f0-a99c-10551d776c2d",
    "resource": {
      "resourceType": "MedicationRequest",
      "id": "982cdebb-4927-46f0-a99c-10551d776c2d",
      "meta": {
        "profile": [ "http://hl7.org/fhir/us/qicore/StructureDefinition/qicore-medicationrequest" ]
      },
      "status": "active",
      "intent": "order",
      "category": [ {
        "coding": [ {
          "system": "http://terminology.hl7.org/CodeSystem/medicationrequest-category",
          "code": "discharge",
          "display": "Discharge",
          "userSelected": true
        } ]
      } ],
      "medicationCodeableConcept": {
        "coding": [ {
          "system": "http://www.nlm.nih.gov/research/umls/rxnorm",
          "code": "1116635"
        } ]
      },
      "subject": {
        "reference": "Patient/451b6853-3734-4c1c-b37e-5904629e0350"
      },
      "authoredOn": "2026-06-14T09:30:00.000+00:00",
      "requester": {
        "reference": "Practitioner/example"
      }
    },
    "request": {
      "method": "PUT",
      "url": "MedicationRequest/982cdebb-4927-46f0-a99c-10551d776c2d"
    }
  }, {
    "fullUrl": "https://madie.cms.gov/Condition/e94d3065-dccf-45a6-aeb1-9bfac7c75a5e",
    "resource": {
      "resourceType": "Condition",
      "id": "e94d3065-dccf-45a6-aeb1-9bfac7c75a5e",
      "meta": {
        "profile": [ "http://hl7.org/fhir/us/qicore/StructureDefinition/qicore-condition" ]
      },
      "clinicalStatus": {
        "coding": [ {
          "system": "http://terminology.hl7.org/CodeSystem/condition-clinical",
          "code": "active"
        } ]
      },
      "verificationStatus": {
        "coding": [ {
          "system": "http://terminology.hl7.org/CodeSystem/condition-ver-status",
          "code": "confirmed"
        } ]
      },
      "category": [ {
        "coding": [ {
          "system": "http://terminology.hl7.org/CodeSystem/condition-category",
          "code": "encounter-diagnosis",
          "display": "Encounter Diagnosis"
        } ]
      } ],
      "code": {
        "coding": [ {
          "system": "http://snomed.info/sct",
          "version": "2020-09",
          "code": "111297002",
          "display": "Nonparalytic stroke (disorder)",
          "userSelected": true
        } ]
      },
      "subject": {
        "reference": "Patient/451b6853-3734-4c1c-b37e-5904629e0350"
      },
      "recordedDate": "2026-07-15T08:00:00.000+00:00"
    },
    "request": {
      "method": "PUT",
      "url": "Condition/e94d3065-dccf-45a6-aeb1-9bfac7c75a5e"
    }
  }, {
    "fullUrl": "https://madie.cms.gov/Condition/6207a4f0-ed5f-4b1d-9c66-4f7188c8dc1a",
    "resource": {
      "resourceType": "Condition",
      "id": "6207a4f0-ed5f-4b1d-9c66-4f7188c8dc1a",
      "meta": {
        "profile": [ "http://hl7.org/fhir/us/qicore/StructureDefinition/qicore-condition" ]
      },
      "clinicalStatus": {
        "coding": [ {
          "system": "http://terminology.hl7.org/CodeSystem/condition-clinical",
          "code": "active"
        } ]
      },
      "verificationStatus": {
        "coding": [ {
          "system": "http://terminology.hl7.org/CodeSystem/condition-ver-status",
          "code": "confirmed"
        } ]
      },
      "category": [ {
        "coding": [ {
          "system": "http://terminology.hl7.org/CodeSystem/condition-category",
          "code": "encounter-diagnosis",
          "display": "Encounter Diagnosis"
        } ]
      } ],
      "code": {
        "coding": [ {
          "system": "http://snomed.info/sct",
          "version": "2020-09",
          "code": "111297002",
          "display": "Nonparalytic stroke (disorder)",
          "userSelected": true
        } ]
      },
      "subject": {
        "reference": "Patient/451b6853-3734-4c1c-b37e-5904629e0350"
      },
      "recordedDate": "2026-07-15T08:00:00.000+00:00"
    },
    "request": {
      "method": "PUT",
      "url": "Condition/6207a4f0-ed5f-4b1d-9c66-4f7188c8dc1a"
    }
  }, {
    "fullUrl": "https://madie.cms.gov/Condition/fe420bbd-8c75-48e7-960a-83c5b7362fef",
    "resource": {
      "resourceType": "Condition",
      "id": "fe420bbd-8c75-48e7-960a-83c5b7362fef",
      "meta": {
        "profile": [ "http://hl7.org/fhir/us/qicore/StructureDefinition/qicore-condition" ]
      },
      "clinicalStatus": {
        "coding": [ {
          "system": "http://terminology.hl7.org/CodeSystem/condition-clinical",
          "code": "active"
        } ]
      },
      "verificationStatus": {
        "coding": [ {
          "system": "http://terminology.hl7.org/CodeSystem/condition-ver-status",
          "code": "confirmed"
        } ]
      },
      "category": [ {
        "coding": [ {
          "system": "http://terminology.hl7.org/CodeSystem/condition-category",
          "code": "encounter-diagnosis",
          "display": "Encounter Diagnosis"
        } ]
      } ],
      "code": {
        "coding": [ {
          "system": "http://snomed.info/sct",
          "version": "2020-09",
          "code": "111297002",
          "display": "Nonparalytic stroke (disorder)",
          "userSelected": true
        } ]
      },
      "subject": {
        "reference": "Patient/451b6853-3734-4c1c-b37e-5904629e0350"
      },
      "recordedDate": "2026-07-15T08:00:00.000+00:00"
    },
    "request": {
      "method": "PUT",
      "url": "Condition/fe420bbd-8c75-48e7-960a-83c5b7362fef"
    }
  }, {
    "fullUrl": "https://madie.cms.gov/claim/5ca62962b8484628b8de1ec5",
    "resource": {
      "resourceType": "Claim",
      "id": "5ca62962b8484628b8de1ec5",
      "meta": {
        "profile": [ "http://hl7.org/fhir/us/qicore/StructureDefinition/qicore-claim" ]
      },
      "status": "active",
      "type": {
        "coding": [ {
          "system": "http://terminology.hl7.org/CodeSystem/claim-type",
          "code": "institutional"
        } ]
      },
      "use": "claim",
      "patient": {
        "reference": "Patient/d170a0a8-b5ad-4303-b6df-e304dd5f92ad"
      },
      "created": "2026-12-01",
      "provider": {
        "reference": "Practitioner/practitioner-123456"
      },
      "priority": {
        "coding": [ {
          "system": "http://terminology.hl7.org/CodeSystem/processpriority",
          "code": "normal"
        } ]
      },
      "diagnosis": [ {
        "sequence": 1,
        "diagnosisCodeableConcept": {
          "coding": [ {
            "system": "http://hl7.org/fhir/sid/icd-10-cm",
            "code": "I63.00"
          } ]
        },
        "type": [ {
          "coding": [ {
            "system": "http://terminology.hl7.org/CodeSystem/ex-diagnosistype",
            "code": "principal"
          } ]
        } ]
      } ],
      "insurance": [ {
        "sequence": 1,
        "focal": true,
        "coverage": {
          "reference": "Coverage/5fa041661c76ba66d9959367"
        }
      } ],
      "item": [ {
        "sequence": 1,
        "diagnosisSequence": [ 1 ],
        "productOrService": {
          "coding": [ {
            "system": "http://terminology.hl7.org/CodeSystem/ex-USCLS",
            "code": "99555"
          } ]
        },
        "encounter": [ {
          "reference": "Encounter/b0308413-2403-4ecb-a9b6-cd87180a7579"
        } ]
      } ]
    },
    "request": {
      "method": "PUT",
      "url": "Claim/5ca62962b8484628b8de1ec5"
    }
  }, {
    "fullUrl": "https://madie.cms.gov/claim/5ca62962b8484628b8de1ec5",
    "resource": {
      "resourceType": "Claim",
      "id": "5ca62962b8484628b8de1ec5",
      "meta": {
        "profile": [ "http://hl7.org/fhir/us/qicore/StructureDefinition/qicore-claim" ]
      },
      "status": "active",
      "type": {
        "coding": [ {
          "system": "http://terminology.hl7.org/CodeSystem/claim-type",
          "code": "institutional"
        } ]
      },
      "use": "claim",
      "patient": {
        "reference": "Patient/d170a0a8-b5ad-4303-b6df-e304dd5f92ad"
      },
      "created": "2026-12-01",
      "provider": {
        "reference": "Practitioner/practitioner-123456"
      },
      "priority": {
        "coding": [ {
          "system": "http://terminology.hl7.org/CodeSystem/processpriority",
          "code": "normal"
        } ]
      },
      "diagnosis": [ {
        "sequence": 1,
        "diagnosisCodeableConcept": {
          "coding": [ {
            "system": "http://hl7.org/fhir/sid/icd-10-cm",
            "code": "I63.00"
          } ]
        },
        "type": [ {
          "coding": [ {
            "system": "http://terminology.hl7.org/CodeSystem/ex-diagnosistype",
            "code": "principal"
          } ]
        } ]
      } ],
      "insurance": [ {
        "sequence": 1,
        "focal": true,
        "coverage": {
          "reference": "Coverage/5fa041661c76ba66d9959367"
        }
      } ],
      "item": [ {
        "sequence": 1,
        "diagnosisSequence": [ 1 ],
        "productOrService": {
          "coding": [ {
            "system": "http://terminology.hl7.org/CodeSystem/ex-USCLS",
            "code": "99555"
          } ]
        },
        "encounter": [ {
          "reference": "Encounter/b9ee5db2-6c5d-43ef-8615-7830cfdad53a"
        } ]
      } ]
    },
    "request": {
      "method": "PUT",
      "url": "Claim/5ca62962b8484628b8de1ec5"
    }
  }, {
    "fullUrl": "https://madie.cms.gov/claim/5ca62962b8484628b8de1ec5",
    "resource": {
      "resourceType": "Claim",
      "id": "5ca62962b8484628b8de1ec5",
      "meta": {
        "profile": [ "http://hl7.org/fhir/us/qicore/StructureDefinition/qicore-claim" ]
      },
      "status": "active",
      "type": {
        "coding": [ {
          "system": "http://terminology.hl7.org/CodeSystem/claim-type",
          "code": "institutional"
        } ]
      },
      "use": "claim",
      "patient": {
        "reference": "Patient/d170a0a8-b5ad-4303-b6df-e304dd5f92ad"
      },
      "created": "2026-12-01",
      "provider": {
        "reference": "Practitioner/practitioner-123456"
      },
      "priority": {
        "coding": [ {
          "system": "http://terminology.hl7.org/CodeSystem/processpriority",
          "code": "normal"
        } ]
      },
      "diagnosis": [ {
        "sequence": 1,
        "diagnosisCodeableConcept": {
          "coding": [ {
            "system": "http://hl7.org/fhir/sid/icd-10-cm",
            "code": "I63.00"
          } ]
        },
        "type": [ {
          "coding": [ {
            "system": "http://terminology.hl7.org/CodeSystem/ex-diagnosistype",
            "code": "principal"
          } ]
        } ]
      } ],
      "insurance": [ {
        "sequence": 1,
        "focal": true,
        "coverage": {
          "reference": "Coverage/5fa041661c76ba66d9959367"
        }
      } ],
      "item": [ {
        "sequence": 1,
        "diagnosisSequence": [ 1 ],
        "productOrService": {
          "coding": [ {
            "system": "http://terminology.hl7.org/CodeSystem/ex-USCLS",
            "code": "99555"
          } ]
        },
        "encounter": [ {
          "reference": "Encounter/1648f21f-1a2c-4625-ad86-c56bb506308d"
        } ]
      } ]
    },
    "request": {
      "method": "PUT",
      "url": "Claim/5ca62962b8484628b8de1ec5"
    }
  }, {
    "fullUrl": "https://madie.cms.gov/Coverage/9a0ff867-435c-4917-9908-649805fe02ef",
    "resource": {
      "resourceType": "Coverage",
      "id": "9a0ff867-435c-4917-9908-649805fe02ef",
      "meta": {
        "profile": [ "http://hl7.org/fhir/us/qicore/StructureDefinition/qicore-coverage" ]
      },
      "status": "active",
      "beneficiary": {
        "reference": "Patient/451b6853-3734-4c1c-b37e-5904629e0350"
      },
      "payor": [ {
        "reference": "Organization/34342d6d-fe9e-4f4c-994e-004b6330fd49"
      } ]
    },
    "request": {
      "method": "PUT",
      "url": "Coverage/9a0ff867-435c-4917-9908-649805fe02ef"
    }
  }, {
    "fullUrl": "https://madie.cms.gov/Organization/34342d6d-fe9e-4f4c-994e-004b6330fd49",
    "resource": {
      "resourceType": "Organization",
      "id": "34342d6d-fe9e-4f4c-994e-004b6330fd49",
      "meta": {
        "profile": [ "http://hl7.org/fhir/us/qicore/StructureDefinition/qicore-organization" ]
      },
      "identifier": [ {
        "use": "temp",
        "system": "urn:oid:2.16.840.1.113883.4.4",
        "value": "21-3259825"
      } ],
      "active": true,
      "type": [ {
        "coding": [ {
          "system": "http://terminology.hl7.org/CodeSystem/organization-type",
          "code": "pay",
          "display": "Payer"
        } ]
      } ],
      "name": "Blue Cross Blue Shield of Texas",
      "telecom": [ {
        "system": "phone",
        "value": "(+1) 972-766-6900"
      } ],
      "address": [ {
        "use": "billing",
        "type": "postal",
        "line": [ "P.O. Box 660044" ],
        "city": "Dallas",
        "state": "TX",
        "postalCode": "75266-0044",
        "country": "USA"
      } ]
    },
    "request": {
      "method": "PUT",
      "url": "Organization/34342d6d-fe9e-4f4c-994e-004b6330fd49"
    }
  }, {
    "fullUrl": "https://madie.cms.gov/MeasureReport/4eefe8af-efb3-47eb-91df-e2ea877a39e7",
    "resource": {
      "resourceType": "MeasureReport",
      "id": "4eefe8af-efb3-47eb-91df-e2ea877a39e7",
      "meta": {
        "profile": [ "http://hl7.org/fhir/us/cqfmeasures/StructureDefinition/test-case-cqfm" ]
      },
      "contained": [ {
        "resourceType": "Parameters",
        "id": "c1ad12e7-dd72-4ebd-be5f-1bfaab34d649-parameters",
        "parameter": [ {
          "name": "subject",
          "valueString": "451b6853-3734-4c1c-b37e-5904629e0350"
        } ]
      } ],
      "extension": [ {
        "url": "http://hl7.org/fhir/StructureDefinition/cqf-inputParameters",
        "valueReference": {
          "reference": "#c1ad12e7-dd72-4ebd-be5f-1bfaab34d649-parameters"
        }
      }, {
        "url": "http://hl7.org/fhir/us/cqfmeasures/StructureDefinition/cqfm-testCaseDescription",
        "valueMarkdown": "Multiple Episodes of Care:  NUMER, DENEX, DENEX\n"
      } ],
      "modifierExtension": [ {
        "url": "http://hl7.org/fhir/us/cqfmeasures/StructureDefinition/cqfm-isTestCase",
        "valueBoolean": true
      } ],
      "status": "complete",
      "type": "individual",
      "measure": "https://madie.cms.gov/Measure/CMS104FHIRSTKDCAntithrombotic",
      "period": {
        "start": "2026-01-01",
        "end": "2026-12-31"
      },
      "group": [ {
        "id": "Group_1",
        "population": [ {
          "id": "InitialPopulation_1",
          "code": {
            "coding": [ {
              "system": "http://terminology.hl7.org/CodeSystem/measure-population",
              "code": "initial-population",
              "display": "Initial Population"
            } ]
          },
          "count": 3
        }, {
          "id": "Denominator_1",
          "code": {
            "coding": [ {
              "system": "http://terminology.hl7.org/CodeSystem/measure-population",
              "code": "denominator",
              "display": "Denominator"
            } ]
          },
          "count": 3
        }, {
          "id": "DenominatorExclusion_1",
          "code": {
            "coding": [ {
              "system": "http://terminology.hl7.org/CodeSystem/measure-population",
              "code": "denominator-exclusion",
              "display": "Denominator Exclusion"
            } ]
          },
          "count": 2
        }, {
          "id": "Numerator_1",
          "code": {
            "coding": [ {
              "system": "http://terminology.hl7.org/CodeSystem/measure-population",
              "code": "numerator",
              "display": "Numerator"
            } ]
          },
          "count": 1
        }, {
          "id": "DenominatorException_1",
          "code": {
            "coding": [ {
              "system": "http://terminology.hl7.org/CodeSystem/measure-population",
              "code": "denominator-exception",
              "display": "Denominator Exception"
            } ]
          },
          "count": 0
        } ],
        "measureScore": {
          "value": 0.0
        }
      } ],
      "evaluatedResource": [ {
        "reference": "Patient/451b6853-3734-4c1c-b37e-5904629e0350"
      }, {
        "reference": "Encounter/b0308413-2403-4ecb-a9b6-cd87180a7579"
      }, {
        "reference": "Encounter/b9ee5db2-6c5d-43ef-8615-7830cfdad53a"
      }, {
        "reference": "Encounter/1648f21f-1a2c-4625-ad86-c56bb506308d"
      }, {
        "reference": "ServiceRequest/4c70c036-da2b-4449-b2b8-1e0a7b908ca5"
      }, {
        "reference": "MedicationRequest/f8391920-879e-4bb4-a687-5bc47dd4a95b"
      }, {
        "reference": "MedicationRequest/7434e734-49b4-4667-8b3d-dc28002c84af"
      }, {
        "reference": "MedicationRequest/982cdebb-4927-46f0-a99c-10551d776c2d"
      }, {
        "reference": "Condition/e94d3065-dccf-45a6-aeb1-9bfac7c75a5e"
      }, {
        "reference": "Condition/6207a4f0-ed5f-4b1d-9c66-4f7188c8dc1a"
      }, {
        "reference": "Condition/fe420bbd-8c75-48e7-960a-83c5b7362fef"
      }, {
        "reference": "Claim/5ca62962b8484628b8de1ec5"
      }, {
        "reference": "Claim/5ca62962b8484628b8de1ec5"
      }, {
        "reference": "Claim/5ca62962b8484628b8de1ec5"
      }, {
        "reference": "Coverage/9a0ff867-435c-4917-9908-649805fe02ef"
      }, {
        "reference": "Organization/34342d6d-fe9e-4f4c-994e-004b6330fd49"
      } ]
    },
    "request": {
      "method": "PUT",
      "url": "MeasureReport/4eefe8af-efb3-47eb-91df-e2ea877a39e7"
    }
  } ]
}