{
  "resourceType": "Bundle",
  "id": "6109650598086b538055a10a",
  "type": "transaction",
  "entry": [ {
    "fullUrl": "https://madie.cms.gov/Patient/3ffb92ef-e745-4a3a-be24-67f4ffbdbfe4",
    "resource": {
      "resourceType": "Patient",
      "id": "3ffb92ef-e745-4a3a-be24-67f4ffbdbfe4",
      "meta": {
        "profile": [ "http://hl7.org/fhir/us/qicore/StructureDefinition/qicore-patient" ]
      },
      "text": {
        "status": "generated",
        "div": "<div xmlns=\"http://www.w3.org/1999/xhtml\"><div class=\"hapiHeaderText\">2MDDEnc1Assess <b>NUMERPASS </b></div><table class=\"hapiPropertyTable\"><tbody><tr><td>Identifier</td><td>37af65ee978413c9a2c36b613d2a793d044ad1b39147fb3cd040f6b56615f93d</td></tr><tr><td>Date of birth</td><td><span>01 January 1996</span></td></tr></tbody></table></div>"
      },
      "extension": [ {
        "url": "http://hl7.org/fhir/us/core/StructureDefinition/us-core-race",
        "extension": [ {
          "url": "ombCategory",
          "valueCoding": {
            "system": "urn:oid:2.16.840.1.113883.6.238",
            "code": "1002-5",
            "display": "American Indian or Alaska Native",
            "userSelected": true
          }
        }, {
          "url": "text",
          "valueString": "American Indian or Alaska Native"
        } ]
      }, {
        "url": "http://hl7.org/fhir/us/core/StructureDefinition/us-core-ethnicity",
        "extension": [ {
          "url": "ombCategory",
          "valueCoding": {
            "system": "urn:oid:2.16.840.1.113883.6.238",
            "code": "2186-5",
            "display": "Not Hispanic or Latino",
            "userSelected": true
          }
        }, {
          "url": "text",
          "valueString": "Not Hispanic or Latino"
        } ]
      } ],
      "identifier": [ {
        "type": {
          "coding": [ {
            "system": "http://terminology.hl7.org/CodeSystem/v2-0203",
            "code": "MR"
          } ]
        },
        "system": "https://bonnie-fhir.healthit.gov/",
        "value": "6109650598086b538055a10a"
      } ],
      "active": true,
      "name": [ {
        "use": "usual",
        "family": "NUMPass",
        "given": [ "TwoEncOneRiskAssmt" ]
      } ],
      "gender": "female",
      "birthDate": "2011-01-01"
    },
    "request": {
      "method": "PUT",
      "url": "Patient/3ffb92ef-e745-4a3a-be24-67f4ffbdbfe4"
    }
  }, {
    "fullUrl": "https://madie.cms.gov/Encounter/7b6cab20-921c-42e6-846a-c6fc41f004db",
    "resource": {
      "resourceType": "Encounter",
      "id": "7b6cab20-921c-42e6-846a-c6fc41f004db",
      "meta": {
        "profile": [ "http://hl7.org/fhir/us/qicore/StructureDefinition/qicore-encounter" ]
      },
      "status": "finished",
      "class": {
        "system": "http://terminology.hl7.org/CodeSystem/v3-ActCode",
        "code": "AMB",
        "display": "ambulatory",
        "userSelected": true
      },
      "type": [ {
        "coding": [ {
          "system": "http://www.ama-assn.org/go/cpt",
          "code": "90846"
        } ]
      } ],
      "subject": {
        "reference": "Patient/3ffb92ef-e745-4a3a-be24-67f4ffbdbfe4"
      },
      "period": {
        "start": "2026-02-09T08:00:00.000+00:00",
        "end": "2026-02-09T08:15:00.000+00:00"
      },
      "length": {
        "value": 0.0,
        "unit": "days"
      },
      "reasonCode": [ {
        "coding": [ {
          "system": "http://snomed.info/sct",
          "version": "2020-09",
          "code": "10811161000119107",
          "display": "Major depressive disorder in mother complicating pregnancy (disorder)",
          "userSelected": true
        } ]
      } ],
      "diagnosis": [ {
        "condition": {
          "reference": "Condition/31bcf9ab-1ae2-4ad2-a75d-76979530bfc6"
        },
        "use": {
          "coding": [ {
            "system": "http://snomed.info/sct",
            "version": "2022-09",
            "code": "10811161000119107",
            "display": "Major depressive disorder in mother complicating pregnancy (disorder)",
            "userSelected": true
          } ]
        }
      } ]
    },
    "request": {
      "method": "PUT",
      "url": "Encounter/7b6cab20-921c-42e6-846a-c6fc41f004db"
    }
  }, {
    "fullUrl": "https://madie.cms.gov/Encounter/a1431202-ec63-4a42-b8d0-87a8f7aeaa03",
    "resource": {
      "resourceType": "Encounter",
      "id": "a1431202-ec63-4a42-b8d0-87a8f7aeaa03",
      "meta": {
        "profile": [ "http://hl7.org/fhir/us/qicore/StructureDefinition/qicore-encounter" ]
      },
      "status": "finished",
      "class": {
        "system": "http://terminology.hl7.org/CodeSystem/v3-ActCode",
        "code": "AMB",
        "display": "ambulatory",
        "userSelected": true
      },
      "type": [ {
        "coding": [ {
          "system": "http://www.ama-assn.org/go/cpt",
          "code": "90832"
        } ]
      } ],
      "subject": {
        "reference": "Patient/3ffb92ef-e745-4a3a-be24-67f4ffbdbfe4"
      },
      "period": {
        "start": "2026-04-05T08:00:00.000+00:00",
        "end": "2026-04-05T08:15:00.000+00:00"
      },
      "length": {
        "value": 0.0,
        "unit": "days"
      },
      "reasonCode": [ {
        "coding": [ {
          "system": "http://snomed.info/sct",
          "version": "2022-09",
          "code": "10811161000119107",
          "display": "Major depressive disorder in mother complicating pregnancy (disorder)",
          "userSelected": true
        } ]
      } ],
      "diagnosis": [ {
        "condition": {
          "reference": "Condition/71e8304a-f33a-4af6-abf6-89d84ee98298"
        },
        "use": {
          "coding": [ {
            "system": "http://snomed.info/sct",
            "version": "2022-09",
            "code": "10811161000119107",
            "display": "Major depressive disorder in mother complicating pregnancy (disorder)",
            "userSelected": true
          } ]
        }
      } ]
    },
    "request": {
      "method": "PUT",
      "url": "Encounter/a1431202-ec63-4a42-b8d0-87a8f7aeaa03"
    }
  }, {
    "fullUrl": "https://madie.cms.gov/Procedure/0135162c-eff4-4ad5-912c-4249b43a079f",
    "resource": {
      "resourceType": "Procedure",
      "id": "0135162c-eff4-4ad5-912c-4249b43a079f",
      "meta": {
        "profile": [ "http://hl7.org/fhir/us/qicore/StructureDefinition/qicore-procedure" ]
      },
      "extension": [ {
        "url": "http://hl7.org/fhir/us/qicore/StructureDefinition/qicore-recorded",
        "valueDateTime": "2026-04-05T08:01:00.000+00:00"
      } ],
      "status": "completed",
      "code": {
        "coding": [ {
          "system": "http://snomed.info/sct",
          "code": "225337009"
        } ]
      },
      "subject": {
        "reference": "Patient/3ffb92ef-e745-4a3a-be24-67f4ffbdbfe4"
      },
      "performedDateTime": "2026-04-05T08:01:00.000+00:00"
    },
    "request": {
      "method": "PUT",
      "url": "Procedure/0135162c-eff4-4ad5-912c-4249b43a079f"
    }
  }, {
    "fullUrl": "https://madie.cms.gov/Condition/31bcf9ab-1ae2-4ad2-a75d-76979530bfc6",
    "resource": {
      "resourceType": "Condition",
      "id": "31bcf9ab-1ae2-4ad2-a75d-76979530bfc6",
      "meta": {
        "profile": [ "http://hl7.org/fhir/us/qicore/StructureDefinition/qicore-condition" ]
      },
      "category": [ {
        "coding": [ {
          "system": "http://terminology.hl7.org/CodeSystem/condition-category",
          "code": "encounter-diagnosis",
          "display": "encounter-diagnosis",
          "userSelected": true
        } ]
      } ],
      "code": {
        "coding": [ {
          "system": "http://snomed.info/sct",
          "version": "2022-09",
          "code": "10811121000119102",
          "display": "Major depressive disorder in mother complicating childbirth (disorder)",
          "userSelected": true
        } ]
      },
      "subject": {
        "reference": "Patient/3ffb92ef-e745-4a3a-be24-67f4ffbdbfe4"
      },
      "recordedDate": "2026-02-09T08:00:00.000+00:00"
    },
    "request": {
      "method": "PUT",
      "url": "Condition/31bcf9ab-1ae2-4ad2-a75d-76979530bfc6"
    }
  }, {
    "fullUrl": "https://madie.cms.gov/Condition/71e8304a-f33a-4af6-abf6-89d84ee98298",
    "resource": {
      "resourceType": "Condition",
      "id": "71e8304a-f33a-4af6-abf6-89d84ee98298",
      "meta": {
        "profile": [ "http://hl7.org/fhir/us/qicore/StructureDefinition/qicore-condition" ]
      },
      "category": [ {
        "coding": [ {
          "system": "http://terminology.hl7.org/CodeSystem/condition-category",
          "code": "encounter-diagnosis",
          "display": "encounter-diagnosis",
          "userSelected": true
        } ]
      } ],
      "code": {
        "coding": [ {
          "system": "http://snomed.info/sct",
          "version": "2022-09",
          "code": "10811121000119102",
          "display": "Major depressive disorder in mother complicating childbirth (disorder)",
          "userSelected": true
        } ]
      },
      "subject": {
        "reference": "Patient/3ffb92ef-e745-4a3a-be24-67f4ffbdbfe4"
      },
      "recordedDate": "2026-04-05T08:00:00.000+00:00"
    },
    "request": {
      "method": "PUT",
      "url": "Condition/71e8304a-f33a-4af6-abf6-89d84ee98298"
    }
  }, {
    "fullUrl": "https://madie.cms.gov/Coverage/f84ef5a2-70a9-4b82-afc9-d6fc07d66d22",
    "resource": {
      "resourceType": "Coverage",
      "id": "f84ef5a2-70a9-4b82-afc9-d6fc07d66d22",
      "meta": {
        "profile": [ "http://hl7.org/fhir/us/qicore/StructureDefinition/qicore-coverage" ]
      },
      "identifier": [ {
        "system": "http://benefitsinc.com/certificate",
        "value": "12345"
      } ],
      "status": "active",
      "type": {
        "coding": [ {
          "system": "https://nahdo.org/sopt",
          "version": "9.2",
          "code": "1",
          "display": "MEDICARE",
          "userSelected": true
        } ]
      },
      "beneficiary": {
        "reference": "Patient/3ffb92ef-e745-4a3a-be24-67f4ffbdbfe4"
      },
      "period": {
        "start": "2026-01-01T08:00:00.000+00:00",
        "end": "2026-09-01T08:15:00.000+00:00"
      },
      "payor": [ {
        "reference": "Organization/1a1f3c13-c038-41c4-be78-6347908f226a"
      } ]
    },
    "request": {
      "method": "PUT",
      "url": "Coverage/f84ef5a2-70a9-4b82-afc9-d6fc07d66d22"
    }
  }, {
    "fullUrl": "https://madie.cms.gov/Organization/1a1f3c13-c038-41c4-be78-6347908f226a",
    "resource": {
      "resourceType": "Organization",
      "id": "1a1f3c13-c038-41c4-be78-6347908f226a",
      "meta": {
        "profile": [ "http://hl7.org/fhir/us/qicore/StructureDefinition/qicore-organization" ]
      },
      "identifier": [ {
        "use": "temp",
        "system": "urn:oid:2.16.840.1.113883.4.4",
        "value": "21-3259825"
      } ],
      "active": true,
      "type": [ {
        "coding": [ {
          "system": "http://terminology.hl7.org/CodeSystem/organization-type",
          "code": "pay",
          "display": "Payer"
        } ]
      } ],
      "name": "Blue Cross Blue Shield of Texas",
      "telecom": [ {
        "system": "phone",
        "value": "(+1) 972-766-6900"
      } ],
      "address": [ {
        "use": "billing",
        "type": "postal",
        "line": [ "P.O. Box 660044" ],
        "city": "Dallas",
        "state": "TX",
        "postalCode": "75266-0044",
        "country": "USA"
      } ]
    },
    "request": {
      "method": "PUT",
      "url": "Organization/1a1f3c13-c038-41c4-be78-6347908f226a"
    }
  }, {
    "fullUrl": "https://madie.cms.gov/Practitioner/c32964c1-b6c5-4939-b394-e08b9d1d3b01",
    "resource": {
      "resourceType": "Practitioner",
      "id": "c32964c1-b6c5-4939-b394-e08b9d1d3b01",
      "meta": {
        "profile": [ "http://hl7.org/fhir/us/qicore/StructureDefinition/qicore-practitioner" ]
      },
      "identifier": [ {
        "system": "http://hl7.org/fhir/sid/us-npi",
        "value": "123456"
      } ],
      "name": [ {
        "family": "Evil",
        "prefix": [ "Dr" ]
      } ]
    },
    "request": {
      "method": "PUT",
      "url": "Practitioner/c32964c1-b6c5-4939-b394-e08b9d1d3b01"
    }
  }, {
    "fullUrl": "https://madie.cms.gov/MeasureReport/2a56052c-6eed-4028-82dc-9d384ace1e02",
    "resource": {
      "resourceType": "MeasureReport",
      "id": "2a56052c-6eed-4028-82dc-9d384ace1e02",
      "meta": {
        "profile": [ "http://hl7.org/fhir/us/cqfmeasures/StructureDefinition/test-case-cqfm" ]
      },
      "contained": [ {
        "resourceType": "Parameters",
        "id": "17c78c21-7502-4336-a036-12d829ab79d8-parameters",
        "parameter": [ {
          "name": "subject",
          "valueString": "3ffb92ef-e745-4a3a-be24-67f4ffbdbfe4"
        } ]
      } ],
      "extension": [ {
        "url": "http://hl7.org/fhir/StructureDefinition/cqf-inputParameters",
        "valueReference": {
          "reference": "#17c78c21-7502-4336-a036-12d829ab79d8-parameters"
        }
      }, {
        "url": "http://hl7.org/fhir/us/cqfmeasures/StructureDefinition/cqfm-testCaseDescription",
        "valueMarkdown": "Patient with Psych Visit, Family Psychotherapy and Psych Visit, and Psychotherapy encounters and Suicide Risk assessment.\n"
      } ],
      "modifierExtension": [ {
        "url": "http://hl7.org/fhir/us/cqfmeasures/StructureDefinition/cqfm-isTestCase",
        "valueBoolean": true
      } ],
      "status": "complete",
      "type": "individual",
      "measure": "https://madie.cms.gov/Measure/CMS177FHIRChildMDDSuicideAssmt",
      "period": {
        "start": "2026-01-01",
        "end": "2026-12-31"
      },
      "group": [ {
        "id": "Group_1",
        "population": [ {
          "id": "InitialPopulation_1",
          "code": {
            "coding": [ {
              "system": "http://terminology.hl7.org/CodeSystem/measure-population",
              "code": "initial-population",
              "display": "Initial Population"
            } ]
          },
          "count": 2
        }, {
          "id": "Denominator_1",
          "code": {
            "coding": [ {
              "system": "http://terminology.hl7.org/CodeSystem/measure-population",
              "code": "denominator",
              "display": "Denominator"
            } ]
          },
          "count": 2
        }, {
          "id": "Numerator_1",
          "code": {
            "coding": [ {
              "system": "http://terminology.hl7.org/CodeSystem/measure-population",
              "code": "numerator",
              "display": "Numerator"
            } ]
          },
          "count": 1
        } ],
        "measureScore": {
          "value": 0.0
        }
      } ],
      "evaluatedResource": [ {
        "reference": "Patient/3ffb92ef-e745-4a3a-be24-67f4ffbdbfe4"
      }, {
        "reference": "Encounter/7b6cab20-921c-42e6-846a-c6fc41f004db"
      }, {
        "reference": "Encounter/a1431202-ec63-4a42-b8d0-87a8f7aeaa03"
      }, {
        "reference": "Procedure/0135162c-eff4-4ad5-912c-4249b43a079f"
      }, {
        "reference": "Condition/31bcf9ab-1ae2-4ad2-a75d-76979530bfc6"
      }, {
        "reference": "Condition/71e8304a-f33a-4af6-abf6-89d84ee98298"
      }, {
        "reference": "Coverage/f84ef5a2-70a9-4b82-afc9-d6fc07d66d22"
      }, {
        "reference": "Organization/1a1f3c13-c038-41c4-be78-6347908f226a"
      }, {
        "reference": "Practitioner/c32964c1-b6c5-4939-b394-e08b9d1d3b01"
      } ]
    },
    "request": {
      "method": "PUT",
      "url": "MeasureReport/2a56052c-6eed-4028-82dc-9d384ace1e02"
    }
  } ]
}