{
  "resourceType": "Bundle",
  "id": "612e6af202c62a011f2ebdd1",
  "type": "transaction",
  "entry": [ {
    "fullUrl": "https://madie.cms.gov/Patient/ef0bebdc-61bf-4233-abd3-1f3c99a2cd8d",
    "resource": {
      "resourceType": "Patient",
      "id": "ef0bebdc-61bf-4233-abd3-1f3c99a2cd8d",
      "meta": {
        "profile": [ "http://hl7.org/fhir/us/qicore/StructureDefinition/qicore-patient" ]
      },
      "text": {
        "status": "generated",
        "div": "<div xmlns=\"http://www.w3.org/1999/xhtml\"><div class=\"hapiHeaderText\">MAOralXaDayAFEncStartHipSurgDrgEnc <b>NUMERPASS </b></div><table class=\"hapiPropertyTable\"><tbody><tr><td>Date of birth</td><td><span>02 January 1974</span></td></tr></tbody></table></div>"
      },
      "extension": [ {
        "url": "http://hl7.org/fhir/us/core/StructureDefinition/us-core-race",
        "extension": [ {
          "url": "ombCategory",
          "valueCoding": {
            "system": "urn:oid:2.16.840.1.113883.6.238",
            "code": "1002-5",
            "display": "American Indian or Alaska Native",
            "userSelected": true
          }
        }, {
          "url": "text",
          "valueString": "American Indian or Alaska Native"
        } ]
      }, {
        "url": "http://hl7.org/fhir/us/core/StructureDefinition/us-core-ethnicity",
        "extension": [ {
          "url": "ombCategory",
          "valueCoding": {
            "system": "urn:oid:2.16.840.1.113883.6.238",
            "code": "2135-2",
            "display": "Hispanic or Latino",
            "userSelected": true
          }
        }, {
          "url": "text",
          "valueString": "Hispanic or Latino"
        } ]
      } ],
      "identifier": [ {
        "type": {
          "coding": [ {
            "system": "http://terminology.hl7.org/CodeSystem/v2-0203",
            "code": "MR"
          } ]
        },
        "system": "https://bonnie-fhir.healthit.gov/",
        "value": "612e6af202c62a011f2ebdd1"
      } ],
      "active": true,
      "name": [ {
        "use": "usual",
        "family": "NUMERPass",
        "given": [ "MAOralXaDayAFEncStartHipSurgDrgEnc" ]
      } ],
      "gender": "female",
      "birthDate": "1975-01-02"
    },
    "request": {
      "method": "PUT",
      "url": "Patient/ef0bebdc-61bf-4233-abd3-1f3c99a2cd8d"
    }
  }, {
    "fullUrl": "https://madie.cms.gov/Encounter/26aa2dee-de3e-4892-b7f7-8f168c18221e",
    "resource": {
      "resourceType": "Encounter",
      "id": "26aa2dee-de3e-4892-b7f7-8f168c18221e",
      "meta": {
        "profile": [ "http://hl7.org/fhir/us/qicore/StructureDefinition/qicore-encounter" ]
      },
      "status": "finished",
      "class": {
        "system": "http://terminology.hl7.org/CodeSystem/v3-ActCode",
        "code": "IMP",
        "display": "inpatient encounter"
      },
      "type": [ {
        "coding": [ {
          "system": "http://snomed.info/sct",
          "code": "183452005"
        } ]
      } ],
      "subject": {
        "reference": "Patient/ef0bebdc-61bf-4233-abd3-1f3c99a2cd8d"
      },
      "period": {
        "start": "2026-11-01T08:00:00.000+00:00",
        "end": "2026-11-26T08:15:00.000+00:00"
      },
      "length": {
        "value": 25.0,
        "unit": "day"
      }
    },
    "request": {
      "method": "PUT",
      "url": "Encounter/26aa2dee-de3e-4892-b7f7-8f168c18221e"
    }
  }, {
    "fullUrl": "https://madie.cms.gov/Coverage/fdcec1f6-f10e-4934-a3de-b4d9151e1e2e",
    "resource": {
      "resourceType": "Coverage",
      "id": "fdcec1f6-f10e-4934-a3de-b4d9151e1e2e",
      "status": "active",
      "beneficiary": {
        "reference": "Patient/ef0bebdc-61bf-4233-abd3-1f3c99a2cd8d"
      },
      "period": {
        "start": "1975-01-02T08:00:00.000+00:00"
      },
      "payor": [ {
        "reference": "Organization/58a74e76-e323-4d5c-9f5b-74144ffade79"
      } ]
    },
    "request": {
      "method": "PUT",
      "url": "Coverage/fdcec1f6-f10e-4934-a3de-b4d9151e1e2e"
    }
  }, {
    "fullUrl": "https://madie.cms.gov/MedicationAdministration/218a649f-fd86-4d5a-ad85-0584fcb2fbaf",
    "resource": {
      "resourceType": "MedicationAdministration",
      "id": "218a649f-fd86-4d5a-ad85-0584fcb2fbaf",
      "meta": {
        "profile": [ "http://hl7.org/fhir/us/qicore/StructureDefinition/qicore-medicationadministration" ]
      },
      "status": "completed",
      "medicationCodeableConcept": {
        "coding": [ {
          "system": "http://www.nlm.nih.gov/research/umls/rxnorm",
          "code": "1992427"
        } ]
      },
      "subject": {
        "reference": "Patient/ef0bebdc-61bf-4233-abd3-1f3c99a2cd8d"
      },
      "effectivePeriod": {
        "start": "2026-11-02T23:59:00.000+00:00",
        "end": "2026-11-02T23:59:00.000+00:00"
      }
    },
    "request": {
      "method": "PUT",
      "url": "MedicationAdministration/218a649f-fd86-4d5a-ad85-0584fcb2fbaf"
    }
  }, {
    "fullUrl": "https://madie.cms.gov/Procedure/7c8ca642-4e37-4248-889f-668bbaa3a33e",
    "resource": {
      "resourceType": "Procedure",
      "id": "7c8ca642-4e37-4248-889f-668bbaa3a33e",
      "meta": {
        "profile": [ "http://hl7.org/fhir/us/qicore/StructureDefinition/qicore-procedure" ]
      },
      "extension": [ {
        "url": "http://hl7.org/fhir/us/qicore/StructureDefinition/qicore-recorded",
        "valueDateTime": "2013-11-19T13:35:00.000+00:00"
      } ],
      "status": "completed",
      "code": {
        "coding": [ {
          "system": "http://snomed.info/sct",
          "code": "386649003"
        } ]
      },
      "subject": {
        "reference": "Patient/ef0bebdc-61bf-4233-abd3-1f3c99a2cd8d"
      },
      "performedPeriod": {
        "start": "2026-11-01T09:00:00.000+00:00"
      }
    },
    "request": {
      "method": "PUT",
      "url": "Procedure/7c8ca642-4e37-4248-889f-668bbaa3a33e"
    }
  }, {
    "fullUrl": "https://madie.cms.gov/Organization/58a74e76-e323-4d5c-9f5b-74144ffade79",
    "resource": {
      "resourceType": "Organization",
      "id": "58a74e76-e323-4d5c-9f5b-74144ffade79",
      "meta": {
        "profile": [ "http://hl7.org/fhir/us/qicore/StructureDefinition/qicore-organization" ]
      },
      "identifier": [ {
        "use": "temp",
        "system": "urn:oid:2.16.840.1.113883.4.4",
        "value": "21-3259825"
      } ],
      "active": true,
      "type": [ {
        "coding": [ {
          "system": "http://terminology.hl7.org/CodeSystem/organization-type",
          "code": "pay",
          "display": "Payer"
        } ]
      } ],
      "name": "Blue Cross Blue Shield of Texas",
      "telecom": [ {
        "system": "phone",
        "value": "(+1) 972-766-6900"
      } ],
      "address": [ {
        "use": "billing",
        "type": "postal",
        "line": [ "P.O. Box 660044" ],
        "city": "Dallas",
        "state": "TX",
        "postalCode": "75266-0044",
        "country": "USA"
      } ]
    },
    "request": {
      "method": "PUT",
      "url": "Organization/58a74e76-e323-4d5c-9f5b-74144ffade79"
    }
  }, {
    "fullUrl": "https://madie.cms.gov/Practitioner/d33c7213-b91f-4d16-8887-0edd88e19531",
    "resource": {
      "resourceType": "Practitioner",
      "id": "d33c7213-b91f-4d16-8887-0edd88e19531",
      "identifier": [ {
        "system": "http://hl7.org/fhir/sid/us-npi",
        "value": "123456"
      } ],
      "name": [ {
        "family": "Evil",
        "prefix": [ "Dr" ]
      } ]
    },
    "request": {
      "method": "PUT",
      "url": "Practitioner/d33c7213-b91f-4d16-8887-0edd88e19531"
    }
  }, {
    "fullUrl": "https://madie.cms.gov/MeasureReport/f5ba850b-1b3c-4f35-996d-1da145271c0a",
    "resource": {
      "resourceType": "MeasureReport",
      "id": "f5ba850b-1b3c-4f35-996d-1da145271c0a",
      "meta": {
        "profile": [ "http://hl7.org/fhir/us/cqfmeasures/StructureDefinition/test-case-cqfm" ]
      },
      "contained": [ {
        "resourceType": "Parameters",
        "id": "b2ef05b5-487f-47a3-a5d8-376789e4f756-parameters",
        "parameter": [ {
          "name": "subject",
          "valueString": "ef0bebdc-61bf-4233-abd3-1f3c99a2cd8d"
        } ]
      } ],
      "extension": [ {
        "url": "http://hl7.org/fhir/StructureDefinition/cqf-inputParameters",
        "valueReference": {
          "reference": "#b2ef05b5-487f-47a3-a5d8-376789e4f756-parameters"
        }
      }, {
        "url": "http://hl7.org/fhir/us/cqfmeasures/StructureDefinition/cqfm-testCaseDescription",
        "valueMarkdown": "\"Oral Xa 11:59PM day after Inp.start\nHip replacement history\"\n"
      } ],
      "modifierExtension": [ {
        "url": "http://hl7.org/fhir/us/cqfmeasures/StructureDefinition/cqfm-isTestCase",
        "valueBoolean": true
      } ],
      "status": "complete",
      "type": "individual",
      "measure": "https://madie.cms.gov/Measure/CMS108FHIRVTEProphylaxis",
      "period": {
        "start": "2026-01-01",
        "end": "2026-12-31"
      },
      "group": [ {
        "id": "Group_1",
        "population": [ {
          "id": "InitialPopulation_1",
          "code": {
            "coding": [ {
              "system": "http://terminology.hl7.org/CodeSystem/measure-population",
              "code": "initial-population",
              "display": "Initial Population"
            } ]
          },
          "count": 1
        }, {
          "id": "Denominator_1",
          "code": {
            "coding": [ {
              "system": "http://terminology.hl7.org/CodeSystem/measure-population",
              "code": "denominator",
              "display": "Denominator"
            } ]
          },
          "count": 1
        }, {
          "id": "DenominatorExclusion_1",
          "code": {
            "coding": [ {
              "system": "http://terminology.hl7.org/CodeSystem/measure-population",
              "code": "denominator-exclusion",
              "display": "Denominator Exclusion"
            } ]
          },
          "count": 0
        }, {
          "id": "Numerator_1",
          "code": {
            "coding": [ {
              "system": "http://terminology.hl7.org/CodeSystem/measure-population",
              "code": "numerator",
              "display": "Numerator"
            } ]
          },
          "count": 1
        } ],
        "measureScore": {
          "value": 0.0
        }
      } ],
      "evaluatedResource": [ {
        "reference": "Patient/ef0bebdc-61bf-4233-abd3-1f3c99a2cd8d"
      }, {
        "reference": "Encounter/26aa2dee-de3e-4892-b7f7-8f168c18221e"
      }, {
        "reference": "Coverage/fdcec1f6-f10e-4934-a3de-b4d9151e1e2e"
      }, {
        "reference": "MedicationAdministration/218a649f-fd86-4d5a-ad85-0584fcb2fbaf"
      }, {
        "reference": "Procedure/7c8ca642-4e37-4248-889f-668bbaa3a33e"
      }, {
        "reference": "Organization/58a74e76-e323-4d5c-9f5b-74144ffade79"
      }, {
        "reference": "Practitioner/d33c7213-b91f-4d16-8887-0edd88e19531"
      } ]
    },
    "request": {
      "method": "PUT",
      "url": "MeasureReport/f5ba850b-1b3c-4f35-996d-1da145271c0a"
    }
  } ]
}