{
  "resourceType": "Bundle",
  "id": "NUMPass-70-on-Jan1-1",
  "type": "transaction",
  "entry": [ {
    "fullUrl": "https://madie.cms.gov/Patient/74d09027-649b-4a96-9933-6bf4be627407",
    "resource": {
      "resourceType": "Patient",
      "id": "74d09027-649b-4a96-9933-6bf4be627407",
      "meta": {
        "profile": [ "http://hl7.org/fhir/us/qicore/StructureDefinition/qicore-patient" ]
      },
      "extension": [ {
        "url": "http://hl7.org/fhir/us/core/StructureDefinition/us-core-race",
        "extension": [ {
          "url": "ombCategory",
          "valueCoding": {
            "system": "urn:oid:2.16.840.1.113883.6.238",
            "code": "2028-9",
            "display": "Asian"
          }
        }, {
          "url": "text",
          "valueString": "Asian"
        } ]
      }, {
        "url": "http://hl7.org/fhir/us/core/StructureDefinition/us-core-ethnicity",
        "extension": [ {
          "url": "ombCategory",
          "valueCoding": {
            "system": "urn:oid:2.16.840.1.113883.6.238",
            "code": "2186-5",
            "display": "Not Hispanic or Latino"
          }
        }, {
          "url": "text",
          "valueString": "Not Hispanic or Latino"
        } ]
      } ],
      "identifier": [ {
        "system": "http://hospital.smarthealthit.org",
        "value": "999999995"
      } ],
      "name": [ {
        "family": "NUMPass",
        "given": [ "NUMPass-70-on-Jan1-1" ]
      } ],
      "gender": "male",
      "birthDate": "1956-01-01"
    },
    "request": {
      "method": "PUT",
      "url": "Patient/74d09027-649b-4a96-9933-6bf4be627407"
    }
  }, {
    "fullUrl": "https://madie.cms.gov/Encounter/b213f397-26ec-45dd-99ff-d493421057cf",
    "resource": {
      "resourceType": "Encounter",
      "id": "b213f397-26ec-45dd-99ff-d493421057cf",
      "meta": {
        "profile": [ "http://hl7.org/fhir/us/qicore/StructureDefinition/qicore-encounter" ]
      },
      "status": "finished",
      "class": {
        "system": "http://terminology.hl7.org/CodeSystem/v3-ActCode",
        "code": "AMB",
        "display": "ambulatory"
      },
      "type": [ {
        "coding": [ {
          "system": "http://snomed.info/sct",
          "code": "11429006"
        } ]
      } ],
      "subject": {
        "reference": "Patient/74d09027-649b-4a96-9933-6bf4be627407"
      },
      "period": {
        "start": "2026-01-04T08:00:00.000+00:00",
        "end": "2026-01-04T08:00:00.000+00:00"
      }
    },
    "request": {
      "method": "PUT",
      "url": "Encounter/b213f397-26ec-45dd-99ff-d493421057cf"
    }
  }, {
    "fullUrl": "https://madie.cms.gov/Encounter/13f35d8f-b1ae-4a6c-9541-444c3b6a22f3",
    "resource": {
      "resourceType": "Encounter",
      "id": "13f35d8f-b1ae-4a6c-9541-444c3b6a22f3",
      "meta": {
        "profile": [ "http://hl7.org/fhir/us/qicore/StructureDefinition/qicore-encounter" ]
      },
      "status": "finished",
      "class": {
        "system": "http://terminology.hl7.org/CodeSystem/v3-ActCode",
        "code": "AMB",
        "display": "ambulatory"
      },
      "type": [ {
        "coding": [ {
          "system": "http://snomed.info/sct",
          "code": "108219001"
        } ]
      } ],
      "subject": {
        "reference": "Patient/74d09027-649b-4a96-9933-6bf4be627407"
      },
      "period": {
        "start": "2026-01-01T00:00:00.000+00:00",
        "end": "2026-01-01T00:00:00.000+00:00"
      }
    },
    "request": {
      "method": "PUT",
      "url": "Encounter/13f35d8f-b1ae-4a6c-9541-444c3b6a22f3"
    }
  }, {
    "fullUrl": "https://madie.cms.gov/Condition/665e5313-6c64-45c2-be74-164dd3373b89",
    "resource": {
      "resourceType": "Condition",
      "id": "665e5313-6c64-45c2-be74-164dd3373b89",
      "meta": {
        "profile": [ "http://hl7.org/fhir/us/qicore/StructureDefinition/qicore-condition-encounter-diagnosis" ]
      },
      "clinicalStatus": {
        "coding": [ {
          "system": "http://terminology.hl7.org/CodeSystem/condition-clinical",
          "code": "active"
        } ]
      },
      "category": [ {
        "coding": [ {
          "system": "http://terminology.hl7.org/CodeSystem/condition-category",
          "code": "encounter-diagnosis",
          "display": "Encounter Diagnosis"
        } ]
      } ],
      "code": {
        "coding": [ {
          "system": "http://snomed.info/sct",
          "code": "111947009",
          "display": "Functional disorder present, condition terminal"
        } ]
      },
      "subject": {
        "reference": "Patient/74d09027-649b-4a96-9933-6bf4be627407"
      },
      "onsetDateTime": "2025-12-31T00:00:00.000+00:00"
    },
    "request": {
      "method": "PUT",
      "url": "Condition/665e5313-6c64-45c2-be74-164dd3373b89"
    }
  }, {
    "fullUrl": "https://madie.cms.gov/Observation/3c254259-220f-4ffb-be3d-d3141f4a8566",
    "resource": {
      "resourceType": "Observation",
      "id": "3c254259-220f-4ffb-be3d-d3141f4a8566",
      "meta": {
        "profile": [ "http://hl7.org/fhir/us/core/StructureDefinition/us-core-bmi" ]
      },
      "status": "final",
      "category": [ {
        "coding": [ {
          "system": "http://terminology.hl7.org/CodeSystem/observation-category",
          "code": "vital-signs",
          "display": "Vital Signs"
        } ]
      } ],
      "code": {
        "coding": [ {
          "system": "http://loinc.org",
          "code": "39156-5",
          "display": "Body mass index (BMI) [Ratio]"
        } ]
      },
      "subject": {
        "reference": "Patient/74d09027-649b-4a96-9933-6bf4be627407"
      },
      "effectiveDateTime": "2025-12-31T00:00:00.000+00:00",
      "issued": "2025-12-31T00:00:00.000+00:00",
      "valueQuantity": {
        "value": 23,
        "unit": "kg/m2",
        "system": "http://unitsofmeasure.org",
        "code": "kg/m2"
      }
    },
    "request": {
      "method": "PUT",
      "url": "Observation/3c254259-220f-4ffb-be3d-d3141f4a8566"
    }
  }, {
    "fullUrl": "https://madie.cms.gov/MeasureReport/8dd51f49-a697-40d0-9ced-1814155933dc",
    "resource": {
      "resourceType": "MeasureReport",
      "id": "8dd51f49-a697-40d0-9ced-1814155933dc",
      "meta": {
        "profile": [ "http://hl7.org/fhir/us/cqfmeasures/StructureDefinition/test-case-cqfm" ]
      },
      "contained": [ {
        "resourceType": "Parameters",
        "id": "d05e5988-6281-4426-b009-f93f0396f872-parameters",
        "parameter": [ {
          "name": "subject",
          "valueString": "74d09027-649b-4a96-9933-6bf4be627407"
        } ]
      } ],
      "extension": [ {
        "url": "http://hl7.org/fhir/StructureDefinition/cqf-inputParameters",
        "valueReference": {
          "reference": "#d05e5988-6281-4426-b009-f93f0396f872-parameters"
        }
      }, {
        "url": "http://hl7.org/fhir/us/cqfmeasures/StructureDefinition/cqfm-testCaseDescription",
        "valueMarkdown": "DENEX-limitedlifeexpectancy-diagnosis-dayoftest"
      } ],
      "modifierExtension": [ {
        "url": "http://hl7.org/fhir/us/cqfmeasures/StructureDefinition/cqfm-isTestCase",
        "valueBoolean": true
      } ],
      "status": "complete",
      "type": "individual",
      "measure": "https://madie.cms.gov/Measure/CMS1154ScreeningPrediabetesFHIR",
      "period": {
        "start": "2026-01-01",
        "end": "2026-12-31"
      },
      "group": [ {
        "id": "Group_1",
        "population": [ {
          "id": "InitialPopulation_1",
          "code": {
            "coding": [ {
              "system": "http://terminology.hl7.org/CodeSystem/measure-population",
              "code": "initial-population",
              "display": "Initial Population"
            } ]
          },
          "count": 1
        }, {
          "id": "Denominator_1",
          "code": {
            "coding": [ {
              "system": "http://terminology.hl7.org/CodeSystem/measure-population",
              "code": "denominator",
              "display": "Denominator"
            } ]
          },
          "count": 1
        }, {
          "id": "DenominatorExclusion_1",
          "code": {
            "coding": [ {
              "system": "http://terminology.hl7.org/CodeSystem/measure-population",
              "code": "denominator-exclusion",
              "display": "Denominator Exclusion"
            } ]
          },
          "count": 1
        }, {
          "id": "Numerator_1",
          "code": {
            "coding": [ {
              "system": "http://terminology.hl7.org/CodeSystem/measure-population",
              "code": "numerator",
              "display": "Numerator"
            } ]
          },
          "count": 0
        } ],
        "measureScore": {
          "value": 1.0
        }
      } ],
      "evaluatedResource": [ {
        "reference": "Patient/74d09027-649b-4a96-9933-6bf4be627407"
      }, {
        "reference": "Encounter/b213f397-26ec-45dd-99ff-d493421057cf"
      }, {
        "reference": "Encounter/13f35d8f-b1ae-4a6c-9541-444c3b6a22f3"
      }, {
        "reference": "Condition/665e5313-6c64-45c2-be74-164dd3373b89"
      }, {
        "reference": "Observation/3c254259-220f-4ffb-be3d-d3141f4a8566"
      } ]
    },
    "request": {
      "method": "PUT",
      "url": "MeasureReport/8dd51f49-a697-40d0-9ced-1814155933dc"
    }
  } ]
}