{
  "resourceType": "Bundle",
  "id": "tests-29815dd6-1ee5-4811-8452-7aaed65ec1e7-bundle",
  "type": "transaction",
  "entry": [ {
    "fullUrl": "https://madie.cms.gov/Procedure/6cf5e737-673c-4106-9580-71dbe5d526d3",
    "resource": {
      "resourceType": "Procedure",
      "id": "6cf5e737-673c-4106-9580-71dbe5d526d3",
      "meta": {
        "profile": [ "http://hl7.org/fhir/us/qicore/StructureDefinition/qicore-procedure" ]
      },
      "extension": [ {
        "url": "http://hl7.org/fhir/us/qicore/StructureDefinition/qicore-recorded",
        "valueDateTime": "2026-04-11T07:10:30.000+00:00"
      } ],
      "status": "completed",
      "code": {
        "coding": [ {
          "system": "http://snomed.info/sct",
          "code": "243141005",
          "display": "Mechanically assisted spontaneous ventilation"
        } ],
        "text": "Mechanically assisted spontaneous ventilation"
      },
      "subject": {
        "reference": "Patient/29815dd6-1ee5-4811-8452-7aaed65ec1e7"
      },
      "performedPeriod": {
        "start": "2026-04-11T06:00:00.000+00:00",
        "end": "2026-04-11T10:15:00.000+00:00"
      }
    },
    "request": {
      "method": "PUT",
      "url": "Procedure/6cf5e737-673c-4106-9580-71dbe5d526d3"
    }
  }, {
    "fullUrl": "https://madie.cms.gov/Procedure/4b03ad36-3327-42b6-a341-6f53234bd5d9",
    "resource": {
      "resourceType": "Procedure",
      "id": "4b03ad36-3327-42b6-a341-6f53234bd5d9",
      "meta": {
        "profile": [ "http://hl7.org/fhir/us/qicore/StructureDefinition/qicore-procedure" ]
      },
      "extension": [ {
        "url": "http://hl7.org/fhir/us/qicore/StructureDefinition/qicore-recorded",
        "valueDateTime": "2026-04-11T08:10:00.000+00:00"
      } ],
      "status": "completed",
      "category": {
        "coding": [ {
          "system": "http://snomed.info/sct",
          "code": "18286008",
          "display": "General or neuraxial anesthesia"
        } ]
      },
      "code": {
        "coding": [ {
          "system": "http://snomed.info/sct",
          "code": "112943005",
          "display": "Epidural injection of anesthetic substance, diagnostic, caudal, continuous"
        } ]
      },
      "subject": {
        "reference": "Patient/29815dd6-1ee5-4811-8452-7aaed65ec1e7"
      },
      "performedDateTime": "2026-04-11T08:00:00.000+00:00"
    },
    "request": {
      "method": "PUT",
      "url": "Procedure/4b03ad36-3327-42b6-a341-6f53234bd5d9"
    }
  }, {
    "fullUrl": "https://madie.cms.gov/Patient/29815dd6-1ee5-4811-8452-7aaed65ec1e7",
    "resource": {
      "resourceType": "Patient",
      "id": "29815dd6-1ee5-4811-8452-7aaed65ec1e7",
      "meta": {
        "profile": [ "http://hl7.org/fhir/us/qicore/StructureDefinition/qicore-patient" ]
      },
      "extension": [ {
        "url": "http://hl7.org/fhir/us/core/StructureDefinition/us-core-race",
        "extension": [ {
          "url": "ombCategory",
          "valueCoding": {
            "system": "urn:oid:2.16.840.1.113883.6.238",
            "code": "2054-5",
            "display": "Black or African American",
            "userSelected": true
          }
        }, {
          "url": "text",
          "valueString": "Black or African American"
        } ]
      }, {
        "url": "http://hl7.org/fhir/us/core/StructureDefinition/us-core-ethnicity",
        "extension": [ {
          "url": "ombCategory",
          "valueCoding": {
            "system": "urn:oid:2.16.840.1.113883.6.238",
            "code": "2186-5",
            "display": "Not Hispanic or Latino",
            "userSelected": true
          }
        }, {
          "url": "text",
          "valueString": "Not Hispanic or Latino"
        } ]
      } ],
      "identifier": [ {
        "type": {
          "coding": [ {
            "system": "http://terminology.hl7.org/CodeSystem/v2-0203",
            "code": "MR"
          } ]
        },
        "system": "https://bonnie-fhir.healthit.gov/",
        "value": "61152a3b98086b7a79cbd7c1"
      } ],
      "active": true,
      "name": [ {
        "use": "usual",
        "family": "DENEXPass",
        "given": [ "MV-GT1HrBeforeStartOfFirstProcRelDateTime" ]
      } ],
      "gender": "female",
      "birthDate": "1966-07-12"
    },
    "request": {
      "method": "PUT",
      "url": "Patient/29815dd6-1ee5-4811-8452-7aaed65ec1e7"
    }
  }, {
    "fullUrl": "https://madie.cms.gov/Encounter/6b0944f1-bfb4-4e99-8b9e-c7918ed5f97d",
    "resource": {
      "resourceType": "Encounter",
      "id": "6b0944f1-bfb4-4e99-8b9e-c7918ed5f97d",
      "meta": {
        "profile": [ "http://hl7.org/fhir/us/qicore/StructureDefinition/qicore-encounter" ]
      },
      "status": "finished",
      "class": {
        "system": "http://terminology.hl7.org/CodeSystem/v3-ActCode",
        "code": "IMP",
        "display": "inpatient encounter"
      },
      "type": [ {
        "coding": [ {
          "system": "http://snomed.info/sct",
          "code": "112689000",
          "display": "Hospital admission, elective, with complete pre-admission work-up"
        } ],
        "text": "Hospital admission, elective, with complete pre-admission work-up"
      } ],
      "priority": {
        "coding": [ {
          "system": "http://snomed.info/sct",
          "code": "103390000"
        } ]
      },
      "subject": {
        "reference": "Patient/29815dd6-1ee5-4811-8452-7aaed65ec1e7"
      },
      "period": {
        "start": "2026-04-10T08:00:00.000+00:00",
        "end": "2026-04-14T08:15:00.000+00:00"
      }
    },
    "request": {
      "method": "PUT",
      "url": "Encounter/6b0944f1-bfb4-4e99-8b9e-c7918ed5f97d"
    }
  }, {
    "fullUrl": "https://madie.cms.gov/Procedure/0ad89e05-ab93-48b1-b82c-cbe34dd68d2d",
    "resource": {
      "resourceType": "Procedure",
      "id": "0ad89e05-ab93-48b1-b82c-cbe34dd68d2d",
      "meta": {
        "profile": [ "http://hl7.org/fhir/us/qicore/StructureDefinition/qicore-procedure" ]
      },
      "extension": [ {
        "url": "http://hl7.org/fhir/us/qicore/StructureDefinition/qicore-recorded",
        "valueDateTime": "2026-04-13T10:10:30.000+00:00"
      } ],
      "status": "completed",
      "code": {
        "coding": [ {
          "system": "http://www.cms.gov/Medicare/Coding/ICD10",
          "code": "0BH13EZ",
          "display": "Insertion of Endotracheal Airway into Trachea, Percutaneous Approach"
        } ],
        "text": "Insertion of Endotracheal Airway into Trachea, Percutaneous Approach"
      },
      "subject": {
        "reference": "Patient/29815dd6-1ee5-4811-8452-7aaed65ec1e7"
      },
      "performedPeriod": {
        "start": "2026-04-12T08:00:00.000+00:00",
        "end": "2026-04-13T10:15:00.000+00:00"
      }
    },
    "request": {
      "method": "PUT",
      "url": "Procedure/0ad89e05-ab93-48b1-b82c-cbe34dd68d2d"
    }
  }, {
    "fullUrl": "https://madie.cms.gov/MeasureReport/e1f9e996-06b3-47ea-b8d7-5d9e836db702",
    "resource": {
      "resourceType": "MeasureReport",
      "id": "e1f9e996-06b3-47ea-b8d7-5d9e836db702",
      "meta": {
        "profile": [ "http://hl7.org/fhir/us/cqfmeasures/StructureDefinition/test-case-cqfm" ]
      },
      "contained": [ {
        "resourceType": "Parameters",
        "id": "7bb9f7b4-71ad-4ec8-80ee-0c98386dad1e-parameters",
        "parameter": [ {
          "name": "subject",
          "valueString": "29815dd6-1ee5-4811-8452-7aaed65ec1e7"
        } ]
      } ],
      "extension": [ {
        "url": "http://hl7.org/fhir/StructureDefinition/cqf-inputParameters",
        "valueReference": {
          "reference": "#7bb9f7b4-71ad-4ec8-80ee-0c98386dad1e-parameters"
        }
      }, {
        "url": "http://hl7.org/fhir/us/cqfmeasures/StructureDefinition/cqfm-testCaseDescription",
        "valueMarkdown": "Elective hosp with proc (anesthesia) within first 3 days of encounter. Intubated within 30 days after end of anesthesia, outside of OR location. Had mech vent start >1 hr. before start of first proc's relevant datetime. Meets Exc.\n"
      } ],
      "modifierExtension": [ {
        "url": "http://hl7.org/fhir/us/cqfmeasures/StructureDefinition/cqfm-isTestCase",
        "valueBoolean": true
      } ],
      "status": "complete",
      "type": "individual",
      "measure": "https://madie.cms.gov/Measure/CMS1218FHIRHHRF",
      "period": {
        "start": "2026-01-01",
        "end": "2026-12-31"
      },
      "group": [ {
        "id": "Group_1",
        "population": [ {
          "id": "InitialPopulation_1",
          "code": {
            "coding": [ {
              "system": "http://terminology.hl7.org/CodeSystem/measure-population",
              "code": "initial-population",
              "display": "Initial Population"
            } ]
          },
          "count": 1
        }, {
          "id": "Denominator_1",
          "code": {
            "coding": [ {
              "system": "http://terminology.hl7.org/CodeSystem/measure-population",
              "code": "denominator",
              "display": "Denominator"
            } ]
          },
          "count": 1
        }, {
          "id": "DenominatorExclusion_1",
          "code": {
            "coding": [ {
              "system": "http://terminology.hl7.org/CodeSystem/measure-population",
              "code": "denominator-exclusion",
              "display": "Denominator Exclusion"
            } ]
          },
          "count": 1
        }, {
          "id": "Numerator_1",
          "code": {
            "coding": [ {
              "system": "http://terminology.hl7.org/CodeSystem/measure-population",
              "code": "numerator",
              "display": "Numerator"
            } ]
          },
          "count": 0
        } ],
        "measureScore": {
          "value": 0.0
        }
      } ],
      "evaluatedResource": [ {
        "reference": "Procedure/6cf5e737-673c-4106-9580-71dbe5d526d3"
      }, {
        "reference": "Procedure/4b03ad36-3327-42b6-a341-6f53234bd5d9"
      }, {
        "reference": "Patient/29815dd6-1ee5-4811-8452-7aaed65ec1e7"
      }, {
        "reference": "Encounter/6b0944f1-bfb4-4e99-8b9e-c7918ed5f97d"
      }, {
        "reference": "Procedure/0ad89e05-ab93-48b1-b82c-cbe34dd68d2d"
      } ]
    },
    "request": {
      "method": "PUT",
      "url": "MeasureReport/e1f9e996-06b3-47ea-b8d7-5d9e836db702"
    }
  } ]
}