{
  "resourceType": "Bundle",
  "id": "NUMPass-InitPROMISameDayAsTHAFUPROMIS300DaysAfterTHA",
  "type": "collection",
  "entry": [ {
    "fullUrl": "https://madie.cms.gov/Patient/faeabeab-c8ca-4e6f-91c8-83edc69a464a",
    "resource": {
      "resourceType": "Patient",
      "id": "faeabeab-c8ca-4e6f-91c8-83edc69a464a",
      "meta": {
        "profile": [ "http://hl7.org/fhir/us/qicore/StructureDefinition/qicore-patient" ]
      },
      "extension": [ {
        "url": "http://hl7.org/fhir/us/core/StructureDefinition/us-core-race",
        "extension": [ {
          "url": "ombCategory",
          "valueCoding": {
            "system": "urn:oid:2.16.840.1.113883.6.238",
            "code": "2028-9",
            "display": "Asian"
          }
        }, {
          "url": "text",
          "valueString": "Asian"
        } ]
      }, {
        "url": "http://hl7.org/fhir/us/core/StructureDefinition/us-core-ethnicity",
        "extension": [ {
          "url": "ombCategory",
          "valueCoding": {
            "system": "urn:oid:2.16.840.1.113883.6.238",
            "code": "2135-2",
            "display": "Hispanic or Latino"
          }
        }, {
          "url": "text",
          "valueString": "Hispanic or Latino"
        } ]
      } ],
      "identifier": [ {
        "system": "http://hospital.smarthealthit.org",
        "value": "999999995"
      } ],
      "name": [ {
        "family": "Bertha",
        "given": [ "Betty" ]
      } ],
      "gender": "female",
      "birthDate": "2007-01-01"
    }
  }, {
    "fullUrl": "https://madie.cms.gov/Procedure/c9789c38-348a-4b7b-9fce-cf3dcb0b81d4",
    "resource": {
      "resourceType": "Procedure",
      "id": "c9789c38-348a-4b7b-9fce-cf3dcb0b81d4",
      "meta": {
        "profile": [ "http://hl7.org/fhir/us/qicore/StructureDefinition/qicore-procedure" ]
      },
      "extension": [ {
        "url": "http://hl7.org/fhir/us/qicore/StructureDefinition/qicore-recorded",
        "valueDateTime": "2024-11-01T00:00:00.000+00:00"
      } ],
      "status": "completed",
      "code": {
        "coding": [ {
          "system": "http://www.cms.gov/Medicare/Coding/ICD10",
          "code": "0SR9019",
          "display": "Replacement of Right Hip Joint with Metal Synthetic Substitute, Cemented, Open Approach"
        } ]
      },
      "subject": {
        "reference": "Patient/faeabeab-c8ca-4e6f-91c8-83edc69a464a"
      },
      "performedPeriod": {
        "start": "2024-11-01T00:00:00.000+00:00",
        "end": "2024-11-01T01:00:00.000+00:00"
      }
    }
  }, {
    "fullUrl": "https://madie.cms.gov/Encounter/3179ee03-1eed-446d-aecd-cce7197909bc",
    "resource": {
      "resourceType": "Encounter",
      "id": "3179ee03-1eed-446d-aecd-cce7197909bc",
      "meta": {
        "profile": [ "http://hl7.org/fhir/us/qicore/StructureDefinition/qicore-encounter" ]
      },
      "status": "finished",
      "class": {
        "system": "http://terminology.hl7.org/CodeSystem/v3-ActCode",
        "code": "AMB",
        "display": "ambulatory"
      },
      "type": [ {
        "coding": [ {
          "system": "http://snomed.info/sct",
          "version": "http://snomed.info/sct/731000124108/version/20250301",
          "code": "281036007",
          "display": "Follow-up consultation (procedure)"
        } ]
      } ],
      "subject": {
        "reference": "Patient/faeabeab-c8ca-4e6f-91c8-83edc69a464a"
      },
      "period": {
        "start": "2025-11-01T00:00:00.000+00:00",
        "end": "2025-11-01T01:15:00.000+00:00"
      }
    }
  }, {
    "fullUrl": "https://madie.cms.gov/Observation/8ffb6c13-6568-42bd-a717-938258b6fcf6",
    "resource": {
      "resourceType": "Observation",
      "id": "8ffb6c13-6568-42bd-a717-938258b6fcf6",
      "meta": {
        "profile": [ "http://hl7.org/fhir/us/qicore/StructureDefinition/qicore-observation-screening-assessment" ]
      },
      "status": "final",
      "category": [ {
        "coding": [ {
          "system": "http://terminology.hl7.org/CodeSystem/observation-category",
          "code": "survey"
        } ]
      } ],
      "code": {
        "coding": [ {
          "system": "http://loinc.org",
          "code": "71969-0",
          "display": "PROMIS-10 Global Mental Health (GMH) score T-score"
        } ]
      },
      "subject": {
        "reference": "Patient/faeabeab-c8ca-4e6f-91c8-83edc69a464a"
      },
      "effectivePeriod": {
        "start": "2024-11-01T00:00:00.000+00:00",
        "end": "2024-11-01T01:00:00.000+00:00"
      },
      "valueInteger": 60
    }
  }, {
    "fullUrl": "https://madie.cms.gov/Observation/47c41771-5954-4828-a16b-7ea86ea00e1b",
    "resource": {
      "resourceType": "Observation",
      "id": "47c41771-5954-4828-a16b-7ea86ea00e1b",
      "meta": {
        "profile": [ "http://hl7.org/fhir/us/qicore/StructureDefinition/qicore-observation-screening-assessment" ]
      },
      "status": "final",
      "category": [ {
        "coding": [ {
          "system": "http://terminology.hl7.org/CodeSystem/observation-category",
          "code": "survey"
        } ]
      } ],
      "code": {
        "coding": [ {
          "system": "http://loinc.org",
          "code": "71971-6",
          "display": "PROMIS-10 Global Physical Health (GPH) score T-score"
        } ]
      },
      "subject": {
        "reference": "Patient/faeabeab-c8ca-4e6f-91c8-83edc69a464a"
      },
      "effectivePeriod": {
        "start": "2024-11-01T00:00:00.000+00:00",
        "end": "2024-11-01T01:00:00.000+00:00"
      },
      "valueInteger": 60
    }
  }, {
    "fullUrl": "https://madie.cms.gov/Observation/a1bb5536-beeb-48ec-9a05-8f8e916b7aa4",
    "resource": {
      "resourceType": "Observation",
      "id": "a1bb5536-beeb-48ec-9a05-8f8e916b7aa4",
      "meta": {
        "profile": [ "http://hl7.org/fhir/us/qicore/StructureDefinition/qicore-observation-screening-assessment" ]
      },
      "status": "final",
      "category": [ {
        "coding": [ {
          "system": "http://terminology.hl7.org/CodeSystem/observation-category",
          "code": "survey"
        } ]
      } ],
      "code": {
        "coding": [ {
          "system": "http://loinc.org",
          "code": "71969-0",
          "display": "PROMIS-10 Global Mental Health (GMH) score T-score"
        } ]
      },
      "subject": {
        "reference": "Patient/faeabeab-c8ca-4e6f-91c8-83edc69a464a"
      },
      "effectivePeriod": {
        "start": "2025-08-28T00:00:00.000+00:00",
        "end": "2025-08-28T01:00:00.000+00:00"
      },
      "valueInteger": 60
    }
  }, {
    "fullUrl": "https://madie.cms.gov/Observation/88ebcbc3-4893-4951-9b65-524f3647829d",
    "resource": {
      "resourceType": "Observation",
      "id": "88ebcbc3-4893-4951-9b65-524f3647829d",
      "meta": {
        "profile": [ "http://hl7.org/fhir/us/qicore/StructureDefinition/qicore-observation-screening-assessment" ]
      },
      "status": "final",
      "category": [ {
        "coding": [ {
          "system": "http://terminology.hl7.org/CodeSystem/observation-category",
          "code": "survey"
        } ]
      } ],
      "code": {
        "coding": [ {
          "system": "http://loinc.org",
          "code": "71971-6",
          "display": "PROMIS-10 Global Physical Health (GPH) score T-score"
        } ]
      },
      "subject": {
        "reference": "Patient/faeabeab-c8ca-4e6f-91c8-83edc69a464a"
      },
      "effectivePeriod": {
        "start": "2025-08-28T00:00:00.000+00:00",
        "end": "2025-08-28T01:00:00.000+00:00"
      },
      "valueInteger": 60
    }
  }, {
    "fullUrl": "https://madie.cms.gov/MeasureReport/80a2007a-9bdc-4008-ad99-cf456a3d5c4b",
    "resource": {
      "resourceType": "MeasureReport",
      "id": "80a2007a-9bdc-4008-ad99-cf456a3d5c4b",
      "meta": {
        "profile": [ "http://hl7.org/fhir/us/cqfmeasures/StructureDefinition/test-case-cqfm" ]
      },
      "contained": [ {
        "resourceType": "Parameters",
        "id": "13f180d7-de43-4ae6-a400-f17b996fbfb5-parameters",
        "parameter": [ {
          "name": "subject",
          "valueString": "faeabeab-c8ca-4e6f-91c8-83edc69a464a"
        } ]
      } ],
      "extension": [ {
        "url": "http://hl7.org/fhir/StructureDefinition/cqf-inputParameters",
        "valueReference": {
          "reference": "#13f180d7-de43-4ae6-a400-f17b996fbfb5-parameters"
        }
      }, {
        "url": "http://hl7.org/fhir/us/cqfmeasures/StructureDefinition/cqfm-testCaseDescription",
        "valueMarkdown": "Patient w/ a THA Procedure 11/1, Initial Hip Assessment PROMIS10 Same day as THA Procedure(11/1), and FollowUp Hip Assessment PROMIS10 300 days after THA Procedure (8/27)"
      } ],
      "modifierExtension": [ {
        "url": "http://hl7.org/fhir/us/cqfmeasures/StructureDefinition/cqfm-isTestCase",
        "valueBoolean": true
      } ],
      "status": "complete",
      "type": "individual",
      "measure": "https://madie.cms.gov/Measure/CMS56FHIRFuncStatHipReplacement",
      "period": {
        "start": "2026-01-01",
        "end": "2026-12-31"
      },
      "group": [ {
        "id": "Group_1",
        "population": [ {
          "id": "InitialPopulation_1",
          "code": {
            "coding": [ {
              "system": "http://terminology.hl7.org/CodeSystem/measure-population",
              "code": "initial-population",
              "display": "Initial Population"
            } ]
          },
          "count": 1
        }, {
          "id": "Denominator_1",
          "code": {
            "coding": [ {
              "system": "http://terminology.hl7.org/CodeSystem/measure-population",
              "code": "denominator",
              "display": "Denominator"
            } ]
          },
          "count": 1
        }, {
          "id": "DenominatorExclusion_1",
          "code": {
            "coding": [ {
              "system": "http://terminology.hl7.org/CodeSystem/measure-population",
              "code": "denominator-exclusion",
              "display": "Denominator Exclusion"
            } ]
          },
          "count": 0
        }, {
          "id": "Numerator_1",
          "code": {
            "coding": [ {
              "system": "http://terminology.hl7.org/CodeSystem/measure-population",
              "code": "numerator",
              "display": "Numerator"
            } ]
          },
          "count": 1
        } ],
        "measureScore": {
          "value": 1.0
        }
      } ],
      "evaluatedResource": [ {
        "reference": "Patient/faeabeab-c8ca-4e6f-91c8-83edc69a464a"
      }, {
        "reference": "Procedure/c9789c38-348a-4b7b-9fce-cf3dcb0b81d4"
      }, {
        "reference": "Encounter/3179ee03-1eed-446d-aecd-cce7197909bc"
      }, {
        "reference": "Observation/8ffb6c13-6568-42bd-a717-938258b6fcf6"
      }, {
        "reference": "Observation/47c41771-5954-4828-a16b-7ea86ea00e1b"
      }, {
        "reference": "Observation/a1bb5536-beeb-48ec-9a05-8f8e916b7aa4"
      }, {
        "reference": "Observation/88ebcbc3-4893-4951-9b65-524f3647829d"
      } ]
    }
  } ]
}