{
  "resourceType": "Bundle",
  "id": "tests-RiskVarPassFirstBilirubin-bundle",
  "type": "transaction",
  "entry": [ {
    "fullUrl": "https://madie.cms.gov/Encounter/a1f06a83-f117-4e5e-a499-2c6ecbcf7a1f",
    "resource": {
      "resourceType": "Encounter",
      "id": "a1f06a83-f117-4e5e-a499-2c6ecbcf7a1f",
      "meta": {
        "profile": [ "http://hl7.org/fhir/us/qicore/StructureDefinition/qicore-encounter" ]
      },
      "status": "finished",
      "class": {
        "system": "http://terminology.hl7.org/CodeSystem/v3-ActCode",
        "code": "IMP",
        "display": "inpatient encounter"
      },
      "type": [ {
        "coding": [ {
          "system": "http://snomed.info/sct",
          "code": "112689000",
          "display": "Hospital admission, elective, with complete pre-admission work-up"
        } ],
        "text": "Hospital admission, elective, with complete pre-admission work-up"
      } ],
      "priority": {
        "coding": [ {
          "system": "http://snomed.info/sct",
          "code": "103390000"
        } ]
      },
      "subject": {
        "reference": "Patient/5dc1a11f-f27d-4e85-baf9-d80ca40f2cf9"
      },
      "period": {
        "start": "2026-04-10T08:00:00.000+00:00",
        "end": "2026-04-14T08:15:00.000+00:00"
      }
    },
    "request": {
      "method": "PUT",
      "url": "Encounter/a1f06a83-f117-4e5e-a499-2c6ecbcf7a1f"
    }
  }, {
    "fullUrl": "https://madie.cms.gov/Observation/d881834d-fbc1-4551-9c98-94309dde5000",
    "resource": {
      "resourceType": "Observation",
      "id": "d881834d-fbc1-4551-9c98-94309dde5000",
      "meta": {
        "profile": [ "http://hl7.org/fhir/us/qicore/StructureDefinition/qicore-observation-lab" ]
      },
      "status": "final",
      "category": [ {
        "coding": [ {
          "system": "http://terminology.hl7.org/CodeSystem/observation-category",
          "code": "laboratory",
          "display": "Laboratory"
        } ],
        "text": "Laboratory"
      } ],
      "code": {
        "coding": [ {
          "system": "http://loinc.org",
          "version": "2.76",
          "code": "89872-6",
          "display": "Bilirubin.total [Moles/volume] in Arterial blood"
        } ]
      },
      "subject": {
        "reference": "Patient/5dc1a11f-f27d-4e85-baf9-d80ca40f2cf9"
      },
      "encounter": {
        "reference": "Encounter/a1f06a83-f117-4e5e-a499-2c6ecbcf7a1f"
      },
      "effectiveDateTime": "2026-04-11T08:00:00.000+00:00",
      "valueQuantity": {
        "value": 0.5,
        "unit": "mg/dL",
        "system": "http://unitsofmeasure.org",
        "code": "mg/dL"
      }
    },
    "request": {
      "method": "PUT",
      "url": "Observation/d881834d-fbc1-4551-9c98-94309dde5000"
    }
  }, {
    "fullUrl": "https://madie.cms.gov/Observation/c657cdbf-b8ec-4fb7-8c20-b1236d40d1fe",
    "resource": {
      "resourceType": "Observation",
      "id": "c657cdbf-b8ec-4fb7-8c20-b1236d40d1fe",
      "meta": {
        "profile": [ "http://hl7.org/fhir/us/qicore/StructureDefinition/qicore-observation-lab" ]
      },
      "status": "final",
      "category": [ {
        "coding": [ {
          "system": "http://terminology.hl7.org/CodeSystem/observation-category",
          "code": "laboratory",
          "display": "Laboratory"
        } ],
        "text": "Laboratory"
      } ],
      "code": {
        "coding": [ {
          "system": "http://loinc.org",
          "version": "2.76",
          "code": "89872-6",
          "display": "Bilirubin.total [Moles/volume] in Arterial blood"
        } ]
      },
      "subject": {
        "reference": "Patient/5dc1a11f-f27d-4e85-baf9-d80ca40f2cf9"
      },
      "encounter": {
        "reference": "Encounter/a1f06a83-f117-4e5e-a499-2c6ecbcf7a1f"
      },
      "effectiveDateTime": "2026-04-11T09:00:00.000+00:00",
      "valueQuantity": {
        "value": 0.6,
        "unit": "mg/dL",
        "system": "http://unitsofmeasure.org",
        "code": "mg/dL"
      }
    },
    "request": {
      "method": "PUT",
      "url": "Observation/c657cdbf-b8ec-4fb7-8c20-b1236d40d1fe"
    }
  }, {
    "fullUrl": "https://madie.cms.gov/Patient/5dc1a11f-f27d-4e85-baf9-d80ca40f2cf9",
    "resource": {
      "resourceType": "Patient",
      "id": "5dc1a11f-f27d-4e85-baf9-d80ca40f2cf9",
      "meta": {
        "profile": [ "http://hl7.org/fhir/us/qicore/StructureDefinition/qicore-patient" ]
      },
      "extension": [ {
        "url": "http://hl7.org/fhir/us/core/StructureDefinition/us-core-race",
        "extension": [ {
          "url": "ombCategory",
          "valueCoding": {
            "system": "urn:oid:2.16.840.1.113883.6.238",
            "code": "2054-5",
            "display": "Black or African American",
            "userSelected": true
          }
        }, {
          "url": "text",
          "valueString": "Black or African American"
        } ]
      }, {
        "url": "http://hl7.org/fhir/us/core/StructureDefinition/us-core-ethnicity",
        "extension": [ {
          "url": "ombCategory",
          "valueCoding": {
            "system": "urn:oid:2.16.840.1.113883.6.238",
            "code": "2186-5",
            "display": "Not Hispanic or Latino",
            "userSelected": true
          }
        }, {
          "url": "text",
          "valueString": "Not Hispanic or Latino"
        } ]
      } ],
      "identifier": [ {
        "type": {
          "coding": [ {
            "system": "http://terminology.hl7.org/CodeSystem/v2-0203",
            "code": "MR"
          } ]
        },
        "system": "https://bonnie-fhir.healthit.gov/",
        "value": "61152a3b98086b7a79cbd7c1"
      } ],
      "active": true,
      "name": [ {
        "use": "usual",
        "family": "DENOMPass",
        "given": [ "RiskVariableASAClass" ]
      } ],
      "gender": "female",
      "birthDate": "1966-07-12"
    },
    "request": {
      "method": "PUT",
      "url": "Patient/5dc1a11f-f27d-4e85-baf9-d80ca40f2cf9"
    }
  }, {
    "fullUrl": "https://madie.cms.gov/Procedure/5c271b96-fa56-431e-acc9-030dd378ab25",
    "resource": {
      "resourceType": "Procedure",
      "id": "5c271b96-fa56-431e-acc9-030dd378ab25",
      "meta": {
        "profile": [ "http://hl7.org/fhir/us/qicore/StructureDefinition/qicore-procedure" ]
      },
      "extension": [ {
        "url": "http://hl7.org/fhir/us/qicore/StructureDefinition/qicore-recorded",
        "valueDateTime": "2026-04-11T10:30:00.000+00:00"
      } ],
      "status": "completed",
      "category": {
        "coding": [ {
          "system": "http://snomed.info/sct",
          "code": "18286008",
          "display": "General or neuraxial anesthesia"
        } ]
      },
      "code": {
        "coding": [ {
          "system": "http://snomed.info/sct",
          "code": "112943005",
          "display": "Epidural injection of anesthetic substance, diagnostic, caudal, continuous"
        } ]
      },
      "subject": {
        "reference": "Patient/5dc1a11f-f27d-4e85-baf9-d80ca40f2cf9"
      },
      "performedPeriod": {
        "start": "2026-04-11T08:00:00.000+00:00",
        "end": "2026-04-11T10:15:00.000+00:00"
      }
    },
    "request": {
      "method": "PUT",
      "url": "Procedure/5c271b96-fa56-431e-acc9-030dd378ab25"
    }
  }, {
    "fullUrl": "https://madie.cms.gov/MeasureReport/7a13b7f3-79ea-4bfe-a358-f47a81b94f30",
    "resource": {
      "resourceType": "MeasureReport",
      "id": "7a13b7f3-79ea-4bfe-a358-f47a81b94f30",
      "meta": {
        "profile": [ "http://hl7.org/fhir/us/cqfmeasures/StructureDefinition/test-case-cqfm" ]
      },
      "contained": [ {
        "resourceType": "Parameters",
        "id": "48c1e55c-2d5f-4f19-a154-d1fde28b0b15-parameters",
        "parameter": [ {
          "name": "subject",
          "valueString": "5dc1a11f-f27d-4e85-baf9-d80ca40f2cf9"
        } ]
      } ],
      "extension": [ {
        "url": "http://hl7.org/fhir/StructureDefinition/cqf-inputParameters",
        "valueReference": {
          "reference": "#48c1e55c-2d5f-4f19-a154-d1fde28b0b15-parameters"
        }
      }, {
        "url": "http://hl7.org/fhir/us/cqfmeasures/StructureDefinition/cqfm-testCaseDescription",
        "valueMarkdown": "DENOMPass Satisfies First Bilirubin risk variable"
      } ],
      "modifierExtension": [ {
        "url": "http://hl7.org/fhir/us/cqfmeasures/StructureDefinition/cqfm-isTestCase",
        "valueBoolean": true
      } ],
      "status": "complete",
      "type": "individual",
      "measure": "https://madie.cms.gov/Measure/CMS1218FHIRHHRF",
      "period": {
        "start": "2026-01-01",
        "end": "2026-12-31"
      },
      "group": [ {
        "id": "Group_1",
        "population": [ {
          "id": "InitialPopulation_1",
          "code": {
            "coding": [ {
              "system": "http://terminology.hl7.org/CodeSystem/measure-population",
              "code": "initial-population",
              "display": "Initial Population"
            } ]
          },
          "count": 1
        }, {
          "id": "Denominator_1",
          "code": {
            "coding": [ {
              "system": "http://terminology.hl7.org/CodeSystem/measure-population",
              "code": "denominator",
              "display": "Denominator"
            } ]
          },
          "count": 1
        }, {
          "id": "DenominatorExclusion_1",
          "code": {
            "coding": [ {
              "system": "http://terminology.hl7.org/CodeSystem/measure-population",
              "code": "denominator-exclusion",
              "display": "Denominator Exclusion"
            } ]
          },
          "count": 0
        }, {
          "id": "Numerator_1",
          "code": {
            "coding": [ {
              "system": "http://terminology.hl7.org/CodeSystem/measure-population",
              "code": "numerator",
              "display": "Numerator"
            } ]
          },
          "count": 0
        } ],
        "measureScore": {
          "value": 0.0
        }
      } ],
      "evaluatedResource": [ {
        "reference": "Encounter/a1f06a83-f117-4e5e-a499-2c6ecbcf7a1f"
      }, {
        "reference": "Observation/d881834d-fbc1-4551-9c98-94309dde5000"
      }, {
        "reference": "Observation/c657cdbf-b8ec-4fb7-8c20-b1236d40d1fe"
      }, {
        "reference": "Patient/5dc1a11f-f27d-4e85-baf9-d80ca40f2cf9"
      }, {
        "reference": "Procedure/5c271b96-fa56-431e-acc9-030dd378ab25"
      } ]
    },
    "request": {
      "method": "PUT",
      "url": "MeasureReport/7a13b7f3-79ea-4bfe-a358-f47a81b94f30"
    }
  } ]
}