{
  "resourceType": "Bundle",
  "id": "62c880ec0111a60120dc2208",
  "type": "transaction",
  "entry": [ {
    "fullUrl": "https://madie.cms.gov/Patient/e529e266-033b-4aec-abbc-d7fb27b7286c",
    "resource": {
      "resourceType": "Patient",
      "id": "e529e266-033b-4aec-abbc-d7fb27b7286c",
      "meta": {
        "profile": [ "http://hl7.org/fhir/us/qicore/StructureDefinition/qicore-patient" ]
      },
      "text": {
        "status": "generated",
        "div": "<div xmlns=\"http://www.w3.org/1999/xhtml\"><div class=\"hapiHeaderText\">CancerDxStarts1DayAfterMP<b>IPPFailPop1</b></div><table class=\"hapiPropertyTable\"><tbody><tr><td>Identifier</td><td>d5fa107024042175d86d813d9f3278123f01630b11769a6127ee8a990f85bdc2</td></tr><tr><td>Date of birth</td><td><span>19 October 1961</span></td></tr></tbody></table></div>"
      },
      "extension": [ {
        "url": "http://hl7.org/fhir/us/core/StructureDefinition/us-core-race",
        "extension": [ {
          "url": "ombCategory",
          "valueCoding": {
            "system": "urn:oid:2.16.840.1.113883.6.238",
            "code": "2076-8",
            "display": "Native Hawaiian or Other Pacific Islander",
            "userSelected": true
          }
        }, {
          "url": "text",
          "valueString": "Native Hawaiian or Other Pacific Islander"
        } ]
      }, {
        "url": "http://hl7.org/fhir/us/core/StructureDefinition/us-core-ethnicity",
        "extension": [ {
          "url": "ombCategory",
          "valueCoding": {
            "system": "urn:oid:2.16.840.1.113883.6.238",
            "code": "2186-5",
            "display": "Not Hispanic or Latino",
            "userSelected": true
          }
        }, {
          "url": "text",
          "valueString": "Not Hispanic or Latino"
        } ]
      } ],
      "identifier": [ {
        "type": {
          "coding": [ {
            "system": "http://terminology.hl7.org/CodeSystem/v2-0203",
            "code": "MR"
          } ]
        },
        "system": "https://bonnie-fhir.healthit.gov/",
        "value": "62c880ec0111a60120dc2208"
      } ],
      "active": true,
      "name": [ {
        "use": "usual",
        "family": "IPPFailPop1",
        "given": [ "CancerDxStarts1DayAfterMP" ]
      } ],
      "gender": "female",
      "birthDate": "1962-10-19"
    },
    "request": {
      "method": "PUT",
      "url": "Patient/e529e266-033b-4aec-abbc-d7fb27b7286c"
    }
  }, {
    "fullUrl": "https://madie.cms.gov/Condition/c6a65355-0b12-4f8d-bd96-ed503a241821",
    "resource": {
      "resourceType": "Condition",
      "id": "c6a65355-0b12-4f8d-bd96-ed503a241821",
      "meta": {
        "profile": [ "http://hl7.org/fhir/us/qicore/StructureDefinition/qicore-condition" ]
      },
      "clinicalStatus": {
        "coding": [ {
          "system": "http://terminology.hl7.org/CodeSystem/condition-clinical",
          "code": "active",
          "display": "active"
        } ]
      },
      "verificationStatus": {
        "coding": [ {
          "system": "http://terminology.hl7.org/CodeSystem/condition-ver-status",
          "code": "confirmed",
          "display": "Confirmed"
        } ]
      },
      "category": [ {
        "coding": [ {
          "system": "http://terminology.hl7.org/CodeSystem/condition-category",
          "code": "problem-list-item",
          "display": "Problem List Item"
        } ]
      } ],
      "code": {
        "coding": [ {
          "system": "http://snomed.info/sct",
          "code": "80914001"
        } ]
      },
      "subject": {
        "reference": "Patient/e529e266-033b-4aec-abbc-d7fb27b7286c"
      },
      "onsetDateTime": "2026-01-01T10:00:00.000+00:00"
    },
    "request": {
      "method": "PUT",
      "url": "Condition/c6a65355-0b12-4f8d-bd96-ed503a241821"
    }
  }, {
    "fullUrl": "https://madie.cms.gov/Encounter/20c064d5-2172-4b77-80f6-cba8fea189dc",
    "resource": {
      "resourceType": "Encounter",
      "id": "20c064d5-2172-4b77-80f6-cba8fea189dc",
      "meta": {
        "profile": [ "http://hl7.org/fhir/us/qicore/StructureDefinition/qicore-encounter" ]
      },
      "status": "finished",
      "class": {
        "system": "http://terminology.hl7.org/CodeSystem/v3-ActCode",
        "code": "AMB",
        "display": "ambulatory",
        "userSelected": true
      },
      "type": [ {
        "coding": [ {
          "system": "http://snomed.info/sct",
          "code": "185463005"
        } ]
      } ],
      "subject": {
        "reference": "Patient/e529e266-033b-4aec-abbc-d7fb27b7286c"
      },
      "period": {
        "start": "2026-12-31T13:00:00.000+00:00",
        "end": "2026-12-31T14:00:00.000+00:00"
      }
    },
    "request": {
      "method": "PUT",
      "url": "Encounter/20c064d5-2172-4b77-80f6-cba8fea189dc"
    }
  }, {
    "fullUrl": "https://madie.cms.gov/Coverage/95bb17e8-d49a-4e98-8c83-a6a60aa86756",
    "resource": {
      "resourceType": "Coverage",
      "id": "95bb17e8-d49a-4e98-8c83-a6a60aa86756",
      "meta": {
        "profile": [ "http://hl7.org/fhir/us/qicore/StructureDefinition/qicore-coverage" ]
      },
      "status": "active",
      "beneficiary": {
        "reference": "Patient/e529e266-033b-4aec-abbc-d7fb27b7286c"
      },
      "period": {
        "start": "1962-10-19T08:00:00.000+00:00"
      },
      "payor": [ {
        "reference": "Organization/29953780-605b-4beb-b27e-5a9d0374d9d0"
      } ]
    },
    "request": {
      "method": "PUT",
      "url": "Coverage/95bb17e8-d49a-4e98-8c83-a6a60aa86756"
    }
  }, {
    "fullUrl": "https://madie.cms.gov/Procedure/51f17cc4-4230-452b-8470-b4e22fb789c7",
    "resource": {
      "resourceType": "Procedure",
      "id": "51f17cc4-4230-452b-8470-b4e22fb789c7",
      "meta": {
        "profile": [ "http://hl7.org/fhir/us/qicore/StructureDefinition/qicore-procedure" ]
      },
      "extension": [ {
        "url": "http://hl7.org/fhir/us/qicore/StructureDefinition/qicore-recorded",
        "valueDateTime": "2026-01-17T12:35:00.000+00:00"
      } ],
      "status": "completed",
      "code": {
        "coding": [ {
          "system": "http://snomed.info/sct",
          "code": "169396008"
        } ]
      },
      "subject": {
        "reference": "Patient/e529e266-033b-4aec-abbc-d7fb27b7286c"
      },
      "performedPeriod": {
        "start": "2026-01-17T11:00:00.000+00:00",
        "end": "2026-01-17T11:00:00.000+00:00"
      }
    },
    "request": {
      "method": "PUT",
      "url": "Procedure/51f17cc4-4230-452b-8470-b4e22fb789c7"
    }
  }, {
    "fullUrl": "https://madie.cms.gov/Procedure/2c077e7c-fe09-487c-ba78-d035d4212485",
    "resource": {
      "resourceType": "Procedure",
      "id": "2c077e7c-fe09-487c-ba78-d035d4212485",
      "meta": {
        "profile": [ "http://hl7.org/fhir/us/qicore/StructureDefinition/qicore-procedure" ]
      },
      "extension": [ {
        "url": "http://hl7.org/fhir/us/qicore/StructureDefinition/qicore-recorded",
        "valueDateTime": "2026-12-14T14:45:00.000+00:00"
      } ],
      "status": "completed",
      "code": {
        "coding": [ {
          "system": "http://snomed.info/sct",
          "code": "169396008"
        } ]
      },
      "subject": {
        "reference": "Patient/e529e266-033b-4aec-abbc-d7fb27b7286c"
      },
      "performedPeriod": {
        "start": "2026-12-14T14:40:00.000+00:00",
        "end": "2026-12-14T14:40:00.000+00:00"
      }
    },
    "request": {
      "method": "PUT",
      "url": "Procedure/2c077e7c-fe09-487c-ba78-d035d4212485"
    }
  }, {
    "fullUrl": "https://madie.cms.gov/Organization/29953780-605b-4beb-b27e-5a9d0374d9d0",
    "resource": {
      "resourceType": "Organization",
      "id": "29953780-605b-4beb-b27e-5a9d0374d9d0",
      "meta": {
        "profile": [ "http://hl7.org/fhir/us/qicore/StructureDefinition/qicore-organization" ]
      },
      "identifier": [ {
        "use": "temp",
        "system": "urn:oid:2.16.840.1.113883.4.4",
        "value": "21-3259825"
      } ],
      "active": true,
      "type": [ {
        "coding": [ {
          "system": "http://terminology.hl7.org/CodeSystem/organization-type",
          "code": "pay",
          "display": "Payer"
        } ]
      } ],
      "name": "Blue Cross Blue Shield of Texas",
      "telecom": [ {
        "system": "phone",
        "value": "(+1) 972-766-6900"
      } ],
      "address": [ {
        "use": "billing",
        "type": "postal",
        "line": [ "P.O. Box 660044" ],
        "city": "Dallas",
        "state": "TX",
        "postalCode": "75266-0044",
        "country": "USA"
      } ]
    },
    "request": {
      "method": "PUT",
      "url": "Organization/29953780-605b-4beb-b27e-5a9d0374d9d0"
    }
  }, {
    "fullUrl": "https://madie.cms.gov/Practitioner/0bc79578-4da2-4ed0-85c3-e746a452ee33",
    "resource": {
      "resourceType": "Practitioner",
      "id": "0bc79578-4da2-4ed0-85c3-e746a452ee33",
      "meta": {
        "profile": [ "http://hl7.org/fhir/us/qicore/StructureDefinition/qicore-practitioner" ]
      },
      "identifier": [ {
        "system": "http://hl7.org/fhir/sid/us-npi",
        "value": "123456"
      } ],
      "name": [ {
        "family": "Evil",
        "prefix": [ "Dr" ]
      } ]
    },
    "request": {
      "method": "PUT",
      "url": "Practitioner/0bc79578-4da2-4ed0-85c3-e746a452ee33"
    }
  }, {
    "fullUrl": "https://madie.cms.gov/MeasureReport/249ff9bc-94bf-4f72-97ae-d97f32123053",
    "resource": {
      "resourceType": "MeasureReport",
      "id": "249ff9bc-94bf-4f72-97ae-d97f32123053",
      "meta": {
        "profile": [ "http://hl7.org/fhir/us/cqfmeasures/StructureDefinition/test-case-cqfm" ]
      },
      "contained": [ {
        "resourceType": "Parameters",
        "id": "6904c414-c75c-4bdd-856a-7811effe0a3d-parameters",
        "parameter": [ {
          "name": "subject",
          "valueString": "e529e266-033b-4aec-abbc-d7fb27b7286c"
        } ]
      } ],
      "extension": [ {
        "url": "http://hl7.org/fhir/StructureDefinition/cqf-inputParameters",
        "valueReference": {
          "reference": "#6904c414-c75c-4bdd-856a-7811effe0a3d-parameters"
        }
      }, {
        "url": "http://hl7.org/fhir/us/cqfmeasures/StructureDefinition/cqfm-testCaseDescription",
        "valueMarkdown": "Patient with cancer diagnosis that starts a day after the measurement period. \n"
      } ],
      "modifierExtension": [ {
        "url": "http://hl7.org/fhir/us/cqfmeasures/StructureDefinition/cqfm-isTestCase",
        "valueBoolean": true
      } ],
      "status": "complete",
      "type": "individual",
      "measure": "https://madie.cms.gov/Measure/CMS157FHIRPainIntensityQuantified",
      "period": {
        "start": "2026-01-01",
        "end": "2026-12-31"
      },
      "group": [ {
        "id": "Group_1",
        "population": [ {
          "id": "InitialPopulation_1",
          "code": {
            "coding": [ {
              "system": "http://terminology.hl7.org/CodeSystem/measure-population",
              "code": "initial-population",
              "display": "Initial Population"
            } ]
          },
          "count": 0
        }, {
          "id": "Denominator_1",
          "code": {
            "coding": [ {
              "system": "http://terminology.hl7.org/CodeSystem/measure-population",
              "code": "denominator",
              "display": "Denominator"
            } ]
          },
          "count": 0
        }, {
          "id": "Numerator_1",
          "code": {
            "coding": [ {
              "system": "http://terminology.hl7.org/CodeSystem/measure-population",
              "code": "numerator",
              "display": "Numerator"
            } ]
          },
          "count": 0
        } ],
        "measureScore": {
          "value": 0.0
        }
      }, {
        "id": "Group_2",
        "population": [ {
          "id": "InitialPopulation_2",
          "code": {
            "coding": [ {
              "system": "http://terminology.hl7.org/CodeSystem/measure-population",
              "code": "initial-population",
              "display": "Initial Population"
            } ]
          },
          "count": 0
        }, {
          "id": "Denominator_2",
          "code": {
            "coding": [ {
              "system": "http://terminology.hl7.org/CodeSystem/measure-population",
              "code": "denominator",
              "display": "Denominator"
            } ]
          },
          "count": 0
        }, {
          "id": "Numerator_2",
          "code": {
            "coding": [ {
              "system": "http://terminology.hl7.org/CodeSystem/measure-population",
              "code": "numerator",
              "display": "Numerator"
            } ]
          },
          "count": 0
        } ],
        "measureScore": {
          "value": 0.0
        }
      } ],
      "evaluatedResource": [ {
        "reference": "Patient/e529e266-033b-4aec-abbc-d7fb27b7286c"
      }, {
        "reference": "Condition/c6a65355-0b12-4f8d-bd96-ed503a241821"
      }, {
        "reference": "Encounter/20c064d5-2172-4b77-80f6-cba8fea189dc"
      }, {
        "reference": "Coverage/95bb17e8-d49a-4e98-8c83-a6a60aa86756"
      }, {
        "reference": "Procedure/51f17cc4-4230-452b-8470-b4e22fb789c7"
      }, {
        "reference": "Procedure/2c077e7c-fe09-487c-ba78-d035d4212485"
      }, {
        "reference": "Organization/29953780-605b-4beb-b27e-5a9d0374d9d0"
      }, {
        "reference": "Practitioner/0bc79578-4da2-4ed0-85c3-e746a452ee33"
      } ]
    },
    "request": {
      "method": "PUT",
      "url": "MeasureReport/249ff9bc-94bf-4f72-97ae-d97f32123053"
    }
  } ]
}