{
  "resourceType": "Bundle",
  "id": "DENEXPass-PalliativeCareDiagnosisDuringMP",
  "type": "transaction",
  "entry": [ {
    "fullUrl": "https://madie.cms.gov/Patient/7e41f717-097e-45a7-9a00-1e0ad852cb44",
    "resource": {
      "resourceType": "Patient",
      "id": "7e41f717-097e-45a7-9a00-1e0ad852cb44",
      "meta": {
        "profile": [ "http://hl7.org/fhir/us/qicore/StructureDefinition/qicore-patient" ]
      },
      "extension": [ {
        "url": "http://hl7.org/fhir/us/core/StructureDefinition/us-core-race",
        "extension": [ {
          "url": "ombCategory",
          "valueCoding": {
            "system": "urn:oid:2.16.840.1.113883.6.238",
            "code": "2028-9",
            "display": "Asian"
          }
        }, {
          "url": "text",
          "valueString": "Asian"
        } ]
      }, {
        "url": "http://hl7.org/fhir/us/core/StructureDefinition/us-core-sex",
        "valueCode": "248152002"
      }, {
        "url": "http://hl7.org/fhir/us/core/StructureDefinition/us-core-ethnicity",
        "extension": [ {
          "url": "ombCategory",
          "valueCoding": {
            "system": "urn:oid:2.16.840.1.113883.6.238",
            "code": "2135-2",
            "display": "Hispanic or Latino"
          }
        }, {
          "url": "text",
          "valueString": "Hispanic or Latino"
        } ]
      } ],
      "identifier": [ {
        "system": "http://hospital.smarthealthit.org",
        "value": "999999995"
      } ],
      "name": [ {
        "family": "Bertha",
        "given": [ "Betty" ]
      } ],
      "gender": "female",
      "birthDate": "2002-12-31"
    },
    "request": {
      "method": "PUT",
      "url": "Patient/7e41f717-097e-45a7-9a00-1e0ad852cb44"
    }
  }, {
    "fullUrl": "https://madie.cms.gov/Encounter/42021cc7-89ef-43f0-8984-64fd561d6427",
    "resource": {
      "resourceType": "Encounter",
      "id": "42021cc7-89ef-43f0-8984-64fd561d6427",
      "meta": {
        "profile": [ "http://hl7.org/fhir/us/qicore/StructureDefinition/qicore-encounter" ]
      },
      "status": "finished",
      "class": {
        "system": "http://terminology.hl7.org/CodeSystem/v3-ActCode",
        "code": "AMB",
        "display": "ambulatory"
      },
      "type": [ {
        "coding": [ {
          "system": "http://snomed.info/sct",
          "code": "185460008",
          "display": "Home visit request by patient (procedure)"
        } ]
      } ],
      "subject": {
        "reference": "Patient/7e41f717-097e-45a7-9a00-1e0ad852cb44"
      },
      "period": {
        "start": "2026-01-01T00:00:00.000+00:00",
        "end": "2026-01-01T01:00:00.000+00:00"
      }
    },
    "request": {
      "method": "PUT",
      "url": "Encounter/42021cc7-89ef-43f0-8984-64fd561d6427"
    }
  }, {
    "fullUrl": "https://madie.cms.gov/Condition/ec2b2b70-00e8-429d-b4bf-48563d602c08",
    "resource": {
      "resourceType": "Condition",
      "id": "ec2b2b70-00e8-429d-b4bf-48563d602c08",
      "meta": {
        "profile": [ "http://hl7.org/fhir/us/qicore/StructureDefinition/qicore-condition-problems-health-concerns" ]
      },
      "clinicalStatus": {
        "coding": [ {
          "system": "http://terminology.hl7.org/CodeSystem/condition-clinical",
          "code": "active"
        } ]
      },
      "category": [ {
        "coding": [ {
          "system": "http://terminology.hl7.org/CodeSystem/condition-category",
          "code": "problem-list-item",
          "display": "Problem List Item"
        } ]
      } ],
      "code": {
        "coding": [ {
          "system": "http://snomed.info/sct",
          "code": "441874000",
          "display": "Seen by palliative care service (finding)"
        } ]
      },
      "subject": {
        "reference": "Patient/7e41f717-097e-45a7-9a00-1e0ad852cb44"
      },
      "onsetDateTime": "2026-12-31T23:59:59.000+00:00"
    },
    "request": {
      "method": "PUT",
      "url": "Condition/ec2b2b70-00e8-429d-b4bf-48563d602c08"
    }
  }, {
    "fullUrl": "https://madie.cms.gov/MeasureReport/e78c1f1e-cc47-466f-a6d7-5dab77d27fe5",
    "resource": {
      "resourceType": "MeasureReport",
      "id": "e78c1f1e-cc47-466f-a6d7-5dab77d27fe5",
      "meta": {
        "profile": [ "http://hl7.org/fhir/us/cqfmeasures/StructureDefinition/test-case-cqfm" ]
      },
      "contained": [ {
        "resourceType": "Parameters",
        "id": "ff329b6a-9cf6-47fe-8709-ebc9873d1b29-parameters",
        "parameter": [ {
          "name": "subject",
          "valueString": "7e41f717-097e-45a7-9a00-1e0ad852cb44"
        } ]
      } ],
      "extension": [ {
        "url": "http://hl7.org/fhir/StructureDefinition/cqf-inputParameters",
        "valueReference": {
          "reference": "#ff329b6a-9cf6-47fe-8709-ebc9873d1b29-parameters"
        }
      }, {
        "url": "http://hl7.org/fhir/us/cqfmeasures/StructureDefinition/cqfm-testCaseDescription",
        "valueMarkdown": "Palliative Care Condition - For meeting 100% coverage"
      } ],
      "modifierExtension": [ {
        "url": "http://hl7.org/fhir/us/cqfmeasures/StructureDefinition/cqfm-isTestCase",
        "valueBoolean": true
      } ],
      "status": "complete",
      "type": "individual",
      "measure": "https://madie.cms.gov/Measure/CMS124FHIRCervicalCancerScreen",
      "period": {
        "start": "2026-01-01",
        "end": "2026-12-31"
      },
      "group": [ {
        "id": "Group_1",
        "population": [ {
          "id": "InitialPopulation_1",
          "code": {
            "coding": [ {
              "system": "http://terminology.hl7.org/CodeSystem/measure-population",
              "code": "initial-population",
              "display": "Initial Population"
            } ]
          },
          "count": 1
        }, {
          "id": "Denominator_1",
          "code": {
            "coding": [ {
              "system": "http://terminology.hl7.org/CodeSystem/measure-population",
              "code": "denominator",
              "display": "Denominator"
            } ]
          },
          "count": 1
        }, {
          "id": "DenominatorExclusion_1",
          "code": {
            "coding": [ {
              "system": "http://terminology.hl7.org/CodeSystem/measure-population",
              "code": "denominator-exclusion",
              "display": "Denominator Exclusion"
            } ]
          },
          "count": 1
        }, {
          "id": "Numerator_1",
          "code": {
            "coding": [ {
              "system": "http://terminology.hl7.org/CodeSystem/measure-population",
              "code": "numerator",
              "display": "Numerator"
            } ]
          },
          "count": 0
        } ],
        "measureScore": {
          "value": 1.0
        }
      } ],
      "evaluatedResource": [ {
        "reference": "Patient/7e41f717-097e-45a7-9a00-1e0ad852cb44"
      }, {
        "reference": "Encounter/42021cc7-89ef-43f0-8984-64fd561d6427"
      }, {
        "reference": "Condition/ec2b2b70-00e8-429d-b4bf-48563d602c08"
      } ]
    },
    "request": {
      "method": "PUT",
      "url": "MeasureReport/e78c1f1e-cc47-466f-a6d7-5dab77d27fe5"
    }
  } ]
}