{
  "resourceType": "Bundle",
  "id": "x1f044ef3e654daa7200",
  "type": "transaction",
  "entry": [ {
    "fullUrl": "https://madie.cms.gov/Patient/8bb7c40b-7447-42ca-b662-161a7026ed8f",
    "resource": {
      "resourceType": "Patient",
      "id": "8bb7c40b-7447-42ca-b662-161a7026ed8f",
      "meta": {
        "profile": [ "http://hl7.org/fhir/us/qicore/StructureDefinition/qicore-patient" ]
      },
      "extension": [ {
        "url": "http://hl7.org/fhir/us/core/StructureDefinition/us-core-race",
        "extension": [ {
          "url": "ombCategory",
          "valueCoding": {
            "system": "urn:oid:2.16.840.1.113883.6.238",
            "code": "2028-9",
            "display": "Asian",
            "userSelected": true
          }
        }, {
          "url": "text",
          "valueString": "Asian"
        } ]
      }, {
        "url": "http://hl7.org/fhir/us/core/StructureDefinition/us-core-ethnicity",
        "extension": [ {
          "url": "ombCategory",
          "valueCoding": {
            "system": "urn:oid:2.16.840.1.113883.6.238",
            "code": "2186-5",
            "display": "Not Hispanic or Latino",
            "userSelected": true
          }
        }, {
          "url": "text",
          "valueString": "Not Hispanic or Latino"
        } ]
      }, {
        "url": "http://hl7.org/fhir/us/core/StructureDefinition/us-core-sex",
        "valueCode": "248153007"
      } ],
      "identifier": [ {
        "type": {
          "coding": [ {
            "system": "http://terminology.hl7.org/CodeSystem/v2-0203",
            "code": "MR"
          } ]
        },
        "system": "https://bonnie-fhir.healthit.gov/",
        "value": "x1f044ef3e654daa7200"
      } ],
      "name": [ {
        "family": "DENEXCL1PASS",
        "given": [ "MedicalReasonForNoFibDuringED" ]
      } ],
      "gender": "male",
      "birthDate": "1944-08-09"
    },
    "request": {
      "method": "PUT",
      "url": "Patient/8bb7c40b-7447-42ca-b662-161a7026ed8f"
    }
  }, {
    "fullUrl": "https://madie.cms.gov/Encounter/9c1958c8-7d55-4256-bd25-505d5deec1b6",
    "resource": {
      "resourceType": "Encounter",
      "id": "9c1958c8-7d55-4256-bd25-505d5deec1b6",
      "meta": {
        "profile": [ "http://hl7.org/fhir/us/qicore/StructureDefinition/qicore-encounter" ]
      },
      "status": "finished",
      "class": {
        "system": "http://terminology.hl7.org/CodeSystem/v3-ActCode",
        "code": "EMER",
        "display": "emergency",
        "userSelected": true
      },
      "type": [ {
        "coding": [ {
          "system": "http://snomed.info/sct",
          "version": "2020-09",
          "code": "4525004",
          "display": "Emergency department patient visit",
          "userSelected": true
        } ]
      } ],
      "subject": {
        "reference": "Patient/8bb7c40b-7447-42ca-b662-161a7026ed8f"
      },
      "period": {
        "start": "2026-10-09T05:00:00.000+00:00",
        "end": "2026-10-13T17:00:00.000+00:00"
      },
      "reasonReference": [ {
        "reference": "Condition/9a29a4f4-13d8-44fc-bb2e-202b1dfa3b89"
      } ]
    },
    "request": {
      "method": "PUT",
      "url": "Encounter/9c1958c8-7d55-4256-bd25-505d5deec1b6"
    }
  }, {
    "fullUrl": "https://madie.cms.gov/Condition/9a29a4f4-13d8-44fc-bb2e-202b1dfa3b89",
    "resource": {
      "resourceType": "Condition",
      "id": "9a29a4f4-13d8-44fc-bb2e-202b1dfa3b89",
      "meta": {
        "profile": [ "http://hl7.org/fhir/us/qicore/StructureDefinition/qicore-condition-encounter-diagnosis" ]
      },
      "clinicalStatus": {
        "coding": [ {
          "system": "http://terminology.hl7.org/CodeSystem/condition-clinical",
          "code": "active",
          "display": "Active",
          "userSelected": true
        } ]
      },
      "category": [ {
        "coding": [ {
          "system": "http://terminology.hl7.org/CodeSystem/condition-category",
          "code": "encounter-diagnosis",
          "display": "Encounter Diagnosis",
          "userSelected": true
        } ]
      } ],
      "code": {
        "coding": [ {
          "system": "http://hl7.org/fhir/sid/icd-10-cm",
          "code": "I21.21",
          "display": "ST elevation (STEMI) myocardial infarction involving left circumflex coronary artery",
          "userSelected": true
        } ]
      },
      "subject": {
        "reference": "Patient/8bb7c40b-7447-42ca-b662-161a7026ed8f"
      },
      "encounter": {
        "reference": "Encounter/9c1958c8-7d55-4256-bd25-505d5deec1b6"
      },
      "onsetPeriod": {
        "start": "2026-10-09T05:00:00.000+00:00",
        "end": "2026-10-09T17:00:00.000+00:00"
      }
    },
    "request": {
      "method": "PUT",
      "url": "Condition/9a29a4f4-13d8-44fc-bb2e-202b1dfa3b89"
    }
  }, {
    "fullUrl": "https://madie.cms.gov/MedicationAdministration/1b092c44-df3d-43a5-8ffb-bffe8af7fa70",
    "resource": {
      "resourceType": "MedicationAdministration",
      "id": "1b092c44-df3d-43a5-8ffb-bffe8af7fa70",
      "meta": {
        "profile": [ "http://hl7.org/fhir/us/qicore/StructureDefinition/qicore-medicationadministrationnotdone" ]
      },
      "extension": [ {
        "url": "http://hl7.org/fhir/us/qicore/StructureDefinition/qicore-recorded",
        "valueDateTime": "2026-10-11T17:30:00.000+00:00"
      } ],
      "status": "not-done",
      "statusReason": [ {
        "coding": [ {
          "system": "http://snomed.info/sct",
          "code": "183966005",
          "display": "Drug treatment not indicated (situation)"
        } ]
      } ],
      "medicationCodeableConcept": {
        "coding": [ {
          "system": "http://www.nlm.nih.gov/research/umls/rxnorm",
          "code": "1804799",
          "display": "alteplase 100 MG Injection",
          "userSelected": true
        } ]
      },
      "subject": {
        "reference": "Patient/8bb7c40b-7447-42ca-b662-161a7026ed8f"
      },
      "effectivePeriod": {
        "start": "2026-10-11T17:30:00.000+00:00"
      }
    },
    "request": {
      "method": "PUT",
      "url": "MedicationAdministration/1b092c44-df3d-43a5-8ffb-bffe8af7fa70"
    }
  }, {
    "fullUrl": "https://madie.cms.gov/MeasureReport/822c1001-e807-4e85-9b74-dc3e5c078564",
    "resource": {
      "resourceType": "MeasureReport",
      "id": "822c1001-e807-4e85-9b74-dc3e5c078564",
      "meta": {
        "profile": [ "http://hl7.org/fhir/us/cqfmeasures/StructureDefinition/test-case-cqfm" ]
      },
      "contained": [ {
        "resourceType": "Parameters",
        "id": "14809a9b-7bbc-48f6-8fc5-5d13c94f20b8-parameters",
        "parameter": [ {
          "name": "subject",
          "valueString": "8bb7c40b-7447-42ca-b662-161a7026ed8f"
        } ]
      } ],
      "extension": [ {
        "url": "http://hl7.org/fhir/StructureDefinition/cqf-inputParameters",
        "valueReference": {
          "reference": "#14809a9b-7bbc-48f6-8fc5-5d13c94f20b8-parameters"
        }
      }, {
        "url": "http://hl7.org/fhir/us/cqfmeasures/StructureDefinition/cqfm-testCaseDescription",
        "valueMarkdown": "Patient has a record of no fibrinolytic therapy administration for a valid medical reason "
      } ],
      "modifierExtension": [ {
        "url": "http://hl7.org/fhir/us/cqfmeasures/StructureDefinition/cqfm-isTestCase",
        "valueBoolean": true
      } ],
      "status": "complete",
      "type": "individual",
      "measure": "https://madie.cms.gov/Measure/CMS996FHIRAptTxforSTEMI",
      "period": {
        "start": "2026-01-01",
        "end": "2026-12-31"
      },
      "group": [ {
        "id": "Group_1",
        "population": [ {
          "id": "InitialPopulation_1",
          "code": {
            "coding": [ {
              "system": "http://terminology.hl7.org/CodeSystem/measure-population",
              "code": "initial-population",
              "display": "Initial Population"
            } ]
          },
          "count": 1
        }, {
          "id": "Denominator_1",
          "code": {
            "coding": [ {
              "system": "http://terminology.hl7.org/CodeSystem/measure-population",
              "code": "denominator",
              "display": "Denominator"
            } ]
          },
          "count": 1
        }, {
          "id": "DenominatorExclusion_1",
          "code": {
            "coding": [ {
              "system": "http://terminology.hl7.org/CodeSystem/measure-population",
              "code": "denominator-exclusion",
              "display": "Denominator Exclusion"
            } ]
          },
          "count": 0
        }, {
          "id": "Numerator_1",
          "code": {
            "coding": [ {
              "system": "http://terminology.hl7.org/CodeSystem/measure-population",
              "code": "numerator",
              "display": "Numerator"
            } ]
          },
          "count": 0
        }, {
          "id": "DenominatorException_1",
          "code": {
            "coding": [ {
              "system": "http://terminology.hl7.org/CodeSystem/measure-population",
              "code": "denominator-exception",
              "display": "Denominator Exception"
            } ]
          },
          "count": 1
        } ],
        "measureScore": {
          "value": 0.0
        }
      } ],
      "evaluatedResource": [ {
        "reference": "Patient/8bb7c40b-7447-42ca-b662-161a7026ed8f"
      }, {
        "reference": "Encounter/9c1958c8-7d55-4256-bd25-505d5deec1b6"
      }, {
        "reference": "Condition/9a29a4f4-13d8-44fc-bb2e-202b1dfa3b89"
      }, {
        "reference": "MedicationAdministration/1b092c44-df3d-43a5-8ffb-bffe8af7fa70"
      } ]
    },
    "request": {
      "method": "PUT",
      "url": "MeasureReport/822c1001-e807-4e85-9b74-dc3e5c078564"
    }
  } ]
}