{
  "resourceType": "Bundle",
  "id": "6179ea77ad1a790b7af75252",
  "type": "transaction",
  "entry": [ {
    "fullUrl": "https://madie.cms.gov/Patient/55a3b23f-dda9-4622-9b9f-ff3351923941",
    "resource": {
      "resourceType": "Patient",
      "id": "55a3b23f-dda9-4622-9b9f-ff3351923941",
      "meta": {
        "profile": [ "http://hl7.org/fhir/us/qicore/StructureDefinition/qicore-patient" ]
      },
      "extension": [ {
        "url": "http://hl7.org/fhir/us/core/StructureDefinition/us-core-race",
        "extension": [ {
          "url": "ombCategory",
          "valueCoding": {
            "system": "urn:oid:2.16.840.1.113883.6.238",
            "code": "2076-8",
            "display": "Native Hawaiian or Other Pacific Islander",
            "userSelected": true
          }
        }, {
          "url": "text",
          "valueString": "Native Hawaiian or Other Pacific Islander"
        } ]
      }, {
        "url": "http://hl7.org/fhir/us/core/StructureDefinition/us-core-ethnicity",
        "extension": [ {
          "url": "ombCategory",
          "valueCoding": {
            "system": "urn:oid:2.16.840.1.113883.6.238",
            "code": "2186-5",
            "display": "Not Hispanic or Latino",
            "userSelected": true
          }
        }, {
          "url": "text",
          "valueString": "Not Hispanic or Latino"
        } ]
      }, {
        "url": "http://hl7.org/fhir/us/core/StructureDefinition/us-core-sex",
        "valueCode": "248152002"
      } ],
      "identifier": [ {
        "type": {
          "coding": [ {
            "system": "http://terminology.hl7.org/CodeSystem/v2-0203",
            "code": "MR"
          } ]
        },
        "system": "https://bonnie-fhir.healthit.gov/",
        "value": "6179ea77ad1a790b7af75252"
      } ],
      "name": [ {
        "family": "DenExcl2Fail",
        "given": [ "PxExclStartsBeforeEndsDuringED" ]
      } ],
      "gender": "female",
      "birthDate": "1985-12-02"
    },
    "request": {
      "method": "PUT",
      "url": "Patient/55a3b23f-dda9-4622-9b9f-ff3351923941"
    }
  }, {
    "fullUrl": "https://madie.cms.gov/Encounter/2a5dd12c-4aa3-4c15-8b42-f7fa9f2624ed",
    "resource": {
      "resourceType": "Encounter",
      "id": "2a5dd12c-4aa3-4c15-8b42-f7fa9f2624ed",
      "meta": {
        "profile": [ "http://hl7.org/fhir/us/qicore/StructureDefinition/qicore-encounter" ]
      },
      "status": "finished",
      "class": {
        "system": "http://terminology.hl7.org/CodeSystem/v3-ActCode",
        "code": "EMER",
        "display": "emergency",
        "userSelected": true
      },
      "type": [ {
        "coding": [ {
          "system": "http://snomed.info/sct",
          "version": "2020-09",
          "code": "4525004",
          "display": "Emergency department patient visit (procedure)",
          "userSelected": true
        } ]
      } ],
      "subject": {
        "reference": "Patient/55a3b23f-dda9-4622-9b9f-ff3351923941"
      },
      "period": {
        "start": "2026-10-09T08:05:00.000+00:00",
        "end": "2026-10-10T07:15:00.000+00:00"
      },
      "reasonReference": [ {
        "reference": "Condition/076f1004-2964-49f8-8d5c-b83bcd137cd7"
      } ]
    },
    "request": {
      "method": "PUT",
      "url": "Encounter/2a5dd12c-4aa3-4c15-8b42-f7fa9f2624ed"
    }
  }, {
    "fullUrl": "https://madie.cms.gov/Condition/076f1004-2964-49f8-8d5c-b83bcd137cd7",
    "resource": {
      "resourceType": "Condition",
      "id": "076f1004-2964-49f8-8d5c-b83bcd137cd7",
      "meta": {
        "profile": [ "http://hl7.org/fhir/us/qicore/StructureDefinition/qicore-condition-problems-health-concerns" ]
      },
      "clinicalStatus": {
        "coding": [ {
          "system": "http://terminology.hl7.org/CodeSystem/condition-clinical",
          "code": "active",
          "display": "active",
          "userSelected": true
        } ]
      },
      "category": [ {
        "coding": [ {
          "system": "http://terminology.hl7.org/CodeSystem/condition-category",
          "code": "problem-list-item",
          "display": "Problem List Item",
          "userSelected": true
        } ]
      } ],
      "code": {
        "coding": [ {
          "system": "http://snomed.info/sct",
          "version": "2020-09",
          "code": "401303003",
          "display": "Acute ST segment elevation myocardial infarction (disorder)",
          "userSelected": true
        } ]
      },
      "subject": {
        "reference": "Patient/55a3b23f-dda9-4622-9b9f-ff3351923941"
      },
      "onsetDateTime": "2026-10-09T08:30:00.000+00:00"
    },
    "request": {
      "method": "PUT",
      "url": "Condition/076f1004-2964-49f8-8d5c-b83bcd137cd7"
    }
  }, {
    "fullUrl": "https://madie.cms.gov/Procedure/3b315356-7398-4ca1-ad1c-c9d93d8c86c7",
    "resource": {
      "resourceType": "Procedure",
      "id": "3b315356-7398-4ca1-ad1c-c9d93d8c86c7",
      "meta": {
        "profile": [ "http://hl7.org/fhir/us/qicore/StructureDefinition/qicore-procedure" ]
      },
      "extension": [ {
        "url": "http://hl7.org/fhir/us/qicore/StructureDefinition/qicore-recorded",
        "valueDateTime": "2026-10-09T09:15:00.000+00:00"
      } ],
      "status": "completed",
      "category": {
        "coding": [ {
          "system": "http://snomed.info/sct",
          "code": "387713003",
          "display": "Surgical procedure",
          "userSelected": true
        } ]
      },
      "code": {
        "coding": [ {
          "system": "http://www.cms.gov/Medicare/Coding/ICD10",
          "code": "5A1955Z",
          "userSelected": true
        } ]
      },
      "subject": {
        "reference": "Patient/55a3b23f-dda9-4622-9b9f-ff3351923941"
      },
      "performedPeriod": {
        "start": "2026-10-01T13:15:00.000+00:00",
        "end": "2026-10-09T09:15:00.000+00:00"
      }
    },
    "request": {
      "method": "PUT",
      "url": "Procedure/3b315356-7398-4ca1-ad1c-c9d93d8c86c7"
    }
  }, {
    "fullUrl": "https://madie.cms.gov/MeasureReport/186fff73-c30f-4dea-b819-23cd34f849e8",
    "resource": {
      "resourceType": "MeasureReport",
      "id": "186fff73-c30f-4dea-b819-23cd34f849e8",
      "meta": {
        "profile": [ "http://hl7.org/fhir/us/cqfmeasures/StructureDefinition/test-case-cqfm" ]
      },
      "contained": [ {
        "resourceType": "Parameters",
        "id": "c0f5e281-8080-4350-84c7-afd23b2f9092-parameters",
        "parameter": [ {
          "name": "subject",
          "valueString": "55a3b23f-dda9-4622-9b9f-ff3351923941"
        } ]
      } ],
      "extension": [ {
        "url": "http://hl7.org/fhir/StructureDefinition/cqf-inputParameters",
        "valueReference": {
          "reference": "#c0f5e281-8080-4350-84c7-afd23b2f9092-parameters"
        }
      }, {
        "url": "http://hl7.org/fhir/us/cqfmeasures/StructureDefinition/cqfm-testCaseDescription",
        "valueMarkdown": "Patient has endotracheal intubation (exclusion procedure) that starts before and ends during the ED encounter"
      } ],
      "modifierExtension": [ {
        "url": "http://hl7.org/fhir/us/cqfmeasures/StructureDefinition/cqfm-isTestCase",
        "valueBoolean": true
      } ],
      "status": "complete",
      "type": "individual",
      "measure": "https://madie.cms.gov/Measure/CMS996FHIRAptTxforSTEMI",
      "period": {
        "start": "2026-01-01",
        "end": "2026-12-31"
      },
      "group": [ {
        "id": "Group_1",
        "population": [ {
          "id": "InitialPopulation_1",
          "code": {
            "coding": [ {
              "system": "http://terminology.hl7.org/CodeSystem/measure-population",
              "code": "initial-population",
              "display": "Initial Population"
            } ]
          },
          "count": 1
        }, {
          "id": "Denominator_1",
          "code": {
            "coding": [ {
              "system": "http://terminology.hl7.org/CodeSystem/measure-population",
              "code": "denominator",
              "display": "Denominator"
            } ]
          },
          "count": 1
        }, {
          "id": "DenominatorExclusion_1",
          "code": {
            "coding": [ {
              "system": "http://terminology.hl7.org/CodeSystem/measure-population",
              "code": "denominator-exclusion",
              "display": "Denominator Exclusion"
            } ]
          },
          "count": 0
        }, {
          "id": "Numerator_1",
          "code": {
            "coding": [ {
              "system": "http://terminology.hl7.org/CodeSystem/measure-population",
              "code": "numerator",
              "display": "Numerator"
            } ]
          },
          "count": 0
        }, {
          "id": "DenominatorException_1",
          "code": {
            "coding": [ {
              "system": "http://terminology.hl7.org/CodeSystem/measure-population",
              "code": "denominator-exception",
              "display": "Denominator Exception"
            } ]
          },
          "count": 0
        } ],
        "measureScore": {
          "value": 0.0
        }
      } ],
      "evaluatedResource": [ {
        "reference": "Patient/55a3b23f-dda9-4622-9b9f-ff3351923941"
      }, {
        "reference": "Encounter/2a5dd12c-4aa3-4c15-8b42-f7fa9f2624ed"
      }, {
        "reference": "Condition/076f1004-2964-49f8-8d5c-b83bcd137cd7"
      }, {
        "reference": "Procedure/3b315356-7398-4ca1-ad1c-c9d93d8c86c7"
      } ]
    },
    "request": {
      "method": "PUT",
      "url": "MeasureReport/186fff73-c30f-4dea-b819-23cd34f849e8"
    }
  } ]
}