{
  "resourceType": "Bundle",
  "id": "64946a32d09ece2c2e9bf943",
  "type": "collection",
  "entry": [ {
    "fullUrl": "https://madie.cms.gov/Patient/5d20c03f-3fa1-422f-913a-a58e8db09444",
    "resource": {
      "resourceType": "Patient",
      "id": "5d20c03f-3fa1-422f-913a-a58e8db09444",
      "meta": {
        "profile": [ "http://hl7.org/fhir/us/qicore/StructureDefinition/qicore-patient" ]
      },
      "extension": [ {
        "url": "http://hl7.org/fhir/us/core/StructureDefinition/us-core-race",
        "extension": [ {
          "url": "ombCategory",
          "valueCoding": {
            "system": "urn:oid:2.16.840.1.113883.6.238",
            "code": "2054-5",
            "display": "Black or African American",
            "userSelected": true
          }
        }, {
          "url": "text",
          "valueString": "Black or African American"
        } ]
      }, {
        "url": "http://hl7.org/fhir/us/core/StructureDefinition/us-core-ethnicity",
        "extension": [ {
          "url": "ombCategory",
          "valueCoding": {
            "system": "urn:oid:2.16.840.1.113883.6.238",
            "code": "2135-2",
            "display": "Hispanic or Latino",
            "userSelected": true
          }
        }, {
          "url": "text",
          "valueString": "Hispanic or Latino"
        } ]
      } ],
      "identifier": [ {
        "type": {
          "coding": [ {
            "system": "http://terminology.hl7.org/CodeSystem/v2-0203",
            "code": "MR"
          } ]
        },
        "system": "https://bonnie-fhir.healthit.gov/",
        "value": "64946a32d09ece2c2e9bf943"
      } ],
      "name": [ {
        "family": "16NumPass",
        "given": [ "TwoEncOver90DaysApart" ]
      } ],
      "gender": "male",
      "birthDate": "1959-09-29"
    }
  }, {
    "fullUrl": "https://madie.cms.gov/Condition/cc6ecc11-a29b-4de3-ae9e-37e405a4f9c9",
    "resource": {
      "resourceType": "Condition",
      "id": "cc6ecc11-a29b-4de3-ae9e-37e405a4f9c9",
      "meta": {
        "profile": [ "http://hl7.org/fhir/us/qicore/StructureDefinition/qicore-condition-problems-health-concerns" ]
      },
      "clinicalStatus": {
        "coding": [ {
          "system": "http://terminology.hl7.org/CodeSystem/condition-clinical",
          "code": "active",
          "display": "active",
          "userSelected": true
        } ]
      },
      "category": [ {
        "coding": [ {
          "system": "http://terminology.hl7.org/CodeSystem/condition-category",
          "code": "problem-list-item",
          "display": "Problem List Item"
        } ]
      } ],
      "code": {
        "coding": [ {
          "system": "http://hl7.org/fhir/sid/icd-9-cm",
          "version": "2013",
          "code": "042",
          "display": "Human immunodeficiency virus [HIV] disease",
          "userSelected": true
        }, {
          "system": "http://snomed.info/sct",
          "version": "http://snomed.info/sct/731000124108/version/20250301",
          "code": "165816005",
          "userSelected": true
        } ]
      },
      "subject": {
        "reference": "Patient/5d20c03f-3fa1-422f-913a-a58e8db09444"
      },
      "onsetDateTime": "2023-01-08T08:00:00.000+00:00",
      "recordedDate": "2023-01-08T10:00:00.000+00:00"
    }
  }, {
    "fullUrl": "https://madie.cms.gov/Encounter/5331e343-61ad-477d-9e28-8adf8cf4a867",
    "resource": {
      "resourceType": "Encounter",
      "id": "5331e343-61ad-477d-9e28-8adf8cf4a867",
      "meta": {
        "profile": [ "http://hl7.org/fhir/us/qicore/StructureDefinition/qicore-encounter" ]
      },
      "status": "finished",
      "class": {
        "system": "http://terminology.hl7.org/CodeSystem/v3-ActCode",
        "code": "AMB",
        "display": "ambulatory"
      },
      "type": [ {
        "coding": [ {
          "system": "http://snomed.info/sct",
          "version": "2022-09",
          "code": "185463005",
          "display": "Visit out of hours (procedure)",
          "userSelected": true
        } ]
      } ],
      "subject": {
        "reference": "Patient/5d20c03f-3fa1-422f-913a-a58e8db09444"
      },
      "period": {
        "start": "2026-02-01T08:00:00.000+00:00",
        "end": "2026-02-01T08:15:00.000+00:00"
      }
    }
  }, {
    "fullUrl": "https://madie.cms.gov/Encounter/717971f0-6553-4ae8-8c8e-e1e52fb515d9",
    "resource": {
      "resourceType": "Encounter",
      "id": "717971f0-6553-4ae8-8c8e-e1e52fb515d9",
      "meta": {
        "profile": [ "http://hl7.org/fhir/us/qicore/StructureDefinition/qicore-encounter" ]
      },
      "status": "finished",
      "class": {
        "system": "http://terminology.hl7.org/CodeSystem/v3-ActCode",
        "code": "AMB",
        "display": "ambulatory"
      },
      "type": [ {
        "coding": [ {
          "system": "http://snomed.info/sct",
          "version": "2022-09",
          "code": "444971000124105",
          "display": "Annual wellness visit (procedure)",
          "userSelected": true
        } ]
      } ],
      "subject": {
        "reference": "Patient/5d20c03f-3fa1-422f-913a-a58e8db09444"
      },
      "period": {
        "start": "2026-06-01T00:00:00.000+00:00",
        "end": "2026-06-01T08:15:00.000+00:00"
      }
    }
  }, {
    "fullUrl": "https://madie.cms.gov/Coverage/ccf89224-585c-47d6-881b-282a7c1b6731",
    "resource": {
      "resourceType": "Coverage",
      "id": "ccf89224-585c-47d6-881b-282a7c1b6731",
      "meta": {
        "profile": [ "http://hl7.org/fhir/us/qicore/StructureDefinition/qicore-coverage" ]
      },
      "status": "active",
      "subscriberId": "123456",
      "beneficiary": {
        "reference": "Patient/5d20c03f-3fa1-422f-913a-a58e8db09444"
      },
      "relationship": {
        "coding": [ {
          "system": "http://terminology.hl7.org/CodeSystem/subscriber-relationship",
          "code": "self",
          "display": "Self"
        } ]
      },
      "payor": [ {
        "reference": "Organization/a98d91eb-d47b-4269-82f3-614c52a1b3a6"
      } ]
    }
  }, {
    "fullUrl": "https://madie.cms.gov/Organization/a98d91eb-d47b-4269-82f3-614c52a1b3a6",
    "resource": {
      "resourceType": "Organization",
      "id": "a98d91eb-d47b-4269-82f3-614c52a1b3a6",
      "meta": {
        "profile": [ "http://hl7.org/fhir/us/qicore/StructureDefinition/qicore-organization" ]
      },
      "identifier": [ {
        "use": "temp",
        "system": "urn:oid:2.16.840.1.113883.4.4",
        "value": "21-3259825"
      } ],
      "active": true,
      "type": [ {
        "coding": [ {
          "system": "http://terminology.hl7.org/CodeSystem/organization-type",
          "code": "pay",
          "display": "Payer"
        } ]
      } ],
      "name": "Blue Cross Blue Shield of Texas",
      "telecom": [ {
        "system": "phone",
        "value": "(+1) 972-766-6900"
      } ],
      "address": [ {
        "use": "billing",
        "type": "postal",
        "line": [ "P.O. Box 660044" ],
        "city": "Dallas",
        "state": "TX",
        "postalCode": "75266-0044",
        "country": "USA"
      } ]
    }
  }, {
    "fullUrl": "https://madie.cms.gov/Practitioner/e52ca9b9-2615-474f-9892-e0170a86d308",
    "resource": {
      "resourceType": "Practitioner",
      "id": "e52ca9b9-2615-474f-9892-e0170a86d308",
      "meta": {
        "profile": [ "http://hl7.org/fhir/us/qicore/StructureDefinition/qicore-practitioner" ]
      },
      "identifier": [ {
        "system": "http://hl7.org/fhir/sid/us-npi",
        "value": "1689411712"
      } ],
      "name": [ {
        "family": "Evil",
        "prefix": [ "Dr" ]
      } ]
    }
  }, {
    "fullUrl": "https://madie.cms.gov/MeasureReport/16f7e2dc-5c35-43d5-b96a-0931cd959c32",
    "resource": {
      "resourceType": "MeasureReport",
      "id": "16f7e2dc-5c35-43d5-b96a-0931cd959c32",
      "meta": {
        "profile": [ "http://hl7.org/fhir/us/cqfmeasures/StructureDefinition/test-case-cqfm" ]
      },
      "contained": [ {
        "resourceType": "Parameters",
        "id": "c6ff11bc-2deb-4b44-af46-07a7fca251c1-parameters",
        "parameter": [ {
          "name": "subject",
          "valueString": "5d20c03f-3fa1-422f-913a-a58e8db09444"
        } ]
      } ],
      "extension": [ {
        "url": "http://hl7.org/fhir/StructureDefinition/cqf-inputParameters",
        "valueReference": {
          "reference": "#c6ff11bc-2deb-4b44-af46-07a7fca251c1-parameters"
        }
      }, {
        "url": "http://hl7.org/fhir/us/cqfmeasures/StructureDefinition/cqfm-testCaseDescription",
        "valueMarkdown": "Patient has two encounters over 90 days apart during MP (edge case test)."
      } ],
      "modifierExtension": [ {
        "url": "http://hl7.org/fhir/us/cqfmeasures/StructureDefinition/cqfm-isTestCase",
        "valueBoolean": true
      } ],
      "status": "complete",
      "type": "individual",
      "measure": "https://madie.cms.gov/Measure/CMS1157FHIRHIVRetention",
      "period": {
        "start": "2026-01-01",
        "end": "2026-12-31"
      },
      "group": [ {
        "id": "Group_1",
        "population": [ {
          "id": "InitialPopulation_1",
          "code": {
            "coding": [ {
              "system": "http://terminology.hl7.org/CodeSystem/measure-population",
              "code": "initial-population",
              "display": "Initial Population"
            } ]
          },
          "count": 1
        }, {
          "id": "Denominator_1",
          "code": {
            "coding": [ {
              "system": "http://terminology.hl7.org/CodeSystem/measure-population",
              "code": "denominator",
              "display": "Denominator"
            } ]
          },
          "count": 1
        }, {
          "id": "Numerator_1",
          "code": {
            "coding": [ {
              "system": "http://terminology.hl7.org/CodeSystem/measure-population",
              "code": "numerator",
              "display": "Numerator"
            } ]
          },
          "count": 1
        } ],
        "measureScore": {
          "value": 1.0
        }
      } ],
      "evaluatedResource": [ {
        "reference": "Patient/5d20c03f-3fa1-422f-913a-a58e8db09444"
      }, {
        "reference": "Condition/cc6ecc11-a29b-4de3-ae9e-37e405a4f9c9"
      }, {
        "reference": "Encounter/5331e343-61ad-477d-9e28-8adf8cf4a867"
      }, {
        "reference": "Encounter/717971f0-6553-4ae8-8c8e-e1e52fb515d9"
      }, {
        "reference": "Coverage/ccf89224-585c-47d6-881b-282a7c1b6731"
      }, {
        "reference": "Organization/a98d91eb-d47b-4269-82f3-614c52a1b3a6"
      }, {
        "reference": "Practitioner/e52ca9b9-2615-474f-9892-e0170a86d308"
      } ]
    }
  } ]
}