{
  "resourceType": "Bundle",
  "id": "61095b0998086b53805591a5",
  "type": "collection",
  "entry": [ {
    "fullUrl": "https://madie.cms.gov/Patient/cb570eec-4de5-4dd7-bd0a-9ee00bbeeb48",
    "resource": {
      "resourceType": "Patient",
      "id": "cb570eec-4de5-4dd7-bd0a-9ee00bbeeb48",
      "meta": {
        "profile": [ "http://hl7.org/fhir/us/qicore/StructureDefinition/qicore-patient" ]
      },
      "text": {
        "status": "generated",
        "div": "<div xmlns=\"http://www.w3.org/1999/xhtml\"><div class=\"hapiHeaderText\">Age@18 <b>DENOMPASS </b></div><table class=\"hapiPropertyTable\"><tbody><tr><td>Identifier</td><td>67f3e33acf17bcb386e754d726ed064ccd48ba21ff0ffb2eb678740a684398be</td></tr><tr><td>Date of birth</td><td><span>01 January 1994</span></td></tr></tbody></table></div>"
      },
      "extension": [ {
        "url": "http://hl7.org/fhir/us/core/StructureDefinition/us-core-race",
        "extension": [ {
          "url": "ombCategory",
          "valueCoding": {
            "system": "urn:oid:2.16.840.1.113883.6.238",
            "code": "1002-5",
            "display": "American Indian or Alaska Native",
            "userSelected": true
          }
        }, {
          "url": "text",
          "valueString": "American Indian or Alaska Native"
        } ]
      }, {
        "url": "http://hl7.org/fhir/us/core/StructureDefinition/us-core-ethnicity",
        "extension": [ {
          "url": "ombCategory",
          "valueCoding": {
            "system": "urn:oid:2.16.840.1.113883.6.238",
            "code": "2135-2",
            "display": "Hispanic or Latino",
            "userSelected": true
          }
        }, {
          "url": "text",
          "valueString": "Hispanic or Latino"
        } ]
      } ],
      "identifier": [ {
        "type": {
          "coding": [ {
            "system": "http://terminology.hl7.org/CodeSystem/v2-0203",
            "code": "MR"
          } ]
        },
        "system": "https://bonnie-fhir.healthit.gov/",
        "value": "61095b0998086b53805591a5"
      } ],
      "active": true,
      "name": [ {
        "use": "usual",
        "family": "DENEXPASS",
        "given": [ "CertainTypeIridOverlapsCatSurg" ]
      } ],
      "gender": "female",
      "birthDate": "1996-01-01"
    }
  }, {
    "fullUrl": "https://madie.cms.gov/Observation/0cd3878c-f41b-458d-90d8-b55e5bcdd476",
    "resource": {
      "resourceType": "Observation",
      "id": "0cd3878c-f41b-458d-90d8-b55e5bcdd476",
      "meta": {
        "profile": [ "http://hl7.org/fhir/us/qicore/StructureDefinition/qicore-observation-clinical-result" ]
      },
      "status": "final",
      "category": [ {
        "coding": [ {
          "system": "http://terminology.hl7.org/CodeSystem/observation-category",
          "code": "exam",
          "display": "exam"
        } ]
      }, {
        "coding": [ {
          "system": "http://terminology.hl7.org/CodeSystem/observation-category",
          "code": "survey"
        } ]
      } ],
      "code": {
        "coding": [ {
          "system": "http://snomed.info/sct",
          "version": "http://snomed.info/sct/731000124108/version/20250301",
          "code": "419775003"
        } ]
      },
      "subject": {
        "reference": "Patient/cb570eec-4de5-4dd7-bd0a-9ee00bbeeb48"
      },
      "effectivePeriod": {
        "start": "2026-03-13T09:00:00.000+00:00",
        "end": "2026-03-13T09:30:00.000+00:00"
      },
      "dataAbsentReason": {
        "coding": [ {
          "system": "http://terminology.hl7.org/CodeSystem/data-absent-reason",
          "code": "unknown",
          "display": "Unknown"
        } ]
      }
    }
  }, {
    "fullUrl": "https://madie.cms.gov/Procedure/8f9fc646-8dd5-4d10-9483-d8ddf771d980",
    "resource": {
      "resourceType": "Procedure",
      "id": "8f9fc646-8dd5-4d10-9483-d8ddf771d980",
      "meta": {
        "profile": [ "http://hl7.org/fhir/us/qicore/StructureDefinition/qicore-procedure" ]
      },
      "extension": [ {
        "url": "http://hl7.org/fhir/us/qicore/StructureDefinition/qicore-recorded",
        "valueDateTime": "2026-03-05T13:35:00.000+00:00"
      } ],
      "status": "completed",
      "code": {
        "coding": [ {
          "system": "http://snomed.info/sct",
          "code": "84149000"
        } ]
      },
      "subject": {
        "reference": "Patient/cb570eec-4de5-4dd7-bd0a-9ee00bbeeb48"
      },
      "performedPeriod": {
        "start": "2026-03-05T13:20:00.000+00:00",
        "end": "2026-04-05T14:30:00.000+00:00"
      }
    }
  }, {
    "fullUrl": "https://madie.cms.gov/Condition/80440291-24b5-4f4d-a65f-fe6f9eefb58a",
    "resource": {
      "resourceType": "Condition",
      "id": "80440291-24b5-4f4d-a65f-fe6f9eefb58a",
      "meta": {
        "profile": [ "http://hl7.org/fhir/us/qicore/StructureDefinition/qicore-condition-problems-health-concerns" ]
      },
      "clinicalStatus": {
        "coding": [ {
          "system": "http://terminology.hl7.org/CodeSystem/condition-clinical",
          "code": "active",
          "display": "active",
          "userSelected": true
        } ]
      },
      "category": [ {
        "coding": [ {
          "system": "http://terminology.hl7.org/CodeSystem/condition-category",
          "code": "problem-list-item",
          "display": "Problem List Item"
        } ]
      } ],
      "code": {
        "coding": [ {
          "system": "http://hl7.org/fhir/sid/icd-10-cm",
          "code": "H20.9",
          "userSelected": true
        }, {
          "system": "http://snomed.info/sct",
          "version": "http://snomed.info/sct/731000124108/version/20250301",
          "code": "9091006",
          "userSelected": true
        } ]
      },
      "subject": {
        "reference": "Patient/cb570eec-4de5-4dd7-bd0a-9ee00bbeeb48"
      },
      "onsetDateTime": "2024-11-01T08:00:00.000+00:00"
    }
  }, {
    "fullUrl": "https://madie.cms.gov/Coverage/1811f17a-bd5d-482e-bc19-a9de0d0698f4",
    "resource": {
      "resourceType": "Coverage",
      "id": "1811f17a-bd5d-482e-bc19-a9de0d0698f4",
      "meta": {
        "profile": [ "http://hl7.org/fhir/us/qicore/StructureDefinition/qicore-coverage" ]
      },
      "status": "active",
      "subscriberId": "123456",
      "beneficiary": {
        "reference": "Patient/cb570eec-4de5-4dd7-bd0a-9ee00bbeeb48"
      },
      "relationship": {
        "coding": [ {
          "system": "http://terminology.hl7.org/CodeSystem/subscriber-relationship",
          "code": "self",
          "display": "Self"
        } ]
      },
      "payor": [ {
        "reference": "Organization/6739e4c6-80a9-437e-b445-c06e1f326c5c"
      } ]
    }
  }, {
    "fullUrl": "https://madie.cms.gov/Organization/6739e4c6-80a9-437e-b445-c06e1f326c5c",
    "resource": {
      "resourceType": "Organization",
      "id": "6739e4c6-80a9-437e-b445-c06e1f326c5c",
      "meta": {
        "profile": [ "http://hl7.org/fhir/us/qicore/StructureDefinition/qicore-organization" ]
      },
      "identifier": [ {
        "use": "temp",
        "system": "urn:oid:2.16.840.1.113883.4.4",
        "value": "21-3259825"
      } ],
      "active": true,
      "type": [ {
        "coding": [ {
          "system": "http://terminology.hl7.org/CodeSystem/organization-type",
          "code": "pay",
          "display": "Payer"
        } ]
      } ],
      "name": "Blue Cross Blue Shield of Texas",
      "telecom": [ {
        "system": "phone",
        "value": "(+1) 972-766-6900"
      } ],
      "address": [ {
        "use": "billing",
        "type": "postal",
        "line": [ "P.O. Box 660044" ],
        "city": "Dallas",
        "state": "TX",
        "postalCode": "75266-0044",
        "country": "USA"
      } ]
    }
  }, {
    "fullUrl": "https://madie.cms.gov/Practitioner/03f9416e-771c-4cdc-b39e-567eff977938",
    "resource": {
      "resourceType": "Practitioner",
      "id": "03f9416e-771c-4cdc-b39e-567eff977938",
      "meta": {
        "profile": [ "http://hl7.org/fhir/us/qicore/StructureDefinition/qicore-practitioner" ]
      },
      "identifier": [ {
        "system": "http://hl7.org/fhir/sid/us-npi",
        "value": "1689411712"
      } ],
      "name": [ {
        "family": "Evil",
        "prefix": [ "Dr" ]
      } ]
    }
  }, {
    "fullUrl": "https://madie.cms.gov/MeasureReport/629b7139-fd37-451e-a3eb-1cdb8d770876",
    "resource": {
      "resourceType": "MeasureReport",
      "id": "629b7139-fd37-451e-a3eb-1cdb8d770876",
      "meta": {
        "profile": [ "http://hl7.org/fhir/us/cqfmeasures/StructureDefinition/test-case-cqfm" ]
      },
      "contained": [ {
        "resourceType": "Parameters",
        "id": "6a9104a0-bebd-40c2-96c8-be442c33b4f6-parameters",
        "parameter": [ {
          "name": "subject",
          "valueString": "cb570eec-4de5-4dd7-bd0a-9ee00bbeeb48"
        } ]
      } ],
      "extension": [ {
        "url": "http://hl7.org/fhir/StructureDefinition/cqf-inputParameters",
        "valueReference": {
          "reference": "#6a9104a0-bebd-40c2-96c8-be442c33b4f6-parameters"
        }
      }, {
        "url": "http://hl7.org/fhir/us/cqfmeasures/StructureDefinition/cqfm-testCaseDescription",
        "valueMarkdown": "Patient with certain types of iridocyclitis overlapping cataract surgery. "
      } ],
      "modifierExtension": [ {
        "url": "http://hl7.org/fhir/us/cqfmeasures/StructureDefinition/cqfm-isTestCase",
        "valueBoolean": true
      } ],
      "status": "complete",
      "type": "individual",
      "measure": "https://madie.cms.gov/Measure/CMS133FHIRCataracts2040BCVA90Days",
      "period": {
        "start": "2026-01-01",
        "end": "2026-12-31"
      },
      "group": [ {
        "id": "Group_1",
        "population": [ {
          "id": "InitialPopulation_1",
          "code": {
            "coding": [ {
              "system": "http://terminology.hl7.org/CodeSystem/measure-population",
              "code": "initial-population",
              "display": "Initial Population"
            } ]
          },
          "count": 1
        }, {
          "id": "Denominator_1",
          "code": {
            "coding": [ {
              "system": "http://terminology.hl7.org/CodeSystem/measure-population",
              "code": "denominator",
              "display": "Denominator"
            } ]
          },
          "count": 1
        }, {
          "id": "DenominatorExclusion_1",
          "code": {
            "coding": [ {
              "system": "http://terminology.hl7.org/CodeSystem/measure-population",
              "code": "denominator-exclusion",
              "display": "Denominator Exclusion"
            } ]
          },
          "count": 1
        }, {
          "id": "Numerator_1",
          "code": {
            "coding": [ {
              "system": "http://terminology.hl7.org/CodeSystem/measure-population",
              "code": "numerator",
              "display": "Numerator"
            } ]
          },
          "count": 0
        } ],
        "measureScore": {
          "value": 0.0
        }
      } ],
      "evaluatedResource": [ {
        "reference": "Patient/cb570eec-4de5-4dd7-bd0a-9ee00bbeeb48"
      }, {
        "reference": "Observation/0cd3878c-f41b-458d-90d8-b55e5bcdd476"
      }, {
        "reference": "Procedure/8f9fc646-8dd5-4d10-9483-d8ddf771d980"
      }, {
        "reference": "Condition/80440291-24b5-4f4d-a65f-fe6f9eefb58a"
      }, {
        "reference": "Coverage/1811f17a-bd5d-482e-bc19-a9de0d0698f4"
      }, {
        "reference": "Organization/6739e4c6-80a9-437e-b445-c06e1f326c5c"
      }, {
        "reference": "Practitioner/03f9416e-771c-4cdc-b39e-567eff977938"
      } ]
    }
  } ]
}