{
  "resourceType": "Bundle",
  "id": "6109650598086b538055a114",
  "type": "transaction",
  "entry": [ {
    "fullUrl": "https://madie.cms.gov/Patient/1ea93f92-f4f1-44fe-8511-dd5d8bd86a8d",
    "resource": {
      "resourceType": "Patient",
      "id": "1ea93f92-f4f1-44fe-8511-dd5d8bd86a8d",
      "meta": {
        "profile": [ "http://hl7.org/fhir/us/qicore/StructureDefinition/qicore-patient" ]
      },
      "text": {
        "status": "generated",
        "div": "<div xmlns=\"http://www.w3.org/1999/xhtml\"><div class=\"hapiHeaderText\">RiskAssessMultOVEncrelevantPeriod <b>NUMERPASS </b></div><table class=\"hapiPropertyTable\"><tbody><tr><td>Identifier</td><td>4acdd1ab2ce8b6b5853988f06278aa61</td></tr><tr><td>Date of birth</td><td><span>25 April 2000</span></td></tr></tbody></table></div>"
      },
      "extension": [ {
        "url": "http://hl7.org/fhir/us/core/StructureDefinition/us-core-race",
        "extension": [ {
          "url": "ombCategory",
          "valueCoding": {
            "system": "urn:oid:2.16.840.1.113883.6.238",
            "code": "2028-9",
            "display": "Asian",
            "userSelected": true
          }
        }, {
          "url": "text",
          "valueString": "Asian"
        } ]
      }, {
        "url": "http://hl7.org/fhir/us/core/StructureDefinition/us-core-ethnicity",
        "extension": [ {
          "url": "ombCategory",
          "valueCoding": {
            "system": "urn:oid:2.16.840.1.113883.6.238",
            "code": "2186-5",
            "display": "Not Hispanic or Latino",
            "userSelected": true
          }
        }, {
          "url": "text",
          "valueString": "Not Hispanic or Latino"
        } ]
      } ],
      "identifier": [ {
        "type": {
          "coding": [ {
            "system": "http://terminology.hl7.org/CodeSystem/v2-0203",
            "code": "MR"
          } ]
        },
        "system": "https://bonnie-fhir.healthit.gov/",
        "value": "6109650598086b538055a114"
      } ],
      "active": true,
      "name": [ {
        "use": "usual",
        "family": "NUMPass",
        "given": [ "RiskAssmtMultEncrelevantPeriod" ]
      } ],
      "gender": "female",
      "birthDate": "2015-04-25"
    },
    "request": {
      "method": "PUT",
      "url": "Patient/1ea93f92-f4f1-44fe-8511-dd5d8bd86a8d"
    }
  }, {
    "fullUrl": "https://madie.cms.gov/Encounter/56ddc508-7243-4230-8017-ccf4d2524e84",
    "resource": {
      "resourceType": "Encounter",
      "id": "56ddc508-7243-4230-8017-ccf4d2524e84",
      "meta": {
        "profile": [ "http://hl7.org/fhir/us/qicore/StructureDefinition/qicore-encounter" ]
      },
      "status": "finished",
      "class": {
        "system": "http://terminology.hl7.org/CodeSystem/v3-ActCode",
        "code": "AMB",
        "display": "ambulatory",
        "userSelected": true
      },
      "type": [ {
        "coding": [ {
          "system": "http://www.ama-assn.org/go/cpt",
          "code": "90845"
        } ]
      } ],
      "subject": {
        "reference": "Patient/1ea93f92-f4f1-44fe-8511-dd5d8bd86a8d"
      },
      "period": {
        "start": "2026-03-27T14:50:00.000+00:00",
        "end": "2026-03-27T15:00:00.000+00:00"
      },
      "length": {
        "value": 0.0,
        "unit": "days"
      },
      "reasonCode": [ {
        "coding": [ {
          "system": "http://hl7.org/fhir/sid/icd-10-cm",
          "code": "F33.9",
          "display": "Major depressive disorder, recurrent, unspecified",
          "userSelected": true
        } ]
      } ],
      "diagnosis": [ {
        "condition": {
          "reference": "Condition/9e3a4218-6180-4a2f-b77d-98d4132e8d88"
        },
        "use": {
          "coding": [ {
            "system": "http://snomed.info/sct",
            "version": "2023-09",
            "code": "75084000",
            "display": "Severe major depression without psychotic features (disorder)",
            "userSelected": true
          } ]
        }
      } ]
    },
    "request": {
      "method": "PUT",
      "url": "Encounter/56ddc508-7243-4230-8017-ccf4d2524e84"
    }
  }, {
    "fullUrl": "https://madie.cms.gov/Encounter/ae072186-006e-4d63-bf56-405fe0d5b6a9",
    "resource": {
      "resourceType": "Encounter",
      "id": "ae072186-006e-4d63-bf56-405fe0d5b6a9",
      "meta": {
        "profile": [ "http://hl7.org/fhir/us/qicore/StructureDefinition/qicore-encounter" ]
      },
      "status": "finished",
      "class": {
        "system": "http://terminology.hl7.org/CodeSystem/v3-ActCode",
        "code": "AMB",
        "display": "ambulatory",
        "userSelected": true
      },
      "type": [ {
        "coding": [ {
          "system": "http://snomed.info/sct",
          "code": "185465003"
        } ]
      } ],
      "subject": {
        "reference": "Patient/1ea93f92-f4f1-44fe-8511-dd5d8bd86a8d"
      },
      "period": {
        "start": "2026-05-17T11:30:00.000+00:00",
        "end": "2026-05-17T12:00:00.000+00:00"
      },
      "length": {
        "value": 0.0,
        "unit": "days"
      }
    },
    "request": {
      "method": "PUT",
      "url": "Encounter/ae072186-006e-4d63-bf56-405fe0d5b6a9"
    }
  }, {
    "fullUrl": "https://madie.cms.gov/Encounter/128b19c5-f086-4e1e-b240-815a1cfcb917",
    "resource": {
      "resourceType": "Encounter",
      "id": "128b19c5-f086-4e1e-b240-815a1cfcb917",
      "meta": {
        "profile": [ "http://hl7.org/fhir/us/qicore/StructureDefinition/qicore-encounter" ]
      },
      "status": "finished",
      "class": {
        "system": "http://terminology.hl7.org/CodeSystem/v3-ActCode",
        "code": "AMB",
        "display": "ambulatory",
        "userSelected": true
      },
      "type": [ {
        "coding": [ {
          "system": "http://www.ama-assn.org/go/cpt",
          "code": "90837"
        } ]
      } ],
      "subject": {
        "reference": "Patient/1ea93f92-f4f1-44fe-8511-dd5d8bd86a8d"
      },
      "period": {
        "start": "2026-07-12T11:30:00.000+00:00",
        "end": "2026-07-12T12:00:00.000+00:00"
      },
      "length": {
        "value": 0.0,
        "unit": "days"
      },
      "reasonCode": [ {
        "coding": [ {
          "system": "http://hl7.org/fhir/sid/icd-10-cm",
          "version": "2021",
          "code": "F33.41",
          "display": "Major depressive disorder, recurrent, in partial remission",
          "userSelected": true
        } ]
      } ],
      "diagnosis": [ {
        "condition": {
          "reference": "Condition/b84d975b-591d-41b6-8e69-7a9fedac20db"
        },
        "use": {
          "coding": [ {
            "system": "http://snomed.info/sct",
            "version": "2023-09",
            "code": "66344007",
            "display": "Recurrent major depression (disorder)",
            "userSelected": true
          } ]
        }
      } ]
    },
    "request": {
      "method": "PUT",
      "url": "Encounter/128b19c5-f086-4e1e-b240-815a1cfcb917"
    }
  }, {
    "fullUrl": "https://madie.cms.gov/Encounter/8695678b-9a83-40de-83a3-6420b297c95a",
    "resource": {
      "resourceType": "Encounter",
      "id": "8695678b-9a83-40de-83a3-6420b297c95a",
      "meta": {
        "profile": [ "http://hl7.org/fhir/us/qicore/StructureDefinition/qicore-encounter" ]
      },
      "status": "finished",
      "class": {
        "system": "http://terminology.hl7.org/CodeSystem/v3-ActCode",
        "code": "AMB",
        "display": "ambulatory",
        "userSelected": true
      },
      "type": [ {
        "coding": [ {
          "system": "http://www.ama-assn.org/go/cpt",
          "code": "99243"
        } ]
      } ],
      "subject": {
        "reference": "Patient/1ea93f92-f4f1-44fe-8511-dd5d8bd86a8d"
      },
      "period": {
        "start": "2026-12-30T09:30:00.000+00:00",
        "end": "2026-12-30T10:00:00.000+00:00"
      },
      "length": {
        "value": 0.0,
        "unit": "days"
      }
    },
    "request": {
      "method": "PUT",
      "url": "Encounter/8695678b-9a83-40de-83a3-6420b297c95a"
    }
  }, {
    "fullUrl": "https://madie.cms.gov/Procedure/a2d804ec-8451-4ddc-9456-65e6ac59553c",
    "resource": {
      "resourceType": "Procedure",
      "id": "a2d804ec-8451-4ddc-9456-65e6ac59553c",
      "meta": {
        "profile": [ "http://hl7.org/fhir/us/qicore/StructureDefinition/qicore-procedure" ]
      },
      "extension": [ {
        "url": "http://hl7.org/fhir/us/qicore/StructureDefinition/qicore-recorded",
        "valueDateTime": "2026-03-27T14:45:00.000+00:00"
      } ],
      "status": "completed",
      "code": {
        "coding": [ {
          "system": "http://snomed.info/sct",
          "code": "225337009"
        } ]
      },
      "subject": {
        "reference": "Patient/1ea93f92-f4f1-44fe-8511-dd5d8bd86a8d"
      },
      "performedPeriod": {
        "start": "2026-03-27T14:44:00.000+00:00",
        "end": "2026-03-27T14:47:00.000+00:00"
      }
    },
    "request": {
      "method": "PUT",
      "url": "Procedure/a2d804ec-8451-4ddc-9456-65e6ac59553c"
    }
  }, {
    "fullUrl": "https://madie.cms.gov/Procedure/51e718b3-41b3-4d81-b4f7-b9ed41521eae",
    "resource": {
      "resourceType": "Procedure",
      "id": "51e718b3-41b3-4d81-b4f7-b9ed41521eae",
      "meta": {
        "profile": [ "http://hl7.org/fhir/us/qicore/StructureDefinition/qicore-procedure" ]
      },
      "extension": [ {
        "url": "http://hl7.org/fhir/us/qicore/StructureDefinition/qicore-recorded",
        "valueDateTime": "2026-07-12T11:40:00.000+00:00"
      } ],
      "status": "completed",
      "code": {
        "coding": [ {
          "system": "http://snomed.info/sct",
          "code": "225337009"
        } ]
      },
      "subject": {
        "reference": "Patient/1ea93f92-f4f1-44fe-8511-dd5d8bd86a8d"
      },
      "performedPeriod": {
        "start": "2026-07-12T11:35:00.000+00:00",
        "end": "2026-07-12T11:45:00.000+00:00"
      }
    },
    "request": {
      "method": "PUT",
      "url": "Procedure/51e718b3-41b3-4d81-b4f7-b9ed41521eae"
    }
  }, {
    "fullUrl": "https://madie.cms.gov/Condition/9e3a4218-6180-4a2f-b77d-98d4132e8d88",
    "resource": {
      "resourceType": "Condition",
      "id": "9e3a4218-6180-4a2f-b77d-98d4132e8d88",
      "meta": {
        "profile": [ "http://hl7.org/fhir/us/qicore/StructureDefinition/qicore-condition" ]
      },
      "category": [ {
        "coding": [ {
          "system": "http://terminology.hl7.org/CodeSystem/condition-category",
          "code": "encounter-diagnosis",
          "display": "encounter-diagnosis",
          "userSelected": true
        } ]
      } ],
      "code": {
        "coding": [ {
          "system": "http://snomed.info/sct",
          "version": "2023-09",
          "code": "75084000",
          "display": "Severe major depression without psychotic features (disorder)",
          "userSelected": true
        } ]
      },
      "subject": {
        "reference": "Patient/1ea93f92-f4f1-44fe-8511-dd5d8bd86a8d"
      },
      "recordedDate": "2026-03-27T14:30:00.000+00:00"
    },
    "request": {
      "method": "PUT",
      "url": "Condition/9e3a4218-6180-4a2f-b77d-98d4132e8d88"
    }
  }, {
    "fullUrl": "https://madie.cms.gov/Condition/b84d975b-591d-41b6-8e69-7a9fedac20db",
    "resource": {
      "resourceType": "Condition",
      "id": "b84d975b-591d-41b6-8e69-7a9fedac20db",
      "meta": {
        "profile": [ "http://hl7.org/fhir/us/qicore/StructureDefinition/qicore-condition" ]
      },
      "category": [ {
        "coding": [ {
          "system": "http://terminology.hl7.org/CodeSystem/condition-category",
          "code": "encounter-diagnosis",
          "display": "encounter-diagnosis",
          "userSelected": true
        } ]
      } ],
      "code": {
        "coding": [ {
          "system": "http://snomed.info/sct",
          "version": "2023-09",
          "code": "69392006",
          "display": "Major depressive disorder, single episode with catatonic features (disorder)",
          "userSelected": true
        } ]
      },
      "subject": {
        "reference": "Patient/1ea93f92-f4f1-44fe-8511-dd5d8bd86a8d"
      },
      "recordedDate": "2026-07-12T11:30:00.000+00:00"
    },
    "request": {
      "method": "PUT",
      "url": "Condition/b84d975b-591d-41b6-8e69-7a9fedac20db"
    }
  }, {
    "fullUrl": "https://madie.cms.gov/Coverage/cea52c30-5ca5-4a10-aa4a-0385dc53e674",
    "resource": {
      "resourceType": "Coverage",
      "id": "cea52c30-5ca5-4a10-aa4a-0385dc53e674",
      "meta": {
        "profile": [ "http://hl7.org/fhir/us/qicore/StructureDefinition/qicore-coverage" ]
      },
      "identifier": [ {
        "system": "http://benefitsinc.com/certificate",
        "value": "12345"
      } ],
      "status": "active",
      "type": {
        "coding": [ {
          "system": "https://nahdo.org/sopt",
          "version": "9.2",
          "code": "1",
          "display": "MEDICARE",
          "userSelected": true
        } ]
      },
      "beneficiary": {
        "reference": "Patient/1ea93f92-f4f1-44fe-8511-dd5d8bd86a8d"
      },
      "period": {
        "start": "2026-01-01T00:00:00.000+00:00",
        "end": "2026-12-31T23:59:00.000+00:00"
      },
      "payor": [ {
        "reference": "Organization/28b4f559-893b-4731-9e76-1124927ba1aa"
      } ]
    },
    "request": {
      "method": "PUT",
      "url": "Coverage/cea52c30-5ca5-4a10-aa4a-0385dc53e674"
    }
  }, {
    "fullUrl": "https://madie.cms.gov/Organization/28b4f559-893b-4731-9e76-1124927ba1aa",
    "resource": {
      "resourceType": "Organization",
      "id": "28b4f559-893b-4731-9e76-1124927ba1aa",
      "meta": {
        "profile": [ "http://hl7.org/fhir/us/qicore/StructureDefinition/qicore-organization" ]
      },
      "identifier": [ {
        "use": "temp",
        "system": "urn:oid:2.16.840.1.113883.4.4",
        "value": "21-3259825"
      } ],
      "active": true,
      "type": [ {
        "coding": [ {
          "system": "http://terminology.hl7.org/CodeSystem/organization-type",
          "code": "pay",
          "display": "Payer"
        } ]
      } ],
      "name": "Blue Cross Blue Shield of Texas",
      "telecom": [ {
        "system": "phone",
        "value": "(+1) 972-766-6900"
      } ],
      "address": [ {
        "use": "billing",
        "type": "postal",
        "line": [ "P.O. Box 660044" ],
        "city": "Dallas",
        "state": "TX",
        "postalCode": "75266-0044",
        "country": "USA"
      } ]
    },
    "request": {
      "method": "PUT",
      "url": "Organization/28b4f559-893b-4731-9e76-1124927ba1aa"
    }
  }, {
    "fullUrl": "https://madie.cms.gov/Practitioner/795f807d-3391-4d5a-b3f1-74f4e7101bff",
    "resource": {
      "resourceType": "Practitioner",
      "id": "795f807d-3391-4d5a-b3f1-74f4e7101bff",
      "meta": {
        "profile": [ "http://hl7.org/fhir/us/qicore/StructureDefinition/qicore-practitioner" ]
      },
      "identifier": [ {
        "system": "http://hl7.org/fhir/sid/us-npi",
        "value": "123456"
      } ],
      "name": [ {
        "family": "Evil",
        "prefix": [ "Dr" ]
      } ]
    },
    "request": {
      "method": "PUT",
      "url": "Practitioner/795f807d-3391-4d5a-b3f1-74f4e7101bff"
    }
  }, {
    "fullUrl": "https://madie.cms.gov/MeasureReport/04d3e699-a2eb-4913-ab7b-69e31083e56a",
    "resource": {
      "resourceType": "MeasureReport",
      "id": "04d3e699-a2eb-4913-ab7b-69e31083e56a",
      "meta": {
        "profile": [ "http://hl7.org/fhir/us/cqfmeasures/StructureDefinition/test-case-cqfm" ]
      },
      "contained": [ {
        "resourceType": "Parameters",
        "id": "c67123e4-3c7f-4962-9ecc-39e90d32704f-parameters",
        "parameter": [ {
          "name": "subject",
          "valueString": "1ea93f92-f4f1-44fe-8511-dd5d8bd86a8d"
        } ]
      } ],
      "extension": [ {
        "url": "http://hl7.org/fhir/StructureDefinition/cqf-inputParameters",
        "valueReference": {
          "reference": "#c67123e4-3c7f-4962-9ecc-39e90d32704f-parameters"
        }
      }, {
        "url": "http://hl7.org/fhir/us/cqfmeasures/StructureDefinition/cqfm-testCaseDescription",
        "valueMarkdown": "Patient with depression and suicide risk assessment during multiple office visit encounter using relevantPeriod"
      } ],
      "modifierExtension": [ {
        "url": "http://hl7.org/fhir/us/cqfmeasures/StructureDefinition/cqfm-isTestCase",
        "valueBoolean": true
      } ],
      "status": "complete",
      "type": "individual",
      "measure": "https://madie.cms.gov/Measure/CMS177FHIRChildMDDSuicideAssmt",
      "period": {
        "start": "2026-01-01",
        "end": "2026-12-31"
      },
      "group": [ {
        "id": "Group_1",
        "population": [ {
          "id": "InitialPopulation_1",
          "code": {
            "coding": [ {
              "system": "http://terminology.hl7.org/CodeSystem/measure-population",
              "code": "initial-population",
              "display": "Initial Population"
            } ]
          },
          "count": 2
        }, {
          "id": "Denominator_1",
          "code": {
            "coding": [ {
              "system": "http://terminology.hl7.org/CodeSystem/measure-population",
              "code": "denominator",
              "display": "Denominator"
            } ]
          },
          "count": 2
        }, {
          "id": "Numerator_1",
          "code": {
            "coding": [ {
              "system": "http://terminology.hl7.org/CodeSystem/measure-population",
              "code": "numerator",
              "display": "Numerator"
            } ]
          },
          "count": 1
        } ],
        "measureScore": {
          "value": 0.0
        }
      } ],
      "evaluatedResource": [ {
        "reference": "Patient/1ea93f92-f4f1-44fe-8511-dd5d8bd86a8d"
      }, {
        "reference": "Encounter/56ddc508-7243-4230-8017-ccf4d2524e84"
      }, {
        "reference": "Encounter/ae072186-006e-4d63-bf56-405fe0d5b6a9"
      }, {
        "reference": "Encounter/128b19c5-f086-4e1e-b240-815a1cfcb917"
      }, {
        "reference": "Encounter/8695678b-9a83-40de-83a3-6420b297c95a"
      }, {
        "reference": "Procedure/a2d804ec-8451-4ddc-9456-65e6ac59553c"
      }, {
        "reference": "Procedure/51e718b3-41b3-4d81-b4f7-b9ed41521eae"
      }, {
        "reference": "Condition/9e3a4218-6180-4a2f-b77d-98d4132e8d88"
      }, {
        "reference": "Condition/b84d975b-591d-41b6-8e69-7a9fedac20db"
      }, {
        "reference": "Coverage/cea52c30-5ca5-4a10-aa4a-0385dc53e674"
      }, {
        "reference": "Organization/28b4f559-893b-4731-9e76-1124927ba1aa"
      }, {
        "reference": "Practitioner/795f807d-3391-4d5a-b3f1-74f4e7101bff"
      } ]
    },
    "request": {
      "method": "PUT",
      "url": "MeasureReport/04d3e699-a2eb-4913-ab7b-69e31083e56a"
    }
  } ]
}