{
  "resourceType": "Bundle",
  "id": "612e6f6e02c62a011f2f1d45",
  "type": "transaction",
  "entry": [ {
    "fullUrl": "https://madie.cms.gov/Patient/0b727e44-0d5a-413b-8114-ab9bb7cce80e",
    "resource": {
      "resourceType": "Patient",
      "id": "0b727e44-0d5a-413b-8114-ab9bb7cce80e",
      "meta": {
        "profile": [ "http://hl7.org/fhir/us/qicore/StructureDefinition/qicore-patient" ]
      },
      "text": {
        "status": "generated",
        "div": "<div xmlns=\"http://www.w3.org/1999/xhtml\"><div class=\"hapiHeaderText\">AVFPDuringICU<b>NUMERPASS </b></div><table class=\"hapiPropertyTable\"><tbody><tr><td>Identifier</td><td>f9dd0d7a6a9f775928ab2c47f31bfdd50dfc6c91e6f0b0e678b3985354333a28</td></tr><tr><td>Date of birth</td><td><span>03 March 1974</span></td></tr></tbody></table></div>"
      },
      "extension": [ {
        "url": "http://hl7.org/fhir/us/core/StructureDefinition/us-core-race",
        "extension": [ {
          "url": "ombCategory",
          "valueCoding": {
            "system": "urn:oid:2.16.840.1.113883.6.238",
            "code": "1002-5",
            "display": "American Indian or Alaska Native",
            "userSelected": true
          }
        }, {
          "url": "text",
          "valueString": "American Indian or Alaska Native"
        } ]
      }, {
        "url": "http://hl7.org/fhir/us/core/StructureDefinition/us-core-ethnicity",
        "extension": [ {
          "url": "ombCategory",
          "valueCoding": {
            "system": "urn:oid:2.16.840.1.113883.6.238",
            "code": "2135-2",
            "display": "Hispanic or Latino",
            "userSelected": true
          }
        }, {
          "url": "text",
          "valueString": "Hispanic or Latino"
        } ]
      } ],
      "identifier": [ {
        "type": {
          "coding": [ {
            "system": "http://terminology.hl7.org/CodeSystem/v2-0203",
            "code": "MR"
          } ]
        },
        "system": "https://bonnie-fhir.healthit.gov/",
        "value": "612e6f6e02c62a011f2f1d45"
      } ],
      "active": true,
      "name": [ {
        "use": "usual",
        "family": "NUMERPass",
        "given": [ "DAVFPDuringICU" ]
      } ],
      "gender": "female",
      "birthDate": "1975-03-03"
    },
    "request": {
      "method": "PUT",
      "url": "Patient/0b727e44-0d5a-413b-8114-ab9bb7cce80e"
    }
  }, {
    "fullUrl": "https://madie.cms.gov/Encounter/2ac833d1-f8a9-45ae-9e0b-78009935cb78",
    "resource": {
      "resourceType": "Encounter",
      "id": "2ac833d1-f8a9-45ae-9e0b-78009935cb78",
      "meta": {
        "profile": [ "http://hl7.org/fhir/us/qicore/StructureDefinition/qicore-encounter" ]
      },
      "status": "finished",
      "class": {
        "system": "http://terminology.hl7.org/CodeSystem/v3-ActCode",
        "code": "IMP",
        "display": "inpatient encounter"
      },
      "type": [ {
        "coding": [ {
          "system": "http://snomed.info/sct",
          "code": "183452005"
        } ]
      } ],
      "subject": {
        "reference": "Patient/0b727e44-0d5a-413b-8114-ab9bb7cce80e"
      },
      "period": {
        "start": "2026-03-22T08:00:00.000+00:00",
        "end": "2026-03-26T08:15:00.000+00:00"
      },
      "length": {
        "value": 4,
        "unit": "days"
      },
      "location": [ {
        "location": {
          "reference": "Location/0f765b87-4abb-4010-8545-d9e9756ae3d5"
        },
        "period": {
          "start": "2026-03-22T08:15:00.000+00:00",
          "end": "2026-03-24T08:00:00.000+00:00"
        }
      } ]
    },
    "request": {
      "method": "PUT",
      "url": "Encounter/2ac833d1-f8a9-45ae-9e0b-78009935cb78"
    }
  }, {
    "fullUrl": "https://madie.cms.gov/Coverage/ec26ef62-4e0d-47d1-b4bc-553e676e8f86",
    "resource": {
      "resourceType": "Coverage",
      "id": "ec26ef62-4e0d-47d1-b4bc-553e676e8f86",
      "status": "active",
      "beneficiary": {
        "reference": "Patient/0b727e44-0d5a-413b-8114-ab9bb7cce80e"
      },
      "period": {
        "start": "1975-03-03T08:00:00.000+00:00"
      },
      "payor": [ {
        "reference": "Organization/cf5dcbfa-eb94-4544-aed0-bca060ecb285"
      } ]
    },
    "request": {
      "method": "PUT",
      "url": "Coverage/ec26ef62-4e0d-47d1-b4bc-553e676e8f86"
    }
  }, {
    "fullUrl": "https://madie.cms.gov/Location/0f765b87-4abb-4010-8545-d9e9756ae3d5",
    "resource": {
      "resourceType": "Location",
      "id": "0f765b87-4abb-4010-8545-d9e9756ae3d5",
      "meta": {
        "profile": [ "http://hl7.org/fhir/us/qicore/StructureDefinition/qicore-location" ]
      },
      "identifier": [ {
        "use": "usual",
        "system": "http://exampleoflocation.com",
        "value": "B1-S.F2"
      } ],
      "name": "Medical Surgical East, first floor",
      "type": [ {
        "coding": [ {
          "system": "https://www.cdc.gov/nhsn/cdaportal/terminology/codesystem/hsloc.html",
          "code": "1025-6",
          "display": "Trauma Critical Care",
          "userSelected": true
        } ]
      } ]
    },
    "request": {
      "method": "PUT",
      "url": "Location/0f765b87-4abb-4010-8545-d9e9756ae3d5"
    }
  }, {
    "fullUrl": "https://madie.cms.gov/Location/83e34fe6-222d-4aa5-95a5-dbbc05d1595d",
    "resource": {
      "resourceType": "Location",
      "id": "83e34fe6-222d-4aa5-95a5-dbbc05d1595d",
      "meta": {
        "profile": [ "http://hl7.org/fhir/us/qicore/StructureDefinition/qicore-location" ]
      },
      "identifier": [ {
        "use": "usual",
        "system": "http://exampleoflocation.com",
        "value": "B1-S.F2"
      } ],
      "name": "Medical Surgical East, first floor",
      "type": [ {
        "coding": [ {
          "system": "https://www.cdc.gov/nhsn/cdaportal/terminology/codesystem/hsloc.html",
          "code": "1025-6",
          "display": "Trauma Critical Care",
          "userSelected": true
        } ]
      } ]
    },
    "request": {
      "method": "PUT",
      "url": "Location/83e34fe6-222d-4aa5-95a5-dbbc05d1595d"
    }
  }, {
    "fullUrl": "https://madie.cms.gov/Procedure/eda511d5-a9e6-4392-877a-17b8b0bcf9e6",
    "resource": {
      "resourceType": "Procedure",
      "id": "eda511d5-a9e6-4392-877a-17b8b0bcf9e6",
      "meta": {
        "profile": [ "http://hl7.org/fhir/us/qicore/StructureDefinition/qicore-procedure" ]
      },
      "extension": [ {
        "url": "http://hl7.org/fhir/us/qicore/StructureDefinition/qicore-recorded",
        "valueDateTime": "2026-03-26T13:35:00.000+00:00"
      } ],
      "status": "completed",
      "code": {
        "coding": [ {
          "system": "http://snomed.info/sct",
          "code": "424831005",
          "display": "Application of foot pump (procedure)"
        } ]
      },
      "subject": {
        "reference": "Patient/0b727e44-0d5a-413b-8114-ab9bb7cce80e"
      },
      "performedPeriod": {
        "start": "2026-03-22T08:20:00.000+00:00",
        "end": "2026-03-22T08:25:00.000+00:00"
      }
    },
    "request": {
      "method": "PUT",
      "url": "Procedure/eda511d5-a9e6-4392-877a-17b8b0bcf9e6"
    }
  }, {
    "fullUrl": "https://madie.cms.gov/Organization/cf5dcbfa-eb94-4544-aed0-bca060ecb285",
    "resource": {
      "resourceType": "Organization",
      "id": "cf5dcbfa-eb94-4544-aed0-bca060ecb285",
      "meta": {
        "profile": [ "http://hl7.org/fhir/us/qicore/StructureDefinition/qicore-organization" ]
      },
      "identifier": [ {
        "use": "temp",
        "system": "urn:oid:2.16.840.1.113883.4.4",
        "value": "21-3259825"
      } ],
      "active": true,
      "type": [ {
        "coding": [ {
          "system": "http://terminology.hl7.org/CodeSystem/organization-type",
          "code": "pay",
          "display": "Payer"
        } ]
      } ],
      "name": "Blue Cross Blue Shield of Texas",
      "telecom": [ {
        "system": "phone",
        "value": "(+1) 972-766-6900"
      } ],
      "address": [ {
        "use": "billing",
        "type": "postal",
        "line": [ "P.O. Box 660044" ],
        "city": "Dallas",
        "state": "TX",
        "postalCode": "75266-0044",
        "country": "USA"
      } ]
    },
    "request": {
      "method": "PUT",
      "url": "Organization/cf5dcbfa-eb94-4544-aed0-bca060ecb285"
    }
  }, {
    "fullUrl": "https://madie.cms.gov/Practitioner/26088a40-8c28-4192-8347-23a9f1faa18d",
    "resource": {
      "resourceType": "Practitioner",
      "id": "26088a40-8c28-4192-8347-23a9f1faa18d",
      "identifier": [ {
        "system": "http://hl7.org/fhir/sid/us-npi",
        "value": "123456"
      } ],
      "name": [ {
        "family": "Evil",
        "prefix": [ "Dr" ]
      } ]
    },
    "request": {
      "method": "PUT",
      "url": "Practitioner/26088a40-8c28-4192-8347-23a9f1faa18d"
    }
  }, {
    "fullUrl": "https://madie.cms.gov/MeasureReport/cea0ead4-4062-4006-ab95-bca87fbe2aaa",
    "resource": {
      "resourceType": "MeasureReport",
      "id": "cea0ead4-4062-4006-ab95-bca87fbe2aaa",
      "meta": {
        "profile": [ "http://hl7.org/fhir/us/cqfmeasures/StructureDefinition/test-case-cqfm" ]
      },
      "contained": [ {
        "resourceType": "Parameters",
        "id": "c571434b-2995-4a6e-a4a9-cc24be636833-parameters",
        "parameter": [ {
          "name": "subject",
          "valueString": "0b727e44-0d5a-413b-8114-ab9bb7cce80e"
        } ]
      } ],
      "extension": [ {
        "url": "http://hl7.org/fhir/StructureDefinition/cqf-inputParameters",
        "valueReference": {
          "reference": "#c571434b-2995-4a6e-a4a9-cc24be636833-parameters"
        }
      }, {
        "url": "http://hl7.org/fhir/us/cqfmeasures/StructureDefinition/cqfm-testCaseDescription",
        "valueMarkdown": "Patient with VTE prophylaxis done by VFP applied "
      } ],
      "modifierExtension": [ {
        "url": "http://hl7.org/fhir/us/cqfmeasures/StructureDefinition/cqfm-isTestCase",
        "valueBoolean": true
      } ],
      "status": "complete",
      "type": "individual",
      "measure": "https://madie.cms.gov/Measure/CMS190FHIRVTEProphylaxisICU",
      "period": {
        "start": "2026-01-01",
        "end": "2026-12-31"
      },
      "group": [ {
        "id": "Group_1",
        "population": [ {
          "id": "InitialPopulation_1",
          "code": {
            "coding": [ {
              "system": "http://terminology.hl7.org/CodeSystem/measure-population",
              "code": "initial-population",
              "display": "Initial Population"
            } ]
          },
          "count": 1
        }, {
          "id": "Denominator_1",
          "code": {
            "coding": [ {
              "system": "http://terminology.hl7.org/CodeSystem/measure-population",
              "code": "denominator",
              "display": "Denominator"
            } ]
          },
          "count": 1
        }, {
          "id": "DenominatorExclusion_1",
          "code": {
            "coding": [ {
              "system": "http://terminology.hl7.org/CodeSystem/measure-population",
              "code": "denominator-exclusion",
              "display": "Denominator Exclusion"
            } ]
          },
          "count": 0
        }, {
          "id": "Numerator_1",
          "code": {
            "coding": [ {
              "system": "http://terminology.hl7.org/CodeSystem/measure-population",
              "code": "numerator",
              "display": "Numerator"
            } ]
          },
          "count": 1
        }, {
          "id": "DenominatorException_1",
          "code": {
            "coding": [ {
              "system": "http://terminology.hl7.org/CodeSystem/measure-population",
              "code": "denominator-exception",
              "display": "Denominator Exception"
            } ]
          },
          "count": 0
        } ],
        "measureScore": {
          "value": 0.0
        }
      } ],
      "evaluatedResource": [ {
        "reference": "Patient/0b727e44-0d5a-413b-8114-ab9bb7cce80e"
      }, {
        "reference": "Encounter/2ac833d1-f8a9-45ae-9e0b-78009935cb78"
      }, {
        "reference": "Coverage/ec26ef62-4e0d-47d1-b4bc-553e676e8f86"
      }, {
        "reference": "Location/0f765b87-4abb-4010-8545-d9e9756ae3d5"
      }, {
        "reference": "Location/83e34fe6-222d-4aa5-95a5-dbbc05d1595d"
      }, {
        "reference": "Procedure/eda511d5-a9e6-4392-877a-17b8b0bcf9e6"
      }, {
        "reference": "Organization/cf5dcbfa-eb94-4544-aed0-bca060ecb285"
      }, {
        "reference": "Practitioner/26088a40-8c28-4192-8347-23a9f1faa18d"
      } ]
    },
    "request": {
      "method": "PUT",
      "url": "MeasureReport/cea0ead4-4062-4006-ab95-bca87fbe2aaa"
    }
  } ]
}