{
  "resourceType": "Bundle",
  "id": "363b28a9-e77d-4fee-aaaf-73ebb35bc57c",
  "type": "transaction",
  "entry": [ {
    "fullUrl": "https://madie.cms.gov/Patient/35719b1a-85bd-4072-b8d5-7218309358c6",
    "resource": {
      "resourceType": "Patient",
      "id": "35719b1a-85bd-4072-b8d5-7218309358c6",
      "meta": {
        "profile": [ "http://hl7.org/fhir/us/qicore/StructureDefinition/qicore-patient" ]
      },
      "extension": [ {
        "url": "http://hl7.org/fhir/us/core/StructureDefinition/us-core-race",
        "extension": [ {
          "url": "ombCategory",
          "valueCoding": {
            "system": "urn:oid:2.16.840.1.113883.6.238",
            "code": "2106-3",
            "display": "White"
          }
        }, {
          "url": "text",
          "valueString": "White"
        } ]
      }, {
        "url": "http://hl7.org/fhir/us/core/StructureDefinition/us-core-ethnicity",
        "extension": [ {
          "url": "ombCategory",
          "valueCoding": {
            "system": "urn:oid:2.16.840.1.113883.6.238",
            "code": "2135-2",
            "display": "Hispanic or Latino"
          }
        }, {
          "url": "text",
          "valueString": "Hispanic or Latino"
        } ]
      } ],
      "identifier": [ {
        "system": "http://hospital.smarthealthit.org",
        "value": "999999999"
      } ],
      "name": [ {
        "family": "Example",
        "given": [ "Patient" ]
      } ],
      "gender": "male",
      "birthDate": "1956-01-01"
    },
    "request": {
      "method": "PUT",
      "url": "Patient/35719b1a-85bd-4072-b8d5-7218309358c6"
    }
  }, {
    "fullUrl": "https://madie.cms.gov/Encounter/84618db9-a7cf-4af2-bb5a-56403e82fbdd",
    "resource": {
      "resourceType": "Encounter",
      "id": "84618db9-a7cf-4af2-bb5a-56403e82fbdd",
      "meta": {
        "profile": [ "http://hl7.org/fhir/us/qicore/StructureDefinition/qicore-encounter" ]
      },
      "status": "finished",
      "class": {
        "system": "http://terminology.hl7.org/CodeSystem/v3-ActCode",
        "code": "IMP",
        "display": "inpatient encounter"
      },
      "type": [ {
        "coding": [ {
          "system": "http://snomed.info/sct",
          "code": "183452005"
        } ]
      } ],
      "subject": {
        "reference": "Patient/35719b1a-85bd-4072-b8d5-7218309358c6"
      },
      "period": {
        "start": "2026-04-07T08:00:00.000+00:00",
        "end": "2026-04-11T08:15:00.000+00:00"
      }
    },
    "request": {
      "method": "PUT",
      "url": "Encounter/84618db9-a7cf-4af2-bb5a-56403e82fbdd"
    }
  }, {
    "fullUrl": "https://madie.cms.gov/MedicationAdministration/2fb8e3ce-bceb-4786-a5a6-31986a65971b",
    "resource": {
      "resourceType": "MedicationAdministration",
      "id": "2fb8e3ce-bceb-4786-a5a6-31986a65971b",
      "meta": {
        "profile": [ "http://hl7.org/fhir/us/qicore/StructureDefinition/qicore-medicationadministration" ]
      },
      "status": "completed",
      "medicationCodeableConcept": {
        "coding": [ {
          "system": "http://www.nlm.nih.gov/research/umls/rxnorm",
          "code": "1361493",
          "display": "glimepiride 6 MG Oral Tablet",
          "userSelected": true
        } ]
      },
      "subject": {
        "reference": "Patient/35719b1a-85bd-4072-b8d5-7218309358c6"
      },
      "effectivePeriod": {
        "start": "2026-04-08T06:00:00.000+00:00",
        "end": "2026-04-08T06:30:00.000+00:00"
      }
    },
    "request": {
      "method": "PUT",
      "url": "MedicationAdministration/2fb8e3ce-bceb-4786-a5a6-31986a65971b"
    }
  }, {
    "fullUrl": "https://madie.cms.gov/MeasureReport/d5793b30-25e6-4cd6-8f7e-619b1c1802e5",
    "resource": {
      "resourceType": "MeasureReport",
      "id": "d5793b30-25e6-4cd6-8f7e-619b1c1802e5",
      "meta": {
        "profile": [ "http://hl7.org/fhir/us/cqfmeasures/StructureDefinition/test-case-cqfm" ]
      },
      "contained": [ {
        "resourceType": "Parameters",
        "id": "f5926eef-bf5c-49b7-9e6e-701357a25020-parameters",
        "parameter": [ {
          "name": "subject",
          "valueString": "35719b1a-85bd-4072-b8d5-7218309358c6"
        } ]
      } ],
      "extension": [ {
        "url": "http://hl7.org/fhir/StructureDefinition/cqf-inputParameters",
        "valueReference": {
          "reference": "#f5926eef-bf5c-49b7-9e6e-701357a25020-parameters"
        }
      }, {
        "url": "http://hl7.org/fhir/us/cqfmeasures/StructureDefinition/cqfm-testCaseDescription",
        "valueMarkdown": "IP encounter where hypoglycemic medication was administered. Meets IPP/Denom"
      } ],
      "modifierExtension": [ {
        "url": "http://hl7.org/fhir/us/cqfmeasures/StructureDefinition/cqfm-isTestCase",
        "valueBoolean": true
      } ],
      "status": "complete",
      "type": "individual",
      "measure": "https://madie.cms.gov/Measure/CMS871FHIRHHHyper",
      "period": {
        "start": "2026-01-01",
        "end": "2026-12-31"
      },
      "group": [ {
        "id": "Group_1",
        "population": [ {
          "id": "InitialPopulation_1",
          "code": {
            "coding": [ {
              "system": "http://terminology.hl7.org/CodeSystem/measure-population",
              "code": "initial-population",
              "display": "Initial Population"
            } ]
          },
          "count": 1
        }, {
          "id": "Denominator_1",
          "code": {
            "coding": [ {
              "system": "http://terminology.hl7.org/CodeSystem/measure-population",
              "code": "denominator",
              "display": "Denominator"
            } ]
          },
          "count": 1
        }, {
          "id": "DenominatorExclusion_1",
          "code": {
            "coding": [ {
              "system": "http://terminology.hl7.org/CodeSystem/measure-population",
              "code": "denominator-exclusion",
              "display": "Denominator Exclusion"
            } ]
          },
          "count": 0
        }, {
          "id": "Numerator_1",
          "code": {
            "coding": [ {
              "system": "http://terminology.hl7.org/CodeSystem/measure-population",
              "code": "numerator",
              "display": "Numerator"
            } ]
          },
          "count": 0
        }, {
          "id": "NumeratorExclusion_1",
          "code": {
            "coding": [ {
              "system": "http://terminology.hl7.org/CodeSystem/measure-population",
              "code": "numerator-exclusion",
              "display": "Numerator Exclusion"
            } ]
          },
          "count": 0
        }, {
          "id": "MeasureObservation_1_1_1",
          "code": {
            "coding": [ {
              "system": "http://terminology.hl7.org/CodeSystem/measure-population",
              "code": "measure-observation",
              "display": "Measure Observation"
            } ]
          },
          "count": 3
        } ],
        "measureScore": {
          "value": 0.0
        }
      } ],
      "evaluatedResource": [ {
        "reference": "Patient/35719b1a-85bd-4072-b8d5-7218309358c6"
      }, {
        "reference": "Encounter/84618db9-a7cf-4af2-bb5a-56403e82fbdd"
      }, {
        "reference": "MedicationAdministration/2fb8e3ce-bceb-4786-a5a6-31986a65971b"
      } ]
    },
    "request": {
      "method": "PUT",
      "url": "MeasureReport/d5793b30-25e6-4cd6-8f7e-619b1c1802e5"
    }
  } ]
}