{
  "resourceType": "Bundle",
  "id": "63487c2f0968f801225401a9",
  "type": "transaction",
  "entry": [ {
    "fullUrl": "https://madie.cms.gov/Patient/af1b3a05-c82f-4a20-8b4b-e6770d093514",
    "resource": {
      "resourceType": "Patient",
      "id": "af1b3a05-c82f-4a20-8b4b-e6770d093514",
      "meta": {
        "profile": [ "http://hl7.org/fhir/us/qicore/StructureDefinition/qicore-patient" ]
      },
      "text": {
        "status": "generated",
        "div": "<div xmlns=\"http://www.w3.org/1999/xhtml\"><div class=\"hapiHeaderText\">NoAssessPerf<b>DENOMFail</b></div><table class=\"hapiPropertyTable\"><tbody><tr><td>Identifier</td><td>71189d70ba3427612f2a418107466ed1652ec9a0e76c1b9c30a1691a1d91b34c</td></tr><tr><td>Date of birth</td><td><span>14 February 1985</span></td></tr></tbody></table></div>"
      },
      "extension": [ {
        "url": "http://hl7.org/fhir/us/core/StructureDefinition/us-core-race",
        "extension": [ {
          "url": "ombCategory",
          "valueCoding": {
            "system": "urn:oid:2.16.840.1.113883.6.238",
            "code": "1002-5",
            "display": "American Indian or Alaska Native",
            "userSelected": true
          }
        }, {
          "url": "text",
          "valueString": "American Indian or Alaska Native"
        } ]
      }, {
        "url": "http://hl7.org/fhir/us/core/StructureDefinition/us-core-ethnicity",
        "extension": [ {
          "url": "ombCategory",
          "valueCoding": {
            "system": "urn:oid:2.16.840.1.113883.6.238",
            "code": "2135-2",
            "display": "Hispanic or Latino",
            "userSelected": true
          }
        }, {
          "url": "text",
          "valueString": "Hispanic or Latino"
        } ]
      } ],
      "identifier": [ {
        "type": {
          "coding": [ {
            "system": "http://terminology.hl7.org/CodeSystem/v2-0203",
            "code": "MR"
          } ]
        },
        "system": "https://bonnie-fhir.healthit.gov/",
        "value": "63487c2f0968f801225401a9"
      } ],
      "active": true,
      "name": [ {
        "use": "usual",
        "family": "DENOMFail",
        "given": [ "NoAssessPerf" ]
      } ],
      "gender": "female",
      "birthDate": "1998-02-14"
    },
    "request": {
      "method": "PUT",
      "url": "Patient/af1b3a05-c82f-4a20-8b4b-e6770d093514"
    }
  }, {
    "fullUrl": "https://madie.cms.gov/Encounter/c4344ee2-da64-4ccd-8c2e-f2a7192ab48b",
    "resource": {
      "resourceType": "Encounter",
      "id": "c4344ee2-da64-4ccd-8c2e-f2a7192ab48b",
      "meta": {
        "profile": [ "http://hl7.org/fhir/us/qicore/StructureDefinition/qicore-encounter" ]
      },
      "status": "finished",
      "class": {
        "system": "http://terminology.hl7.org/CodeSystem/v3-ActCode",
        "code": "IMP",
        "display": "inpatient encounter"
      },
      "type": [ {
        "coding": [ {
          "system": "http://snomed.info/sct",
          "code": "8715000"
        } ]
      } ],
      "subject": {
        "reference": "Patient/af1b3a05-c82f-4a20-8b4b-e6770d093514"
      },
      "period": {
        "start": "2026-11-28T08:00:00.000+00:00",
        "end": "2026-11-30T08:15:00.000+00:00"
      },
      "length": {
        "value": 2,
        "unit": "days"
      },
      "reasonCode": [ {
        "coding": [ {
          "system": "http://snomed.info/sct",
          "code": "169826009",
          "display": "Single live birth from singleton pregnancy (finding)"
        } ]
      } ]
    },
    "request": {
      "method": "PUT",
      "url": "Encounter/c4344ee2-da64-4ccd-8c2e-f2a7192ab48b"
    }
  }, {
    "fullUrl": "https://madie.cms.gov/Procedure/f4e8d3c9-88d9-4ffa-aa87-3ff04be0928e",
    "resource": {
      "resourceType": "Procedure",
      "id": "f4e8d3c9-88d9-4ffa-aa87-3ff04be0928e",
      "meta": {
        "profile": [ "http://hl7.org/fhir/us/qicore/StructureDefinition/qicore-procedure" ]
      },
      "extension": [ {
        "url": "http://hl7.org/fhir/us/qicore/StructureDefinition/qicore-recorded",
        "valueDateTime": "2014-04-05T13:35:00.000+00:00"
      } ],
      "status": "completed",
      "code": {
        "coding": [ {
          "system": "http://snomed.info/sct",
          "code": "22633006"
        } ]
      },
      "subject": {
        "reference": "Patient/af1b3a05-c82f-4a20-8b4b-e6770d093514"
      },
      "performedPeriod": {
        "start": "2026-11-28T20:00:00.000+00:00",
        "end": "2026-11-28T20:15:00.000+00:00"
      }
    },
    "request": {
      "method": "PUT",
      "url": "Procedure/f4e8d3c9-88d9-4ffa-aa87-3ff04be0928e"
    }
  }, {
    "fullUrl": "https://madie.cms.gov/Condition/182070b7-0be0-4361-9d36-a574f54b5185",
    "resource": {
      "resourceType": "Condition",
      "id": "182070b7-0be0-4361-9d36-a574f54b5185",
      "meta": {
        "profile": [ "http://hl7.org/fhir/us/qicore/StructureDefinition/qicore-condition" ]
      },
      "category": [ {
        "coding": [ {
          "system": "http://terminology.hl7.org/CodeSystem/condition-category",
          "code": "encounter-diagnosis",
          "display": "Encounter Diagnosis"
        } ]
      } ],
      "code": {
        "coding": [ {
          "system": "http://snomed.info/sct",
          "version": "2022-09",
          "code": "169826009",
          "display": "Single live birth (finding)",
          "userSelected": true
        } ]
      },
      "subject": {
        "reference": "Patient/af1b3a05-c82f-4a20-8b4b-e6770d093514"
      },
      "recordedDate": "2026-10-21T08:00:00.000+00:00"
    },
    "request": {
      "method": "PUT",
      "url": "Condition/182070b7-0be0-4361-9d36-a574f54b5185"
    }
  }, {
    "fullUrl": "https://madie.cms.gov/Coverage/0a6e6dba-19f2-49bc-946c-7a540842e656",
    "resource": {
      "resourceType": "Coverage",
      "id": "0a6e6dba-19f2-49bc-946c-7a540842e656",
      "meta": {
        "profile": [ "http://hl7.org/fhir/us/qicore/StructureDefinition/qicore-coverage" ]
      },
      "status": "active",
      "subscriberId": "523435",
      "beneficiary": {
        "reference": "Patient/af1b3a05-c82f-4a20-8b4b-e6770d093514"
      },
      "relationship": {
        "coding": [ {
          "system": "http://terminology.hl7.org/CodeSystem/subscriber-relationship",
          "code": "self"
        } ]
      },
      "payor": [ {
        "reference": "Organization/64b36bef-8506-4e7d-a256-b07fe73531b5"
      } ]
    },
    "request": {
      "method": "PUT",
      "url": "Coverage/0a6e6dba-19f2-49bc-946c-7a540842e656"
    }
  }, {
    "fullUrl": "https://madie.cms.gov/Organization/64b36bef-8506-4e7d-a256-b07fe73531b5",
    "resource": {
      "resourceType": "Organization",
      "id": "64b36bef-8506-4e7d-a256-b07fe73531b5",
      "meta": {
        "profile": [ "http://hl7.org/fhir/us/qicore/StructureDefinition/qicore-organization" ]
      },
      "identifier": [ {
        "use": "temp",
        "system": "urn:oid:2.16.840.1.113883.4.4",
        "value": "21-3259825"
      } ],
      "active": true,
      "type": [ {
        "coding": [ {
          "system": "http://terminology.hl7.org/CodeSystem/organization-type",
          "code": "pay",
          "display": "Payer"
        } ]
      } ],
      "name": "Blue Cross Blue Shield of Texas",
      "telecom": [ {
        "system": "phone",
        "value": "(+1) 972-766-6900"
      } ],
      "address": [ {
        "use": "billing",
        "type": "postal",
        "line": [ "P.O. Box 660044" ],
        "city": "Dallas",
        "state": "TX",
        "postalCode": "75266-0044",
        "country": "USA"
      } ]
    },
    "request": {
      "method": "PUT",
      "url": "Organization/64b36bef-8506-4e7d-a256-b07fe73531b5"
    }
  }, {
    "fullUrl": "https://madie.cms.gov/Practitioner/f7005fb0-6efb-46b1-956a-28b057b0a091",
    "resource": {
      "resourceType": "Practitioner",
      "id": "f7005fb0-6efb-46b1-956a-28b057b0a091",
      "meta": {
        "profile": [ "http://hl7.org/fhir/us/qicore/StructureDefinition/qicore-practitioner" ]
      },
      "identifier": [ {
        "system": "http://hl7.org/fhir/sid/us-npi",
        "value": "1234567890"
      } ],
      "name": [ {
        "family": "Evil",
        "prefix": [ "Dr" ]
      } ]
    },
    "request": {
      "method": "PUT",
      "url": "Practitioner/f7005fb0-6efb-46b1-956a-28b057b0a091"
    }
  }, {
    "fullUrl": "https://madie.cms.gov/MeasureReport/dc6177d5-6087-4811-958f-d5d8be1e7568",
    "resource": {
      "resourceType": "MeasureReport",
      "id": "dc6177d5-6087-4811-958f-d5d8be1e7568",
      "meta": {
        "profile": [ "http://hl7.org/fhir/us/cqfmeasures/StructureDefinition/test-case-cqfm" ]
      },
      "contained": [ {
        "resourceType": "Parameters",
        "id": "b7883cc7-e375-4ba3-a5be-313324be8a68-parameters",
        "parameter": [ {
          "name": "subject",
          "valueString": "af1b3a05-c82f-4a20-8b4b-e6770d093514"
        } ]
      } ],
      "extension": [ {
        "url": "http://hl7.org/fhir/StructureDefinition/cqf-inputParameters",
        "valueReference": {
          "reference": "#b7883cc7-e375-4ba3-a5be-313324be8a68-parameters"
        }
      }, {
        "url": "http://hl7.org/fhir/us/cqfmeasures/StructureDefinition/cqfm-testCaseDescription",
        "valueMarkdown": "Passes IP, DENOM fails because no Assessment Performed template\n"
      } ],
      "modifierExtension": [ {
        "url": "http://hl7.org/fhir/us/cqfmeasures/StructureDefinition/cqfm-isTestCase",
        "valueBoolean": true
      } ],
      "status": "complete",
      "type": "individual",
      "measure": "https://madie.cms.gov/Measure/CMS0334FHIRPCCesareanBirth",
      "period": {
        "start": "2026-01-01",
        "end": "2026-12-31"
      },
      "group": [ {
        "id": "Group_1",
        "population": [ {
          "id": "InitialPopulation_1",
          "code": {
            "coding": [ {
              "system": "http://terminology.hl7.org/CodeSystem/measure-population",
              "code": "initial-population",
              "display": "Initial Population"
            } ]
          },
          "count": 1
        }, {
          "id": "Denominator_1",
          "code": {
            "coding": [ {
              "system": "http://terminology.hl7.org/CodeSystem/measure-population",
              "code": "denominator",
              "display": "Denominator"
            } ]
          },
          "count": 0
        }, {
          "id": "DenominatorExclusion_1",
          "code": {
            "coding": [ {
              "system": "http://terminology.hl7.org/CodeSystem/measure-population",
              "code": "denominator-exclusion",
              "display": "Denominator Exclusion"
            } ]
          },
          "count": 0
        }, {
          "id": "Numerator_1",
          "code": {
            "coding": [ {
              "system": "http://terminology.hl7.org/CodeSystem/measure-population",
              "code": "numerator",
              "display": "Numerator"
            } ]
          },
          "count": 0
        } ],
        "measureScore": {
          "value": 0.0
        }
      } ],
      "evaluatedResource": [ {
        "reference": "Patient/af1b3a05-c82f-4a20-8b4b-e6770d093514"
      }, {
        "reference": "Encounter/c4344ee2-da64-4ccd-8c2e-f2a7192ab48b"
      }, {
        "reference": "Procedure/f4e8d3c9-88d9-4ffa-aa87-3ff04be0928e"
      }, {
        "reference": "Condition/182070b7-0be0-4361-9d36-a574f54b5185"
      }, {
        "reference": "Coverage/0a6e6dba-19f2-49bc-946c-7a540842e656"
      }, {
        "reference": "Organization/64b36bef-8506-4e7d-a256-b07fe73531b5"
      }, {
        "reference": "Practitioner/f7005fb0-6efb-46b1-956a-28b057b0a091"
      } ]
    },
    "request": {
      "method": "PUT",
      "url": "MeasureReport/dc6177d5-6087-4811-958f-d5d8be1e7568"
    }
  } ]
}