{
  "resourceType": "Bundle",
  "id": "DENEXPass-FrailtyObsDuringMP",
  "type": "transaction",
  "entry": [ {
    "fullUrl": "https://madie.cms.gov/Patient/7c59efb5-56ab-4a25-af83-bd81daeee026",
    "resource": {
      "resourceType": "Patient",
      "id": "7c59efb5-56ab-4a25-af83-bd81daeee026",
      "meta": {
        "profile": [ "http://hl7.org/fhir/us/qicore/StructureDefinition/qicore-patient" ]
      },
      "extension": [ {
        "url": "http://hl7.org/fhir/us/core/StructureDefinition/us-core-race",
        "extension": [ {
          "url": "ombCategory",
          "valueCoding": {
            "system": "urn:oid:2.16.840.1.113883.6.238",
            "code": "2028-9",
            "display": "Asian"
          }
        }, {
          "url": "text",
          "valueString": "Asian"
        } ]
      }, {
        "url": "http://hl7.org/fhir/us/core/StructureDefinition/us-core-ethnicity",
        "extension": [ {
          "url": "ombCategory",
          "valueCoding": {
            "system": "urn:oid:2.16.840.1.113883.6.238",
            "code": "2135-2",
            "display": "Hispanic or Latino"
          }
        }, {
          "url": "text",
          "valueString": "Hispanic or Latino"
        } ]
      } ],
      "identifier": [ {
        "system": "http://hospital.smarthealthit.org",
        "value": "999999995"
      } ],
      "name": [ {
        "family": "DENEXPass",
        "given": [ "FrailtyObsDuringMP" ]
      } ],
      "gender": "female",
      "birthDate": "1959-12-31"
    },
    "request": {
      "method": "PUT",
      "url": "Patient/7c59efb5-56ab-4a25-af83-bd81daeee026"
    }
  }, {
    "fullUrl": "https://madie.cms.gov/Encounter/0cffc6b3-0486-4db0-a870-0f22e4300b16",
    "resource": {
      "resourceType": "Encounter",
      "id": "0cffc6b3-0486-4db0-a870-0f22e4300b16",
      "meta": {
        "profile": [ "http://hl7.org/fhir/us/qicore/StructureDefinition/qicore-encounter" ]
      },
      "status": "finished",
      "class": {
        "system": "http://terminology.hl7.org/CodeSystem/v3-ActCode",
        "code": "AMB",
        "display": "ambulatory"
      },
      "type": [ {
        "coding": [ {
          "system": "http://snomed.info/sct",
          "code": "3391000175108",
          "display": "Office visit for pediatric care and assessment (procedure)"
        } ]
      } ],
      "subject": {
        "reference": "Patient/7c59efb5-56ab-4a25-af83-bd81daeee026"
      },
      "period": {
        "start": "2026-01-01T00:00:00.000+00:00",
        "end": "2026-01-01T01:00:00.000+00:00"
      }
    },
    "request": {
      "method": "PUT",
      "url": "Encounter/0cffc6b3-0486-4db0-a870-0f22e4300b16"
    }
  }, {
    "fullUrl": "https://madie.cms.gov/Condition/bb794115-0c0f-4c6d-80a8-8787c64f5df2",
    "resource": {
      "resourceType": "Condition",
      "id": "bb794115-0c0f-4c6d-80a8-8787c64f5df2",
      "meta": {
        "profile": [ "http://hl7.org/fhir/us/qicore/StructureDefinition/qicore-condition-problems-health-concerns" ]
      },
      "clinicalStatus": {
        "coding": [ {
          "system": "http://terminology.hl7.org/CodeSystem/condition-clinical",
          "code": "active"
        } ]
      },
      "category": [ {
        "coding": [ {
          "system": "http://terminology.hl7.org/CodeSystem/condition-category",
          "code": "problem-list-item",
          "display": "Problem List Item"
        } ]
      } ],
      "code": {
        "coding": [ {
          "system": "http://snomed.info/sct",
          "code": "371125006",
          "display": "Labile essential hypertension (disorder)"
        } ]
      },
      "subject": {
        "reference": "Patient/7c59efb5-56ab-4a25-af83-bd81daeee026"
      },
      "onsetDateTime": "2026-06-30T23:59:59.000+00:00"
    },
    "request": {
      "method": "PUT",
      "url": "Condition/bb794115-0c0f-4c6d-80a8-8787c64f5df2"
    }
  }, {
    "fullUrl": "https://madie.cms.gov/MedicationRequest/ecff30dc-a560-48e5-bf16-93901653ee28",
    "resource": {
      "resourceType": "MedicationRequest",
      "id": "ecff30dc-a560-48e5-bf16-93901653ee28",
      "meta": {
        "profile": [ "http://hl7.org/fhir/us/qicore/StructureDefinition/qicore-medicationrequest" ]
      },
      "status": "active",
      "intent": "order",
      "doNotPerform": false,
      "medicationCodeableConcept": {
        "coding": [ {
          "system": "http://www.nlm.nih.gov/research/umls/rxnorm",
          "code": "312836",
          "display": "rivastigmine 6 MG Oral Capsule"
        } ]
      },
      "subject": {
        "reference": "Patient/7c59efb5-56ab-4a25-af83-bd81daeee026"
      },
      "authoredOn": "2026-01-01T00:00:00.000+00:00",
      "requester": {
        "reference": "Practitioner/example"
      },
      "dispenseRequest": {
        "expectedSupplyDuration": {
          "value": 90,
          "system": "http://unitsofmeasure.org",
          "code": "days"
        }
      }
    },
    "request": {
      "method": "PUT",
      "url": "MedicationRequest/ecff30dc-a560-48e5-bf16-93901653ee28"
    }
  }, {
    "fullUrl": "https://madie.cms.gov/Observation/824c84f3-a1ce-4b28-9fda-55c0170b97f4",
    "resource": {
      "resourceType": "Observation",
      "id": "824c84f3-a1ce-4b28-9fda-55c0170b97f4",
      "meta": {
        "profile": [ "http://hl7.org/fhir/us/qicore/StructureDefinition/qicore-observation-screening-assessment" ]
      },
      "status": "final",
      "category": [ {
        "coding": [ {
          "system": "http://terminology.hl7.org/CodeSystem/observation-category",
          "code": "survey"
        } ]
      } ],
      "code": {
        "coding": [ {
          "system": "http://loinc.org",
          "code": "98181-1",
          "display": "Medical equipment used"
        } ]
      },
      "subject": {
        "reference": "Patient/7c59efb5-56ab-4a25-af83-bd81daeee026"
      },
      "effectivePeriod": {
        "start": "2026-01-01T00:00:00.000+00:00",
        "end": "2026-01-01T01:00:00.000+00:00"
      },
      "valueCodeableConcept": {
        "coding": [ {
          "system": "http://snomed.info/sct",
          "code": "262177002",
          "display": "Static oxygen cylinder (physical object)"
        } ]
      }
    },
    "request": {
      "method": "PUT",
      "url": "Observation/824c84f3-a1ce-4b28-9fda-55c0170b97f4"
    }
  }, {
    "fullUrl": "https://madie.cms.gov/MeasureReport/f6bb2b41-1e46-4339-ad99-380342b1fca0",
    "resource": {
      "resourceType": "MeasureReport",
      "id": "f6bb2b41-1e46-4339-ad99-380342b1fca0",
      "meta": {
        "profile": [ "http://hl7.org/fhir/us/cqfmeasures/StructureDefinition/test-case-cqfm" ]
      },
      "contained": [ {
        "resourceType": "Parameters",
        "id": "d5d4c66a-66bf-4622-9283-195cfd143fa8-parameters",
        "parameter": [ {
          "name": "subject",
          "valueString": "7c59efb5-56ab-4a25-af83-bd81daeee026"
        } ]
      } ],
      "extension": [ {
        "url": "http://hl7.org/fhir/StructureDefinition/cqf-inputParameters",
        "valueReference": {
          "reference": "#d5d4c66a-66bf-4622-9283-195cfd143fa8-parameters"
        }
      }, {
        "url": "http://hl7.org/fhir/us/cqfmeasures/StructureDefinition/cqfm-testCaseDescription",
        "valueMarkdown": "Frailty observation during MP"
      } ],
      "modifierExtension": [ {
        "url": "http://hl7.org/fhir/us/cqfmeasures/StructureDefinition/cqfm-isTestCase",
        "valueBoolean": true
      } ],
      "status": "complete",
      "type": "individual",
      "measure": "https://madie.cms.gov/Measure/CMS165FHIRControllingHighBP",
      "period": {
        "start": "2026-01-01",
        "end": "2026-12-31"
      },
      "group": [ {
        "id": "Group_1",
        "population": [ {
          "id": "InitialPopulation_1",
          "code": {
            "coding": [ {
              "system": "http://terminology.hl7.org/CodeSystem/measure-population",
              "code": "initial-population",
              "display": "Initial Population"
            } ]
          },
          "count": 1
        }, {
          "id": "Denominator_1",
          "code": {
            "coding": [ {
              "system": "http://terminology.hl7.org/CodeSystem/measure-population",
              "code": "denominator",
              "display": "Denominator"
            } ]
          },
          "count": 1
        }, {
          "id": "DenominatorExclusion_1",
          "code": {
            "coding": [ {
              "system": "http://terminology.hl7.org/CodeSystem/measure-population",
              "code": "denominator-exclusion",
              "display": "Denominator Exclusion"
            } ]
          },
          "count": 1
        }, {
          "id": "Numerator_1",
          "code": {
            "coding": [ {
              "system": "http://terminology.hl7.org/CodeSystem/measure-population",
              "code": "numerator",
              "display": "Numerator"
            } ]
          },
          "count": 0
        } ],
        "measureScore": {
          "value": 1.0
        }
      } ],
      "evaluatedResource": [ {
        "reference": "Patient/7c59efb5-56ab-4a25-af83-bd81daeee026"
      }, {
        "reference": "Encounter/0cffc6b3-0486-4db0-a870-0f22e4300b16"
      }, {
        "reference": "Condition/bb794115-0c0f-4c6d-80a8-8787c64f5df2"
      }, {
        "reference": "MedicationRequest/ecff30dc-a560-48e5-bf16-93901653ee28"
      }, {
        "reference": "Observation/824c84f3-a1ce-4b28-9fda-55c0170b97f4"
      } ]
    },
    "request": {
      "method": "PUT",
      "url": "MeasureReport/f6bb2b41-1e46-4339-ad99-380342b1fca0"
    }
  } ]
}