{
  "resourceType": "Bundle",
  "id": "612e6b8102c62a011f2ee0a5",
  "type": "transaction",
  "entry": [ {
    "fullUrl": "https://madie.cms.gov/Patient/4fc421c7-e490-4d4e-a326-53d08635efb9",
    "resource": {
      "resourceType": "Patient",
      "id": "4fc421c7-e490-4d4e-a326-53d08635efb9",
      "meta": {
        "profile": [ "http://hl7.org/fhir/us/qicore/StructureDefinition/qicore-patient" ]
      },
      "text": {
        "status": "generated",
        "div": "<div xmlns=\"http://www.w3.org/1999/xhtml\"><div class=\"hapiHeaderText\">MedReasonMARixDAVFPDuringOBS <b>NUMERPASS </b></div><table class=\"hapiPropertyTable\"><tbody><tr><td>Identifier</td><td>d5661b6a7ac7a6b9f13847d23af8475a</td></tr><tr><td>Date of birth</td><td><span>02 January 1974</span></td></tr></tbody></table></div>"
      },
      "extension": [ {
        "url": "http://hl7.org/fhir/us/core/StructureDefinition/us-core-race",
        "extension": [ {
          "url": "ombCategory",
          "valueCoding": {
            "system": "urn:oid:2.16.840.1.113883.6.238",
            "code": "1002-5",
            "display": "American Indian or Alaska Native",
            "userSelected": true
          }
        }, {
          "url": "text",
          "valueString": "American Indian or Alaska Native"
        } ]
      }, {
        "url": "http://hl7.org/fhir/us/core/StructureDefinition/us-core-ethnicity",
        "extension": [ {
          "url": "ombCategory",
          "valueCoding": {
            "system": "urn:oid:2.16.840.1.113883.6.238",
            "code": "2135-2",
            "display": "Hispanic or Latino",
            "userSelected": true
          }
        }, {
          "url": "text",
          "valueString": "Hispanic or Latino"
        } ]
      } ],
      "identifier": [ {
        "type": {
          "coding": [ {
            "system": "http://terminology.hl7.org/CodeSystem/v2-0203",
            "code": "MR"
          } ]
        },
        "system": "https://bonnie-fhir.healthit.gov/",
        "value": "612e6b8102c62a011f2ee0a5"
      } ],
      "active": true,
      "name": [ {
        "use": "usual",
        "family": "NUMERPass",
        "given": [ "MedReasonMARixDAVFPDuringOBS" ]
      } ],
      "gender": "male",
      "birthDate": "1975-01-02"
    },
    "request": {
      "method": "PUT",
      "url": "Patient/4fc421c7-e490-4d4e-a326-53d08635efb9"
    }
  }, {
    "fullUrl": "https://madie.cms.gov/Encounter/300f97f0-7d15-48ca-9661-56a7ba266c52",
    "resource": {
      "resourceType": "Encounter",
      "id": "300f97f0-7d15-48ca-9661-56a7ba266c52",
      "meta": {
        "profile": [ "http://hl7.org/fhir/us/qicore/StructureDefinition/qicore-encounter" ]
      },
      "status": "finished",
      "class": {
        "system": "http://terminology.hl7.org/CodeSystem/v3-ActCode",
        "code": "OBSENC",
        "display": "observation encounter"
      },
      "type": [ {
        "coding": [ {
          "system": "http://snomed.info/sct",
          "code": "448951000124107"
        } ]
      } ],
      "subject": {
        "reference": "Patient/4fc421c7-e490-4d4e-a326-53d08635efb9"
      },
      "period": {
        "start": "2026-10-31T05:00:00.000+00:00",
        "end": "2026-11-01T08:00:00.000+00:00"
      },
      "length": {
        "value": 1,
        "unit": "days"
      }
    },
    "request": {
      "method": "PUT",
      "url": "Encounter/300f97f0-7d15-48ca-9661-56a7ba266c52"
    }
  }, {
    "fullUrl": "https://madie.cms.gov/Encounter/56aebe64-b976-42bd-a932-ecc621dd501d",
    "resource": {
      "resourceType": "Encounter",
      "id": "56aebe64-b976-42bd-a932-ecc621dd501d",
      "meta": {
        "profile": [ "http://hl7.org/fhir/us/qicore/StructureDefinition/qicore-encounter" ]
      },
      "status": "finished",
      "class": {
        "system": "http://terminology.hl7.org/CodeSystem/v3-ActCode",
        "code": "IMP",
        "display": "inpatient encounter"
      },
      "type": [ {
        "coding": [ {
          "system": "http://snomed.info/sct",
          "code": "8715000"
        } ]
      } ],
      "subject": {
        "reference": "Patient/4fc421c7-e490-4d4e-a326-53d08635efb9"
      },
      "period": {
        "start": "2026-11-01T08:00:00.000+00:00",
        "end": "2026-11-26T08:15:00.000+00:00"
      },
      "length": {
        "value": 25,
        "unit": "days"
      },
      "location": [ {
        "location": {
          "reference": "Location/5b4f5b1a-0bab-427c-b876-ed54d0dbac7b"
        },
        "period": {
          "start": "2026-11-01T09:00:00.000+00:00",
          "end": "2026-11-10T08:15:00.000+00:00"
        }
      } ]
    },
    "request": {
      "method": "PUT",
      "url": "Encounter/56aebe64-b976-42bd-a932-ecc621dd501d"
    }
  }, {
    "fullUrl": "https://madie.cms.gov/Coverage/a8ca23fe-9ee7-440c-b4f3-8caa8d002ac4",
    "resource": {
      "resourceType": "Coverage",
      "id": "a8ca23fe-9ee7-440c-b4f3-8caa8d002ac4",
      "status": "active",
      "beneficiary": {
        "reference": "Patient/4fc421c7-e490-4d4e-a326-53d08635efb9"
      },
      "period": {
        "start": "1975-01-02T08:00:00.000+00:00"
      },
      "payor": [ {
        "reference": "Organization/4673b42d-b9e7-431a-bf75-b27533106369"
      } ]
    },
    "request": {
      "method": "PUT",
      "url": "Coverage/a8ca23fe-9ee7-440c-b4f3-8caa8d002ac4"
    }
  }, {
    "fullUrl": "https://madie.cms.gov/Procedure/315be1a9-337d-49a9-becb-07255cfcc4ed",
    "resource": {
      "resourceType": "Procedure",
      "id": "315be1a9-337d-49a9-becb-07255cfcc4ed",
      "meta": {
        "profile": [ "http://hl7.org/fhir/us/qicore/StructureDefinition/qicore-procedurenotdone" ]
      },
      "extension": [ {
        "url": "http://hl7.org/fhir/us/qicore/StructureDefinition/qicore-recorded",
        "valueDateTime": "2026-10-31T11:35:00.000+00:00"
      } ],
      "status": "not-done",
      "statusReason": {
        "coding": [ {
          "system": "http://snomed.info/sct",
          "code": "183932001",
          "display": "Procedure contraindicated (situation)",
          "userSelected": true
        } ]
      },
      "code": {
        "coding": [ {
          "system": "http://snomed.info/sct",
          "code": "424831005",
          "display": "Application of foot pump (procedure)",
          "userSelected": true
        } ]
      },
      "subject": {
        "reference": "Patient/4fc421c7-e490-4d4e-a326-53d08635efb9"
      },
      "_performedDateTime": {
        "extension": [ {
          "url": "http://hl7.org/fhir/StructureDefinition/data-absent-reason",
          "valueCode": "not-performed"
        } ]
      }
    },
    "request": {
      "method": "PUT",
      "url": "Procedure/315be1a9-337d-49a9-becb-07255cfcc4ed"
    }
  }, {
    "fullUrl": "https://madie.cms.gov/MedicationAdministration/5a96b822-b304-4c25-8030-8038df993222",
    "resource": {
      "resourceType": "MedicationAdministration",
      "id": "5a96b822-b304-4c25-8030-8038df993222",
      "meta": {
        "profile": [ "http://hl7.org/fhir/us/qicore/StructureDefinition/qicore-medicationadministrationnotdone" ]
      },
      "extension": [ {
        "url": "http://hl7.org/fhir/us/qicore/StructureDefinition/qicore-recorded",
        "valueDateTime": "2026-10-31T07:00:00.000+00:00"
      } ],
      "status": "not-done",
      "statusReason": [ {
        "coding": [ {
          "system": "http://snomed.info/sct",
          "code": "183932001",
          "display": "Procedure contraindicated (situation)",
          "userSelected": true
        } ]
      } ],
      "medicationCodeableConcept": {
        "coding": [ {
          "system": "http://www.nlm.nih.gov/research/umls/rxnorm",
          "code": "2588062",
          "display": "rivaroxaban 1 MG/ML Oral Suspension"
        } ]
      },
      "subject": {
        "reference": "Patient/4fc421c7-e490-4d4e-a326-53d08635efb9"
      },
      "effectivePeriod": {
        "start": "2026-10-31T07:00:00.000+00:00"
      }
    },
    "request": {
      "method": "PUT",
      "url": "MedicationAdministration/5a96b822-b304-4c25-8030-8038df993222"
    }
  }, {
    "fullUrl": "https://madie.cms.gov/Location/5b4f5b1a-0bab-427c-b876-ed54d0dbac7b",
    "resource": {
      "resourceType": "Location",
      "id": "5b4f5b1a-0bab-427c-b876-ed54d0dbac7b",
      "meta": {
        "profile": [ "http://hl7.org/fhir/us/qicore/StructureDefinition/qicore-location" ]
      },
      "identifier": [ {
        "use": "usual",
        "system": "http://exampleoflocation.com",
        "value": "B1-S.F2"
      } ],
      "name": "Medical Surgical East, first floor",
      "type": [ {
        "coding": [ {
          "system": "https://www.cdc.gov/nhsn/cdaportal/terminology/codesystem/hsloc.html",
          "code": "1025-6",
          "display": "Trauma Critical Care",
          "userSelected": true
        } ]
      } ]
    },
    "request": {
      "method": "PUT",
      "url": "Location/5b4f5b1a-0bab-427c-b876-ed54d0dbac7b"
    }
  }, {
    "fullUrl": "https://madie.cms.gov/Organization/4673b42d-b9e7-431a-bf75-b27533106369",
    "resource": {
      "resourceType": "Organization",
      "id": "4673b42d-b9e7-431a-bf75-b27533106369",
      "meta": {
        "profile": [ "http://hl7.org/fhir/us/qicore/StructureDefinition/qicore-organization" ]
      },
      "identifier": [ {
        "use": "temp",
        "system": "urn:oid:2.16.840.1.113883.4.4",
        "value": "21-3259825"
      } ],
      "active": true,
      "type": [ {
        "coding": [ {
          "system": "http://terminology.hl7.org/CodeSystem/organization-type",
          "code": "pay",
          "display": "Payer"
        } ]
      } ],
      "name": "Blue Cross Blue Shield of Texas",
      "telecom": [ {
        "system": "phone",
        "value": "(+1) 972-766-6900"
      } ],
      "address": [ {
        "use": "billing",
        "type": "postal",
        "line": [ "P.O. Box 660044" ],
        "city": "Dallas",
        "state": "TX",
        "postalCode": "75266-0044",
        "country": "USA"
      } ]
    },
    "request": {
      "method": "PUT",
      "url": "Organization/4673b42d-b9e7-431a-bf75-b27533106369"
    }
  }, {
    "fullUrl": "https://madie.cms.gov/Practitioner/934dbf19-287c-439d-b0d7-9dcfea4beaa8",
    "resource": {
      "resourceType": "Practitioner",
      "id": "934dbf19-287c-439d-b0d7-9dcfea4beaa8",
      "identifier": [ {
        "system": "http://hl7.org/fhir/sid/us-npi",
        "value": "123456"
      } ],
      "name": [ {
        "family": "Evil",
        "prefix": [ "Dr" ]
      } ]
    },
    "request": {
      "method": "PUT",
      "url": "Practitioner/934dbf19-287c-439d-b0d7-9dcfea4beaa8"
    }
  }, {
    "fullUrl": "https://madie.cms.gov/MeasureReport/c206bcec-44ba-493e-8114-8ae57bf6b7e6",
    "resource": {
      "resourceType": "MeasureReport",
      "id": "c206bcec-44ba-493e-8114-8ae57bf6b7e6",
      "meta": {
        "profile": [ "http://hl7.org/fhir/us/cqfmeasures/StructureDefinition/test-case-cqfm" ]
      },
      "contained": [ {
        "resourceType": "Parameters",
        "id": "a59fdc74-5723-4100-96a6-968cc91bb147-parameters",
        "parameter": [ {
          "name": "subject",
          "valueString": "4fc421c7-e490-4d4e-a326-53d08635efb9"
        } ]
      } ],
      "extension": [ {
        "url": "http://hl7.org/fhir/StructureDefinition/cqf-inputParameters",
        "valueReference": {
          "reference": "#a59fdc74-5723-4100-96a6-968cc91bb147-parameters"
        }
      }, {
        "url": "http://hl7.org/fhir/us/cqfmeasures/StructureDefinition/cqfm-testCaseDescription",
        "valueMarkdown": "meets IPP, meets Denominator, VFP appled not done MedRsn and Riv not done MedRsn - during Observation service"
      } ],
      "modifierExtension": [ {
        "url": "http://hl7.org/fhir/us/cqfmeasures/StructureDefinition/cqfm-isTestCase",
        "valueBoolean": true
      } ],
      "status": "complete",
      "type": "individual",
      "measure": "https://madie.cms.gov/Measure/CMS190FHIRVTEProphylaxisICU",
      "period": {
        "start": "2026-01-01",
        "end": "2026-12-31"
      },
      "group": [ {
        "id": "Group_1",
        "population": [ {
          "id": "InitialPopulation_1",
          "code": {
            "coding": [ {
              "system": "http://terminology.hl7.org/CodeSystem/measure-population",
              "code": "initial-population",
              "display": "Initial Population"
            } ]
          },
          "count": 1
        }, {
          "id": "Denominator_1",
          "code": {
            "coding": [ {
              "system": "http://terminology.hl7.org/CodeSystem/measure-population",
              "code": "denominator",
              "display": "Denominator"
            } ]
          },
          "count": 1
        }, {
          "id": "DenominatorExclusion_1",
          "code": {
            "coding": [ {
              "system": "http://terminology.hl7.org/CodeSystem/measure-population",
              "code": "denominator-exclusion",
              "display": "Denominator Exclusion"
            } ]
          },
          "count": 0
        }, {
          "id": "Numerator_1",
          "code": {
            "coding": [ {
              "system": "http://terminology.hl7.org/CodeSystem/measure-population",
              "code": "numerator",
              "display": "Numerator"
            } ]
          },
          "count": 1
        }, {
          "id": "DenominatorException_1",
          "code": {
            "coding": [ {
              "system": "http://terminology.hl7.org/CodeSystem/measure-population",
              "code": "denominator-exception",
              "display": "Denominator Exception"
            } ]
          },
          "count": 0
        } ],
        "measureScore": {
          "value": 0.0
        }
      } ],
      "evaluatedResource": [ {
        "reference": "Patient/4fc421c7-e490-4d4e-a326-53d08635efb9"
      }, {
        "reference": "Encounter/300f97f0-7d15-48ca-9661-56a7ba266c52"
      }, {
        "reference": "Encounter/56aebe64-b976-42bd-a932-ecc621dd501d"
      }, {
        "reference": "Coverage/a8ca23fe-9ee7-440c-b4f3-8caa8d002ac4"
      }, {
        "reference": "Procedure/315be1a9-337d-49a9-becb-07255cfcc4ed"
      }, {
        "reference": "MedicationAdministration/5a96b822-b304-4c25-8030-8038df993222"
      }, {
        "reference": "Location/5b4f5b1a-0bab-427c-b876-ed54d0dbac7b"
      }, {
        "reference": "Organization/4673b42d-b9e7-431a-bf75-b27533106369"
      }, {
        "reference": "Practitioner/934dbf19-287c-439d-b0d7-9dcfea4beaa8"
      } ]
    },
    "request": {
      "method": "PUT",
      "url": "MeasureReport/c206bcec-44ba-493e-8114-8ae57bf6b7e6"
    }
  } ]
}