{
  "resourceType": "Bundle",
  "id": "64946e8dd09ece2c2e9bf94c",
  "type": "collection",
  "entry": [ {
    "fullUrl": "https://madie.cms.gov/Patient/e2b6e56e-7af4-4500-ab26-8cf4178ab76e",
    "resource": {
      "resourceType": "Patient",
      "id": "e2b6e56e-7af4-4500-ab26-8cf4178ab76e",
      "meta": {
        "profile": [ "http://hl7.org/fhir/us/qicore/StructureDefinition/qicore-patient" ]
      },
      "extension": [ {
        "url": "http://hl7.org/fhir/us/core/StructureDefinition/us-core-race",
        "extension": [ {
          "url": "ombCategory",
          "valueCoding": {
            "system": "urn:oid:2.16.840.1.113883.6.238",
            "code": "2106-3",
            "display": "White",
            "userSelected": true
          }
        }, {
          "url": "text",
          "valueString": "White"
        } ]
      }, {
        "url": "http://hl7.org/fhir/us/core/StructureDefinition/us-core-ethnicity",
        "extension": [ {
          "url": "ombCategory",
          "valueCoding": {
            "system": "urn:oid:2.16.840.1.113883.6.238",
            "code": "2186-5",
            "display": "Not Hispanic or Latino",
            "userSelected": true
          }
        }, {
          "url": "text",
          "valueString": "Not Hispanic or Latino"
        } ]
      } ],
      "identifier": [ {
        "type": {
          "coding": [ {
            "system": "http://terminology.hl7.org/CodeSystem/v2-0203",
            "code": "MR"
          } ]
        },
        "system": "https://bonnie-fhir.healthit.gov/",
        "value": "64946e8dd09ece2c2e9bf94c"
      } ],
      "name": [ {
        "family": "19NumFail",
        "given": [ "OneEncOutOfMP" ]
      } ],
      "gender": "female",
      "birthDate": "2000-03-16"
    }
  }, {
    "fullUrl": "https://madie.cms.gov/Condition/6dd982fc-5d19-420c-a05c-6a1e3e96f6de",
    "resource": {
      "resourceType": "Condition",
      "id": "6dd982fc-5d19-420c-a05c-6a1e3e96f6de",
      "meta": {
        "profile": [ "http://hl7.org/fhir/us/qicore/StructureDefinition/qicore-condition-problems-health-concerns" ]
      },
      "clinicalStatus": {
        "coding": [ {
          "system": "http://terminology.hl7.org/CodeSystem/condition-clinical",
          "code": "active",
          "display": "active",
          "userSelected": true
        } ]
      },
      "category": [ {
        "coding": [ {
          "system": "http://terminology.hl7.org/CodeSystem/condition-category",
          "code": "problem-list-item",
          "display": "Problem List Item"
        } ]
      } ],
      "code": {
        "coding": [ {
          "system": "http://hl7.org/fhir/sid/icd-9-cm",
          "version": "2013",
          "code": "042",
          "display": "Human immunodeficiency virus [HIV] disease",
          "userSelected": true
        }, {
          "system": "http://snomed.info/sct",
          "version": "http://snomed.info/sct/731000124108/version/20250301",
          "code": "165816005",
          "userSelected": true
        } ]
      },
      "subject": {
        "reference": "Patient/e2b6e56e-7af4-4500-ab26-8cf4178ab76e"
      },
      "onsetDateTime": "2001-06-22T08:00:00.000+00:00",
      "recordedDate": "2001-06-22T08:00:00.000+00:00"
    }
  }, {
    "fullUrl": "https://madie.cms.gov/Encounter/302b45f4-317f-4fd8-b632-48cc359dc372",
    "resource": {
      "resourceType": "Encounter",
      "id": "302b45f4-317f-4fd8-b632-48cc359dc372",
      "meta": {
        "profile": [ "http://hl7.org/fhir/us/qicore/StructureDefinition/qicore-encounter" ]
      },
      "status": "finished",
      "class": {
        "system": "http://terminology.hl7.org/CodeSystem/v3-ActCode",
        "code": "AMB",
        "display": "ambulatory"
      },
      "type": [ {
        "coding": [ {
          "system": "http://snomed.info/sct",
          "version": "2022-09",
          "code": "281036007",
          "display": "Follow-up consultation (procedure)",
          "userSelected": true
        } ]
      } ],
      "subject": {
        "reference": "Patient/e2b6e56e-7af4-4500-ab26-8cf4178ab76e"
      },
      "period": {
        "start": "2026-06-22T08:00:00.000+00:00",
        "end": "2026-06-22T08:15:00.000+00:00"
      }
    }
  }, {
    "fullUrl": "https://madie.cms.gov/Encounter/6ec8d14d-c622-4773-8b51-6d8cef0fe24e",
    "resource": {
      "resourceType": "Encounter",
      "id": "6ec8d14d-c622-4773-8b51-6d8cef0fe24e",
      "meta": {
        "profile": [ "http://hl7.org/fhir/us/qicore/StructureDefinition/qicore-encounter" ]
      },
      "status": "finished",
      "class": {
        "system": "http://terminology.hl7.org/CodeSystem/v3-ActCode",
        "code": "IMP",
        "display": "inpatient encounter"
      },
      "type": [ {
        "coding": [ {
          "system": "http://snomed.info/sct",
          "version": "2022-09",
          "code": "12843005",
          "display": "Subsequent hospital visit by physician (procedure)",
          "userSelected": true
        } ]
      } ],
      "subject": {
        "reference": "Patient/e2b6e56e-7af4-4500-ab26-8cf4178ab76e"
      },
      "period": {
        "start": "2025-12-31T08:00:00.000+00:00",
        "end": "2025-12-31T08:15:00.000+00:00"
      }
    }
  }, {
    "fullUrl": "https://madie.cms.gov/Coverage/75db5fe8-f993-4c58-b453-97d6700a2d77",
    "resource": {
      "resourceType": "Coverage",
      "id": "75db5fe8-f993-4c58-b453-97d6700a2d77",
      "meta": {
        "profile": [ "http://hl7.org/fhir/us/qicore/StructureDefinition/qicore-coverage" ]
      },
      "status": "active",
      "subscriberId": "123456",
      "beneficiary": {
        "reference": "Patient/e2b6e56e-7af4-4500-ab26-8cf4178ab76e"
      },
      "relationship": {
        "coding": [ {
          "system": "http://terminology.hl7.org/CodeSystem/subscriber-relationship",
          "code": "self",
          "display": "Self"
        } ]
      },
      "payor": [ {
        "reference": "Organization/264d9528-5a8f-4adb-963b-743a335cb1df"
      } ]
    }
  }, {
    "fullUrl": "https://madie.cms.gov/Organization/264d9528-5a8f-4adb-963b-743a335cb1df",
    "resource": {
      "resourceType": "Organization",
      "id": "264d9528-5a8f-4adb-963b-743a335cb1df",
      "meta": {
        "profile": [ "http://hl7.org/fhir/us/qicore/StructureDefinition/qicore-organization" ]
      },
      "identifier": [ {
        "use": "temp",
        "system": "urn:oid:2.16.840.1.113883.4.4",
        "value": "21-3259825"
      } ],
      "active": true,
      "type": [ {
        "coding": [ {
          "system": "http://terminology.hl7.org/CodeSystem/organization-type",
          "code": "pay",
          "display": "Payer"
        } ]
      } ],
      "name": "Blue Cross Blue Shield of Texas",
      "telecom": [ {
        "system": "phone",
        "value": "(+1) 972-766-6900"
      } ],
      "address": [ {
        "use": "billing",
        "type": "postal",
        "line": [ "P.O. Box 660044" ],
        "city": "Dallas",
        "state": "TX",
        "postalCode": "75266-0044",
        "country": "USA"
      } ]
    }
  }, {
    "fullUrl": "https://madie.cms.gov/Practitioner/b38721e6-220e-4417-b9c8-7c33f19c817e",
    "resource": {
      "resourceType": "Practitioner",
      "id": "b38721e6-220e-4417-b9c8-7c33f19c817e",
      "meta": {
        "profile": [ "http://hl7.org/fhir/us/qicore/StructureDefinition/qicore-practitioner" ]
      },
      "identifier": [ {
        "system": "http://hl7.org/fhir/sid/us-npi",
        "value": "1689411712"
      } ],
      "name": [ {
        "family": "Evil",
        "prefix": [ "Dr" ]
      } ]
    }
  }, {
    "fullUrl": "https://madie.cms.gov/MeasureReport/2d131a40-28de-4dc9-98e1-14cd690bad13",
    "resource": {
      "resourceType": "MeasureReport",
      "id": "2d131a40-28de-4dc9-98e1-14cd690bad13",
      "meta": {
        "profile": [ "http://hl7.org/fhir/us/cqfmeasures/StructureDefinition/test-case-cqfm" ]
      },
      "contained": [ {
        "resourceType": "Parameters",
        "id": "f4ad7960-a34f-4b87-b802-5420d031eefe-parameters",
        "parameter": [ {
          "name": "subject",
          "valueString": "e2b6e56e-7af4-4500-ab26-8cf4178ab76e"
        } ]
      } ],
      "extension": [ {
        "url": "http://hl7.org/fhir/StructureDefinition/cqf-inputParameters",
        "valueReference": {
          "reference": "#f4ad7960-a34f-4b87-b802-5420d031eefe-parameters"
        }
      }, {
        "url": "http://hl7.org/fhir/us/cqfmeasures/StructureDefinition/cqfm-testCaseDescription",
        "valueMarkdown": "Patient has one encounter during MP and others outside of MP. No VL."
      } ],
      "modifierExtension": [ {
        "url": "http://hl7.org/fhir/us/cqfmeasures/StructureDefinition/cqfm-isTestCase",
        "valueBoolean": true
      } ],
      "status": "complete",
      "type": "individual",
      "measure": "https://madie.cms.gov/Measure/CMS1157FHIRHIVRetention",
      "period": {
        "start": "2026-01-01",
        "end": "2026-12-31"
      },
      "group": [ {
        "id": "Group_1",
        "population": [ {
          "id": "InitialPopulation_1",
          "code": {
            "coding": [ {
              "system": "http://terminology.hl7.org/CodeSystem/measure-population",
              "code": "initial-population",
              "display": "Initial Population"
            } ]
          },
          "count": 1
        }, {
          "id": "Denominator_1",
          "code": {
            "coding": [ {
              "system": "http://terminology.hl7.org/CodeSystem/measure-population",
              "code": "denominator",
              "display": "Denominator"
            } ]
          },
          "count": 1
        }, {
          "id": "Numerator_1",
          "code": {
            "coding": [ {
              "system": "http://terminology.hl7.org/CodeSystem/measure-population",
              "code": "numerator",
              "display": "Numerator"
            } ]
          },
          "count": 0
        } ],
        "measureScore": {
          "value": 1.0
        }
      } ],
      "evaluatedResource": [ {
        "reference": "Patient/e2b6e56e-7af4-4500-ab26-8cf4178ab76e"
      }, {
        "reference": "Condition/6dd982fc-5d19-420c-a05c-6a1e3e96f6de"
      }, {
        "reference": "Encounter/302b45f4-317f-4fd8-b632-48cc359dc372"
      }, {
        "reference": "Encounter/6ec8d14d-c622-4773-8b51-6d8cef0fe24e"
      }, {
        "reference": "Coverage/75db5fe8-f993-4c58-b453-97d6700a2d77"
      }, {
        "reference": "Organization/264d9528-5a8f-4adb-963b-743a335cb1df"
      }, {
        "reference": "Practitioner/b38721e6-220e-4417-b9c8-7c33f19c817e"
      } ]
    }
  } ]
}