{
  "resourceType": "Bundle",
  "id": "61152a3c98086b7a79cbd7dc",
  "type": "transaction",
  "entry": [ {
    "fullUrl": "https://madie.cms.gov/Patient/1a89fbca-df20-4f17-97d0-9fa5990860b2",
    "resource": {
      "resourceType": "Patient",
      "id": "1a89fbca-df20-4f17-97d0-9fa5990860b2",
      "meta": {
        "profile": [ "http://hl7.org/fhir/us/qicore/StructureDefinition/qicore-patient" ]
      },
      "text": {
        "status": "generated",
        "div": "<div xmlns=\"http://www.w3.org/1999/xhtml\"><div class=\"hapiHeaderText\">LabGT80within5minutes <b>NUMERFAIL </b></div><table class=\"hapiPropertyTable\"><tbody><tr><td>Date of birth</td><td><span>12 March 1960</span></td></tr></tbody></table></div>"
      },
      "extension": [ {
        "url": "http://hl7.org/fhir/us/core/StructureDefinition/us-core-race",
        "extension": [ {
          "url": "ombCategory",
          "valueCoding": {
            "system": "urn:oid:2.16.840.1.113883.6.238",
            "code": "1002-5",
            "display": "American Indian or Alaska Native",
            "userSelected": true
          }
        }, {
          "url": "text",
          "valueString": "American Indian or Alaska Native"
        } ]
      }, {
        "url": "http://hl7.org/fhir/us/core/StructureDefinition/us-core-ethnicity",
        "extension": [ {
          "url": "ombCategory",
          "valueCoding": {
            "system": "urn:oid:2.16.840.1.113883.6.238",
            "code": "2135-2",
            "display": "Hispanic or Latino",
            "userSelected": true
          }
        }, {
          "url": "text",
          "valueString": "Hispanic or Latino"
        } ]
      } ],
      "identifier": [ {
        "type": {
          "coding": [ {
            "system": "http://terminology.hl7.org/CodeSystem/v2-0203",
            "code": "MR"
          } ]
        },
        "system": "https://bonnie-fhir.healthit.gov/",
        "value": "61152a3c98086b7a79cbd7dc"
      } ],
      "active": true,
      "name": [ {
        "use": "usual",
        "family": "NUMERFail",
        "given": [ "LabGT80within5minutes" ]
      } ],
      "gender": "female",
      "birthDate": "1961-03-12"
    },
    "request": {
      "method": "PUT",
      "url": "Patient/1a89fbca-df20-4f17-97d0-9fa5990860b2"
    }
  }, {
    "fullUrl": "https://madie.cms.gov/Encounter/5a9b19b2-1451-49e0-8869-43ae3776f738",
    "resource": {
      "resourceType": "Encounter",
      "id": "5a9b19b2-1451-49e0-8869-43ae3776f738",
      "meta": {
        "profile": [ "http://hl7.org/fhir/us/qicore/StructureDefinition/qicore-encounter" ]
      },
      "status": "finished",
      "class": {
        "system": "http://terminology.hl7.org/CodeSystem/v3-ActCode",
        "code": "IMP",
        "display": "inpatient encounter"
      },
      "type": [ {
        "coding": [ {
          "system": "http://snomed.info/sct",
          "code": "183452005"
        } ]
      } ],
      "subject": {
        "reference": "Patient/1a89fbca-df20-4f17-97d0-9fa5990860b2"
      },
      "period": {
        "start": "2026-12-16T08:00:00.000+00:00",
        "end": "2026-12-19T09:00:00.000+00:00"
      }
    },
    "request": {
      "method": "PUT",
      "url": "Encounter/5a9b19b2-1451-49e0-8869-43ae3776f738"
    }
  }, {
    "fullUrl": "https://madie.cms.gov/MedicationAdministration/b5e628ea-dd87-46ca-812a-099f43b551a4",
    "resource": {
      "resourceType": "MedicationAdministration",
      "id": "b5e628ea-dd87-46ca-812a-099f43b551a4",
      "meta": {
        "profile": [ "http://hl7.org/fhir/us/qicore/StructureDefinition/qicore-medicationadministration" ]
      },
      "status": "completed",
      "medicationCodeableConcept": {
        "coding": [ {
          "system": "http://www.nlm.nih.gov/research/umls/rxnorm",
          "code": "1361493",
          "display": "glimepiride 6 MG Oral Tablet",
          "userSelected": true
        } ]
      },
      "subject": {
        "reference": "Patient/1a89fbca-df20-4f17-97d0-9fa5990860b2"
      },
      "effectivePeriod": {
        "start": "2026-12-16T08:00:00.000+00:00",
        "end": "2026-12-16T09:00:00.000+00:00"
      }
    },
    "request": {
      "method": "PUT",
      "url": "MedicationAdministration/b5e628ea-dd87-46ca-812a-099f43b551a4"
    }
  }, {
    "fullUrl": "https://madie.cms.gov/Observation/194713fc-0e07-4599-957b-4dcdf542d57e",
    "resource": {
      "resourceType": "Observation",
      "id": "194713fc-0e07-4599-957b-4dcdf542d57e",
      "meta": {
        "profile": [ "http://hl7.org/fhir/us/qicore/StructureDefinition/qicore-observation-lab" ]
      },
      "status": "final",
      "category": [ {
        "coding": [ {
          "system": "http://terminology.hl7.org/CodeSystem/observation-category",
          "code": "laboratory",
          "display": "Laboratory"
        } ]
      } ],
      "code": {
        "coding": [ {
          "system": "http://loinc.org",
          "version": "2.72",
          "code": "1556-0",
          "display": "Fasting glucose [Mass/volume] in Capillary blood",
          "userSelected": true
        } ]
      },
      "subject": {
        "reference": "Patient/1a89fbca-df20-4f17-97d0-9fa5990860b2"
      },
      "effectiveDateTime": "2026-12-16T09:30:00.000+00:00",
      "valueQuantity": {
        "value": 39.9,
        "unit": "mg/dL"
      }
    },
    "request": {
      "method": "PUT",
      "url": "Observation/194713fc-0e07-4599-957b-4dcdf542d57e"
    }
  }, {
    "fullUrl": "https://madie.cms.gov/Observation/c83aab8d-5ee7-4219-881a-cfc420a66220",
    "resource": {
      "resourceType": "Observation",
      "id": "c83aab8d-5ee7-4219-881a-cfc420a66220",
      "meta": {
        "profile": [ "http://hl7.org/fhir/us/qicore/StructureDefinition/qicore-observation-lab" ]
      },
      "status": "final",
      "category": [ {
        "coding": [ {
          "system": "http://terminology.hl7.org/CodeSystem/observation-category",
          "code": "laboratory",
          "display": "Laboratory"
        } ]
      } ],
      "code": {
        "coding": [ {
          "system": "http://loinc.org",
          "version": "2.72",
          "code": "1556-0",
          "display": "Fasting glucose [Mass/volume] in Capillary blood",
          "userSelected": true
        } ]
      },
      "subject": {
        "reference": "Patient/1a89fbca-df20-4f17-97d0-9fa5990860b2"
      },
      "effectiveDateTime": "2026-12-16T09:31:00.000+00:00",
      "valueQuantity": {
        "value": 80.1,
        "unit": "mg/dL"
      }
    },
    "request": {
      "method": "PUT",
      "url": "Observation/c83aab8d-5ee7-4219-881a-cfc420a66220"
    }
  }, {
    "fullUrl": "https://madie.cms.gov/MeasureReport/5bf02387-de2a-45ba-b284-fcbc62e63be6",
    "resource": {
      "resourceType": "MeasureReport",
      "id": "5bf02387-de2a-45ba-b284-fcbc62e63be6",
      "meta": {
        "profile": [ "http://hl7.org/fhir/us/cqfmeasures/StructureDefinition/test-case-cqfm" ]
      },
      "contained": [ {
        "resourceType": "Parameters",
        "id": "8d2d3937-c430-4bdd-9016-4053f2430509-parameters",
        "parameter": [ {
          "name": "subject",
          "valueString": "1a89fbca-df20-4f17-97d0-9fa5990860b2"
        } ]
      } ],
      "extension": [ {
        "url": "http://hl7.org/fhir/StructureDefinition/cqf-inputParameters",
        "valueReference": {
          "reference": "#8d2d3937-c430-4bdd-9016-4053f2430509-parameters"
        }
      }, {
        "url": "http://hl7.org/fhir/us/cqfmeasures/StructureDefinition/cqfm-testCaseDescription",
        "valueMarkdown": "IP Encounter with hypoglycemic med given. Lab LT 40 mg/dL, followed by lab GT 80 mg/dL within 5 minutes. Does not meet Numerator. "
      } ],
      "modifierExtension": [ {
        "url": "http://hl7.org/fhir/us/cqfmeasures/StructureDefinition/cqfm-isTestCase",
        "valueBoolean": true
      } ],
      "status": "complete",
      "type": "individual",
      "measure": "https://madie.cms.gov/Measure/CMS816FHIRHHHypo",
      "period": {
        "start": "2026-01-01",
        "end": "2026-12-31"
      },
      "group": [ {
        "id": "Group_1",
        "population": [ {
          "id": "InitialPopulation_1",
          "code": {
            "coding": [ {
              "system": "http://terminology.hl7.org/CodeSystem/measure-population",
              "code": "initial-population",
              "display": "Initial Population"
            } ]
          },
          "count": 1
        }, {
          "id": "Denominator_1",
          "code": {
            "coding": [ {
              "system": "http://terminology.hl7.org/CodeSystem/measure-population",
              "code": "denominator",
              "display": "Denominator"
            } ]
          },
          "count": 1
        }, {
          "id": "Numerator_1",
          "code": {
            "coding": [ {
              "system": "http://terminology.hl7.org/CodeSystem/measure-population",
              "code": "numerator",
              "display": "Numerator"
            } ]
          },
          "count": 0
        } ],
        "measureScore": {
          "value": 0.0
        }
      } ],
      "evaluatedResource": [ {
        "reference": "Patient/1a89fbca-df20-4f17-97d0-9fa5990860b2"
      }, {
        "reference": "Encounter/5a9b19b2-1451-49e0-8869-43ae3776f738"
      }, {
        "reference": "MedicationAdministration/b5e628ea-dd87-46ca-812a-099f43b551a4"
      }, {
        "reference": "Observation/194713fc-0e07-4599-957b-4dcdf542d57e"
      }, {
        "reference": "Observation/c83aab8d-5ee7-4219-881a-cfc420a66220"
      } ]
    },
    "request": {
      "method": "PUT",
      "url": "MeasureReport/5bf02387-de2a-45ba-b284-fcbc62e63be6"
    }
  } ]
}