{
  "resourceType": "Bundle",
  "id": "660dc344ea96f2084262f8e7",
  "type": "transaction",
  "entry": [ {
    "fullUrl": "https://madie.cms.gov/Patient/9e150e87-5553-4752-8fdc-a6842d3d9f33",
    "resource": {
      "resourceType": "Patient",
      "id": "9e150e87-5553-4752-8fdc-a6842d3d9f33",
      "meta": {
        "profile": [ "http://hl7.org/fhir/us/qicore/StructureDefinition/qicore-patient" ]
      },
      "extension": [ {
        "url": "http://hl7.org/fhir/us/core/StructureDefinition/us-core-race",
        "extension": [ {
          "url": "ombCategory",
          "valueCoding": {
            "system": "urn:oid:2.16.840.1.113883.6.238",
            "code": "1002-5",
            "display": "American Indian or Alaska Native",
            "userSelected": true
          }
        }, {
          "url": "text",
          "valueString": "American Indian or Alaska Native"
        } ]
      }, {
        "url": "http://hl7.org/fhir/us/core/StructureDefinition/us-core-ethnicity",
        "extension": [ {
          "url": "ombCategory",
          "valueCoding": {
            "system": "urn:oid:2.16.840.1.113883.6.238",
            "code": "2135-2",
            "display": "Hispanic or Latino",
            "userSelected": true
          }
        }, {
          "url": "text",
          "valueString": "Hispanic or Latino"
        } ]
      }, {
        "url": "http://hl7.org/fhir/us/core/StructureDefinition/us-core-sex",
        "valueCode": "248153007"
      } ],
      "identifier": [ {
        "type": {
          "coding": [ {
            "system": "http://terminology.hl7.org/CodeSystem/v2-0203",
            "code": "MR"
          } ]
        },
        "system": "https://bonnie-fhir.healthit.gov/",
        "value": "660dc344ea96f2084262f8e7"
      } ],
      "name": [ {
        "family": "DxExclPassStartsBeforeEndsAfterMP",
        "given": [ "DENEXCEPPASS" ]
      } ],
      "gender": "male",
      "birthDate": "1992-10-21"
    },
    "request": {
      "method": "PUT",
      "url": "Patient/9e150e87-5553-4752-8fdc-a6842d3d9f33"
    }
  }, {
    "fullUrl": "https://madie.cms.gov/Encounter/9b9ab188-00bf-41df-89c3-1280637de668",
    "resource": {
      "resourceType": "Encounter",
      "id": "9b9ab188-00bf-41df-89c3-1280637de668",
      "meta": {
        "profile": [ "http://hl7.org/fhir/us/qicore/StructureDefinition/qicore-encounter" ]
      },
      "status": "finished",
      "class": {
        "system": "http://terminology.hl7.org/CodeSystem/v3-ActCode",
        "code": "EMER",
        "display": "emergency",
        "userSelected": true
      },
      "type": [ {
        "coding": [ {
          "system": "http://snomed.info/sct",
          "version": "2020-09",
          "code": "4525004",
          "display": "Emergency department patient visit (procedure)",
          "userSelected": true
        } ]
      } ],
      "subject": {
        "reference": "Patient/9e150e87-5553-4752-8fdc-a6842d3d9f33"
      },
      "period": {
        "start": "2026-11-10T08:05:00.000+00:00",
        "end": "2026-11-11T07:15:00.000+00:00"
      },
      "reasonReference": [ {
        "reference": "Condition/819a31e4-4e4f-40b2-ba0a-7c1533cd5027"
      } ]
    },
    "request": {
      "method": "PUT",
      "url": "Encounter/9b9ab188-00bf-41df-89c3-1280637de668"
    }
  }, {
    "fullUrl": "https://madie.cms.gov/Condition/d0c44f62-f583-4490-8a3d-418b24b846e0",
    "resource": {
      "resourceType": "Condition",
      "id": "d0c44f62-f583-4490-8a3d-418b24b846e0",
      "meta": {
        "profile": [ "http://hl7.org/fhir/us/qicore/StructureDefinition/qicore-condition-problems-health-concerns" ]
      },
      "clinicalStatus": {
        "coding": [ {
          "system": "http://terminology.hl7.org/CodeSystem/condition-clinical",
          "code": "active"
        } ]
      },
      "verificationStatus": {
        "coding": [ {
          "system": "http://terminology.hl7.org/CodeSystem/condition-ver-status",
          "code": "differential"
        } ]
      },
      "category": [ {
        "coding": [ {
          "system": "http://terminology.hl7.org/CodeSystem/condition-category",
          "code": "problem-list-item",
          "display": "Problem List Item"
        } ]
      } ],
      "severity": {
        "coding": [ {
          "system": "http://snomed.info/sct",
          "code": "24484000",
          "display": "Severe (severity modifier)"
        } ]
      },
      "code": {
        "coding": [ {
          "system": "http://hl7.org/fhir/sid/icd-10-cm",
          "code": "Z92.82",
          "display": "Status post administration of tPA (rtPA) in a different facility within the last 24 hours prior to admission to current facility"
        } ]
      },
      "subject": {
        "reference": "Patient/9e150e87-5553-4752-8fdc-a6842d3d9f33"
      },
      "onsetDateTime": "2026-11-09T08:30:00.000+00:00"
    },
    "request": {
      "method": "PUT",
      "url": "Condition/d0c44f62-f583-4490-8a3d-418b24b846e0"
    }
  }, {
    "fullUrl": "https://madie.cms.gov/Condition/819a31e4-4e4f-40b2-ba0a-7c1533cd5027",
    "resource": {
      "resourceType": "Condition",
      "id": "819a31e4-4e4f-40b2-ba0a-7c1533cd5027",
      "meta": {
        "profile": [ "http://hl7.org/fhir/us/qicore/StructureDefinition/qicore-condition-problems-health-concerns" ]
      },
      "clinicalStatus": {
        "coding": [ {
          "system": "http://terminology.hl7.org/CodeSystem/condition-clinical",
          "code": "active",
          "display": "active",
          "userSelected": true
        } ]
      },
      "verificationStatus": {
        "coding": [ {
          "system": "http://terminology.hl7.org/CodeSystem/condition-ver-status",
          "code": "provisional"
        } ]
      },
      "category": [ {
        "coding": [ {
          "system": "http://terminology.hl7.org/CodeSystem/condition-category",
          "code": "problem-list-item",
          "display": "Problem List Item",
          "userSelected": true
        } ]
      } ],
      "code": {
        "coding": [ {
          "system": "http://snomed.info/sct",
          "version": "2020-09",
          "code": "401303003",
          "display": "Acute ST segment elevation myocardial infarction (disorder)",
          "userSelected": true
        } ]
      },
      "subject": {
        "reference": "Patient/9e150e87-5553-4752-8fdc-a6842d3d9f33"
      },
      "onsetDateTime": "2026-11-10T08:30:00.000+00:00"
    },
    "request": {
      "method": "PUT",
      "url": "Condition/819a31e4-4e4f-40b2-ba0a-7c1533cd5027"
    }
  }, {
    "fullUrl": "https://madie.cms.gov/Condition/2555dd7c-0959-4dc3-b317-ac75f9534038",
    "resource": {
      "resourceType": "Condition",
      "id": "2555dd7c-0959-4dc3-b317-ac75f9534038",
      "meta": {
        "profile": [ "http://hl7.org/fhir/us/qicore/StructureDefinition/qicore-condition-problems-health-concerns" ]
      },
      "clinicalStatus": {
        "coding": [ {
          "system": "http://terminology.hl7.org/CodeSystem/condition-clinical",
          "version": "4.0.1",
          "code": "inactive",
          "display": "Inactive",
          "userSelected": true
        } ]
      },
      "category": [ {
        "coding": [ {
          "system": "http://terminology.hl7.org/CodeSystem/condition-category",
          "code": "problem-list-item",
          "display": "Problem List Item",
          "userSelected": true
        } ]
      } ],
      "code": {
        "coding": [ {
          "system": "http://snomed.info/sct",
          "version": "2020-09",
          "code": "162710004",
          "display": "On examination - collapse -cardiac arrest (disorder)",
          "userSelected": true
        } ]
      },
      "subject": {
        "reference": "Patient/9e150e87-5553-4752-8fdc-a6842d3d9f33"
      },
      "onsetDateTime": "2026-11-10T09:00:00.000+00:00"
    },
    "request": {
      "method": "PUT",
      "url": "Condition/2555dd7c-0959-4dc3-b317-ac75f9534038"
    }
  }, {
    "fullUrl": "https://madie.cms.gov/Coverage/9567e98a-aead-4914-85c3-d8f7342bdfa3",
    "resource": {
      "resourceType": "Coverage",
      "id": "9567e98a-aead-4914-85c3-d8f7342bdfa3",
      "meta": {
        "profile": [ "http://hl7.org/fhir/us/qicore/StructureDefinition/qicore-coverage" ]
      },
      "identifier": [ {
        "type": {
          "coding": [ {
            "system": "http://terminology.hl7.org/CodeSystem/v2-0203",
            "code": "MB"
          } ]
        }
      } ],
      "status": "active",
      "beneficiary": {
        "reference": "Patient/9e150e87-5553-4752-8fdc-a6842d3d9f33"
      },
      "relationship": {
        "coding": [ {
          "system": "http://terminology.hl7.org/CodeSystem/subscriber-relationship",
          "code": "self"
        } ]
      },
      "payor": [ {
        "reference": "Organization/d74d2bee-6734-4b05-b3e6-7f28a31622dd"
      } ]
    },
    "request": {
      "method": "PUT",
      "url": "Coverage/9567e98a-aead-4914-85c3-d8f7342bdfa3"
    }
  }, {
    "fullUrl": "https://madie.cms.gov/Organization/d74d2bee-6734-4b05-b3e6-7f28a31622dd",
    "resource": {
      "resourceType": "Organization",
      "id": "d74d2bee-6734-4b05-b3e6-7f28a31622dd",
      "meta": {
        "profile": [ "http://hl7.org/fhir/us/qicore/StructureDefinition/qicore-organization" ]
      },
      "identifier": [ {
        "use": "temp",
        "system": "urn:oid:2.16.840.1.113883.4.4",
        "value": "21-3259825"
      } ],
      "active": true,
      "type": [ {
        "coding": [ {
          "system": "http://terminology.hl7.org/CodeSystem/organization-type",
          "code": "pay",
          "display": "Payer"
        } ]
      } ],
      "name": "Blue Cross Blue Shield of Texas",
      "telecom": [ {
        "system": "phone",
        "value": "(+1) 972-766-6900"
      } ],
      "address": [ {
        "use": "billing",
        "type": "postal",
        "line": [ "P.O. Box 660044" ],
        "city": "Dallas",
        "state": "TX",
        "postalCode": "75266-0044",
        "country": "USA"
      } ]
    },
    "request": {
      "method": "PUT",
      "url": "Organization/d74d2bee-6734-4b05-b3e6-7f28a31622dd"
    }
  }, {
    "fullUrl": "https://madie.cms.gov/Practitioner/389c1ab3-f3d1-455c-821c-ce75517fff78",
    "resource": {
      "resourceType": "Practitioner",
      "id": "389c1ab3-f3d1-455c-821c-ce75517fff78",
      "meta": {
        "profile": [ "http://hl7.org/fhir/us/qicore/StructureDefinition/qicore-practitioner" ]
      },
      "identifier": [ {
        "system": "http://hl7.org/fhir/sid/us-npi",
        "value": "9999999896"
      } ],
      "name": [ {
        "family": "Evil",
        "prefix": [ "Dr" ]
      } ]
    },
    "request": {
      "method": "PUT",
      "url": "Practitioner/389c1ab3-f3d1-455c-821c-ce75517fff78"
    }
  }, {
    "fullUrl": "https://madie.cms.gov/MeasureReport/591271b2-142c-4f48-ac19-8be9f2428336",
    "resource": {
      "resourceType": "MeasureReport",
      "id": "591271b2-142c-4f48-ac19-8be9f2428336",
      "meta": {
        "profile": [ "http://hl7.org/fhir/us/cqfmeasures/StructureDefinition/test-case-cqfm" ]
      },
      "contained": [ {
        "resourceType": "Parameters",
        "id": "27b18a87-f28b-4e92-840c-319c66969a26-parameters",
        "parameter": [ {
          "name": "subject",
          "valueString": "9e150e87-5553-4752-8fdc-a6842d3d9f33"
        } ]
      } ],
      "extension": [ {
        "url": "http://hl7.org/fhir/StructureDefinition/cqf-inputParameters",
        "valueReference": {
          "reference": "#27b18a87-f28b-4e92-840c-319c66969a26-parameters"
        }
      }, {
        "url": "http://hl7.org/fhir/us/cqfmeasures/StructureDefinition/cqfm-testCaseDescription",
        "valueMarkdown": "Patient has diagnosis exception of tPA at another facility more than 24 hours of emergency department visit. Verification status differential"
      } ],
      "modifierExtension": [ {
        "url": "http://hl7.org/fhir/us/cqfmeasures/StructureDefinition/cqfm-isTestCase",
        "valueBoolean": true
      } ],
      "status": "complete",
      "type": "individual",
      "measure": "https://madie.cms.gov/Measure/CMS996FHIRAptTxforSTEMI",
      "period": {
        "start": "2026-01-01",
        "end": "2026-12-31"
      },
      "group": [ {
        "id": "Group_1",
        "population": [ {
          "id": "InitialPopulation_1",
          "code": {
            "coding": [ {
              "system": "http://terminology.hl7.org/CodeSystem/measure-population",
              "code": "initial-population",
              "display": "Initial Population"
            } ]
          },
          "count": 1
        }, {
          "id": "Denominator_1",
          "code": {
            "coding": [ {
              "system": "http://terminology.hl7.org/CodeSystem/measure-population",
              "code": "denominator",
              "display": "Denominator"
            } ]
          },
          "count": 1
        }, {
          "id": "DenominatorExclusion_1",
          "code": {
            "coding": [ {
              "system": "http://terminology.hl7.org/CodeSystem/measure-population",
              "code": "denominator-exclusion",
              "display": "Denominator Exclusion"
            } ]
          },
          "count": 0
        }, {
          "id": "Numerator_1",
          "code": {
            "coding": [ {
              "system": "http://terminology.hl7.org/CodeSystem/measure-population",
              "code": "numerator",
              "display": "Numerator"
            } ]
          },
          "count": 0
        }, {
          "id": "DenominatorException_1",
          "code": {
            "coding": [ {
              "system": "http://terminology.hl7.org/CodeSystem/measure-population",
              "code": "denominator-exception",
              "display": "Denominator Exception"
            } ]
          },
          "count": 0
        } ],
        "measureScore": {
          "value": 0.0
        }
      } ],
      "evaluatedResource": [ {
        "reference": "Patient/9e150e87-5553-4752-8fdc-a6842d3d9f33"
      }, {
        "reference": "Encounter/9b9ab188-00bf-41df-89c3-1280637de668"
      }, {
        "reference": "Condition/d0c44f62-f583-4490-8a3d-418b24b846e0"
      }, {
        "reference": "Condition/819a31e4-4e4f-40b2-ba0a-7c1533cd5027"
      }, {
        "reference": "Condition/2555dd7c-0959-4dc3-b317-ac75f9534038"
      }, {
        "reference": "Coverage/9567e98a-aead-4914-85c3-d8f7342bdfa3"
      }, {
        "reference": "Organization/d74d2bee-6734-4b05-b3e6-7f28a31622dd"
      }, {
        "reference": "Practitioner/389c1ab3-f3d1-455c-821c-ce75517fff78"
      } ]
    },
    "request": {
      "method": "PUT",
      "url": "MeasureReport/591271b2-142c-4f48-ac19-8be9f2428336"
    }
  } ]
}