{
  "resourceType": "Bundle",
  "id": "617be79c1619a529957d62b6",
  "type": "transaction",
  "entry": [ {
    "fullUrl": "https://madie.cms.gov/Patient/245b418f-e6d6-4567-a32d-37187a90738d",
    "resource": {
      "resourceType": "Patient",
      "id": "245b418f-e6d6-4567-a32d-37187a90738d",
      "meta": {
        "profile": [ "http://hl7.org/fhir/us/qicore/StructureDefinition/qicore-patient" ]
      },
      "extension": [ {
        "url": "http://hl7.org/fhir/us/core/StructureDefinition/us-core-race",
        "extension": [ {
          "url": "ombCategory",
          "valueCoding": {
            "system": "urn:oid:2.16.840.1.113883.6.238",
            "code": "2106-3",
            "display": "White",
            "userSelected": true
          }
        }, {
          "url": "text",
          "valueString": "White"
        } ]
      }, {
        "url": "http://hl7.org/fhir/us/core/StructureDefinition/us-core-ethnicity",
        "extension": [ {
          "url": "ombCategory",
          "valueCoding": {
            "system": "urn:oid:2.16.840.1.113883.6.238",
            "code": "2186-5",
            "display": "Not Hispanic or Latino",
            "userSelected": true
          }
        }, {
          "url": "text",
          "valueString": "Not Hispanic or Latino"
        } ]
      }, {
        "url": "http://hl7.org/fhir/us/core/StructureDefinition/us-core-sex",
        "valueCode": "248152002"
      } ],
      "identifier": [ {
        "type": {
          "coding": [ {
            "system": "http://terminology.hl7.org/CodeSystem/v2-0203",
            "code": "MR"
          } ]
        },
        "system": "https://bonnie-fhir.healthit.gov/",
        "value": "617be79c1619a529957d62b6"
      } ],
      "name": [ {
        "family": "DenExcl6Fail",
        "given": [ "MedStarts91DBeforeED" ]
      } ],
      "gender": "female",
      "birthDate": "1985-12-02"
    },
    "request": {
      "method": "PUT",
      "url": "Patient/245b418f-e6d6-4567-a32d-37187a90738d"
    }
  }, {
    "fullUrl": "https://madie.cms.gov/Encounter/af3359b8-cbd0-457d-a5a3-a5bf3acc64d7",
    "resource": {
      "resourceType": "Encounter",
      "id": "af3359b8-cbd0-457d-a5a3-a5bf3acc64d7",
      "meta": {
        "profile": [ "http://hl7.org/fhir/us/qicore/StructureDefinition/qicore-encounter" ]
      },
      "status": "finished",
      "class": {
        "system": "http://terminology.hl7.org/CodeSystem/v3-ActCode",
        "code": "EMER",
        "display": "emergency",
        "userSelected": true
      },
      "type": [ {
        "coding": [ {
          "system": "http://snomed.info/sct",
          "version": "2020-09",
          "code": "4525004",
          "display": "Emergency department patient visit (procedure)",
          "userSelected": true
        } ]
      } ],
      "subject": {
        "reference": "Patient/245b418f-e6d6-4567-a32d-37187a90738d"
      },
      "period": {
        "start": "2026-10-09T08:05:00.000+00:00",
        "end": "2026-10-10T07:15:00.000+00:00"
      },
      "reasonCode": [ {
        "coding": [ {
          "system": "http://hl7.org/fhir/sid/icd-10-cm",
          "version": "2021",
          "code": "I21.02",
          "display": "ST elevation (STEMI) myocardial infarction involving left anterior descending coronary artery",
          "userSelected": true
        } ]
      } ]
    },
    "request": {
      "method": "PUT",
      "url": "Encounter/af3359b8-cbd0-457d-a5a3-a5bf3acc64d7"
    }
  }, {
    "fullUrl": "https://madie.cms.gov/MedicationRequest/ca45e072-e310-4ff9-a95b-edb58bd08f2b",
    "resource": {
      "resourceType": "MedicationRequest",
      "id": "ca45e072-e310-4ff9-a95b-edb58bd08f2b",
      "meta": {
        "profile": [ "http://hl7.org/fhir/us/qicore/StructureDefinition/qicore-medicationrequest" ]
      },
      "status": "active",
      "intent": "order",
      "category": [ {
        "coding": [ {
          "system": "http://terminology.hl7.org/CodeSystem/medicationrequest-category",
          "code": "inpatient",
          "display": "Inpatient",
          "userSelected": true
        } ]
      } ],
      "medicationCodeableConcept": {
        "coding": [ {
          "system": "http://www.nlm.nih.gov/research/umls/rxnorm",
          "code": "1037045",
          "display": "dabigatran etexilate 150 MG Oral Capsule",
          "userSelected": true
        } ]
      },
      "subject": {
        "reference": "Patient/245b418f-e6d6-4567-a32d-37187a90738d"
      },
      "authoredOn": "2026-07-11T08:00:00.000+00:00",
      "requester": {
        "reference": "Practitioner/721a1122-4ee5-4b42-8a45-7a198c895be2"
      }
    },
    "request": {
      "method": "PUT",
      "url": "MedicationRequest/ca45e072-e310-4ff9-a95b-edb58bd08f2b"
    }
  }, {
    "fullUrl": "https://madie.cms.gov/Practitioner/721a1122-4ee5-4b42-8a45-7a198c895be2",
    "resource": {
      "resourceType": "Practitioner",
      "id": "721a1122-4ee5-4b42-8a45-7a198c895be2",
      "meta": {
        "profile": [ "http://hl7.org/fhir/us/qicore/StructureDefinition/qicore-practitioner" ]
      },
      "identifier": [ {
        "system": "http://hl7.org/fhir/sid/us-npi",
        "value": "9999999896"
      } ],
      "name": [ {
        "family": "Evil",
        "prefix": [ "Dr" ]
      } ]
    },
    "request": {
      "method": "PUT",
      "url": "Practitioner/721a1122-4ee5-4b42-8a45-7a198c895be2"
    }
  }, {
    "fullUrl": "https://madie.cms.gov/MeasureReport/e50a20c5-2d3f-49f1-a95f-32cb54ac63a8",
    "resource": {
      "resourceType": "MeasureReport",
      "id": "e50a20c5-2d3f-49f1-a95f-32cb54ac63a8",
      "meta": {
        "profile": [ "http://hl7.org/fhir/us/cqfmeasures/StructureDefinition/test-case-cqfm" ]
      },
      "contained": [ {
        "resourceType": "Parameters",
        "id": "54409c5b-d183-4e90-bdeb-7773842325e3-parameters",
        "parameter": [ {
          "name": "subject",
          "valueString": "245b418f-e6d6-4567-a32d-37187a90738d"
        } ]
      } ],
      "extension": [ {
        "url": "http://hl7.org/fhir/StructureDefinition/cqf-inputParameters",
        "valueReference": {
          "reference": "#54409c5b-d183-4e90-bdeb-7773842325e3-parameters"
        }
      }, {
        "url": "http://hl7.org/fhir/us/cqfmeasures/StructureDefinition/cqfm-testCaseDescription",
        "valueMarkdown": "Patient has anticoagulant medication starts 91D before ED"
      } ],
      "modifierExtension": [ {
        "url": "http://hl7.org/fhir/us/cqfmeasures/StructureDefinition/cqfm-isTestCase",
        "valueBoolean": true
      } ],
      "status": "complete",
      "type": "individual",
      "measure": "https://madie.cms.gov/Measure/CMS996FHIRAptTxforSTEMI",
      "period": {
        "start": "2026-01-01",
        "end": "2026-12-31"
      },
      "group": [ {
        "id": "Group_1",
        "population": [ {
          "id": "InitialPopulation_1",
          "code": {
            "coding": [ {
              "system": "http://terminology.hl7.org/CodeSystem/measure-population",
              "code": "initial-population",
              "display": "Initial Population"
            } ]
          },
          "count": 1
        }, {
          "id": "Denominator_1",
          "code": {
            "coding": [ {
              "system": "http://terminology.hl7.org/CodeSystem/measure-population",
              "code": "denominator",
              "display": "Denominator"
            } ]
          },
          "count": 1
        }, {
          "id": "DenominatorExclusion_1",
          "code": {
            "coding": [ {
              "system": "http://terminology.hl7.org/CodeSystem/measure-population",
              "code": "denominator-exclusion",
              "display": "Denominator Exclusion"
            } ]
          },
          "count": 0
        }, {
          "id": "Numerator_1",
          "code": {
            "coding": [ {
              "system": "http://terminology.hl7.org/CodeSystem/measure-population",
              "code": "numerator",
              "display": "Numerator"
            } ]
          },
          "count": 0
        }, {
          "id": "DenominatorException_1",
          "code": {
            "coding": [ {
              "system": "http://terminology.hl7.org/CodeSystem/measure-population",
              "code": "denominator-exception",
              "display": "Denominator Exception"
            } ]
          },
          "count": 0
        } ],
        "measureScore": {
          "value": 0.0
        }
      } ],
      "evaluatedResource": [ {
        "reference": "Patient/245b418f-e6d6-4567-a32d-37187a90738d"
      }, {
        "reference": "Encounter/af3359b8-cbd0-457d-a5a3-a5bf3acc64d7"
      }, {
        "reference": "MedicationRequest/ca45e072-e310-4ff9-a95b-edb58bd08f2b"
      }, {
        "reference": "Practitioner/721a1122-4ee5-4b42-8a45-7a198c895be2"
      } ]
    },
    "request": {
      "method": "PUT",
      "url": "MeasureReport/e50a20c5-2d3f-49f1-a95f-32cb54ac63a8"
    }
  } ]
}