{
  "resourceType": "Bundle",
  "id": "216544684685315464",
  "type": "collection",
  "entry": [ {
    "fullUrl": "https://madie.cms.gov/Patient/27111f10-365a-4ec3-a918-f856c687211e",
    "resource": {
      "resourceType": "Patient",
      "id": "27111f10-365a-4ec3-a918-f856c687211e",
      "meta": {
        "profile": [ "http://hl7.org/fhir/us/qicore/StructureDefinition/qicore-patient" ]
      },
      "extension": [ {
        "url": "http://hl7.org/fhir/us/core/StructureDefinition/us-core-race",
        "extension": [ {
          "url": "ombCategory",
          "valueCoding": {
            "system": "urn:oid:2.16.840.1.113883.6.238",
            "code": "1002-5",
            "display": "American Indian or Alaska Native"
          }
        }, {
          "url": "text",
          "valueString": "American Indian or Alaska Native"
        } ]
      }, {
        "url": "http://hl7.org/fhir/us/core/StructureDefinition/us-core-ethnicity",
        "extension": [ {
          "url": "ombCategory",
          "valueCoding": {
            "system": "urn:oid:2.16.840.1.113883.6.238",
            "code": "2186-5",
            "display": "Not Hispanic or Latino"
          }
        }, {
          "url": "text",
          "valueString": "Not Hispanic or Latino"
        } ]
      } ],
      "identifier": [ {
        "type": {
          "coding": [ {
            "system": "http://terminology.hl7.org/CodeSystem/v2-0203",
            "code": "MR"
          } ]
        },
        "system": "https://bonnie-fhir.healthit.gov/",
        "value": "431385494631"
      } ],
      "name": [ {
        "family": "DENEXPass",
        "given": [ "LVADPlcmntSBEEnc" ]
      } ],
      "gender": "male",
      "birthDate": "1969-06-14"
    }
  }, {
    "fullUrl": "https://madie.cms.gov/Encounter/2e0833ba-9c80-412e-8448-d38138445ac4",
    "resource": {
      "resourceType": "Encounter",
      "id": "2e0833ba-9c80-412e-8448-d38138445ac4",
      "meta": {
        "profile": [ "http://hl7.org/fhir/us/qicore/StructureDefinition/qicore-encounter" ]
      },
      "status": "finished",
      "class": {
        "system": "http://terminology.hl7.org/CodeSystem/v3-ActCode",
        "code": "AMB",
        "display": "ambulatory"
      },
      "type": [ {
        "coding": [ {
          "system": "http://snomed.info/sct",
          "version": "http://snomed.info/sct/731000124108/version/20250301",
          "code": "281036007",
          "display": "Follow-up consultation (procedure)"
        } ]
      } ],
      "subject": {
        "reference": "Patient/27111f10-365a-4ec3-a918-f856c687211e"
      },
      "period": {
        "start": "2026-03-31T14:40:00.000Z",
        "end": "2026-03-31T14:40:00.000Z"
      }
    }
  }, {
    "fullUrl": "https://madie.cms.gov/Encounter/f3f03d5f-1e93-4dc5-9a98-9d49d99f54b0",
    "resource": {
      "resourceType": "Encounter",
      "id": "f3f03d5f-1e93-4dc5-9a98-9d49d99f54b0",
      "meta": {
        "profile": [ "http://hl7.org/fhir/us/qicore/StructureDefinition/qicore-encounter" ]
      },
      "status": "finished",
      "class": {
        "system": "http://terminology.hl7.org/CodeSystem/v3-ActCode",
        "code": "AMB",
        "display": "ambulatory"
      },
      "type": [ {
        "coding": [ {
          "system": "http://snomed.info/sct",
          "version": "http://snomed.info/sct/731000124108/version/20250301",
          "code": "281036007",
          "display": "Follow-up consultation (procedure)"
        } ]
      } ],
      "subject": {
        "reference": "Patient/27111f10-365a-4ec3-a918-f856c687211e"
      },
      "period": {
        "start": "2026-05-15T11:50:00.000Z",
        "end": "2026-05-15T11:50:00.000Z"
      }
    }
  }, {
    "fullUrl": "https://madie.cms.gov/Condition/965b345f-f61b-4cd2-b1fa-b6714c47551e",
    "resource": {
      "resourceType": "Condition",
      "id": "965b345f-f61b-4cd2-b1fa-b6714c47551e",
      "meta": {
        "profile": [ "http://hl7.org/fhir/us/qicore/StructureDefinition/qicore-condition-problems-health-concerns" ]
      },
      "clinicalStatus": {
        "coding": [ {
          "system": "http://terminology.hl7.org/CodeSystem/condition-clinical",
          "code": "active",
          "display": "active"
        } ]
      },
      "verificationStatus": {
        "coding": [ {
          "system": "http://terminology.hl7.org/CodeSystem/condition-ver-status",
          "code": "confirmed",
          "display": "Confirmed"
        } ]
      },
      "category": [ {
        "coding": [ {
          "system": "http://terminology.hl7.org/CodeSystem/condition-category",
          "code": "problem-list-item",
          "display": "Problem List Item"
        } ]
      } ],
      "code": {
        "coding": [ {
          "system": "http://snomed.info/sct",
          "version": "http://snomed.info/sct/731000124108/version/20250301",
          "code": "10091002",
          "display": "High output heart failure (disorder)"
        } ]
      },
      "subject": {
        "reference": "Patient/27111f10-365a-4ec3-a918-f856c687211e"
      },
      "onsetPeriod": {
        "start": "2025-05-17T10:00:00.000Z"
      }
    }
  }, {
    "fullUrl": "https://madie.cms.gov/Condition/2b90a6fb-aa6c-4123-aee0-fe40472457e9",
    "resource": {
      "resourceType": "Condition",
      "id": "2b90a6fb-aa6c-4123-aee0-fe40472457e9",
      "meta": {
        "profile": [ "http://hl7.org/fhir/us/qicore/StructureDefinition/qicore-condition-encounter-diagnosis" ]
      },
      "clinicalStatus": {
        "coding": [ {
          "system": "http://terminology.hl7.org/CodeSystem/condition-clinical",
          "code": "active",
          "display": "Active"
        } ]
      },
      "verificationStatus": {
        "coding": [ {
          "system": "http://terminology.hl7.org/CodeSystem/condition-ver-status",
          "code": "confirmed",
          "display": "Confirmed"
        } ]
      },
      "category": [ {
        "coding": [ {
          "system": "http://terminology.hl7.org/CodeSystem/condition-category",
          "code": "encounter-diagnosis",
          "display": "Encounter Diagnosis"
        } ]
      } ],
      "code": {
        "coding": [ {
          "system": "http://snomed.info/sct",
          "version": "http://snomed.info/sct/731000124108/version/20250301",
          "code": "991000124109",
          "display": "Severe left ventricular systolic dysfunction (disorder)"
        } ]
      },
      "subject": {
        "reference": "Patient/27111f10-365a-4ec3-a918-f856c687211e"
      },
      "onsetPeriod": {
        "start": "2026-03-25T16:00:00.000Z",
        "end": "2026-03-30T16:00:00.000Z"
      }
    }
  }, {
    "fullUrl": "https://madie.cms.gov/Procedure/93b182a8-5edc-409c-bb67-b3c654e7c818",
    "resource": {
      "resourceType": "Procedure",
      "id": "93b182a8-5edc-409c-bb67-b3c654e7c818",
      "meta": {
        "profile": [ "http://hl7.org/fhir/us/qicore/StructureDefinition/qicore-procedure" ]
      },
      "extension": [ {
        "url": "http://hl7.org/fhir/us/qicore/StructureDefinition/qicore-recorded",
        "valueDateTime": "2025-09-25T13:00:00.000Z"
      } ],
      "status": "completed",
      "code": {
        "coding": [ {
          "system": "http://www.ama-assn.org/go/cpt",
          "version": "2024",
          "code": "33976",
          "display": "Insertion of ventricular assist device; extracorporeal, biventricular"
        } ]
      },
      "subject": {
        "reference": "Patient/27111f10-365a-4ec3-a918-f856c687211e"
      },
      "performedPeriod": {
        "start": "2025-09-25T11:00:00.000Z",
        "end": "2025-09-25T12:00:00.000Z"
      }
    }
  }, {
    "fullUrl": "https://madie.cms.gov/MeasureReport/be66ed5e-a575-4e3a-bead-b9e1ca52da7d",
    "resource": {
      "resourceType": "MeasureReport",
      "id": "be66ed5e-a575-4e3a-bead-b9e1ca52da7d",
      "meta": {
        "profile": [ "http://hl7.org/fhir/us/cqfmeasures/StructureDefinition/test-case-cqfm" ]
      },
      "contained": [ {
        "resourceType": "Parameters",
        "id": "4f18e4d6-8234-48c4-a01d-3820baaa5786-parameters",
        "parameter": [ {
          "name": "subject",
          "valueString": "27111f10-365a-4ec3-a918-f856c687211e"
        } ]
      } ],
      "extension": [ {
        "url": "http://hl7.org/fhir/StructureDefinition/cqf-inputParameters",
        "valueReference": {
          "reference": "#4f18e4d6-8234-48c4-a01d-3820baaa5786-parameters"
        }
      }, {
        "url": "http://hl7.org/fhir/us/cqfmeasures/StructureDefinition/cqfm-testCaseDescription",
        "valueMarkdown": "Patient has 2 ambulatory encounters, HF diagnosis and LVSD and meets denominator exclusion with history of Left Ventricular Assisted Device placement."
      } ],
      "modifierExtension": [ {
        "url": "http://hl7.org/fhir/us/cqfmeasures/StructureDefinition/cqfm-isTestCase",
        "valueBoolean": true
      } ],
      "status": "complete",
      "type": "individual",
      "measure": "https://madie.cms.gov/Measure/CMS135FHIRACEIorARBorARNIforHF",
      "period": {
        "start": "2026-01-01",
        "end": "2026-12-31"
      },
      "group": [ {
        "id": "Group_1",
        "population": [ {
          "id": "InitialPopulation_1",
          "code": {
            "coding": [ {
              "system": "http://terminology.hl7.org/CodeSystem/measure-population",
              "code": "initial-population",
              "display": "Initial Population"
            } ]
          },
          "count": 1
        }, {
          "id": "Denominator_1",
          "code": {
            "coding": [ {
              "system": "http://terminology.hl7.org/CodeSystem/measure-population",
              "code": "denominator",
              "display": "Denominator"
            } ]
          },
          "count": 1
        }, {
          "id": "DenominatorExclusion_1",
          "code": {
            "coding": [ {
              "system": "http://terminology.hl7.org/CodeSystem/measure-population",
              "code": "denominator-exclusion",
              "display": "Denominator Exclusion"
            } ]
          },
          "count": 1
        }, {
          "id": "Numerator_1",
          "code": {
            "coding": [ {
              "system": "http://terminology.hl7.org/CodeSystem/measure-population",
              "code": "numerator",
              "display": "Numerator"
            } ]
          },
          "count": 0
        }, {
          "id": "DenominatorException_1",
          "code": {
            "coding": [ {
              "system": "http://terminology.hl7.org/CodeSystem/measure-population",
              "code": "denominator-exception",
              "display": "Denominator Exception"
            } ]
          },
          "count": 0
        } ],
        "measureScore": {
          "value": 1.0
        }
      } ],
      "evaluatedResource": [ {
        "reference": "Patient/27111f10-365a-4ec3-a918-f856c687211e"
      }, {
        "reference": "Encounter/2e0833ba-9c80-412e-8448-d38138445ac4"
      }, {
        "reference": "Encounter/f3f03d5f-1e93-4dc5-9a98-9d49d99f54b0"
      }, {
        "reference": "Condition/965b345f-f61b-4cd2-b1fa-b6714c47551e"
      }, {
        "reference": "Condition/2b90a6fb-aa6c-4123-aee0-fe40472457e9"
      }, {
        "reference": "Procedure/93b182a8-5edc-409c-bb67-b3c654e7c818"
      } ]
    }
  } ]
}