{
  "resourceType": "Bundle",
  "id": "DENEXPass-HospiceDischargeToHomeDuringMP",
  "type": "transaction",
  "entry": [ {
    "fullUrl": "https://madie.cms.gov/Patient/d95789b9-f144-43e7-81c6-fed3adba5d8f",
    "resource": {
      "resourceType": "Patient",
      "id": "d95789b9-f144-43e7-81c6-fed3adba5d8f",
      "meta": {
        "profile": [ "http://hl7.org/fhir/us/qicore/StructureDefinition/qicore-patient" ]
      },
      "extension": [ {
        "url": "http://hl7.org/fhir/us/core/StructureDefinition/us-core-race",
        "extension": [ {
          "url": "ombCategory",
          "valueCoding": {
            "system": "urn:oid:2.16.840.1.113883.6.238",
            "code": "2028-9",
            "display": "Asian",
            "userSelected": true
          }
        }, {
          "url": "text",
          "valueString": "Asian"
        } ]
      }, {
        "url": "http://hl7.org/fhir/us/core/StructureDefinition/us-core-ethnicity",
        "extension": [ {
          "url": "ombCategory",
          "valueCoding": {
            "system": "urn:oid:2.16.840.1.113883.6.238",
            "code": "2135-2",
            "display": "Hispanic or Latino",
            "userSelected": true
          }
        }, {
          "url": "text",
          "valueString": "Hispanic or Latino"
        } ]
      } ],
      "identifier": [ {
        "type": {
          "coding": [ {
            "system": "http://terminology.hl7.org/CodeSystem/v2-0203",
            "code": "MR"
          } ]
        },
        "system": "http://hospital.smarthealthit.org",
        "value": "999999995"
      } ],
      "name": [ {
        "family": "Bertha",
        "given": [ "Betty" ]
      } ],
      "gender": "female",
      "birthDate": "2016-12-31"
    },
    "request": {
      "method": "PUT",
      "url": "Patient/d95789b9-f144-43e7-81c6-fed3adba5d8f"
    }
  }, {
    "fullUrl": "https://madie.cms.gov/Encounter/901d2f21-d6e6-4f4e-b1bb-d65ec80bc5b7",
    "resource": {
      "resourceType": "Encounter",
      "id": "901d2f21-d6e6-4f4e-b1bb-d65ec80bc5b7",
      "meta": {
        "profile": [ "http://hl7.org/fhir/us/qicore/StructureDefinition/qicore-encounter" ]
      },
      "status": "finished",
      "class": {
        "system": "http://terminology.hl7.org/CodeSystem/v3-ActCode",
        "code": "AMB",
        "display": "ambulatory"
      },
      "type": [ {
        "coding": [ {
          "system": "http://www.ama-assn.org/go/cpt",
          "code": "99393",
          "display": "Periodic comprehensive preventive medicine reevaluation and management of an individual including an age and gender appropriate history, examination, counseling/anticipatory guidance/risk factor reduction interventions, and the ordering of laboratory/diagnostic procedures, established patient; late childhood (age 5 through 11 years)"
        } ]
      } ],
      "subject": {
        "reference": "Patient/d95789b9-f144-43e7-81c6-fed3adba5d8f"
      },
      "period": {
        "start": "2026-01-01T00:00:00.000+00:00",
        "end": "2026-01-01T01:00:00.000+00:00"
      }
    },
    "request": {
      "method": "PUT",
      "url": "Encounter/901d2f21-d6e6-4f4e-b1bb-d65ec80bc5b7"
    }
  }, {
    "fullUrl": "https://madie.cms.gov/MedicationRequest/30e83090-b858-4b95-8340-7f217c5408c0",
    "resource": {
      "resourceType": "MedicationRequest",
      "id": "30e83090-b858-4b95-8340-7f217c5408c0",
      "meta": {
        "profile": [ "http://hl7.org/fhir/us/qicore/StructureDefinition/qicore-medicationrequest" ]
      },
      "status": "completed",
      "intent": "order",
      "medicationCodeableConcept": {
        "coding": [ {
          "system": "http://www.nlm.nih.gov/research/umls/rxnorm",
          "code": "884173",
          "display": "clonidine hydrochloride 0.1 MG Oral Tablet"
        } ]
      },
      "subject": {
        "reference": "Patient/d95789b9-f144-43e7-81c6-fed3adba5d8f"
      },
      "authoredOn": "2026-01-01T00:00:00.000+00:00",
      "requester": {
        "reference": "Practitioner/example"
      },
      "dosageInstruction": [ {
        "timing": {
          "repeat": {
            "boundsPeriod": {
              "start": "2026-01-01T00:00:00.000+00:00",
              "end": "2026-03-31T23:59:59.000+00:00"
            }
          }
        }
      } ],
      "dispenseRequest": {
        "expectedSupplyDuration": {
          "value": 90,
          "system": "http://unitsofmeasure.org",
          "code": "d"
        }
      }
    },
    "request": {
      "method": "PUT",
      "url": "MedicationRequest/30e83090-b858-4b95-8340-7f217c5408c0"
    }
  }, {
    "fullUrl": "https://madie.cms.gov/Encounter/20eae681-e7d4-44a2-84ab-9014afd04002",
    "resource": {
      "resourceType": "Encounter",
      "id": "20eae681-e7d4-44a2-84ab-9014afd04002",
      "meta": {
        "profile": [ "http://hl7.org/fhir/us/qicore/StructureDefinition/qicore-encounter" ]
      },
      "status": "finished",
      "class": {
        "system": "http://terminology.hl7.org/CodeSystem/v3-ActCode",
        "code": "AMB",
        "display": "ambulatory"
      },
      "type": [ {
        "coding": [ {
          "system": "http://snomed.info/sct",
          "code": "32485007",
          "display": "Hospital admission (procedure)"
        } ]
      } ],
      "subject": {
        "reference": "Patient/d95789b9-f144-43e7-81c6-fed3adba5d8f"
      },
      "period": {
        "start": "2025-12-31T23:59:59.000+00:00",
        "end": "2026-01-01T01:00:00.000+00:00"
      },
      "hospitalization": {
        "dischargeDisposition": {
          "coding": [ {
            "system": "http://snomed.info/sct",
            "code": "428361000124107",
            "display": "Discharge to home for hospice care (procedure)"
          } ]
        }
      }
    },
    "request": {
      "method": "PUT",
      "url": "Encounter/20eae681-e7d4-44a2-84ab-9014afd04002"
    }
  }, {
    "fullUrl": "https://madie.cms.gov/MeasureReport/ce74b3ee-e4db-4dd0-b489-c946a0e96df5",
    "resource": {
      "resourceType": "MeasureReport",
      "id": "ce74b3ee-e4db-4dd0-b489-c946a0e96df5",
      "meta": {
        "profile": [ "http://hl7.org/fhir/us/cqfmeasures/StructureDefinition/test-case-cqfm" ]
      },
      "contained": [ {
        "resourceType": "Parameters",
        "id": "dfc6780b-8ebe-4a09-b0ce-41bf533aa366-parameters",
        "parameter": [ {
          "name": "subject",
          "valueString": "d95789b9-f144-43e7-81c6-fed3adba5d8f"
        } ]
      } ],
      "extension": [ {
        "url": "http://hl7.org/fhir/StructureDefinition/cqf-inputParameters",
        "valueReference": {
          "reference": "#dfc6780b-8ebe-4a09-b0ce-41bf533aa366-parameters"
        }
      }, {
        "url": "http://hl7.org/fhir/us/cqfmeasures/StructureDefinition/cqfm-testCaseDescription",
        "valueMarkdown": "Hospice discharge to home during the MP"
      } ],
      "modifierExtension": [ {
        "url": "http://hl7.org/fhir/us/cqfmeasures/StructureDefinition/cqfm-isTestCase",
        "valueBoolean": true
      } ],
      "status": "complete",
      "type": "individual",
      "measure": "https://madie.cms.gov/Measure/CMS136FHIRChildADHDMedFollowUp",
      "period": {
        "start": "2026-01-01",
        "end": "2026-12-31"
      },
      "group": [ {
        "id": "Group_1",
        "population": [ {
          "id": "InitialPopulation_1",
          "code": {
            "coding": [ {
              "system": "http://terminology.hl7.org/CodeSystem/measure-population",
              "code": "initial-population",
              "display": "Initial Population"
            } ]
          },
          "count": 1
        }, {
          "id": "Denominator_1",
          "code": {
            "coding": [ {
              "system": "http://terminology.hl7.org/CodeSystem/measure-population",
              "code": "denominator",
              "display": "Denominator"
            } ]
          },
          "count": 1
        }, {
          "id": "DenominatorExclusion_1",
          "code": {
            "coding": [ {
              "system": "http://terminology.hl7.org/CodeSystem/measure-population",
              "code": "denominator-exclusion",
              "display": "Denominator Exclusion"
            } ]
          },
          "count": 1
        }, {
          "id": "Numerator_1",
          "code": {
            "coding": [ {
              "system": "http://terminology.hl7.org/CodeSystem/measure-population",
              "code": "numerator",
              "display": "Numerator"
            } ]
          },
          "count": 0
        } ],
        "measureScore": {
          "value": 1.0
        }
      }, {
        "id": "Group_2",
        "population": [ {
          "id": "InitialPopulation_2",
          "code": {
            "coding": [ {
              "system": "http://terminology.hl7.org/CodeSystem/measure-population",
              "code": "initial-population",
              "display": "Initial Population"
            } ]
          },
          "count": 0
        }, {
          "id": "Denominator_2",
          "code": {
            "coding": [ {
              "system": "http://terminology.hl7.org/CodeSystem/measure-population",
              "code": "denominator",
              "display": "Denominator"
            } ]
          },
          "count": 0
        }, {
          "id": "DenominatorExclusion_2",
          "code": {
            "coding": [ {
              "system": "http://terminology.hl7.org/CodeSystem/measure-population",
              "code": "denominator-exclusion",
              "display": "Denominator Exclusion"
            } ]
          },
          "count": 0
        }, {
          "id": "Numerator_2",
          "code": {
            "coding": [ {
              "system": "http://terminology.hl7.org/CodeSystem/measure-population",
              "code": "numerator",
              "display": "Numerator"
            } ]
          },
          "count": 0
        } ],
        "measureScore": {
          "value": 1.0
        }
      } ],
      "evaluatedResource": [ {
        "reference": "Patient/d95789b9-f144-43e7-81c6-fed3adba5d8f"
      }, {
        "reference": "Encounter/901d2f21-d6e6-4f4e-b1bb-d65ec80bc5b7"
      }, {
        "reference": "MedicationRequest/30e83090-b858-4b95-8340-7f217c5408c0"
      }, {
        "reference": "Encounter/20eae681-e7d4-44a2-84ab-9014afd04002"
      } ]
    },
    "request": {
      "method": "PUT",
      "url": "MeasureReport/ce74b3ee-e4db-4dd0-b489-c946a0e96df5"
    }
  } ]
}