{
  "resourceType": "Bundle",
  "id": "NUMPass-70-on-Jan1-1",
  "type": "transaction",
  "entry": [ {
    "fullUrl": "https://madie.cms.gov/Patient/5f74f583-38a0-496e-8c39-d4a410d06450",
    "resource": {
      "resourceType": "Patient",
      "id": "5f74f583-38a0-496e-8c39-d4a410d06450",
      "meta": {
        "profile": [ "http://hl7.org/fhir/us/qicore/StructureDefinition/qicore-patient" ]
      },
      "extension": [ {
        "url": "http://hl7.org/fhir/us/core/StructureDefinition/us-core-race",
        "extension": [ {
          "url": "ombCategory",
          "valueCoding": {
            "system": "urn:oid:2.16.840.1.113883.6.238",
            "code": "2028-9",
            "display": "Asian"
          }
        }, {
          "url": "text",
          "valueString": "Asian"
        } ]
      }, {
        "url": "http://hl7.org/fhir/us/core/StructureDefinition/us-core-ethnicity",
        "extension": [ {
          "url": "ombCategory",
          "valueCoding": {
            "system": "urn:oid:2.16.840.1.113883.6.238",
            "code": "2186-5",
            "display": "Not Hispanic or Latino"
          }
        }, {
          "url": "text",
          "valueString": "Not Hispanic or Latino"
        } ]
      } ],
      "identifier": [ {
        "system": "http://hospital.smarthealthit.org",
        "value": "999999995"
      } ],
      "name": [ {
        "family": "NUMPass",
        "given": [ "NUMPass-70-on-Jan1-1" ]
      } ],
      "gender": "male",
      "birthDate": "1956-01-01"
    },
    "request": {
      "method": "PUT",
      "url": "Patient/5f74f583-38a0-496e-8c39-d4a410d06450"
    }
  }, {
    "fullUrl": "https://madie.cms.gov/Encounter/5920a0e6-4fdb-4302-bc93-f4bbb11667b3",
    "resource": {
      "resourceType": "Encounter",
      "id": "5920a0e6-4fdb-4302-bc93-f4bbb11667b3",
      "meta": {
        "profile": [ "http://hl7.org/fhir/us/qicore/StructureDefinition/qicore-encounter" ]
      },
      "status": "finished",
      "class": {
        "system": "http://terminology.hl7.org/CodeSystem/v3-ActCode",
        "code": "AMB",
        "display": "ambulatory"
      },
      "type": [ {
        "coding": [ {
          "system": "http://snomed.info/sct",
          "code": "11429006"
        } ]
      } ],
      "subject": {
        "reference": "Patient/5f74f583-38a0-496e-8c39-d4a410d06450"
      },
      "period": {
        "start": "2026-01-04T08:00:00.000+00:00",
        "end": "2026-01-04T08:00:00.000+00:00"
      }
    },
    "request": {
      "method": "PUT",
      "url": "Encounter/5920a0e6-4fdb-4302-bc93-f4bbb11667b3"
    }
  }, {
    "fullUrl": "https://madie.cms.gov/Encounter/b5939928-9a1a-4347-9eea-9c7798b49b65",
    "resource": {
      "resourceType": "Encounter",
      "id": "b5939928-9a1a-4347-9eea-9c7798b49b65",
      "meta": {
        "profile": [ "http://hl7.org/fhir/us/qicore/StructureDefinition/qicore-encounter" ]
      },
      "status": "finished",
      "class": {
        "system": "http://terminology.hl7.org/CodeSystem/v3-ActCode",
        "code": "AMB",
        "display": "ambulatory"
      },
      "type": [ {
        "coding": [ {
          "system": "http://www.ama-assn.org/go/cpt",
          "code": "99203",
          "display": "Office or other outpatient visit for the evaluation and management of a new patient, which requires a medically appropriate history and/or examination and low level of medical decision making. When using time for code selection, 30-44 minutes of total time is spent on the date of the encounter."
        } ]
      } ],
      "subject": {
        "reference": "Patient/5f74f583-38a0-496e-8c39-d4a410d06450"
      },
      "period": {
        "start": "2026-01-04T08:00:00.000+00:00",
        "end": "2026-01-04T08:00:00.000+00:00"
      }
    },
    "request": {
      "method": "PUT",
      "url": "Encounter/b5939928-9a1a-4347-9eea-9c7798b49b65"
    }
  }, {
    "fullUrl": "https://madie.cms.gov/Observation/2fb2be17-1aab-4967-aa93-95d7ceaa1e6a",
    "resource": {
      "resourceType": "Observation",
      "id": "2fb2be17-1aab-4967-aa93-95d7ceaa1e6a",
      "meta": {
        "profile": [ "http://hl7.org/fhir/us/core/StructureDefinition/us-core-bmi" ]
      },
      "status": "final",
      "category": [ {
        "coding": [ {
          "system": "http://terminology.hl7.org/CodeSystem/observation-category",
          "code": "vital-signs",
          "display": "Vital Signs"
        } ]
      } ],
      "code": {
        "coding": [ {
          "system": "http://loinc.org",
          "code": "39156-5",
          "display": "Body mass index (BMI) [Ratio]"
        } ]
      },
      "subject": {
        "reference": "Patient/5f74f583-38a0-496e-8c39-d4a410d06450"
      },
      "effectiveDateTime": "2026-01-04T08:00:00.000+00:00",
      "issued": "2026-01-04T08:00:00.000+00:00",
      "valueQuantity": {
        "value": 23,
        "unit": "kg/m2",
        "system": "http://unitsofmeasure.org",
        "code": "kg/m2"
      }
    },
    "request": {
      "method": "PUT",
      "url": "Observation/2fb2be17-1aab-4967-aa93-95d7ceaa1e6a"
    }
  }, {
    "fullUrl": "https://madie.cms.gov/Condition/e5332d7b-6449-4e5a-9b88-84aaeae4d994",
    "resource": {
      "resourceType": "Condition",
      "id": "e5332d7b-6449-4e5a-9b88-84aaeae4d994",
      "meta": {
        "profile": [ "http://hl7.org/fhir/us/qicore/StructureDefinition/qicore-condition-problems-health-concerns" ]
      },
      "clinicalStatus": {
        "coding": [ {
          "system": "http://terminology.hl7.org/CodeSystem/condition-clinical",
          "code": "active",
          "display": "active",
          "userSelected": true
        } ]
      },
      "category": [ {
        "coding": [ {
          "system": "http://terminology.hl7.org/CodeSystem/condition-category",
          "code": "problem-list-item",
          "display": "Problem List Item"
        } ]
      } ],
      "code": {
        "coding": [ {
          "system": "http://snomed.info/sct",
          "code": "714628002"
        } ]
      },
      "subject": {
        "reference": "Patient/5f74f583-38a0-496e-8c39-d4a410d06450"
      },
      "onsetDateTime": "2024-01-02T00:00:00.000+00:00"
    },
    "request": {
      "method": "PUT",
      "url": "Condition/e5332d7b-6449-4e5a-9b88-84aaeae4d994"
    }
  }, {
    "fullUrl": "https://madie.cms.gov/MeasureReport/d2371cf4-9017-40c1-93c7-d249e75b285f",
    "resource": {
      "resourceType": "MeasureReport",
      "id": "d2371cf4-9017-40c1-93c7-d249e75b285f",
      "meta": {
        "profile": [ "http://hl7.org/fhir/us/cqfmeasures/StructureDefinition/test-case-cqfm" ]
      },
      "contained": [ {
        "resourceType": "Parameters",
        "id": "b427ae12-5038-4494-9033-b6b976ceadee-parameters",
        "parameter": [ {
          "name": "subject",
          "valueString": "5f74f583-38a0-496e-8c39-d4a410d06450"
        } ]
      } ],
      "extension": [ {
        "url": "http://hl7.org/fhir/StructureDefinition/cqf-inputParameters",
        "valueReference": {
          "reference": "#b427ae12-5038-4494-9033-b6b976ceadee-parameters"
        }
      }, {
        "url": "http://hl7.org/fhir/us/cqfmeasures/StructureDefinition/cqfm-testCaseDescription",
        "valueMarkdown": "DENEX-prediabetes-diagnosis-dayoftestJan2-startofLB"
      } ],
      "modifierExtension": [ {
        "url": "http://hl7.org/fhir/us/cqfmeasures/StructureDefinition/cqfm-isTestCase",
        "valueBoolean": true
      } ],
      "status": "complete",
      "type": "individual",
      "measure": "https://madie.cms.gov/Measure/CMS1154ScreeningPrediabetesFHIR",
      "period": {
        "start": "2026-01-01",
        "end": "2026-12-31"
      },
      "group": [ {
        "id": "Group_1",
        "population": [ {
          "id": "InitialPopulation_1",
          "code": {
            "coding": [ {
              "system": "http://terminology.hl7.org/CodeSystem/measure-population",
              "code": "initial-population",
              "display": "Initial Population"
            } ]
          },
          "count": 1
        }, {
          "id": "Denominator_1",
          "code": {
            "coding": [ {
              "system": "http://terminology.hl7.org/CodeSystem/measure-population",
              "code": "denominator",
              "display": "Denominator"
            } ]
          },
          "count": 1
        }, {
          "id": "DenominatorExclusion_1",
          "code": {
            "coding": [ {
              "system": "http://terminology.hl7.org/CodeSystem/measure-population",
              "code": "denominator-exclusion",
              "display": "Denominator Exclusion"
            } ]
          },
          "count": 1
        }, {
          "id": "Numerator_1",
          "code": {
            "coding": [ {
              "system": "http://terminology.hl7.org/CodeSystem/measure-population",
              "code": "numerator",
              "display": "Numerator"
            } ]
          },
          "count": 0
        } ],
        "measureScore": {
          "value": 1.0
        }
      } ],
      "evaluatedResource": [ {
        "reference": "Patient/5f74f583-38a0-496e-8c39-d4a410d06450"
      }, {
        "reference": "Encounter/5920a0e6-4fdb-4302-bc93-f4bbb11667b3"
      }, {
        "reference": "Encounter/b5939928-9a1a-4347-9eea-9c7798b49b65"
      }, {
        "reference": "Observation/2fb2be17-1aab-4967-aa93-95d7ceaa1e6a"
      }, {
        "reference": "Condition/e5332d7b-6449-4e5a-9b88-84aaeae4d994"
      } ]
    },
    "request": {
      "method": "PUT",
      "url": "MeasureReport/d2371cf4-9017-40c1-93c7-d249e75b285f"
    }
  } ]
}