{
  "resourceType": "Bundle",
  "id": "63487c2d0968f8012254015e",
  "type": "transaction",
  "entry": [ {
    "fullUrl": "https://madie.cms.gov/Patient/d0a65261-add9-4696-80c1-4c210eab58bc",
    "resource": {
      "resourceType": "Patient",
      "id": "d0a65261-add9-4696-80c1-4c210eab58bc",
      "meta": {
        "profile": [ "http://hl7.org/fhir/us/qicore/StructureDefinition/qicore-patient" ]
      },
      "text": {
        "status": "generated",
        "div": "<div xmlns=\"http://www.w3.org/1999/xhtml\"><div class=\"hapiHeaderText\">AssessTerm0RelDateEQ42wk1MinB4TimeOfDeliv<b>DENOMFail</b></div><table class=\"hapiPropertyTable\"><tbody><tr><td>Identifier</td><td>471dbe485040e70d089fc9c9b33b02d66b94c84eb0f888d16ec71b1a1a2ae0b0</td></tr><tr><td>Date of birth</td><td><span>14 February 1985</span></td></tr></tbody></table></div>"
      },
      "extension": [ {
        "url": "http://hl7.org/fhir/us/core/StructureDefinition/us-core-race",
        "extension": [ {
          "url": "ombCategory",
          "valueCoding": {
            "system": "urn:oid:2.16.840.1.113883.6.238",
            "code": "1002-5",
            "display": "American Indian or Alaska Native",
            "userSelected": true
          }
        }, {
          "url": "text",
          "valueString": "American Indian or Alaska Native"
        } ]
      }, {
        "url": "http://hl7.org/fhir/us/core/StructureDefinition/us-core-ethnicity",
        "extension": [ {
          "url": "ombCategory",
          "valueCoding": {
            "system": "urn:oid:2.16.840.1.113883.6.238",
            "code": "2135-2",
            "display": "Hispanic or Latino",
            "userSelected": true
          }
        }, {
          "url": "text",
          "valueString": "Hispanic or Latino"
        } ]
      } ],
      "identifier": [ {
        "type": {
          "coding": [ {
            "system": "http://terminology.hl7.org/CodeSystem/v2-0203",
            "code": "MR"
          } ]
        },
        "system": "https://bonnie-fhir.healthit.gov/",
        "value": "63487c2d0968f8012254015e"
      } ],
      "active": true,
      "name": [ {
        "use": "usual",
        "family": "DENOMFail",
        "given": [ "AssessTerm0RelDateEQ42wk1MinB4TimeOfDeliv" ]
      } ],
      "gender": "female",
      "birthDate": "1998-02-14"
    },
    "request": {
      "method": "PUT",
      "url": "Patient/d0a65261-add9-4696-80c1-4c210eab58bc"
    }
  }, {
    "fullUrl": "https://madie.cms.gov/Observation/6c6d1e66-239c-47cc-8b83-461ddaa61ee5",
    "resource": {
      "resourceType": "Observation",
      "id": "6c6d1e66-239c-47cc-8b83-461ddaa61ee5",
      "meta": {
        "profile": [ "http://hl7.org/fhir/us/qicore/StructureDefinition/qicore-simple-observation" ]
      },
      "status": "final",
      "category": [ {
        "coding": [ {
          "system": "http://terminology.hl7.org/CodeSystem/observation-category",
          "code": "exam",
          "display": "exam",
          "userSelected": true
        } ]
      } ],
      "code": {
        "coding": [ {
          "system": "http://loinc.org",
          "code": "11639-2"
        } ]
      },
      "subject": {
        "reference": "Patient/d0a65261-add9-4696-80c1-4c210eab58bc"
      },
      "effectiveDateTime": "2025-08-14T18:59:00.000+00:00",
      "valueInteger": 0
    },
    "request": {
      "method": "PUT",
      "url": "Observation/6c6d1e66-239c-47cc-8b83-461ddaa61ee5"
    }
  }, {
    "fullUrl": "https://madie.cms.gov/Observation/827e8881-1fce-4aba-9729-96a78501b9ea",
    "resource": {
      "resourceType": "Observation",
      "id": "827e8881-1fce-4aba-9729-96a78501b9ea",
      "meta": {
        "profile": [ "http://hl7.org/fhir/us/qicore/StructureDefinition/qicore-simple-observation" ]
      },
      "status": "final",
      "category": [ {
        "coding": [ {
          "system": "http://terminology.hl7.org/CodeSystem/observation-category",
          "code": "exam",
          "display": "exam",
          "userSelected": true
        } ]
      } ],
      "code": {
        "coding": [ {
          "system": "http://loinc.org",
          "code": "11637-6"
        } ]
      },
      "subject": {
        "reference": "Patient/d0a65261-add9-4696-80c1-4c210eab58bc"
      },
      "effectiveDateTime": "2025-08-19T19:01:00.000+00:00",
      "valueInteger": 0
    },
    "request": {
      "method": "PUT",
      "url": "Observation/827e8881-1fce-4aba-9729-96a78501b9ea"
    }
  }, {
    "fullUrl": "https://madie.cms.gov/Observation/7b81236e-132f-4035-94d3-56cb001c66bb",
    "resource": {
      "resourceType": "Observation",
      "id": "7b81236e-132f-4035-94d3-56cb001c66bb",
      "meta": {
        "profile": [ "http://hl7.org/fhir/us/qicore/StructureDefinition/qicore-simple-observation" ]
      },
      "status": "final",
      "category": [ {
        "coding": [ {
          "system": "http://terminology.hl7.org/CodeSystem/observation-category",
          "code": "exam",
          "display": "exam",
          "userSelected": true
        } ]
      } ],
      "code": {
        "coding": [ {
          "system": "http://loinc.org",
          "code": "11884-4"
        } ]
      },
      "subject": {
        "reference": "Patient/d0a65261-add9-4696-80c1-4c210eab58bc"
      },
      "effectiveDateTime": "2026-06-08T19:00:00.000+00:00",
      "valueQuantity": {
        "value": 37,
        "system": "http://unitsofmeasure.org",
        "code": "wk"
      }
    },
    "request": {
      "method": "PUT",
      "url": "Observation/7b81236e-132f-4035-94d3-56cb001c66bb"
    }
  }, {
    "fullUrl": "https://madie.cms.gov/Observation/e1a2158d-bfbb-4e7d-b003-538e75088d73",
    "resource": {
      "resourceType": "Observation",
      "id": "e1a2158d-bfbb-4e7d-b003-538e75088d73",
      "meta": {
        "profile": [ "http://hl7.org/fhir/us/qicore/StructureDefinition/qicore-simple-observation" ]
      },
      "status": "final",
      "category": [ {
        "coding": [ {
          "system": "http://terminology.hl7.org/CodeSystem/observation-category",
          "code": "exam",
          "display": "exam",
          "userSelected": true
        } ]
      } ],
      "code": {
        "coding": [ {
          "system": "http://loinc.org",
          "code": "93857-1"
        } ]
      },
      "subject": {
        "reference": "Patient/d0a65261-add9-4696-80c1-4c210eab58bc"
      },
      "effectiveDateTime": "2026-06-08T19:00:00.000+00:00",
      "valueDateTime": "2026-06-08T19:00:00.000+00:00"
    },
    "request": {
      "method": "PUT",
      "url": "Observation/e1a2158d-bfbb-4e7d-b003-538e75088d73"
    }
  }, {
    "fullUrl": "https://madie.cms.gov/Encounter/11f3fbd4-5e8d-42e4-b72e-5811355bee1b",
    "resource": {
      "resourceType": "Encounter",
      "id": "11f3fbd4-5e8d-42e4-b72e-5811355bee1b",
      "meta": {
        "profile": [ "http://hl7.org/fhir/us/qicore/StructureDefinition/qicore-encounter" ]
      },
      "status": "finished",
      "class": {
        "system": "http://terminology.hl7.org/CodeSystem/v3-ActCode",
        "code": "IMP",
        "display": "inpatient encounter"
      },
      "type": [ {
        "coding": [ {
          "system": "http://snomed.info/sct",
          "code": "8715000"
        } ]
      } ],
      "subject": {
        "reference": "Patient/d0a65261-add9-4696-80c1-4c210eab58bc"
      },
      "period": {
        "start": "2026-06-08T08:00:00.000+00:00",
        "end": "2026-06-10T08:15:00.000+00:00"
      },
      "length": {
        "value": 2,
        "unit": "days"
      },
      "reasonReference": [ {
        "reference": "Condition/81de552c-c894-4f92-9eff-2277dada8a78"
      } ]
    },
    "request": {
      "method": "PUT",
      "url": "Encounter/11f3fbd4-5e8d-42e4-b72e-5811355bee1b"
    }
  }, {
    "fullUrl": "https://madie.cms.gov/Procedure/80d7ef40-9419-479e-bc38-718b7b160a61",
    "resource": {
      "resourceType": "Procedure",
      "id": "80d7ef40-9419-479e-bc38-718b7b160a61",
      "meta": {
        "profile": [ "http://hl7.org/fhir/us/qicore/StructureDefinition/qicore-procedure" ]
      },
      "extension": [ {
        "url": "http://hl7.org/fhir/us/qicore/StructureDefinition/qicore-recorded",
        "valueDateTime": "2014-04-05T13:35:00.000+00:00"
      } ],
      "status": "completed",
      "code": {
        "coding": [ {
          "system": "http://www.cms.gov/Medicare/Coding/ICD10",
          "code": "10D00Z0"
        }, {
          "system": "http://snomed.info/sct",
          "code": "4504004"
        } ]
      },
      "subject": {
        "reference": "Patient/d0a65261-add9-4696-80c1-4c210eab58bc"
      },
      "performedPeriod": {
        "start": "2026-06-08T20:00:00.000+00:00",
        "end": "2026-06-08T20:15:00.000+00:00"
      }
    },
    "request": {
      "method": "PUT",
      "url": "Procedure/80d7ef40-9419-479e-bc38-718b7b160a61"
    }
  }, {
    "fullUrl": "https://madie.cms.gov/Condition/81de552c-c894-4f92-9eff-2277dada8a78",
    "resource": {
      "resourceType": "Condition",
      "id": "81de552c-c894-4f92-9eff-2277dada8a78",
      "meta": {
        "profile": [ "http://hl7.org/fhir/us/qicore/StructureDefinition/qicore-condition-encounter-diagnosis" ]
      },
      "category": [ {
        "coding": [ {
          "system": "http://terminology.hl7.org/CodeSystem/condition-category",
          "code": "encounter-diagnosis",
          "display": "Encounter Diagnosis"
        } ]
      } ],
      "code": {
        "coding": [ {
          "system": "http://snomed.info/sct",
          "version": "2022-09",
          "code": "169826009",
          "display": "Single live birth from singleton pregnancy (finding)",
          "userSelected": true
        } ]
      },
      "subject": {
        "reference": "Patient/d0a65261-add9-4696-80c1-4c210eab58bc"
      },
      "encounter": {
        "reference": "Encounter/11f3fbd4-5e8d-42e4-b72e-5811355bee1b"
      },
      "recordedDate": "2026-10-21T08:00:00.000+00:00"
    },
    "request": {
      "method": "PUT",
      "url": "Condition/81de552c-c894-4f92-9eff-2277dada8a78"
    }
  }, {
    "fullUrl": "https://madie.cms.gov/Coverage/99e9a474-9480-46a8-96eb-3d7d78b4d3b7",
    "resource": {
      "resourceType": "Coverage",
      "id": "99e9a474-9480-46a8-96eb-3d7d78b4d3b7",
      "meta": {
        "profile": [ "http://hl7.org/fhir/us/qicore/StructureDefinition/qicore-coverage" ]
      },
      "status": "active",
      "subscriberId": "523435",
      "beneficiary": {
        "reference": "Patient/d0a65261-add9-4696-80c1-4c210eab58bc"
      },
      "relationship": {
        "coding": [ {
          "system": "http://terminology.hl7.org/CodeSystem/subscriber-relationship",
          "code": "self"
        } ]
      },
      "payor": [ {
        "reference": "Organization/ccf16ef9-9e7f-4897-a127-7c31dfe1e39a"
      } ]
    },
    "request": {
      "method": "PUT",
      "url": "Coverage/99e9a474-9480-46a8-96eb-3d7d78b4d3b7"
    }
  }, {
    "fullUrl": "https://madie.cms.gov/Organization/ccf16ef9-9e7f-4897-a127-7c31dfe1e39a",
    "resource": {
      "resourceType": "Organization",
      "id": "ccf16ef9-9e7f-4897-a127-7c31dfe1e39a",
      "meta": {
        "profile": [ "http://hl7.org/fhir/us/qicore/StructureDefinition/qicore-organization" ]
      },
      "identifier": [ {
        "use": "temp",
        "system": "urn:oid:2.16.840.1.113883.4.4",
        "value": "21-3259825"
      } ],
      "active": true,
      "type": [ {
        "coding": [ {
          "system": "http://terminology.hl7.org/CodeSystem/organization-type",
          "code": "pay",
          "display": "Payer"
        } ]
      } ],
      "name": "Blue Cross Blue Shield of Texas",
      "telecom": [ {
        "system": "phone",
        "value": "(+1) 972-766-6900"
      } ],
      "address": [ {
        "use": "billing",
        "type": "postal",
        "line": [ "P.O. Box 660044" ],
        "city": "Dallas",
        "state": "TX",
        "postalCode": "75266-0044",
        "country": "USA"
      } ]
    },
    "request": {
      "method": "PUT",
      "url": "Organization/ccf16ef9-9e7f-4897-a127-7c31dfe1e39a"
    }
  }, {
    "fullUrl": "https://madie.cms.gov/Practitioner/9af2bae1-2db3-4c2f-ad11-d1415d6e48ad",
    "resource": {
      "resourceType": "Practitioner",
      "id": "9af2bae1-2db3-4c2f-ad11-d1415d6e48ad",
      "meta": {
        "profile": [ "http://hl7.org/fhir/us/qicore/StructureDefinition/qicore-practitioner" ]
      },
      "identifier": [ {
        "system": "http://hl7.org/fhir/sid/us-npi",
        "value": "1234567890"
      } ],
      "name": [ {
        "family": "Evil",
        "prefix": [ "Dr" ]
      } ]
    },
    "request": {
      "method": "PUT",
      "url": "Practitioner/9af2bae1-2db3-4c2f-ad11-d1415d6e48ad"
    }
  }, {
    "fullUrl": "https://madie.cms.gov/MeasureReport/bdd877e7-4f3e-47f3-9948-fd649dc4f136",
    "resource": {
      "resourceType": "MeasureReport",
      "id": "bdd877e7-4f3e-47f3-9948-fd649dc4f136",
      "meta": {
        "profile": [ "http://hl7.org/fhir/us/cqfmeasures/StructureDefinition/test-case-cqfm" ]
      },
      "contained": [ {
        "resourceType": "Parameters",
        "id": "de3bb4b1-e713-42a2-ab38-aca525a6040f-parameters",
        "parameter": [ {
          "name": "subject",
          "valueString": "d0a65261-add9-4696-80c1-4c210eab58bc"
        } ]
      } ],
      "extension": [ {
        "url": "http://hl7.org/fhir/StructureDefinition/cqf-inputParameters",
        "valueReference": {
          "reference": "#de3bb4b1-e713-42a2-ab38-aca525a6040f-parameters"
        }
      }, {
        "url": "http://hl7.org/fhir/us/cqfmeasures/StructureDefinition/cqfm-testCaseDescription",
        "valueMarkdown": "\"Preterm Births=0, authored < 42weeks prior to Asse delivery \nTerm Newborn=0, authored, 42weeks, 1 min prior to Asse delivery\"\n"
      } ],
      "modifierExtension": [ {
        "url": "http://hl7.org/fhir/us/cqfmeasures/StructureDefinition/cqfm-isTestCase",
        "valueBoolean": true
      } ],
      "status": "complete",
      "type": "individual",
      "measure": "https://madie.cms.gov/Measure/CMS0334FHIRPCCesareanBirth",
      "period": {
        "start": "2026-01-01",
        "end": "2026-12-31"
      },
      "group": [ {
        "id": "Group_1",
        "population": [ {
          "id": "InitialPopulation_1",
          "code": {
            "coding": [ {
              "system": "http://terminology.hl7.org/CodeSystem/measure-population",
              "code": "initial-population",
              "display": "Initial Population"
            } ]
          },
          "count": 1
        }, {
          "id": "Denominator_1",
          "code": {
            "coding": [ {
              "system": "http://terminology.hl7.org/CodeSystem/measure-population",
              "code": "denominator",
              "display": "Denominator"
            } ]
          },
          "count": 0
        }, {
          "id": "DenominatorExclusion_1",
          "code": {
            "coding": [ {
              "system": "http://terminology.hl7.org/CodeSystem/measure-population",
              "code": "denominator-exclusion",
              "display": "Denominator Exclusion"
            } ]
          },
          "count": 0
        }, {
          "id": "Numerator_1",
          "code": {
            "coding": [ {
              "system": "http://terminology.hl7.org/CodeSystem/measure-population",
              "code": "numerator",
              "display": "Numerator"
            } ]
          },
          "count": 0
        } ],
        "measureScore": {
          "value": 0.0
        }
      } ],
      "evaluatedResource": [ {
        "reference": "Patient/d0a65261-add9-4696-80c1-4c210eab58bc"
      }, {
        "reference": "Observation/6c6d1e66-239c-47cc-8b83-461ddaa61ee5"
      }, {
        "reference": "Observation/827e8881-1fce-4aba-9729-96a78501b9ea"
      }, {
        "reference": "Observation/7b81236e-132f-4035-94d3-56cb001c66bb"
      }, {
        "reference": "Observation/e1a2158d-bfbb-4e7d-b003-538e75088d73"
      }, {
        "reference": "Encounter/11f3fbd4-5e8d-42e4-b72e-5811355bee1b"
      }, {
        "reference": "Procedure/80d7ef40-9419-479e-bc38-718b7b160a61"
      }, {
        "reference": "Condition/81de552c-c894-4f92-9eff-2277dada8a78"
      }, {
        "reference": "Coverage/99e9a474-9480-46a8-96eb-3d7d78b4d3b7"
      }, {
        "reference": "Organization/ccf16ef9-9e7f-4897-a127-7c31dfe1e39a"
      }, {
        "reference": "Practitioner/9af2bae1-2db3-4c2f-ad11-d1415d6e48ad"
      } ]
    },
    "request": {
      "method": "PUT",
      "url": "MeasureReport/bdd877e7-4f3e-47f3-9948-fd649dc4f136"
    }
  } ]
}