{
  "resourceType": "Bundle",
  "id": "64a2f99b6bc362e28fa378ba",
  "type": "collection",
  "entry": [ {
    "fullUrl": "https://madie.cms.gov/Patient/7fafc4ad-74d9-48e7-b12e-d51a11030a14",
    "resource": {
      "resourceType": "Patient",
      "id": "7fafc4ad-74d9-48e7-b12e-d51a11030a14",
      "meta": {
        "profile": [ "http://hl7.org/fhir/us/qicore/StructureDefinition/qicore-patient" ]
      },
      "extension": [ {
        "url": "http://hl7.org/fhir/us/core/StructureDefinition/us-core-race",
        "extension": [ {
          "url": "ombCategory",
          "valueCoding": {
            "system": "urn:oid:2.16.840.1.113883.6.238",
            "code": "2054-5",
            "display": "Black or African American",
            "userSelected": true
          }
        }, {
          "url": "detailed",
          "valueCoding": {
            "system": "urn:oid:2.16.840.1.113883.6.238",
            "code": "2036-2",
            "display": "Filipino"
          }
        }, {
          "url": "text",
          "valueString": "Black or African American"
        } ]
      }, {
        "url": "http://hl7.org/fhir/us/core/StructureDefinition/us-core-ethnicity",
        "extension": [ {
          "url": "ombCategory",
          "valueCoding": {
            "system": "urn:oid:2.16.840.1.113883.6.238",
            "code": "2186-5",
            "display": "Not Hispanic or Latino",
            "userSelected": true
          }
        }, {
          "url": "detailed",
          "valueCoding": {
            "system": "urn:oid:2.16.840.1.113883.6.238",
            "code": "2184-0",
            "display": "Dominican"
          }
        }, {
          "url": "detailed",
          "valueCoding": {
            "system": "urn:oid:2.16.840.1.113883.6.238",
            "code": "2148-5",
            "display": "Mexican"
          }
        }, {
          "url": "text",
          "valueString": "Not Hispanic or Latino"
        } ]
      } ],
      "identifier": [ {
        "type": {
          "coding": [ {
            "system": "http://terminology.hl7.org/CodeSystem/v2-0203",
            "code": "MR"
          } ]
        },
        "system": "https://bonnie-fhir.healthit.gov/",
        "value": "64a2f99b6bc362e28fa378ba"
      } ],
      "name": [ {
        "family": "NumPass",
        "given": [ "AllLabTestsMultipleEnc" ]
      } ],
      "gender": "female",
      "birthDate": "2001-02-04"
    }
  }, {
    "fullUrl": "https://madie.cms.gov/Condition/d7fcfb0d-5842-4419-b794-94eed3dd968a",
    "resource": {
      "resourceType": "Condition",
      "id": "d7fcfb0d-5842-4419-b794-94eed3dd968a",
      "meta": {
        "profile": [ "http://hl7.org/fhir/us/qicore/StructureDefinition/qicore-condition-problems-health-concerns" ]
      },
      "clinicalStatus": {
        "coding": [ {
          "system": "http://terminology.hl7.org/CodeSystem/condition-clinical",
          "code": "active",
          "display": "active",
          "userSelected": true
        } ]
      },
      "category": [ {
        "coding": [ {
          "system": "http://terminology.hl7.org/CodeSystem/condition-category",
          "code": "problem-list-item",
          "display": "Problem List Item"
        } ]
      } ],
      "code": {
        "coding": [ {
          "system": "http://hl7.org/fhir/sid/icd-9-cm",
          "version": "2013",
          "code": "042",
          "display": "Human immunodeficiency virus [HIV] disease",
          "userSelected": true
        }, {
          "system": "http://snomed.info/sct",
          "version": "http://snomed.info/sct/731000124108/version/20250301",
          "code": "165816005",
          "userSelected": true
        } ]
      },
      "subject": {
        "reference": "Patient/7fafc4ad-74d9-48e7-b12e-d51a11030a14"
      },
      "onsetDateTime": "2018-09-28T08:00:00.000+00:00",
      "recordedDate": "2018-09-28T08:00:00.000+00:00"
    }
  }, {
    "fullUrl": "https://madie.cms.gov/Encounter/fc225ddc-b846-4403-83c6-99bc6bb17f8b",
    "resource": {
      "resourceType": "Encounter",
      "id": "fc225ddc-b846-4403-83c6-99bc6bb17f8b",
      "meta": {
        "profile": [ "http://hl7.org/fhir/us/qicore/StructureDefinition/qicore-encounter" ]
      },
      "status": "finished",
      "class": {
        "system": "http://terminology.hl7.org/CodeSystem/v3-ActCode",
        "code": "AMB",
        "display": "ambulatory"
      },
      "type": [ {
        "coding": [ {
          "system": "http://www.ama-assn.org/go/cpt",
          "version": "2023",
          "code": "99391",
          "display": "Periodic comprehensive preventive medicine reevaluation and management of an individual including an age and gender appropriate history, examination, counseling/anticipatory guidance/risk factor reduction interventions, and the ordering of laboratory/diagnostic procedures, established patient; infant (age younger than 1 year)",
          "userSelected": true
        } ]
      } ],
      "subject": {
        "reference": "Patient/7fafc4ad-74d9-48e7-b12e-d51a11030a14"
      },
      "period": {
        "start": "2026-09-29T08:00:00.000+00:00",
        "end": "2026-09-29T08:30:00.000+00:00"
      }
    }
  }, {
    "fullUrl": "https://madie.cms.gov/Observation/cd7de212-9ce4-4cf9-80cd-09bd406b0bd0",
    "resource": {
      "resourceType": "Observation",
      "id": "cd7de212-9ce4-4cf9-80cd-09bd406b0bd0",
      "meta": {
        "profile": [ "http://hl7.org/fhir/us/qicore/StructureDefinition/qicore-observation-lab" ]
      },
      "status": "final",
      "category": [ {
        "coding": [ {
          "system": "http://terminology.hl7.org/CodeSystem/observation-category",
          "code": "laboratory",
          "display": "Laboratory"
        } ]
      }, {
        "coding": [ {
          "system": "http://terminology.hl7.org/CodeSystem/observation-category",
          "code": "survey"
        } ]
      } ],
      "code": {
        "coding": [ {
          "system": "http://loinc.org",
          "version": "2.73",
          "code": "11084-1",
          "display": "Reagin Ab [Titer] in Serum",
          "userSelected": true
        } ]
      },
      "subject": {
        "reference": "Patient/7fafc4ad-74d9-48e7-b12e-d51a11030a14"
      },
      "effectivePeriod": {
        "start": "2026-08-30T08:00:00.000+00:00",
        "end": "2026-08-30T08:15:00.000+00:00"
      },
      "issued": "2026-08-30T08:00:00.000+00:00",
      "valueBoolean": true
    }
  }, {
    "fullUrl": "https://madie.cms.gov/Observation/5d44707b-6e6f-4f8a-9c2c-1b08e61b800a",
    "resource": {
      "resourceType": "Observation",
      "id": "5d44707b-6e6f-4f8a-9c2c-1b08e61b800a",
      "meta": {
        "profile": [ "http://hl7.org/fhir/us/qicore/StructureDefinition/qicore-observation-lab" ]
      },
      "status": "final",
      "category": [ {
        "coding": [ {
          "system": "http://terminology.hl7.org/CodeSystem/observation-category",
          "code": "laboratory",
          "display": "Laboratory"
        } ]
      }, {
        "coding": [ {
          "system": "http://terminology.hl7.org/CodeSystem/observation-category",
          "code": "survey"
        } ]
      } ],
      "code": {
        "coding": [ {
          "system": "http://loinc.org",
          "version": "2.73",
          "code": "14463-4",
          "display": "Chlamydia trachomatis [Presence] in Cervix by Organism specific culture",
          "userSelected": true
        } ]
      },
      "subject": {
        "reference": "Patient/7fafc4ad-74d9-48e7-b12e-d51a11030a14"
      },
      "effectivePeriod": {
        "start": "2026-08-30T08:00:00.000+00:00",
        "end": "2026-08-30T08:15:00.000+00:00"
      },
      "issued": "2026-08-30T08:00:00.000+00:00",
      "valueQuantity": {
        "value": 12
      }
    }
  }, {
    "fullUrl": "https://madie.cms.gov/Encounter/43c1148e-4298-435f-86d9-c3ed08c5647f",
    "resource": {
      "resourceType": "Encounter",
      "id": "43c1148e-4298-435f-86d9-c3ed08c5647f",
      "meta": {
        "profile": [ "http://hl7.org/fhir/us/qicore/StructureDefinition/qicore-encounter" ]
      },
      "status": "finished",
      "class": {
        "system": "http://terminology.hl7.org/CodeSystem/v3-ActCode",
        "code": "AMB",
        "display": "ambulatory"
      },
      "type": [ {
        "coding": [ {
          "system": "http://snomed.info/sct",
          "code": "30346009",
          "userSelected": true
        } ]
      } ],
      "subject": {
        "reference": "Patient/7fafc4ad-74d9-48e7-b12e-d51a11030a14"
      },
      "period": {
        "start": "2026-01-02T08:00:00.000+00:00",
        "end": "2026-01-02T08:45:00.000+00:00"
      }
    }
  }, {
    "fullUrl": "https://madie.cms.gov/Observation/4e7208b6-6a51-4cb3-a8d1-4c828a037d4c",
    "resource": {
      "resourceType": "Observation",
      "id": "4e7208b6-6a51-4cb3-a8d1-4c828a037d4c",
      "meta": {
        "profile": [ "http://hl7.org/fhir/us/qicore/StructureDefinition/qicore-observation-lab" ]
      },
      "status": "final",
      "category": [ {
        "coding": [ {
          "system": "http://terminology.hl7.org/CodeSystem/observation-category",
          "code": "laboratory",
          "display": "Laboratory"
        } ]
      }, {
        "coding": [ {
          "system": "http://terminology.hl7.org/CodeSystem/observation-category",
          "code": "survey"
        } ]
      } ],
      "code": {
        "coding": [ {
          "system": "http://loinc.org",
          "version": "2.73",
          "code": "21415-5",
          "display": "Neisseria gonorrhoeae DNA [Presence] in Urethra by NAA with probe detection",
          "userSelected": true
        } ]
      },
      "subject": {
        "reference": "Patient/7fafc4ad-74d9-48e7-b12e-d51a11030a14"
      },
      "effectivePeriod": {
        "start": "2026-08-30T08:00:00.000+00:00",
        "end": "2026-08-30T08:15:00.000+00:00"
      },
      "issued": "2026-08-30T08:00:00.000+00:00",
      "valueQuantity": {
        "value": 16
      }
    }
  }, {
    "fullUrl": "https://madie.cms.gov/Coverage/739357c5-eae9-4b6c-aa7c-598e7bbe6f05",
    "resource": {
      "resourceType": "Coverage",
      "id": "739357c5-eae9-4b6c-aa7c-598e7bbe6f05",
      "meta": {
        "profile": [ "http://hl7.org/fhir/us/qicore/StructureDefinition/qicore-coverage" ]
      },
      "status": "active",
      "subscriberId": "123456",
      "beneficiary": {
        "reference": "Patient/7fafc4ad-74d9-48e7-b12e-d51a11030a14"
      },
      "relationship": {
        "coding": [ {
          "system": "http://terminology.hl7.org/CodeSystem/subscriber-relationship",
          "code": "self",
          "display": "Self"
        } ]
      },
      "payor": [ {
        "reference": "Organization/123456"
      } ]
    }
  }, {
    "fullUrl": "https://madie.cms.gov/Coverage/3421f59b-42e7-43de-87c5-27940918955c",
    "resource": {
      "resourceType": "Coverage",
      "id": "3421f59b-42e7-43de-87c5-27940918955c",
      "meta": {
        "profile": [ "http://hl7.org/fhir/us/qicore/StructureDefinition/qicore-coverage" ]
      },
      "identifier": [ {
        "system": "http://benefitsinc.com/certificate",
        "value": "12345"
      } ],
      "status": "active",
      "type": {
        "coding": [ {
          "system": "https://nahdo.org/sopt",
          "version": "9.2",
          "code": "59",
          "display": "Other Private Insurance"
        } ]
      },
      "subscriberId": "123456",
      "beneficiary": {
        "reference": "Patient/7fafc4ad-74d9-48e7-b12e-d51a11030a14"
      },
      "dependent": "0",
      "relationship": {
        "coding": [ {
          "system": "http://terminology.hl7.org/CodeSystem/subscriber-relationship",
          "code": "self"
        } ]
      },
      "period": {
        "start": "2016-05-23",
        "end": "2026-05-23"
      },
      "payor": [ {
        "reference": "Organization/4654531645616"
      } ],
      "order": 9
    }
  }, {
    "fullUrl": "https://madie.cms.gov/Practitioner/6f06e08f-cd95-4e77-a2f3-5ae9ea925448",
    "resource": {
      "resourceType": "Practitioner",
      "id": "6f06e08f-cd95-4e77-a2f3-5ae9ea925448",
      "meta": {
        "profile": [ "http://hl7.org/fhir/us/qicore/StructureDefinition/qicore-practitioner" ]
      },
      "identifier": [ {
        "system": "http://hl7.org/fhir/sid/us-npi",
        "value": "1689411712"
      } ],
      "name": [ {
        "family": "Evil",
        "prefix": [ "Dr" ]
      } ]
    }
  }, {
    "fullUrl": "https://madie.cms.gov/MeasureReport/51872451-14a7-48e3-8e87-b6ebf13229c8",
    "resource": {
      "resourceType": "MeasureReport",
      "id": "51872451-14a7-48e3-8e87-b6ebf13229c8",
      "meta": {
        "profile": [ "http://hl7.org/fhir/us/cqfmeasures/StructureDefinition/test-case-cqfm" ]
      },
      "contained": [ {
        "resourceType": "Parameters",
        "id": "b92d51ec-f505-4d42-b934-d3529cfe8870-parameters",
        "parameter": [ {
          "name": "subject",
          "valueString": "7fafc4ad-74d9-48e7-b12e-d51a11030a14"
        } ]
      } ],
      "extension": [ {
        "url": "http://hl7.org/fhir/StructureDefinition/cqf-inputParameters",
        "valueReference": {
          "reference": "#b92d51ec-f505-4d42-b934-d3529cfe8870-parameters"
        }
      }, {
        "url": "http://hl7.org/fhir/us/cqfmeasures/StructureDefinition/cqfm-testCaseDescription",
        "valueMarkdown": "Patient is over 13 years old and has multiple encounters during the MP and has all three lab tests during the MP"
      } ],
      "modifierExtension": [ {
        "url": "http://hl7.org/fhir/us/cqfmeasures/StructureDefinition/cqfm-isTestCase",
        "valueBoolean": true
      } ],
      "status": "complete",
      "type": "individual",
      "measure": "https://madie.cms.gov/Measure/CMS1188FHIRHIVSTITesting",
      "period": {
        "start": "2026-01-01",
        "end": "2026-12-31"
      },
      "group": [ {
        "id": "Group_1",
        "population": [ {
          "id": "InitialPopulation_1",
          "code": {
            "coding": [ {
              "system": "http://terminology.hl7.org/CodeSystem/measure-population",
              "code": "initial-population",
              "display": "Initial Population"
            } ]
          },
          "count": 1
        }, {
          "id": "Denominator_1",
          "code": {
            "coding": [ {
              "system": "http://terminology.hl7.org/CodeSystem/measure-population",
              "code": "denominator",
              "display": "Denominator"
            } ]
          },
          "count": 1
        }, {
          "id": "Numerator_1",
          "code": {
            "coding": [ {
              "system": "http://terminology.hl7.org/CodeSystem/measure-population",
              "code": "numerator",
              "display": "Numerator"
            } ]
          },
          "count": 1
        } ],
        "measureScore": {
          "value": 1.0
        }
      } ],
      "evaluatedResource": [ {
        "reference": "Patient/7fafc4ad-74d9-48e7-b12e-d51a11030a14"
      }, {
        "reference": "Condition/d7fcfb0d-5842-4419-b794-94eed3dd968a"
      }, {
        "reference": "Encounter/fc225ddc-b846-4403-83c6-99bc6bb17f8b"
      }, {
        "reference": "Observation/cd7de212-9ce4-4cf9-80cd-09bd406b0bd0"
      }, {
        "reference": "Observation/5d44707b-6e6f-4f8a-9c2c-1b08e61b800a"
      }, {
        "reference": "Encounter/43c1148e-4298-435f-86d9-c3ed08c5647f"
      }, {
        "reference": "Observation/4e7208b6-6a51-4cb3-a8d1-4c828a037d4c"
      }, {
        "reference": "Coverage/739357c5-eae9-4b6c-aa7c-598e7bbe6f05"
      }, {
        "reference": "Coverage/3421f59b-42e7-43de-87c5-27940918955c"
      }, {
        "reference": "Practitioner/6f06e08f-cd95-4e77-a2f3-5ae9ea925448"
      } ]
    }
  } ]
}