{
  "resourceType": "Bundle",
  "id": "tests-NUMERPass-3Encounters3Harms-bundle",
  "type": "transaction",
  "entry": [ {
    "fullUrl": "https://madie.cms.gov/Encounter/619a2f63-adee-447b-8835-244bf1ed77b6",
    "resource": {
      "resourceType": "Encounter",
      "id": "619a2f63-adee-447b-8835-244bf1ed77b6",
      "meta": {
        "profile": [ "http://hl7.org/fhir/us/qicore/StructureDefinition/qicore-encounter" ]
      },
      "status": "finished",
      "class": {
        "system": "http://terminology.hl7.org/CodeSystem/v3-ActCode",
        "code": "IMP",
        "display": "Inpatient encounter"
      },
      "type": [ {
        "coding": [ {
          "system": "http://snomed.info/sct",
          "code": "183452005",
          "display": "Emergency hospital admission"
        } ]
      } ],
      "subject": {
        "reference": "Patient/f58dcdc6-cce9-4b49-b657-7e1e2593e428"
      },
      "period": {
        "start": "2026-12-15T08:00:00.000+00:00",
        "end": "2026-12-18T08:15:00.000+00:00"
      }
    },
    "request": {
      "method": "PUT",
      "url": "Encounter/619a2f63-adee-447b-8835-244bf1ed77b6"
    }
  }, {
    "fullUrl": "https://madie.cms.gov/Encounter/afc2ceb0-290d-4cc4-bd6d-670c1faf6ed9",
    "resource": {
      "resourceType": "Encounter",
      "id": "afc2ceb0-290d-4cc4-bd6d-670c1faf6ed9",
      "meta": {
        "profile": [ "http://hl7.org/fhir/us/qicore/StructureDefinition/qicore-encounter" ]
      },
      "status": "finished",
      "class": {
        "system": "http://terminology.hl7.org/CodeSystem/v3-ActCode",
        "code": "IMP",
        "display": "Inpatient encounter"
      },
      "type": [ {
        "coding": [ {
          "system": "http://snomed.info/sct",
          "code": "183452005",
          "display": "Emergency hospital admission"
        } ]
      } ],
      "subject": {
        "reference": "Patient/f58dcdc6-cce9-4b49-b657-7e1e2593e428"
      },
      "period": {
        "start": "2026-12-20T08:00:00.000+00:00",
        "end": "2026-12-25T08:15:00.000+00:00"
      }
    },
    "request": {
      "method": "PUT",
      "url": "Encounter/afc2ceb0-290d-4cc4-bd6d-670c1faf6ed9"
    }
  }, {
    "fullUrl": "https://madie.cms.gov/Encounter/1b4dafc1-d7a8-43c9-9430-5346a5b8b4f5",
    "resource": {
      "resourceType": "Encounter",
      "id": "1b4dafc1-d7a8-43c9-9430-5346a5b8b4f5",
      "meta": {
        "profile": [ "http://hl7.org/fhir/us/qicore/StructureDefinition/qicore-encounter" ]
      },
      "status": "finished",
      "class": {
        "system": "http://terminology.hl7.org/CodeSystem/v3-ActCode",
        "code": "IMP",
        "display": "Inpatient encounter"
      },
      "type": [ {
        "coding": [ {
          "system": "http://snomed.info/sct",
          "code": "183452005",
          "display": "Emergency hospital admission"
        } ]
      } ],
      "subject": {
        "reference": "Patient/f58dcdc6-cce9-4b49-b657-7e1e2593e428"
      },
      "period": {
        "start": "2026-12-27T08:00:00.000+00:00",
        "end": "2026-12-29T08:15:00.000+00:00"
      }
    },
    "request": {
      "method": "PUT",
      "url": "Encounter/1b4dafc1-d7a8-43c9-9430-5346a5b8b4f5"
    }
  }, {
    "fullUrl": "https://madie.cms.gov/MedicationAdministration/bd3a7f0c-98e0-4667-b46c-59154c381304",
    "resource": {
      "resourceType": "MedicationAdministration",
      "id": "bd3a7f0c-98e0-4667-b46c-59154c381304",
      "meta": {
        "profile": [ "http://hl7.org/fhir/us/qicore/StructureDefinition/qicore-medicationadministration" ]
      },
      "status": "completed",
      "medicationCodeableConcept": {
        "coding": [ {
          "system": "http://www.nlm.nih.gov/research/umls/rxnorm",
          "code": "1670021",
          "display": "3 ML insulin degludec 200 UNT/ML Pen Injector"
        } ]
      },
      "subject": {
        "reference": "Patient/f58dcdc6-cce9-4b49-b657-7e1e2593e428"
      },
      "effectivePeriod": {
        "start": "2026-12-15T08:00:00.000+00:00",
        "end": "2026-12-18T08:15:00.000+00:00"
      }
    },
    "request": {
      "method": "PUT",
      "url": "MedicationAdministration/bd3a7f0c-98e0-4667-b46c-59154c381304"
    }
  }, {
    "fullUrl": "https://madie.cms.gov/MedicationAdministration/d02f3fdf-a99a-4f57-80c9-7533d1454ae1",
    "resource": {
      "resourceType": "MedicationAdministration",
      "id": "d02f3fdf-a99a-4f57-80c9-7533d1454ae1",
      "meta": {
        "profile": [ "http://hl7.org/fhir/us/qicore/StructureDefinition/qicore-medicationadministration" ]
      },
      "status": "completed",
      "medicationCodeableConcept": {
        "coding": [ {
          "system": "http://www.nlm.nih.gov/research/umls/rxnorm",
          "code": "1731315",
          "display": "3 ML insulin, regular, human 500 UNT/ML Pen Injector"
        } ]
      },
      "subject": {
        "reference": "Patient/f58dcdc6-cce9-4b49-b657-7e1e2593e428"
      },
      "effectivePeriod": {
        "start": "2026-12-20T09:00:00.000+00:00",
        "end": "2026-12-20T09:15:00.000+00:00"
      }
    },
    "request": {
      "method": "PUT",
      "url": "MedicationAdministration/d02f3fdf-a99a-4f57-80c9-7533d1454ae1"
    }
  }, {
    "fullUrl": "https://madie.cms.gov/MedicationAdministration/d0d5b617-ecde-4352-8041-27fe473e5003",
    "resource": {
      "resourceType": "MedicationAdministration",
      "id": "d0d5b617-ecde-4352-8041-27fe473e5003",
      "meta": {
        "profile": [ "http://hl7.org/fhir/us/qicore/StructureDefinition/qicore-medicationadministration" ]
      },
      "status": "completed",
      "medicationCodeableConcept": {
        "coding": [ {
          "system": "http://www.nlm.nih.gov/research/umls/rxnorm",
          "code": "1652644",
          "display": "3 ML insulin lispro 100 UNT/ML Cartridge"
        } ]
      },
      "subject": {
        "reference": "Patient/f58dcdc6-cce9-4b49-b657-7e1e2593e428"
      },
      "effectivePeriod": {
        "start": "2026-12-27T09:00:00.000+00:00",
        "end": "2026-12-27T09:15:00.000+00:00"
      }
    },
    "request": {
      "method": "PUT",
      "url": "MedicationAdministration/d0d5b617-ecde-4352-8041-27fe473e5003"
    }
  }, {
    "fullUrl": "https://madie.cms.gov/Observation/8d8d5d41-cc60-4494-853b-85fd5a96f87b",
    "resource": {
      "resourceType": "Observation",
      "id": "8d8d5d41-cc60-4494-853b-85fd5a96f87b",
      "meta": {
        "profile": [ "http://hl7.org/fhir/us/qicore/StructureDefinition/qicore-observation-lab" ]
      },
      "status": "final",
      "category": [ {
        "coding": [ {
          "system": "http://terminology.hl7.org/CodeSystem/observation-category",
          "code": "laboratory",
          "display": "Laboratory"
        } ]
      } ],
      "code": {
        "coding": [ {
          "system": "http://loinc.org",
          "code": "1556-0",
          "display": "Fasting glucose [Mass/volume] in Capillary blood"
        } ]
      },
      "subject": {
        "reference": "Patient/f58dcdc6-cce9-4b49-b657-7e1e2593e428"
      },
      "effectivePeriod": {
        "start": "2026-12-15T09:00:00.000+00:00",
        "end": "2026-12-15T09:00:00.000+00:00"
      },
      "issued": "2026-12-15T09:00:00.000+00:00",
      "valueQuantity": {
        "value": 39,
        "unit": "mg/dL"
      }
    },
    "request": {
      "method": "PUT",
      "url": "Observation/8d8d5d41-cc60-4494-853b-85fd5a96f87b"
    }
  }, {
    "fullUrl": "https://madie.cms.gov/Observation/c3ba1d2f-fe62-4eed-97e1-ead53c48f22a",
    "resource": {
      "resourceType": "Observation",
      "id": "c3ba1d2f-fe62-4eed-97e1-ead53c48f22a",
      "meta": {
        "profile": [ "http://hl7.org/fhir/us/qicore/StructureDefinition/qicore-observation-lab" ]
      },
      "status": "final",
      "category": [ {
        "coding": [ {
          "system": "http://terminology.hl7.org/CodeSystem/observation-category",
          "code": "laboratory",
          "display": "Laboratory"
        } ]
      } ],
      "code": {
        "coding": [ {
          "system": "http://loinc.org",
          "code": "1556-0",
          "display": "Fasting glucose [Mass/volume] in Capillary blood"
        } ]
      },
      "subject": {
        "reference": "Patient/f58dcdc6-cce9-4b49-b657-7e1e2593e428"
      },
      "effectivePeriod": {
        "start": "2026-12-20T10:00:00.000+00:00",
        "end": "2026-12-20T10:00:00.000+00:00"
      },
      "issued": "2026-12-20T10:00:00.000+00:00",
      "valueQuantity": {
        "value": 30,
        "unit": "mg/dL"
      }
    },
    "request": {
      "method": "PUT",
      "url": "Observation/c3ba1d2f-fe62-4eed-97e1-ead53c48f22a"
    }
  }, {
    "fullUrl": "https://madie.cms.gov/Observation/296a9bf6-d52c-428d-85d9-6e20fde814ec",
    "resource": {
      "resourceType": "Observation",
      "id": "296a9bf6-d52c-428d-85d9-6e20fde814ec",
      "meta": {
        "profile": [ "http://hl7.org/fhir/us/qicore/StructureDefinition/qicore-observation-lab" ]
      },
      "status": "final",
      "category": [ {
        "coding": [ {
          "system": "http://terminology.hl7.org/CodeSystem/observation-category",
          "code": "laboratory",
          "display": "Laboratory"
        } ]
      } ],
      "code": {
        "coding": [ {
          "system": "http://loinc.org",
          "code": "1556-0",
          "display": "Fasting glucose [Mass/volume] in Capillary blood"
        } ]
      },
      "subject": {
        "reference": "Patient/f58dcdc6-cce9-4b49-b657-7e1e2593e428"
      },
      "effectivePeriod": {
        "start": "2026-12-27T10:00:00.000+00:00",
        "end": "2026-12-27T10:00:00.000+00:00"
      },
      "issued": "2026-12-27T10:00:00.000+00:00",
      "valueQuantity": {
        "value": 38,
        "unit": "mg/dL"
      }
    },
    "request": {
      "method": "PUT",
      "url": "Observation/296a9bf6-d52c-428d-85d9-6e20fde814ec"
    }
  }, {
    "fullUrl": "https://madie.cms.gov/Patient/f58dcdc6-cce9-4b49-b657-7e1e2593e428",
    "resource": {
      "resourceType": "Patient",
      "id": "f58dcdc6-cce9-4b49-b657-7e1e2593e428",
      "meta": {
        "profile": [ "http://hl7.org/fhir/us/qicore/StructureDefinition/qicore-patient" ]
      },
      "extension": [ {
        "url": "http://hl7.org/fhir/us/core/StructureDefinition/us-core-race",
        "extension": [ {
          "url": "ombCategory",
          "valueCoding": {
            "system": "urn:oid:2.16.840.1.113883.6.238",
            "code": "2106-3",
            "display": "White"
          }
        }, {
          "url": "text",
          "valueString": "White"
        } ]
      }, {
        "url": "http://hl7.org/fhir/us/core/StructureDefinition/us-core-ethnicity",
        "extension": [ {
          "url": "ombCategory",
          "valueCoding": {
            "system": "urn:oid:2.16.840.1.113883.6.238",
            "code": "2135-2",
            "display": "Hispanic or Latino"
          }
        }, {
          "url": "text",
          "valueString": "Hispanic or Latino"
        } ]
      }, {
        "url": "http://hl7.org/fhir/us/core/StructureDefinition/us-core-sex",
        "valueCode": "248153007"
      } ],
      "identifier": [ {
        "system": "http://hospital.smarthealthit.org",
        "value": "999999999"
      } ],
      "name": [ {
        "family": "Example",
        "given": [ "Patient" ]
      } ],
      "gender": "female",
      "birthDate": "2000-07-11"
    },
    "request": {
      "method": "PUT",
      "url": "Patient/f58dcdc6-cce9-4b49-b657-7e1e2593e428"
    }
  }, {
    "fullUrl": "https://madie.cms.gov/MeasureReport/45065811-b103-4031-bc12-fee1b69673d4",
    "resource": {
      "resourceType": "MeasureReport",
      "id": "45065811-b103-4031-bc12-fee1b69673d4",
      "meta": {
        "profile": [ "http://hl7.org/fhir/us/cqfmeasures/StructureDefinition/test-case-cqfm" ]
      },
      "contained": [ {
        "resourceType": "Parameters",
        "id": "2e855d8e-e91c-4aa0-b2fc-62eeb5209c09-parameters",
        "parameter": [ {
          "name": "subject",
          "valueString": "f58dcdc6-cce9-4b49-b657-7e1e2593e428"
        } ]
      } ],
      "extension": [ {
        "url": "http://hl7.org/fhir/StructureDefinition/cqf-inputParameters",
        "valueReference": {
          "reference": "#2e855d8e-e91c-4aa0-b2fc-62eeb5209c09-parameters"
        }
      }, {
        "url": "http://hl7.org/fhir/us/cqfmeasures/StructureDefinition/cqfm-testCaseDescription",
        "valueMarkdown": "3 different encounters, all have harm (meets numerator). IPP/Denom = 3, Numerator should = 3. "
      } ],
      "modifierExtension": [ {
        "url": "http://hl7.org/fhir/us/cqfmeasures/StructureDefinition/cqfm-isTestCase",
        "valueBoolean": true
      } ],
      "status": "complete",
      "type": "individual",
      "measure": "https://madie.cms.gov/Measure/CMS816FHIRHHHypo",
      "period": {
        "start": "2026-01-01",
        "end": "2026-12-31"
      },
      "group": [ {
        "id": "Group_1",
        "population": [ {
          "id": "InitialPopulation_1",
          "code": {
            "coding": [ {
              "system": "http://terminology.hl7.org/CodeSystem/measure-population",
              "code": "initial-population",
              "display": "Initial Population"
            } ]
          },
          "count": 3
        }, {
          "id": "Denominator_1",
          "code": {
            "coding": [ {
              "system": "http://terminology.hl7.org/CodeSystem/measure-population",
              "code": "denominator",
              "display": "Denominator"
            } ]
          },
          "count": 3
        }, {
          "id": "Numerator_1",
          "code": {
            "coding": [ {
              "system": "http://terminology.hl7.org/CodeSystem/measure-population",
              "code": "numerator",
              "display": "Numerator"
            } ]
          },
          "count": 3
        } ],
        "measureScore": {
          "value": 0.0
        }
      } ],
      "evaluatedResource": [ {
        "reference": "Encounter/619a2f63-adee-447b-8835-244bf1ed77b6"
      }, {
        "reference": "Encounter/afc2ceb0-290d-4cc4-bd6d-670c1faf6ed9"
      }, {
        "reference": "Encounter/1b4dafc1-d7a8-43c9-9430-5346a5b8b4f5"
      }, {
        "reference": "MedicationAdministration/bd3a7f0c-98e0-4667-b46c-59154c381304"
      }, {
        "reference": "MedicationAdministration/d02f3fdf-a99a-4f57-80c9-7533d1454ae1"
      }, {
        "reference": "MedicationAdministration/d0d5b617-ecde-4352-8041-27fe473e5003"
      }, {
        "reference": "Observation/8d8d5d41-cc60-4494-853b-85fd5a96f87b"
      }, {
        "reference": "Observation/c3ba1d2f-fe62-4eed-97e1-ead53c48f22a"
      }, {
        "reference": "Observation/296a9bf6-d52c-428d-85d9-6e20fde814ec"
      }, {
        "reference": "Patient/f58dcdc6-cce9-4b49-b657-7e1e2593e428"
      } ]
    },
    "request": {
      "method": "PUT",
      "url": "MeasureReport/45065811-b103-4031-bc12-fee1b69673d4"
    }
  } ]
}