{
  "resourceType": "Bundle",
  "id": "641381e24b11b147841ab916",
  "type": "transaction",
  "entry": [ {
    "fullUrl": "https://madie.cms.gov/Patient/8e10675e-b991-4327-9514-6feb9d385b7f",
    "resource": {
      "resourceType": "Patient",
      "id": "8e10675e-b991-4327-9514-6feb9d385b7f",
      "meta": {
        "profile": [ "http://hl7.org/fhir/us/qicore/StructureDefinition/qicore-patient" ]
      },
      "extension": [ {
        "url": "http://hl7.org/fhir/us/core/StructureDefinition/us-core-race",
        "extension": [ {
          "url": "ombCategory",
          "valueCoding": {
            "system": "urn:oid:2.16.840.1.113883.6.238",
            "code": "2076-8",
            "display": "Native Hawaiian or Other Pacific Islander",
            "userSelected": true
          }
        }, {
          "url": "text",
          "valueString": "Native Hawaiian or Other Pacific Islander"
        } ]
      }, {
        "url": "http://hl7.org/fhir/us/core/StructureDefinition/us-core-ethnicity",
        "extension": [ {
          "url": "ombCategory",
          "valueCoding": {
            "system": "urn:oid:2.16.840.1.113883.6.238",
            "code": "2186-5",
            "display": "Not Hispanic or Latino",
            "userSelected": true
          }
        }, {
          "url": "text",
          "valueString": "Not Hispanic or Latino"
        } ]
      } ],
      "identifier": [ {
        "type": {
          "coding": [ {
            "system": "http://terminology.hl7.org/CodeSystem/v2-0203",
            "code": "MR"
          } ]
        },
        "system": "https://bonnie-fhir.healthit.gov/",
        "value": "641381e24b11b147841ab916"
      } ],
      "name": [ {
        "family": "NUMERPass",
        "given": [ "HomeServiceEGFRAndUACR" ]
      } ],
      "gender": "female",
      "birthDate": "1958-12-01"
    },
    "request": {
      "method": "PUT",
      "url": "Patient/8e10675e-b991-4327-9514-6feb9d385b7f"
    }
  }, {
    "fullUrl": "https://madie.cms.gov/Condition/158e8380-1351-4d75-aaa9-a71f85021986",
    "resource": {
      "resourceType": "Condition",
      "id": "158e8380-1351-4d75-aaa9-a71f85021986",
      "meta": {
        "profile": [ "http://hl7.org/fhir/us/qicore/StructureDefinition/qicore-condition-problems-health-concerns" ]
      },
      "clinicalStatus": {
        "coding": [ {
          "system": "http://terminology.hl7.org/CodeSystem/condition-clinical",
          "code": "active",
          "display": "active",
          "userSelected": true
        } ]
      },
      "category": [ {
        "coding": [ {
          "system": "http://terminology.hl7.org/CodeSystem/condition-category",
          "code": "problem-list-item",
          "display": "Problem List Item",
          "userSelected": true
        } ]
      } ],
      "code": {
        "coding": [ {
          "system": "http://snomed.info/sct",
          "version": "2021-09",
          "code": "102781000119107",
          "display": "Sensory neuropathy due to type 1 diabetes mellitus (disorder)",
          "userSelected": true
        } ]
      },
      "subject": {
        "reference": "Patient/8e10675e-b991-4327-9514-6feb9d385b7f"
      },
      "onsetDateTime": "2025-12-14T08:00:00.000+00:00"
    },
    "request": {
      "method": "PUT",
      "url": "Condition/158e8380-1351-4d75-aaa9-a71f85021986"
    }
  }, {
    "fullUrl": "https://madie.cms.gov/Encounter/d1e55a09-5ecf-4cee-b7cb-4efd440a5e7f",
    "resource": {
      "resourceType": "Encounter",
      "id": "d1e55a09-5ecf-4cee-b7cb-4efd440a5e7f",
      "meta": {
        "profile": [ "http://hl7.org/fhir/us/qicore/StructureDefinition/qicore-encounter" ]
      },
      "status": "finished",
      "class": {
        "system": "http://terminology.hl7.org/CodeSystem/v3-ActCode",
        "code": "AMB",
        "display": "ambulatory",
        "userSelected": true
      },
      "type": [ {
        "coding": [ {
          "system": "http://snomed.info/sct",
          "version": "2021-09",
          "code": "185460008",
          "display": "Home visit request by patient (procedure)",
          "userSelected": true
        } ]
      } ],
      "subject": {
        "reference": "Patient/8e10675e-b991-4327-9514-6feb9d385b7f"
      },
      "period": {
        "start": "2026-03-16T08:00:00.000+00:00",
        "end": "2026-03-16T08:15:00.000+00:00"
      }
    },
    "request": {
      "method": "PUT",
      "url": "Encounter/d1e55a09-5ecf-4cee-b7cb-4efd440a5e7f"
    }
  }, {
    "fullUrl": "https://madie.cms.gov/Observation/09f94a22-50f8-475b-b6a5-7008ac307048",
    "resource": {
      "resourceType": "Observation",
      "id": "09f94a22-50f8-475b-b6a5-7008ac307048",
      "meta": {
        "profile": [ "http://hl7.org/fhir/us/qicore/StructureDefinition/qicore-observation-lab" ]
      },
      "status": "final",
      "category": [ {
        "coding": [ {
          "system": "http://terminology.hl7.org/CodeSystem/observation-category",
          "code": "laboratory",
          "display": "Laboratory",
          "userSelected": true
        } ]
      } ],
      "code": {
        "coding": [ {
          "system": "http://loinc.org",
          "version": "2.71",
          "code": "48642-3",
          "display": "Glomerular filtration rate [Volume Rate/Area] in Serum, Plasma or Blood by Creatinine-based formula (MDRD)/1.73 sq M among non black population",
          "userSelected": true
        } ]
      },
      "subject": {
        "reference": "Patient/8e10675e-b991-4327-9514-6feb9d385b7f"
      },
      "effectiveDateTime": "2026-03-16T08:00:00.000+00:00",
      "valueBoolean": true
    },
    "request": {
      "method": "PUT",
      "url": "Observation/09f94a22-50f8-475b-b6a5-7008ac307048"
    }
  }, {
    "fullUrl": "https://madie.cms.gov/Observation/a646aabf-8b12-497e-88a5-c9bbfd5ffdda",
    "resource": {
      "resourceType": "Observation",
      "id": "a646aabf-8b12-497e-88a5-c9bbfd5ffdda",
      "meta": {
        "profile": [ "http://hl7.org/fhir/us/qicore/StructureDefinition/qicore-observation-lab" ]
      },
      "status": "final",
      "category": [ {
        "coding": [ {
          "system": "http://terminology.hl7.org/CodeSystem/observation-category",
          "code": "laboratory",
          "display": "Laboratory",
          "userSelected": true
        } ]
      } ],
      "code": {
        "coding": [ {
          "system": "http://loinc.org",
          "version": "2.71",
          "code": "13705-9",
          "display": "Albumin/Creatinine [Mass Ratio] in 24 hour Urine",
          "userSelected": true
        } ]
      },
      "subject": {
        "reference": "Patient/8e10675e-b991-4327-9514-6feb9d385b7f"
      },
      "effectiveDateTime": "2026-03-16T08:00:00.000+00:00",
      "issued": "2026-03-16T08:00:00.000+00:00",
      "valueQuantity": {
        "value": 30,
        "unit": "mg/g",
        "system": "http://unitsofmeasure.org",
        "code": "mg/g"
      }
    },
    "request": {
      "method": "PUT",
      "url": "Observation/a646aabf-8b12-497e-88a5-c9bbfd5ffdda"
    }
  }, {
    "fullUrl": "https://madie.cms.gov/MeasureReport/938f2b1f-4f22-4f5a-adea-12254625d58d",
    "resource": {
      "resourceType": "MeasureReport",
      "id": "938f2b1f-4f22-4f5a-adea-12254625d58d",
      "meta": {
        "profile": [ "http://hl7.org/fhir/us/cqfmeasures/StructureDefinition/test-case-cqfm" ]
      },
      "contained": [ {
        "resourceType": "Parameters",
        "id": "eabe4690-a925-46f6-9be7-04ea3da413c8-parameters",
        "parameter": [ {
          "name": "subject",
          "valueString": "8e10675e-b991-4327-9514-6feb9d385b7f"
        } ]
      } ],
      "extension": [ {
        "url": "http://hl7.org/fhir/StructureDefinition/cqf-inputParameters",
        "valueReference": {
          "reference": "#eabe4690-a925-46f6-9be7-04ea3da413c8-parameters"
        }
      }, {
        "url": "http://hl7.org/fhir/us/cqfmeasures/StructureDefinition/cqfm-testCaseDescription",
        "valueMarkdown": "This patient is 67 years old with a qualifying home healthcare encounter and active  diabetes, with both qualifying lab tests. This case tests the numerator criteria."
      } ],
      "modifierExtension": [ {
        "url": "http://hl7.org/fhir/us/cqfmeasures/StructureDefinition/cqfm-isTestCase",
        "valueBoolean": true
      } ],
      "status": "complete",
      "type": "individual",
      "measure": "https://madie.cms.gov/Measure/CMS951FHIRKidneyHealthEval",
      "period": {
        "start": "2026-01-01",
        "end": "2026-12-31"
      },
      "group": [ {
        "id": "Group_1",
        "population": [ {
          "id": "InitialPopulation_1",
          "code": {
            "coding": [ {
              "system": "http://terminology.hl7.org/CodeSystem/measure-population",
              "code": "initial-population",
              "display": "Initial Population"
            } ]
          },
          "count": 1
        }, {
          "id": "Denominator_1",
          "code": {
            "coding": [ {
              "system": "http://terminology.hl7.org/CodeSystem/measure-population",
              "code": "denominator",
              "display": "Denominator"
            } ]
          },
          "count": 1
        }, {
          "id": "DenominatorExclusion_1",
          "code": {
            "coding": [ {
              "system": "http://terminology.hl7.org/CodeSystem/measure-population",
              "code": "denominator-exclusion",
              "display": "Denominator Exclusion"
            } ]
          },
          "count": 0
        }, {
          "id": "Numerator_1",
          "code": {
            "coding": [ {
              "system": "http://terminology.hl7.org/CodeSystem/measure-population",
              "code": "numerator",
              "display": "Numerator"
            } ]
          },
          "count": 1
        } ],
        "measureScore": {
          "value": 1.0
        }
      } ],
      "evaluatedResource": [ {
        "reference": "Patient/8e10675e-b991-4327-9514-6feb9d385b7f"
      }, {
        "reference": "Condition/158e8380-1351-4d75-aaa9-a71f85021986"
      }, {
        "reference": "Encounter/d1e55a09-5ecf-4cee-b7cb-4efd440a5e7f"
      }, {
        "reference": "Observation/09f94a22-50f8-475b-b6a5-7008ac307048"
      }, {
        "reference": "Observation/a646aabf-8b12-497e-88a5-c9bbfd5ffdda"
      } ]
    },
    "request": {
      "method": "PUT",
      "url": "MeasureReport/938f2b1f-4f22-4f5a-adea-12254625d58d"
    }
  } ]
}