{
  "resourceType": "Bundle",
  "id": "NUMERFail-KCCQ12FollowUp29Days",
  "type": "collection",
  "entry": [ {
    "fullUrl": "https://madie.cms.gov/Patient/976848fc-ad4c-44fa-b732-644b919d225d",
    "resource": {
      "resourceType": "Patient",
      "id": "976848fc-ad4c-44fa-b732-644b919d225d",
      "meta": {
        "profile": [ "http://hl7.org/fhir/us/qicore/StructureDefinition/qicore-patient" ]
      },
      "extension": [ {
        "url": "http://hl7.org/fhir/us/core/StructureDefinition/us-core-race",
        "extension": [ {
          "url": "ombCategory",
          "valueCoding": {
            "system": "urn:oid:2.16.840.1.113883.6.238",
            "code": "2028-9",
            "display": "Asian"
          }
        }, {
          "url": "text",
          "valueString": "Asian"
        } ]
      }, {
        "url": "http://hl7.org/fhir/us/core/StructureDefinition/us-core-ethnicity",
        "extension": [ {
          "url": "ombCategory",
          "valueCoding": {
            "system": "urn:oid:2.16.840.1.113883.6.238",
            "code": "2135-2",
            "display": "Hispanic or Latino"
          }
        }, {
          "url": "text",
          "valueString": "Hispanic or Latino"
        } ]
      } ],
      "identifier": [ {
        "system": "http://hospital.smarthealthit.org",
        "value": "999999995"
      } ],
      "name": [ {
        "family": "Bertha",
        "given": [ "Betty" ]
      } ],
      "gender": "female",
      "birthDate": "2008-01-01"
    }
  }, {
    "fullUrl": "https://madie.cms.gov/Encounter/0f43af58-31f5-4d5a-b642-d8011c67c6d9",
    "resource": {
      "resourceType": "Encounter",
      "id": "0f43af58-31f5-4d5a-b642-d8011c67c6d9",
      "meta": {
        "profile": [ "http://hl7.org/fhir/us/qicore/StructureDefinition/qicore-encounter" ]
      },
      "status": "finished",
      "class": {
        "system": "http://terminology.hl7.org/CodeSystem/v3-ActCode",
        "code": "AMB",
        "display": "ambulatory"
      },
      "type": [ {
        "coding": [ {
          "system": "http://snomed.info/sct",
          "code": "185317003",
          "display": "Telephone encounter (procedure)"
        } ]
      } ],
      "subject": {
        "reference": "Patient/976848fc-ad4c-44fa-b732-644b919d225d"
      },
      "period": {
        "start": "2026-01-01T01:00:00.000+00:00",
        "end": "2026-01-01T01:15:00.000+00:00"
      }
    }
  }, {
    "fullUrl": "https://madie.cms.gov/Encounter/03dc6bb3-db21-4695-a31d-4bd528c68f00",
    "resource": {
      "resourceType": "Encounter",
      "id": "03dc6bb3-db21-4695-a31d-4bd528c68f00",
      "meta": {
        "profile": [ "http://hl7.org/fhir/us/qicore/StructureDefinition/qicore-encounter" ]
      },
      "status": "finished",
      "class": {
        "system": "http://terminology.hl7.org/CodeSystem/v3-ActCode",
        "code": "AMB",
        "display": "ambulatory"
      },
      "type": [ {
        "coding": [ {
          "system": "http://snomed.info/sct",
          "code": "185317003",
          "display": "Telephone encounter (procedure)"
        } ]
      } ],
      "subject": {
        "reference": "Patient/976848fc-ad4c-44fa-b732-644b919d225d"
      },
      "period": {
        "start": "2026-01-02T01:00:00.000+00:00",
        "end": "2026-01-02T01:15:00.000+00:00"
      }
    }
  }, {
    "fullUrl": "https://madie.cms.gov/Condition/b57c4bec-630f-4c4a-9410-0dd815741d46",
    "resource": {
      "resourceType": "Condition",
      "id": "b57c4bec-630f-4c4a-9410-0dd815741d46",
      "meta": {
        "profile": [ "http://hl7.org/fhir/us/qicore/StructureDefinition/qicore-condition-problems-health-concerns" ]
      },
      "clinicalStatus": {
        "coding": [ {
          "system": "http://terminology.hl7.org/CodeSystem/condition-clinical",
          "code": "active"
        } ]
      },
      "category": [ {
        "coding": [ {
          "system": "http://terminology.hl7.org/CodeSystem/condition-category",
          "code": "problem-list-item",
          "display": "Problem List Item"
        } ]
      } ],
      "code": {
        "coding": [ {
          "system": "http://snomed.info/sct",
          "version": "http://snomed.info/sct/731000124108/version/20250301",
          "code": "10091002",
          "display": "High output heart failure (disorder)"
        } ]
      },
      "subject": {
        "reference": "Patient/976848fc-ad4c-44fa-b732-644b919d225d"
      },
      "onsetDateTime": "2025-12-31T23:59:00.000+00:00"
    }
  }, {
    "fullUrl": "https://madie.cms.gov/Observation/4bd6c4c9-21c9-4310-a0ba-66fcf0f80e40",
    "resource": {
      "resourceType": "Observation",
      "id": "4bd6c4c9-21c9-4310-a0ba-66fcf0f80e40",
      "meta": {
        "profile": [ "http://hl7.org/fhir/us/qicore/StructureDefinition/qicore-observation-screening-assessment" ]
      },
      "status": "final",
      "category": [ {
        "coding": [ {
          "system": "http://terminology.hl7.org/CodeSystem/observation-category",
          "code": "survey",
          "display": "survey"
        } ],
        "text": "survey"
      } ],
      "code": {
        "coding": [ {
          "system": "http://loinc.org",
          "code": "86923-0",
          "display": "Kansas City Cardiomyopathy Questionnaire - 12 item [KCCQ-12]"
        } ]
      },
      "subject": {
        "reference": "Patient/976848fc-ad4c-44fa-b732-644b919d225d"
      },
      "effectivePeriod": {
        "start": "2026-01-01T23:00:00.000+00:00",
        "end": "2026-01-01T23:59:00.000+00:00"
      },
      "valueInteger": 4
    }
  }, {
    "fullUrl": "https://madie.cms.gov/Observation/6b14fbe5-1a54-4c08-bf13-9ea55229ec1e",
    "resource": {
      "resourceType": "Observation",
      "id": "6b14fbe5-1a54-4c08-bf13-9ea55229ec1e",
      "meta": {
        "profile": [ "http://hl7.org/fhir/us/qicore/StructureDefinition/qicore-observation-screening-assessment" ]
      },
      "status": "final",
      "category": [ {
        "coding": [ {
          "system": "http://terminology.hl7.org/CodeSystem/observation-category",
          "code": "survey",
          "display": "survey"
        } ],
        "text": "survey"
      } ],
      "code": {
        "coding": [ {
          "system": "http://loinc.org",
          "code": "86923-0",
          "display": "Kansas City Cardiomyopathy Questionnaire - 12 item [KCCQ-12]"
        } ]
      },
      "subject": {
        "reference": "Patient/976848fc-ad4c-44fa-b732-644b919d225d"
      },
      "effectivePeriod": {
        "start": "2026-01-30T23:00:00.000+00:00",
        "end": "2026-01-30T23:59:00.000+00:00"
      },
      "valueInteger": 4
    }
  }, {
    "fullUrl": "https://madie.cms.gov/Observation/71f583d7-2a7c-4413-9436-7027d5becd2e",
    "resource": {
      "resourceType": "Observation",
      "id": "71f583d7-2a7c-4413-9436-7027d5becd2e",
      "meta": {
        "profile": [ "http://hl7.org/fhir/us/qicore/StructureDefinition/qicore-observation-screening-assessment" ]
      },
      "status": "final",
      "category": [ {
        "coding": [ {
          "system": "http://terminology.hl7.org/CodeSystem/observation-category",
          "code": "survey",
          "display": "survey"
        } ],
        "text": "survey"
      } ],
      "code": {
        "coding": [ {
          "system": "http://loinc.org",
          "code": "86924-8",
          "display": "Overall summary score [KCCQ-12]"
        } ]
      },
      "subject": {
        "reference": "Patient/976848fc-ad4c-44fa-b732-644b919d225d"
      },
      "effectivePeriod": {
        "start": "2026-01-01T23:00:00.000+00:00",
        "end": "2026-01-01T23:59:00.000+00:00"
      },
      "valueInteger": 4
    }
  }, {
    "fullUrl": "https://madie.cms.gov/Observation/20e4202c-9a8f-48a0-b7c3-7b7c518d8aef",
    "resource": {
      "resourceType": "Observation",
      "id": "20e4202c-9a8f-48a0-b7c3-7b7c518d8aef",
      "meta": {
        "profile": [ "http://hl7.org/fhir/us/qicore/StructureDefinition/qicore-observation-screening-assessment" ]
      },
      "status": "final",
      "category": [ {
        "coding": [ {
          "system": "http://terminology.hl7.org/CodeSystem/observation-category",
          "code": "survey",
          "display": "survey"
        } ],
        "text": "survey"
      } ],
      "code": {
        "coding": [ {
          "system": "http://loinc.org",
          "code": "86924-8",
          "display": "Overall summary score [KCCQ-12]"
        } ]
      },
      "subject": {
        "reference": "Patient/976848fc-ad4c-44fa-b732-644b919d225d"
      },
      "effectivePeriod": {
        "start": "2026-01-30T23:00:00.000+00:00",
        "end": "2026-01-30T23:59:00.000+00:00"
      },
      "valueInteger": 4
    }
  }, {
    "fullUrl": "https://madie.cms.gov/MeasureReport/73911810-78fe-439d-8bcc-e8d6f4f248c7",
    "resource": {
      "resourceType": "MeasureReport",
      "id": "73911810-78fe-439d-8bcc-e8d6f4f248c7",
      "meta": {
        "profile": [ "http://hl7.org/fhir/us/cqfmeasures/StructureDefinition/test-case-cqfm" ]
      },
      "contained": [ {
        "resourceType": "Parameters",
        "id": "16496915-107d-4906-9f85-c0b6caba22ef-parameters",
        "parameter": [ {
          "name": "subject",
          "valueString": "976848fc-ad4c-44fa-b732-644b919d225d"
        } ]
      } ],
      "extension": [ {
        "url": "http://hl7.org/fhir/StructureDefinition/cqf-inputParameters",
        "valueReference": {
          "reference": "#16496915-107d-4906-9f85-c0b6caba22ef-parameters"
        }
      }, {
        "url": "http://hl7.org/fhir/us/cqfmeasures/StructureDefinition/cqfm-testCaseDescription",
        "valueMarkdown": "Patient has all KCCQ12 with results but one follow up occurs 29 days after initial follow up. "
      } ],
      "modifierExtension": [ {
        "url": "http://hl7.org/fhir/us/cqfmeasures/StructureDefinition/cqfm-isTestCase",
        "valueBoolean": true
      } ],
      "status": "complete",
      "type": "individual",
      "measure": "https://madie.cms.gov/Measure/CMS90FHIRFSAforHeartFailure",
      "period": {
        "start": "2026-01-01",
        "end": "2026-12-31"
      },
      "group": [ {
        "id": "Group_1",
        "population": [ {
          "id": "InitialPopulation_1",
          "code": {
            "coding": [ {
              "system": "http://terminology.hl7.org/CodeSystem/measure-population",
              "code": "initial-population",
              "display": "Initial Population"
            } ]
          },
          "count": 1
        }, {
          "id": "Denominator_1",
          "code": {
            "coding": [ {
              "system": "http://terminology.hl7.org/CodeSystem/measure-population",
              "code": "denominator",
              "display": "Denominator"
            } ]
          },
          "count": 1
        }, {
          "id": "DenominatorExclusion_1",
          "code": {
            "coding": [ {
              "system": "http://terminology.hl7.org/CodeSystem/measure-population",
              "code": "denominator-exclusion",
              "display": "Denominator Exclusion"
            } ]
          },
          "count": 0
        }, {
          "id": "Numerator_1",
          "code": {
            "coding": [ {
              "system": "http://terminology.hl7.org/CodeSystem/measure-population",
              "code": "numerator",
              "display": "Numerator"
            } ]
          },
          "count": 0
        } ],
        "measureScore": {
          "value": 1.0
        }
      } ],
      "evaluatedResource": [ {
        "reference": "Patient/976848fc-ad4c-44fa-b732-644b919d225d"
      }, {
        "reference": "Encounter/0f43af58-31f5-4d5a-b642-d8011c67c6d9"
      }, {
        "reference": "Encounter/03dc6bb3-db21-4695-a31d-4bd528c68f00"
      }, {
        "reference": "Condition/b57c4bec-630f-4c4a-9410-0dd815741d46"
      }, {
        "reference": "Observation/4bd6c4c9-21c9-4310-a0ba-66fcf0f80e40"
      }, {
        "reference": "Observation/6b14fbe5-1a54-4c08-bf13-9ea55229ec1e"
      }, {
        "reference": "Observation/71f583d7-2a7c-4413-9436-7027d5becd2e"
      }, {
        "reference": "Observation/20e4202c-9a8f-48a0-b7c3-7b7c518d8aef"
      } ]
    }
  } ]
}