{
  "resourceType": "Bundle",
  "id": "649335474d994e7239aa25ec",
  "type": "collection",
  "entry": [ {
    "fullUrl": "https://madie.cms.gov/Patient/765f96cd-d613-460d-98d1-111d44c08723",
    "resource": {
      "resourceType": "Patient",
      "id": "765f96cd-d613-460d-98d1-111d44c08723",
      "meta": {
        "profile": [ "http://hl7.org/fhir/us/qicore/StructureDefinition/qicore-patient" ]
      },
      "extension": [ {
        "url": "http://hl7.org/fhir/us/core/StructureDefinition/us-core-race",
        "extension": [ {
          "url": "ombCategory",
          "valueCoding": {
            "system": "urn:oid:2.16.840.1.113883.6.238",
            "code": "2106-3",
            "display": "White"
          }
        }, {
          "url": "text",
          "valueString": "White"
        } ]
      }, {
        "url": "http://hl7.org/fhir/us/core/StructureDefinition/us-core-ethnicity",
        "extension": [ {
          "url": "ombCategory",
          "valueCoding": {
            "system": "urn:oid:2.16.840.1.113883.6.238",
            "code": "2186-5",
            "display": "Not Hispanic or Latino",
            "userSelected": true
          }
        }, {
          "url": "text",
          "valueString": "Not Hispanic or Latino"
        } ]
      } ],
      "identifier": [ {
        "type": {
          "coding": [ {
            "system": "http://terminology.hl7.org/CodeSystem/v2-0203",
            "code": "MR"
          } ]
        },
        "system": "https://bonnie-fhir.healthit.gov/",
        "value": "649335474d994e7239aa25ec"
      } ],
      "name": [ {
        "family": "IPFail",
        "given": [ "EncDec31BeforeMP" ]
      } ],
      "gender": "male",
      "birthDate": "1989-08-08"
    }
  }, {
    "fullUrl": "https://madie.cms.gov/Condition/0ec5a958-4a17-4bc3-86c8-ef7b19afee7b",
    "resource": {
      "resourceType": "Condition",
      "id": "0ec5a958-4a17-4bc3-86c8-ef7b19afee7b",
      "meta": {
        "profile": [ "http://hl7.org/fhir/us/qicore/StructureDefinition/qicore-condition-problems-health-concerns" ]
      },
      "clinicalStatus": {
        "coding": [ {
          "system": "http://terminology.hl7.org/CodeSystem/condition-clinical",
          "code": "active",
          "display": "active",
          "userSelected": true
        } ]
      },
      "category": [ {
        "coding": [ {
          "system": "http://terminology.hl7.org/CodeSystem/condition-category",
          "code": "problem-list-item",
          "display": "Problem List Item"
        } ]
      } ],
      "code": {
        "coding": [ {
          "system": "http://hl7.org/fhir/sid/icd-10-cm",
          "code": "B20",
          "userSelected": true
        } ]
      },
      "subject": {
        "reference": "Patient/765f96cd-d613-460d-98d1-111d44c08723"
      },
      "onsetDateTime": "2001-03-07T08:00:00.000+00:00",
      "recordedDate": "2001-03-07T08:00:00.000+00:00"
    }
  }, {
    "fullUrl": "https://madie.cms.gov/Encounter/56d3344c-e1be-4aab-baf8-6c4d1fc11b8e",
    "resource": {
      "resourceType": "Encounter",
      "id": "56d3344c-e1be-4aab-baf8-6c4d1fc11b8e",
      "meta": {
        "profile": [ "http://hl7.org/fhir/us/qicore/StructureDefinition/qicore-encounter" ]
      },
      "status": "finished",
      "class": {
        "system": "http://terminology.hl7.org/CodeSystem/v3-ActCode",
        "code": "AMB",
        "display": "ambulatory"
      },
      "type": [ {
        "coding": [ {
          "system": "http://www.ama-assn.org/go/cpt",
          "code": "99391",
          "userSelected": true
        } ]
      } ],
      "subject": {
        "reference": "Patient/765f96cd-d613-460d-98d1-111d44c08723"
      },
      "period": {
        "start": "2025-12-31T08:00:00.000+00:00",
        "end": "2025-12-31T08:23:00.000+00:00"
      }
    }
  }, {
    "fullUrl": "https://madie.cms.gov/Coverage/dabb7be1-b2f1-41b9-82eb-3836912f96bd",
    "resource": {
      "resourceType": "Coverage",
      "id": "dabb7be1-b2f1-41b9-82eb-3836912f96bd",
      "meta": {
        "profile": [ "http://hl7.org/fhir/us/qicore/StructureDefinition/qicore-coverage" ]
      },
      "status": "active",
      "subscriberId": "123456",
      "beneficiary": {
        "reference": "Patient/765f96cd-d613-460d-98d1-111d44c08723"
      },
      "relationship": {
        "coding": [ {
          "system": "http://terminology.hl7.org/CodeSystem/subscriber-relationship",
          "code": "self",
          "display": "Self"
        } ]
      },
      "payor": [ {
        "reference": "Organization/9e175e0d-9e8d-41d2-8e8e-59a215266e9b"
      } ]
    }
  }, {
    "fullUrl": "https://madie.cms.gov/Organization/9e175e0d-9e8d-41d2-8e8e-59a215266e9b",
    "resource": {
      "resourceType": "Organization",
      "id": "9e175e0d-9e8d-41d2-8e8e-59a215266e9b",
      "meta": {
        "profile": [ "http://hl7.org/fhir/us/qicore/StructureDefinition/qicore-organization" ]
      },
      "identifier": [ {
        "use": "temp",
        "system": "urn:oid:2.16.840.1.113883.4.4",
        "value": "21-3259825"
      } ],
      "active": true,
      "type": [ {
        "coding": [ {
          "system": "http://terminology.hl7.org/CodeSystem/organization-type",
          "code": "pay",
          "display": "Payer"
        } ]
      } ],
      "name": "Blue Cross Blue Shield of Texas",
      "telecom": [ {
        "system": "phone",
        "value": "(+1) 972-766-6900"
      } ],
      "address": [ {
        "use": "billing",
        "type": "postal",
        "line": [ "P.O. Box 660044" ],
        "city": "Dallas",
        "state": "TX",
        "postalCode": "75266-0044",
        "country": "USA"
      } ]
    }
  }, {
    "fullUrl": "https://madie.cms.gov/Practitioner/a9761ace-7fde-4880-abfc-24923dba1335",
    "resource": {
      "resourceType": "Practitioner",
      "id": "a9761ace-7fde-4880-abfc-24923dba1335",
      "meta": {
        "profile": [ "http://hl7.org/fhir/us/qicore/StructureDefinition/qicore-practitioner" ]
      },
      "identifier": [ {
        "system": "http://hl7.org/fhir/sid/us-npi",
        "value": "1689411712"
      } ],
      "name": [ {
        "family": "Evil",
        "prefix": [ "Dr" ]
      } ]
    }
  }, {
    "fullUrl": "https://madie.cms.gov/MeasureReport/a22afa61-32d5-4d5f-8a09-adf6d31d2cfc",
    "resource": {
      "resourceType": "MeasureReport",
      "id": "a22afa61-32d5-4d5f-8a09-adf6d31d2cfc",
      "meta": {
        "profile": [ "http://hl7.org/fhir/us/cqfmeasures/StructureDefinition/test-case-cqfm" ]
      },
      "contained": [ {
        "resourceType": "Parameters",
        "id": "b897dc64-7a04-4c1b-bff7-f802c5b1a4cb-parameters",
        "parameter": [ {
          "name": "subject",
          "valueString": "765f96cd-d613-460d-98d1-111d44c08723"
        } ]
      } ],
      "extension": [ {
        "url": "http://hl7.org/fhir/StructureDefinition/cqf-inputParameters",
        "valueReference": {
          "reference": "#b897dc64-7a04-4c1b-bff7-f802c5b1a4cb-parameters"
        }
      }, {
        "url": "http://hl7.org/fhir/us/cqfmeasures/StructureDefinition/cqfm-testCaseDescription",
        "valueMarkdown": "Patient with HIV diagnosis on 12/31 before MP with an encounter before the MP"
      } ],
      "modifierExtension": [ {
        "url": "http://hl7.org/fhir/us/cqfmeasures/StructureDefinition/cqfm-isTestCase",
        "valueBoolean": true
      } ],
      "status": "complete",
      "type": "individual",
      "measure": "https://madie.cms.gov/Measure/CMS314FHIRHIVViralSuppression",
      "period": {
        "start": "2026-01-01",
        "end": "2026-12-31"
      },
      "group": [ {
        "id": "Group_1",
        "population": [ {
          "id": "InitialPopulation_1",
          "code": {
            "coding": [ {
              "system": "http://terminology.hl7.org/CodeSystem/measure-population",
              "code": "initial-population",
              "display": "Initial Population"
            } ]
          },
          "count": 0
        }, {
          "id": "Denominator_1",
          "code": {
            "coding": [ {
              "system": "http://terminology.hl7.org/CodeSystem/measure-population",
              "code": "denominator",
              "display": "Denominator"
            } ]
          },
          "count": 0
        }, {
          "id": "Numerator_1",
          "code": {
            "coding": [ {
              "system": "http://terminology.hl7.org/CodeSystem/measure-population",
              "code": "numerator",
              "display": "Numerator"
            } ]
          },
          "count": 0
        } ],
        "measureScore": {
          "value": 1.0
        }
      } ],
      "evaluatedResource": [ {
        "reference": "Patient/765f96cd-d613-460d-98d1-111d44c08723"
      }, {
        "reference": "Condition/0ec5a958-4a17-4bc3-86c8-ef7b19afee7b"
      }, {
        "reference": "Encounter/56d3344c-e1be-4aab-baf8-6c4d1fc11b8e"
      }, {
        "reference": "Coverage/dabb7be1-b2f1-41b9-82eb-3836912f96bd"
      }, {
        "reference": "Organization/9e175e0d-9e8d-41d2-8e8e-59a215266e9b"
      }, {
        "reference": "Practitioner/a9761ace-7fde-4880-abfc-24923dba1335"
      } ]
    }
  } ]
}