{
  "resourceType": "Bundle",
  "id": "60f82c3098086b570510e2dd",
  "type": "transaction",
  "entry": [ {
    "fullUrl": "https://madie.cms.gov/Patient/c97d55e0-29b4-4387-b9ed-ca0647eeb376",
    "resource": {
      "resourceType": "Patient",
      "id": "c97d55e0-29b4-4387-b9ed-ca0647eeb376",
      "meta": {
        "profile": [ "http://hl7.org/fhir/us/qicore/StructureDefinition/qicore-patient" ]
      },
      "text": {
        "status": "generated",
        "div": "<div xmlns=\"http://www.w3.org/1999/xhtml\"><div class=\"hapiHeaderText\">CMP_DayOf_RelvDat_1minAftObsEnd_EDEndLT1hrB4Obs_ObsEndLT1hrB4IP <b>DENEXPASS </b></div><table class=\"hapiPropertyTable\"><tbody><tr><td>Date of birth</td><td><span>01 January 1980</span></td></tr></tbody></table></div>"
      },
      "extension": [ {
        "url": "http://hl7.org/fhir/us/core/StructureDefinition/us-core-race",
        "extension": [ {
          "url": "ombCategory",
          "valueCoding": {
            "system": "urn:oid:2.16.840.1.113883.6.238",
            "code": "2106-3",
            "display": "White",
            "userSelected": true
          }
        }, {
          "url": "text",
          "valueString": "White"
        } ]
      }, {
        "url": "http://hl7.org/fhir/us/core/StructureDefinition/us-core-ethnicity",
        "extension": [ {
          "url": "ombCategory",
          "valueCoding": {
            "system": "urn:oid:2.16.840.1.113883.6.238",
            "code": "2186-5",
            "display": "Not Hispanic or Latino",
            "userSelected": true
          }
        }, {
          "url": "text",
          "valueString": "Not Hispanic or Latino"
        } ]
      } ],
      "identifier": [ {
        "type": {
          "coding": [ {
            "system": "http://terminology.hl7.org/CodeSystem/v2-0203",
            "code": "MR"
          } ]
        },
        "system": "https://bonnie-fhir.healthit.gov/",
        "value": "60f82c3098086b570510e2dd"
      } ],
      "active": true,
      "name": [ {
        "use": "usual",
        "family": "DENEXPass",
        "given": [ "CMPDayOfRelvDat1minAftObsEndEDEndLT1hrB4ObsObsEndLT1hrB4IP" ]
      } ],
      "gender": "female",
      "birthDate": "1981-01-01"
    },
    "request": {
      "method": "PUT",
      "url": "Patient/c97d55e0-29b4-4387-b9ed-ca0647eeb376"
    }
  }, {
    "fullUrl": "https://madie.cms.gov/Encounter/26e22aeb-c411-419b-b8cb-5da3ba28548e",
    "resource": {
      "resourceType": "Encounter",
      "id": "26e22aeb-c411-419b-b8cb-5da3ba28548e",
      "meta": {
        "profile": [ "http://hl7.org/fhir/us/qicore/StructureDefinition/qicore-encounter" ]
      },
      "status": "finished",
      "class": {
        "system": "http://terminology.hl7.org/CodeSystem/v3-ActCode",
        "code": "EMER",
        "display": "emergency",
        "userSelected": true
      },
      "type": [ {
        "coding": [ {
          "system": "http://snomed.info/sct",
          "code": "4525004"
        } ]
      } ],
      "subject": {
        "reference": "Patient/c97d55e0-29b4-4387-b9ed-ca0647eeb376"
      },
      "period": {
        "start": "2026-11-18T07:00:00.000+00:00",
        "end": "2026-11-18T08:01:00.000+00:00"
      },
      "diagnosis": [ {
        "condition": {
          "reference": "Condition/1463810d-62b3-428f-8397-0ee50927e7ab"
        },
        "use": {
          "coding": [ {
            "system": "http://terminology.hl7.org/CodeSystem/diagnosis-role",
            "code": "billing",
            "display": "Billing"
          } ]
        },
        "rank": 1
      } ]
    },
    "request": {
      "method": "PUT",
      "url": "Encounter/26e22aeb-c411-419b-b8cb-5da3ba28548e"
    }
  }, {
    "fullUrl": "https://madie.cms.gov/Encounter/54626856-148b-4da0-9586-d8db664b94e9",
    "resource": {
      "resourceType": "Encounter",
      "id": "54626856-148b-4da0-9586-d8db664b94e9",
      "meta": {
        "profile": [ "http://hl7.org/fhir/us/qicore/StructureDefinition/qicore-encounter" ]
      },
      "status": "finished",
      "class": {
        "system": "http://terminology.hl7.org/CodeSystem/v3-ActCode",
        "code": "OBSENC",
        "display": "observation encounter",
        "userSelected": true
      },
      "type": [ {
        "coding": [ {
          "system": "http://snomed.info/sct",
          "code": "448951000124107"
        } ]
      } ],
      "subject": {
        "reference": "Patient/c97d55e0-29b4-4387-b9ed-ca0647eeb376"
      },
      "period": {
        "start": "2026-11-18T09:00:00.000+00:00",
        "end": "2026-11-18T10:01:00.000+00:00"
      }
    },
    "request": {
      "method": "PUT",
      "url": "Encounter/54626856-148b-4da0-9586-d8db664b94e9"
    }
  }, {
    "fullUrl": "https://madie.cms.gov/Encounter/713de45c-c777-4cae-a017-047e0b5ea614",
    "resource": {
      "resourceType": "Encounter",
      "id": "713de45c-c777-4cae-a017-047e0b5ea614",
      "meta": {
        "profile": [ "http://hl7.org/fhir/us/qicore/StructureDefinition/qicore-encounter" ]
      },
      "status": "finished",
      "class": {
        "system": "http://terminology.hl7.org/CodeSystem/v3-ActCode",
        "code": "IMP",
        "display": "inpatient encounter",
        "userSelected": true
      },
      "type": [ {
        "coding": [ {
          "system": "http://snomed.info/sct",
          "code": "183452005"
        } ]
      } ],
      "subject": {
        "reference": "Patient/c97d55e0-29b4-4387-b9ed-ca0647eeb376"
      },
      "period": {
        "start": "2026-11-18T11:00:00.000+00:00",
        "end": "2026-11-20T08:15:00.000+00:00"
      },
      "reasonReference": [ {
        "reference": "Condition/1463810d-62b3-428f-8397-0ee50927e7ab"
      } ]
    },
    "request": {
      "method": "PUT",
      "url": "Encounter/713de45c-c777-4cae-a017-047e0b5ea614"
    }
  }, {
    "fullUrl": "https://madie.cms.gov/claim/5ca62962b8484628b8de1ec5",
    "resource": {
      "resourceType": "Claim",
      "id": "5ca62962b8484628b8de1ec5",
      "meta": {
        "profile": [ "http://hl7.org/fhir/us/qicore/StructureDefinition/qicore-claim" ]
      },
      "status": "active",
      "type": {
        "coding": [ {
          "system": "http://terminology.hl7.org/CodeSystem/claim-type",
          "code": "institutional"
        } ]
      },
      "use": "claim",
      "patient": {
        "reference": "Patient/c97d55e0-29b4-4387-b9ed-ca0647eeb376"
      },
      "created": "2026-12-01",
      "provider": {
        "reference": "Practitioner/practitioner-123456"
      },
      "priority": {
        "coding": [ {
          "system": "http://terminology.hl7.org/CodeSystem/processpriority",
          "code": "normal"
        } ]
      },
      "diagnosis": [ {
        "sequence": 1,
        "diagnosisCodeableConcept": {
          "coding": [ {
            "system": "http://hl7.org/fhir/sid/icd-10-cm",
            "code": "I63.00"
          } ]
        },
        "type": [ {
          "coding": [ {
            "system": "http://terminology.hl7.org/CodeSystem/ex-diagnosistype",
            "code": "principal"
          } ]
        } ]
      } ],
      "insurance": [ {
        "sequence": 1,
        "focal": true,
        "coverage": {
          "reference": "Coverage/7ab09319-dd7f-404d-ad20-92158112bc13"
        }
      } ],
      "item": [ {
        "sequence": 1,
        "diagnosisSequence": [ 1 ],
        "productOrService": {
          "coding": [ {
            "system": "http://terminology.hl7.org/CodeSystem/ex-USCLS",
            "code": "99555"
          } ]
        },
        "encounter": [ {
          "reference": "Encounter/713de45c-c777-4cae-a017-047e0b5ea614"
        } ]
      } ]
    },
    "request": {
      "method": "PUT",
      "url": "Claim/5ca62962b8484628b8de1ec5"
    }
  }, {
    "fullUrl": "https://madie.cms.gov/Procedure/f0e88ef6-f287-4470-82c0-f40d105d5aca",
    "resource": {
      "resourceType": "Procedure",
      "id": "f0e88ef6-f287-4470-82c0-f40d105d5aca",
      "meta": {
        "profile": [ "http://hl7.org/fhir/us/qicore/StructureDefinition/qicore-procedure" ]
      },
      "extension": [ {
        "url": "http://hl7.org/fhir/us/qicore/StructureDefinition/qicore-recorded",
        "valueDateTime": "2026-11-18T10:02:00.000+00:00"
      } ],
      "status": "completed",
      "code": {
        "coding": [ {
          "system": "http://snomed.info/sct",
          "code": "133918004"
        } ]
      },
      "subject": {
        "reference": "Patient/c97d55e0-29b4-4387-b9ed-ca0647eeb376"
      },
      "performedDateTime": "2026-11-18T10:02:00.000+00:00"
    },
    "request": {
      "method": "PUT",
      "url": "Procedure/f0e88ef6-f287-4470-82c0-f40d105d5aca"
    }
  }, {
    "fullUrl": "https://madie.cms.gov/Condition/1463810d-62b3-428f-8397-0ee50927e7ab",
    "resource": {
      "resourceType": "Condition",
      "id": "1463810d-62b3-428f-8397-0ee50927e7ab",
      "meta": {
        "profile": [ "http://hl7.org/fhir/us/qicore/StructureDefinition/qicore-condition-encounter-diagnosis" ]
      },
      "clinicalStatus": {
        "coding": [ {
          "system": "http://terminology.hl7.org/CodeSystem/condition-clinical",
          "code": "active"
        } ]
      },
      "verificationStatus": {
        "coding": [ {
          "system": "http://terminology.hl7.org/CodeSystem/condition-ver-status",
          "code": "confirmed"
        } ]
      },
      "category": [ {
        "coding": [ {
          "system": "http://terminology.hl7.org/CodeSystem/condition-category",
          "code": "encounter-diagnosis",
          "display": "Encounter Diagnosis"
        } ]
      } ],
      "code": {
        "coding": [ {
          "system": "http://snomed.info/sct",
          "version": "2020-09",
          "code": "111297002",
          "display": "Nonparalytic stroke (disorder)",
          "userSelected": true
        } ]
      },
      "subject": {
        "reference": "Patient/c97d55e0-29b4-4387-b9ed-ca0647eeb376"
      },
      "recordedDate": "2026-08-13T08:00:00.000+00:00"
    },
    "request": {
      "method": "PUT",
      "url": "Condition/1463810d-62b3-428f-8397-0ee50927e7ab"
    }
  }, {
    "fullUrl": "https://madie.cms.gov/Coverage/7ab09319-dd7f-404d-ad20-92158112bc13",
    "resource": {
      "resourceType": "Coverage",
      "id": "7ab09319-dd7f-404d-ad20-92158112bc13",
      "meta": {
        "profile": [ "http://hl7.org/fhir/us/qicore/StructureDefinition/qicore-coverage" ]
      },
      "status": "active",
      "beneficiary": {
        "reference": "Patient/c97d55e0-29b4-4387-b9ed-ca0647eeb376"
      },
      "payor": [ {
        "reference": "Organization/67d34996-7e84-433f-8256-3d66fea27b55"
      } ]
    },
    "request": {
      "method": "PUT",
      "url": "Coverage/7ab09319-dd7f-404d-ad20-92158112bc13"
    }
  }, {
    "fullUrl": "https://madie.cms.gov/Organization/67d34996-7e84-433f-8256-3d66fea27b55",
    "resource": {
      "resourceType": "Organization",
      "id": "67d34996-7e84-433f-8256-3d66fea27b55",
      "meta": {
        "profile": [ "http://hl7.org/fhir/us/qicore/StructureDefinition/qicore-organization" ]
      },
      "identifier": [ {
        "use": "temp",
        "system": "urn:oid:2.16.840.1.113883.4.4",
        "value": "21-3259825"
      } ],
      "active": true,
      "type": [ {
        "coding": [ {
          "system": "http://terminology.hl7.org/CodeSystem/organization-type",
          "code": "pay",
          "display": "Payer"
        } ]
      } ],
      "name": "Blue Cross Blue Shield of Texas",
      "telecom": [ {
        "system": "phone",
        "value": "(+1) 972-766-6900"
      } ],
      "address": [ {
        "use": "billing",
        "type": "postal",
        "line": [ "P.O. Box 660044" ],
        "city": "Dallas",
        "state": "TX",
        "postalCode": "75266-0044",
        "country": "USA"
      } ]
    },
    "request": {
      "method": "PUT",
      "url": "Organization/67d34996-7e84-433f-8256-3d66fea27b55"
    }
  }, {
    "fullUrl": "https://madie.cms.gov/MeasureReport/04c126d3-43fb-4557-8c6a-d87573412564",
    "resource": {
      "resourceType": "MeasureReport",
      "id": "04c126d3-43fb-4557-8c6a-d87573412564",
      "meta": {
        "profile": [ "http://hl7.org/fhir/us/cqfmeasures/StructureDefinition/test-case-cqfm" ]
      },
      "contained": [ {
        "resourceType": "Parameters",
        "id": "e9a4c872-b0f6-4827-bd51-f17dd397485e-parameters",
        "parameter": [ {
          "name": "subject",
          "valueString": "c97d55e0-29b4-4387-b9ed-ca0647eeb376"
        } ]
      } ],
      "extension": [ {
        "url": "http://hl7.org/fhir/StructureDefinition/cqf-inputParameters",
        "valueReference": {
          "reference": "#e9a4c872-b0f6-4827-bd51-f17dd397485e-parameters"
        }
      }, {
        "url": "http://hl7.org/fhir/us/cqfmeasures/StructureDefinition/cqfm-testCaseDescription",
        "valueMarkdown": "Patient receives comfort measures performed on the day of hospital arrival, 1 minute after Obs end. ED ends less than 1 hour before Obs Start, Obs ends less than 1 hour before IP start.\n"
      } ],
      "modifierExtension": [ {
        "url": "http://hl7.org/fhir/us/cqfmeasures/StructureDefinition/cqfm-isTestCase",
        "valueBoolean": true
      } ],
      "status": "complete",
      "type": "individual",
      "measure": "https://madie.cms.gov/Measure/CMS72FHIRSTKAntithromboticDay2",
      "period": {
        "start": "2026-01-01",
        "end": "2026-12-31"
      },
      "group": [ {
        "id": "Group_1",
        "population": [ {
          "id": "InitialPopulation_1",
          "code": {
            "coding": [ {
              "system": "http://terminology.hl7.org/CodeSystem/measure-population",
              "code": "initial-population",
              "display": "Initial Population"
            } ]
          },
          "count": 1
        }, {
          "id": "Denominator_1",
          "code": {
            "coding": [ {
              "system": "http://terminology.hl7.org/CodeSystem/measure-population",
              "code": "denominator",
              "display": "Denominator"
            } ]
          },
          "count": 1
        }, {
          "id": "DenominatorExclusion_1",
          "code": {
            "coding": [ {
              "system": "http://terminology.hl7.org/CodeSystem/measure-population",
              "code": "denominator-exclusion",
              "display": "Denominator Exclusion"
            } ]
          },
          "count": 1
        }, {
          "id": "Numerator_1",
          "code": {
            "coding": [ {
              "system": "http://terminology.hl7.org/CodeSystem/measure-population",
              "code": "numerator",
              "display": "Numerator"
            } ]
          },
          "count": 0
        }, {
          "id": "DenominatorException_1",
          "code": {
            "coding": [ {
              "system": "http://terminology.hl7.org/CodeSystem/measure-population",
              "code": "denominator-exception",
              "display": "Denominator Exception"
            } ]
          },
          "count": 0
        } ],
        "measureScore": {
          "value": 0.0
        }
      } ],
      "evaluatedResource": [ {
        "reference": "Patient/c97d55e0-29b4-4387-b9ed-ca0647eeb376"
      }, {
        "reference": "Encounter/26e22aeb-c411-419b-b8cb-5da3ba28548e"
      }, {
        "reference": "Encounter/54626856-148b-4da0-9586-d8db664b94e9"
      }, {
        "reference": "Encounter/713de45c-c777-4cae-a017-047e0b5ea614"
      }, {
        "reference": "Claim/5ca62962b8484628b8de1ec5"
      }, {
        "reference": "Procedure/f0e88ef6-f287-4470-82c0-f40d105d5aca"
      }, {
        "reference": "Condition/1463810d-62b3-428f-8397-0ee50927e7ab"
      }, {
        "reference": "Coverage/7ab09319-dd7f-404d-ad20-92158112bc13"
      }, {
        "reference": "Organization/67d34996-7e84-433f-8256-3d66fea27b55"
      } ]
    },
    "request": {
      "method": "PUT",
      "url": "MeasureReport/04c126d3-43fb-4557-8c6a-d87573412564"
    }
  } ]
}