{
  "resourceType": "Bundle",
  "id": "6109650598086b538055a0e9",
  "type": "transaction",
  "entry": [ {
    "fullUrl": "https://madie.cms.gov/Patient/bb5e3c95-fbde-4ed7-9099-0dab743355ed",
    "resource": {
      "resourceType": "Patient",
      "id": "bb5e3c95-fbde-4ed7-9099-0dab743355ed",
      "meta": {
        "profile": [ "http://hl7.org/fhir/us/qicore/StructureDefinition/qicore-patient" ]
      },
      "text": {
        "status": "generated",
        "div": "<div xmlns=\"http://www.w3.org/1999/xhtml\"><div class=\"hapiHeaderText\">RiskAssessXTwoOVEnc <b>NUMERPASS </b></div><table class=\"hapiPropertyTable\"><tbody><tr><td>Identifier</td><td>eb39db236fbd42849665adb181c344fd</td></tr><tr><td>Date of birth</td><td><span>13 December 1995</span></td></tr></tbody></table></div>"
      },
      "extension": [ {
        "url": "http://hl7.org/fhir/us/core/StructureDefinition/us-core-race",
        "extension": [ {
          "url": "ombCategory",
          "valueCoding": {
            "system": "urn:oid:2.16.840.1.113883.6.238",
            "code": "1002-5",
            "display": "American Indian or Alaska Native",
            "userSelected": true
          }
        }, {
          "url": "text",
          "valueString": "American Indian or Alaska Native"
        } ]
      }, {
        "url": "http://hl7.org/fhir/us/core/StructureDefinition/us-core-ethnicity",
        "extension": [ {
          "url": "ombCategory",
          "valueCoding": {
            "system": "urn:oid:2.16.840.1.113883.6.238",
            "code": "2135-2",
            "display": "Hispanic or Latino",
            "userSelected": true
          }
        }, {
          "url": "text",
          "valueString": "Hispanic or Latino"
        } ]
      } ],
      "identifier": [ {
        "type": {
          "coding": [ {
            "system": "http://terminology.hl7.org/CodeSystem/v2-0203",
            "code": "MR"
          } ]
        },
        "system": "https://bonnie-fhir.healthit.gov/",
        "value": "6109650598086b538055a0e9"
      } ],
      "active": true,
      "name": [ {
        "use": "usual",
        "family": "NUMPass",
        "given": [ "TwoRiskAssmtOneEnc" ]
      } ],
      "gender": "female",
      "birthDate": "2010-12-13"
    },
    "request": {
      "method": "PUT",
      "url": "Patient/bb5e3c95-fbde-4ed7-9099-0dab743355ed"
    }
  }, {
    "fullUrl": "https://madie.cms.gov/Encounter/9995b580-1826-47c1-a9e6-5aea2dd4cf1d",
    "resource": {
      "resourceType": "Encounter",
      "id": "9995b580-1826-47c1-a9e6-5aea2dd4cf1d",
      "meta": {
        "profile": [ "http://hl7.org/fhir/us/qicore/StructureDefinition/qicore-encounter" ]
      },
      "status": "finished",
      "class": {
        "system": "http://terminology.hl7.org/CodeSystem/v3-ActCode",
        "code": "AMB",
        "display": "ambulatory",
        "userSelected": true
      },
      "type": [ {
        "coding": [ {
          "system": "http://www.ama-assn.org/go/cpt",
          "code": "90845"
        } ]
      } ],
      "subject": {
        "reference": "Patient/bb5e3c95-fbde-4ed7-9099-0dab743355ed"
      },
      "period": {
        "start": "2026-02-11T08:00:00.000+00:00",
        "end": "2026-02-11T08:18:00.000+00:00"
      },
      "reasonCode": [ {
        "coding": [ {
          "system": "http://snomed.info/sct",
          "version": "2023-09",
          "code": "67002003",
          "display": "Severe bipolar II disorder, most recent episode major depressive, in partial remission (disorder)",
          "userSelected": true
        } ]
      } ],
      "diagnosis": [ {
        "condition": {
          "reference": "Condition/744d1ba0-a674-4747-a251-614c778cd416"
        },
        "use": {
          "coding": [ {
            "system": "http://snomed.info/sct",
            "version": "2023-09",
            "code": "67002003",
            "display": "Severe bipolar II disorder, most recent episode major depressive, in partial remission (disorder)",
            "userSelected": true
          } ]
        }
      } ]
    },
    "request": {
      "method": "PUT",
      "url": "Encounter/9995b580-1826-47c1-a9e6-5aea2dd4cf1d"
    }
  }, {
    "fullUrl": "https://madie.cms.gov/Procedure/634b463e-1fec-44da-b6b1-5ae348bf004a",
    "resource": {
      "resourceType": "Procedure",
      "id": "634b463e-1fec-44da-b6b1-5ae348bf004a",
      "meta": {
        "profile": [ "http://hl7.org/fhir/us/qicore/StructureDefinition/qicore-procedure" ]
      },
      "extension": [ {
        "url": "http://hl7.org/fhir/us/qicore/StructureDefinition/qicore-recorded",
        "valueDateTime": "2026-02-11T08:05:00.000+00:00"
      } ],
      "status": "completed",
      "code": {
        "coding": [ {
          "system": "http://snomed.info/sct",
          "code": "225337009"
        } ]
      },
      "subject": {
        "reference": "Patient/bb5e3c95-fbde-4ed7-9099-0dab743355ed"
      },
      "performedDateTime": "2026-02-11T08:05:00.000+00:00"
    },
    "request": {
      "method": "PUT",
      "url": "Procedure/634b463e-1fec-44da-b6b1-5ae348bf004a"
    }
  }, {
    "fullUrl": "https://madie.cms.gov/Procedure/a242c545-d5f0-485c-b4fd-816330263bd6",
    "resource": {
      "resourceType": "Procedure",
      "id": "a242c545-d5f0-485c-b4fd-816330263bd6",
      "meta": {
        "profile": [ "http://hl7.org/fhir/us/qicore/StructureDefinition/qicore-procedure" ]
      },
      "extension": [ {
        "url": "http://hl7.org/fhir/us/qicore/StructureDefinition/qicore-recorded",
        "valueDateTime": "2026-02-11T08:01:00.000+00:00"
      } ],
      "status": "completed",
      "code": {
        "coding": [ {
          "system": "http://snomed.info/sct",
          "code": "225337009"
        } ]
      },
      "subject": {
        "reference": "Patient/bb5e3c95-fbde-4ed7-9099-0dab743355ed"
      },
      "performedDateTime": "2026-02-11T08:01:00.000+00:00"
    },
    "request": {
      "method": "PUT",
      "url": "Procedure/a242c545-d5f0-485c-b4fd-816330263bd6"
    }
  }, {
    "fullUrl": "https://madie.cms.gov/Condition/744d1ba0-a674-4747-a251-614c778cd416",
    "resource": {
      "resourceType": "Condition",
      "id": "744d1ba0-a674-4747-a251-614c778cd416",
      "meta": {
        "profile": [ "http://hl7.org/fhir/us/qicore/StructureDefinition/qicore-condition" ]
      },
      "category": [ {
        "coding": [ {
          "system": "http://terminology.hl7.org/CodeSystem/condition-category",
          "code": "encounter-diagnosis",
          "display": "encounter-diagnosis",
          "userSelected": true
        } ]
      } ],
      "code": {
        "coding": [ {
          "system": "http://snomed.info/sct",
          "version": "2023-09",
          "code": "67002003",
          "display": "Severe bipolar II disorder, most recent episode major depressive, in partial remission (disorder)",
          "userSelected": true
        } ]
      },
      "subject": {
        "reference": "Patient/bb5e3c95-fbde-4ed7-9099-0dab743355ed"
      },
      "recordedDate": "2026-02-11T08:00:00.000+00:00"
    },
    "request": {
      "method": "PUT",
      "url": "Condition/744d1ba0-a674-4747-a251-614c778cd416"
    }
  }, {
    "fullUrl": "https://madie.cms.gov/Coverage/4547e25a-dc31-4f98-8af5-e52738b984c6",
    "resource": {
      "resourceType": "Coverage",
      "id": "4547e25a-dc31-4f98-8af5-e52738b984c6",
      "meta": {
        "profile": [ "http://hl7.org/fhir/us/qicore/StructureDefinition/qicore-coverage" ]
      },
      "identifier": [ {
        "system": "http://benefitsinc.com/certificate",
        "value": "12345"
      } ],
      "status": "active",
      "type": {
        "coding": [ {
          "system": "https://nahdo.org/sopt",
          "code": "22",
          "userSelected": true
        } ]
      },
      "beneficiary": {
        "reference": "Patient/bb5e3c95-fbde-4ed7-9099-0dab743355ed"
      },
      "period": {
        "start": "2026-01-01T08:00:00.000+00:00",
        "end": "2026-03-28T00:15:00.000+00:00"
      },
      "payor": [ {
        "reference": "Organization/3bffc7f8-8e40-48ae-a9c5-e29d6aaf1407"
      } ]
    },
    "request": {
      "method": "PUT",
      "url": "Coverage/4547e25a-dc31-4f98-8af5-e52738b984c6"
    }
  }, {
    "fullUrl": "https://madie.cms.gov/Organization/3bffc7f8-8e40-48ae-a9c5-e29d6aaf1407",
    "resource": {
      "resourceType": "Organization",
      "id": "3bffc7f8-8e40-48ae-a9c5-e29d6aaf1407",
      "meta": {
        "profile": [ "http://hl7.org/fhir/us/qicore/StructureDefinition/qicore-organization" ]
      },
      "identifier": [ {
        "use": "temp",
        "system": "urn:oid:2.16.840.1.113883.4.4",
        "value": "21-3259825"
      } ],
      "active": true,
      "type": [ {
        "coding": [ {
          "system": "http://terminology.hl7.org/CodeSystem/organization-type",
          "code": "pay",
          "display": "Payer"
        } ]
      } ],
      "name": "Blue Cross Blue Shield of Texas",
      "telecom": [ {
        "system": "phone",
        "value": "(+1) 972-766-6900"
      } ],
      "address": [ {
        "use": "billing",
        "type": "postal",
        "line": [ "P.O. Box 660044" ],
        "city": "Dallas",
        "state": "TX",
        "postalCode": "75266-0044",
        "country": "USA"
      } ]
    },
    "request": {
      "method": "PUT",
      "url": "Organization/3bffc7f8-8e40-48ae-a9c5-e29d6aaf1407"
    }
  }, {
    "fullUrl": "https://madie.cms.gov/Practitioner/d14cf004-a15a-4ae3-8816-1864d0faa3ce",
    "resource": {
      "resourceType": "Practitioner",
      "id": "d14cf004-a15a-4ae3-8816-1864d0faa3ce",
      "meta": {
        "profile": [ "http://hl7.org/fhir/us/qicore/StructureDefinition/qicore-practitioner" ]
      },
      "identifier": [ {
        "system": "http://hl7.org/fhir/sid/us-npi",
        "value": "123456"
      } ],
      "name": [ {
        "family": "Evil",
        "prefix": [ "Dr" ]
      } ]
    },
    "request": {
      "method": "PUT",
      "url": "Practitioner/d14cf004-a15a-4ae3-8816-1864d0faa3ce"
    }
  }, {
    "fullUrl": "https://madie.cms.gov/MeasureReport/4fbd3ac8-7af9-45a1-93cf-3ebfbf74266b",
    "resource": {
      "resourceType": "MeasureReport",
      "id": "4fbd3ac8-7af9-45a1-93cf-3ebfbf74266b",
      "meta": {
        "profile": [ "http://hl7.org/fhir/us/cqfmeasures/StructureDefinition/test-case-cqfm" ]
      },
      "contained": [ {
        "resourceType": "Parameters",
        "id": "e656e334-9b8a-4123-abcf-dba4d6529c0e-parameters",
        "parameter": [ {
          "name": "subject",
          "valueString": "bb5e3c95-fbde-4ed7-9099-0dab743355ed"
        } ]
      } ],
      "extension": [ {
        "url": "http://hl7.org/fhir/StructureDefinition/cqf-inputParameters",
        "valueReference": {
          "reference": "#e656e334-9b8a-4123-abcf-dba4d6529c0e-parameters"
        }
      }, {
        "url": "http://hl7.org/fhir/us/cqfmeasures/StructureDefinition/cqfm-testCaseDescription",
        "valueMarkdown": "Patient with depression diagnosis and two suicide risk assessments during office visit."
      } ],
      "modifierExtension": [ {
        "url": "http://hl7.org/fhir/us/cqfmeasures/StructureDefinition/cqfm-isTestCase",
        "valueBoolean": true
      } ],
      "status": "complete",
      "type": "individual",
      "measure": "https://madie.cms.gov/Measure/CMS177FHIRChildMDDSuicideAssmt",
      "period": {
        "start": "2026-01-01",
        "end": "2026-12-31"
      },
      "group": [ {
        "id": "Group_1",
        "population": [ {
          "id": "InitialPopulation_1",
          "code": {
            "coding": [ {
              "system": "http://terminology.hl7.org/CodeSystem/measure-population",
              "code": "initial-population",
              "display": "Initial Population"
            } ]
          },
          "count": 1
        }, {
          "id": "Denominator_1",
          "code": {
            "coding": [ {
              "system": "http://terminology.hl7.org/CodeSystem/measure-population",
              "code": "denominator",
              "display": "Denominator"
            } ]
          },
          "count": 1
        }, {
          "id": "Numerator_1",
          "code": {
            "coding": [ {
              "system": "http://terminology.hl7.org/CodeSystem/measure-population",
              "code": "numerator",
              "display": "Numerator"
            } ]
          },
          "count": 1
        } ],
        "measureScore": {
          "value": 0.0
        }
      } ],
      "evaluatedResource": [ {
        "reference": "Patient/bb5e3c95-fbde-4ed7-9099-0dab743355ed"
      }, {
        "reference": "Encounter/9995b580-1826-47c1-a9e6-5aea2dd4cf1d"
      }, {
        "reference": "Procedure/634b463e-1fec-44da-b6b1-5ae348bf004a"
      }, {
        "reference": "Procedure/a242c545-d5f0-485c-b4fd-816330263bd6"
      }, {
        "reference": "Condition/744d1ba0-a674-4747-a251-614c778cd416"
      }, {
        "reference": "Coverage/4547e25a-dc31-4f98-8af5-e52738b984c6"
      }, {
        "reference": "Organization/3bffc7f8-8e40-48ae-a9c5-e29d6aaf1407"
      }, {
        "reference": "Practitioner/d14cf004-a15a-4ae3-8816-1864d0faa3ce"
      } ]
    },
    "request": {
      "method": "PUT",
      "url": "MeasureReport/4fbd3ac8-7af9-45a1-93cf-3ebfbf74266b"
    }
  } ]
}