{
  "resourceType": "Bundle",
  "id": "612e6f7102c62a011f2f1e30",
  "type": "transaction",
  "entry": [ {
    "fullUrl": "https://madie.cms.gov/Patient/7572464e-7191-4b5c-bad1-c7acd195178d",
    "resource": {
      "resourceType": "Patient",
      "id": "7572464e-7191-4b5c-bad1-c7acd195178d",
      "meta": {
        "profile": [ "http://hl7.org/fhir/us/qicore/StructureDefinition/qicore-patient" ]
      },
      "text": {
        "status": "generated",
        "div": "<div xmlns=\"http://www.w3.org/1999/xhtml\"><div class=\"hapiHeaderText\">TestMultipleOccur1inNum1inExcept <b>NUMERPASS </b></div><table class=\"hapiPropertyTable\"><tbody><tr><td>Identifier</td><td>7eb67ce98abae0db784097d37457cc127812e19c5da043ea7e60ae3fb3b930ef</td></tr><tr><td>Date of birth</td><td><span>03 March 1974</span></td></tr></tbody></table></div>"
      },
      "extension": [ {
        "url": "http://hl7.org/fhir/us/core/StructureDefinition/us-core-race",
        "extension": [ {
          "url": "ombCategory",
          "valueCoding": {
            "system": "urn:oid:2.16.840.1.113883.6.238",
            "code": "1002-5",
            "display": "American Indian or Alaska Native",
            "userSelected": true
          }
        }, {
          "url": "text",
          "valueString": "American Indian or Alaska Native"
        } ]
      }, {
        "url": "http://hl7.org/fhir/us/core/StructureDefinition/us-core-ethnicity",
        "extension": [ {
          "url": "ombCategory",
          "valueCoding": {
            "system": "urn:oid:2.16.840.1.113883.6.238",
            "code": "2135-2",
            "display": "Hispanic or Latino",
            "userSelected": true
          }
        }, {
          "url": "text",
          "valueString": "Hispanic or Latino"
        } ]
      } ],
      "identifier": [ {
        "type": {
          "coding": [ {
            "system": "http://terminology.hl7.org/CodeSystem/v2-0203",
            "code": "MR"
          } ]
        },
        "system": "https://bonnie-fhir.healthit.gov/",
        "value": "612e6f7102c62a011f2f1e30"
      } ],
      "active": true,
      "name": [ {
        "use": "usual",
        "family": "NUMERPass",
        "given": [ "TestMultipleOccur1inNum1inExcept" ]
      } ],
      "gender": "female",
      "birthDate": "1975-03-03"
    },
    "request": {
      "method": "PUT",
      "url": "Patient/7572464e-7191-4b5c-bad1-c7acd195178d"
    }
  }, {
    "fullUrl": "https://madie.cms.gov/Encounter/1d4afd7c-17da-41cb-8da7-4bd1547ab2d1",
    "resource": {
      "resourceType": "Encounter",
      "id": "1d4afd7c-17da-41cb-8da7-4bd1547ab2d1",
      "meta": {
        "profile": [ "http://hl7.org/fhir/us/qicore/StructureDefinition/qicore-encounter" ]
      },
      "status": "finished",
      "class": {
        "system": "http://terminology.hl7.org/CodeSystem/v3-ActCode",
        "code": "IMP",
        "display": "inpatient encounter"
      },
      "type": [ {
        "coding": [ {
          "system": "http://snomed.info/sct",
          "code": "183452005"
        } ]
      } ],
      "subject": {
        "reference": "Patient/7572464e-7191-4b5c-bad1-c7acd195178d"
      },
      "period": {
        "start": "2026-03-22T08:00:00.000+00:00",
        "end": "2026-03-26T08:15:00.000+00:00"
      },
      "length": {
        "value": 4.0,
        "unit": "days"
      },
      "location": [ {
        "location": {
          "reference": "Location/54072a61-be1a-4670-b49b-ecd3b708d642"
        },
        "period": {
          "start": "2026-03-22T08:15:00.000+00:00",
          "end": "2026-03-24T08:00:00.000+00:00"
        }
      } ]
    },
    "request": {
      "method": "PUT",
      "url": "Encounter/1d4afd7c-17da-41cb-8da7-4bd1547ab2d1"
    }
  }, {
    "fullUrl": "https://madie.cms.gov/Encounter/db557555-9f94-49d2-b5d6-31d9266cd331",
    "resource": {
      "resourceType": "Encounter",
      "id": "db557555-9f94-49d2-b5d6-31d9266cd331",
      "meta": {
        "profile": [ "http://hl7.org/fhir/us/qicore/StructureDefinition/qicore-encounter" ]
      },
      "status": "finished",
      "class": {
        "system": "http://terminology.hl7.org/CodeSystem/v3-ActCode",
        "code": "OBSENC",
        "display": "observation encounter"
      },
      "type": [ {
        "coding": [ {
          "system": "http://snomed.info/sct",
          "code": "4525004"
        } ]
      } ],
      "subject": {
        "reference": "Patient/7572464e-7191-4b5c-bad1-c7acd195178d"
      },
      "period": {
        "start": "2026-12-06T02:00:00.000+00:00",
        "end": "2026-12-06T08:15:00.000+00:00"
      },
      "length": {
        "value": 0.0,
        "unit": "days"
      }
    },
    "request": {
      "method": "PUT",
      "url": "Encounter/db557555-9f94-49d2-b5d6-31d9266cd331"
    }
  }, {
    "fullUrl": "https://madie.cms.gov/Encounter/4ea01833-7df5-43ba-ab27-ed0916588f35",
    "resource": {
      "resourceType": "Encounter",
      "id": "4ea01833-7df5-43ba-ab27-ed0916588f35",
      "meta": {
        "profile": [ "http://hl7.org/fhir/us/qicore/StructureDefinition/qicore-encounter" ]
      },
      "status": "finished",
      "class": {
        "system": "http://terminology.hl7.org/CodeSystem/v3-ActCode",
        "code": "IMP",
        "display": "inpatient encounter"
      },
      "type": [ {
        "coding": [ {
          "system": "http://snomed.info/sct",
          "code": "8715000"
        } ]
      } ],
      "subject": {
        "reference": "Patient/7572464e-7191-4b5c-bad1-c7acd195178d"
      },
      "period": {
        "start": "2026-12-06T08:45:00.000+00:00",
        "end": "2026-12-30T08:15:00.000+00:00"
      },
      "length": {
        "value": 24.0,
        "unit": "days"
      },
      "location": [ {
        "location": {
          "reference": "Location/e7ac94fe-ff40-4b34-be3f-b7f320be810c"
        },
        "period": {
          "start": "2026-12-07T08:45:00.000+00:00",
          "end": "2026-12-07T20:00:00.000+00:00"
        }
      } ]
    },
    "request": {
      "method": "PUT",
      "url": "Encounter/4ea01833-7df5-43ba-ab27-ed0916588f35"
    }
  }, {
    "fullUrl": "https://madie.cms.gov/Coverage/bb84b6ca-2504-4e77-b729-873cc6279613",
    "resource": {
      "resourceType": "Coverage",
      "id": "bb84b6ca-2504-4e77-b729-873cc6279613",
      "status": "active",
      "beneficiary": {
        "reference": "Patient/7572464e-7191-4b5c-bad1-c7acd195178d"
      },
      "period": {
        "start": "1975-03-03T08:00:00.000+00:00"
      },
      "payor": [ {
        "reference": "Organization/a7606229-fbb2-4098-b5b9-1e286e47b1da"
      } ]
    },
    "request": {
      "method": "PUT",
      "url": "Coverage/bb84b6ca-2504-4e77-b729-873cc6279613"
    }
  }, {
    "fullUrl": "https://madie.cms.gov/Location/54072a61-be1a-4670-b49b-ecd3b708d642",
    "resource": {
      "resourceType": "Location",
      "id": "54072a61-be1a-4670-b49b-ecd3b708d642",
      "meta": {
        "profile": [ "http://hl7.org/fhir/us/qicore/StructureDefinition/qicore-location" ]
      },
      "identifier": [ {
        "use": "usual",
        "system": "http://exampleoflocation.com",
        "value": "B1-S.F2"
      } ],
      "name": "Medical Surgical East, first floor",
      "type": [ {
        "coding": [ {
          "system": "https://www.cdc.gov/nhsn/cdaportal/terminology/codesystem/hsloc.html",
          "code": "1025-6",
          "display": "Trauma Critical Care",
          "userSelected": true
        } ]
      } ]
    },
    "request": {
      "method": "PUT",
      "url": "Location/54072a61-be1a-4670-b49b-ecd3b708d642"
    }
  }, {
    "fullUrl": "https://madie.cms.gov/Location/e7ac94fe-ff40-4b34-be3f-b7f320be810c",
    "resource": {
      "resourceType": "Location",
      "id": "e7ac94fe-ff40-4b34-be3f-b7f320be810c",
      "meta": {
        "profile": [ "http://hl7.org/fhir/us/qicore/StructureDefinition/qicore-location" ]
      },
      "identifier": [ {
        "use": "usual",
        "system": "http://exampleoflocation.com",
        "value": "B1-S.F2"
      } ],
      "name": "Medical Surgical East, first floor",
      "type": [ {
        "coding": [ {
          "system": "https://www.cdc.gov/nhsn/cdaportal/terminology/codesystem/hsloc.html",
          "code": "1025-6",
          "display": "Trauma Critical Care",
          "userSelected": true
        } ]
      } ]
    },
    "request": {
      "method": "PUT",
      "url": "Location/e7ac94fe-ff40-4b34-be3f-b7f320be810c"
    }
  }, {
    "fullUrl": "https://madie.cms.gov/Procedure/14e03d6b-f993-41c9-bf96-a32be3e3f9e2",
    "resource": {
      "resourceType": "Procedure",
      "id": "14e03d6b-f993-41c9-bf96-a32be3e3f9e2",
      "meta": {
        "profile": [ "http://hl7.org/fhir/us/qicore/StructureDefinition/qicore-procedure" ]
      },
      "extension": [ {
        "url": "http://hl7.org/fhir/us/qicore/StructureDefinition/qicore-recorded",
        "valueDateTime": "2026-03-26T13:35:00.000+00:00"
      } ],
      "status": "completed",
      "code": {
        "coding": [ {
          "system": "http://snomed.info/sct",
          "code": "229511001"
        } ]
      },
      "subject": {
        "reference": "Patient/7572464e-7191-4b5c-bad1-c7acd195178d"
      },
      "performedPeriod": {
        "start": "2026-03-22T08:05:00.000+00:00",
        "end": "2026-03-22T08:15:00.000+00:00"
      }
    },
    "request": {
      "method": "PUT",
      "url": "Procedure/14e03d6b-f993-41c9-bf96-a32be3e3f9e2"
    }
  }, {
    "fullUrl": "https://madie.cms.gov/Location/3c36e09e-6113-4ae0-b137-66fc72c67357",
    "resource": {
      "resourceType": "Location",
      "id": "3c36e09e-6113-4ae0-b137-66fc72c67357",
      "meta": {
        "profile": [ "http://hl7.org/fhir/us/qicore/StructureDefinition/qicore-location" ]
      },
      "identifier": [ {
        "use": "usual",
        "system": "http://exampleoflocation.com",
        "value": "B1-S.F2"
      } ],
      "name": "Medical Surgical East, first floor",
      "type": [ {
        "coding": [ {
          "system": "https://www.cdc.gov/nhsn/cdaportal/terminology/codesystem/hsloc.html",
          "code": "1025-6",
          "display": "Trauma Critical Care",
          "userSelected": true
        } ]
      } ]
    },
    "request": {
      "method": "PUT",
      "url": "Location/3c36e09e-6113-4ae0-b137-66fc72c67357"
    }
  }, {
    "fullUrl": "https://madie.cms.gov/Organization/a7606229-fbb2-4098-b5b9-1e286e47b1da",
    "resource": {
      "resourceType": "Organization",
      "id": "a7606229-fbb2-4098-b5b9-1e286e47b1da",
      "meta": {
        "profile": [ "http://hl7.org/fhir/us/qicore/StructureDefinition/qicore-organization" ]
      },
      "identifier": [ {
        "use": "temp",
        "system": "urn:oid:2.16.840.1.113883.4.4",
        "value": "21-3259825"
      } ],
      "active": true,
      "type": [ {
        "coding": [ {
          "system": "http://terminology.hl7.org/CodeSystem/organization-type",
          "code": "pay",
          "display": "Payer"
        } ]
      } ],
      "name": "Blue Cross Blue Shield of Texas",
      "telecom": [ {
        "system": "phone",
        "value": "(+1) 972-766-6900"
      } ],
      "address": [ {
        "use": "billing",
        "type": "postal",
        "line": [ "P.O. Box 660044" ],
        "city": "Dallas",
        "state": "TX",
        "postalCode": "75266-0044",
        "country": "USA"
      } ]
    },
    "request": {
      "method": "PUT",
      "url": "Organization/a7606229-fbb2-4098-b5b9-1e286e47b1da"
    }
  }, {
    "fullUrl": "https://madie.cms.gov/Practitioner/26b2e53d-146f-465b-9521-f2e473cf9d72",
    "resource": {
      "resourceType": "Practitioner",
      "id": "26b2e53d-146f-465b-9521-f2e473cf9d72",
      "identifier": [ {
        "system": "http://hl7.org/fhir/sid/us-npi",
        "value": "123456"
      } ],
      "name": [ {
        "family": "Evil",
        "prefix": [ "Dr" ]
      } ]
    },
    "request": {
      "method": "PUT",
      "url": "Practitioner/26b2e53d-146f-465b-9521-f2e473cf9d72"
    }
  }, {
    "fullUrl": "https://madie.cms.gov/MeasureReport/3a5265ea-8155-41e2-8738-259f0890dfd8",
    "resource": {
      "resourceType": "MeasureReport",
      "id": "3a5265ea-8155-41e2-8738-259f0890dfd8",
      "meta": {
        "profile": [ "http://hl7.org/fhir/us/cqfmeasures/StructureDefinition/test-case-cqfm" ]
      },
      "contained": [ {
        "resourceType": "Parameters",
        "id": "d0de495b-a7c5-4c7d-a0eb-ba68427cbf46-parameters",
        "parameter": [ {
          "name": "subject",
          "valueString": "7572464e-7191-4b5c-bad1-c7acd195178d"
        } ]
      } ],
      "extension": [ {
        "url": "http://hl7.org/fhir/StructureDefinition/cqf-inputParameters",
        "valueReference": {
          "reference": "#d0de495b-a7c5-4c7d-a0eb-ba68427cbf46-parameters"
        }
      }, {
        "url": "http://hl7.org/fhir/us/cqfmeasures/StructureDefinition/cqfm-testCaseDescription",
        "valueMarkdown": " Patient has 2 encounters, one pass Numerator one pass DenExceptions\n"
      } ],
      "modifierExtension": [ {
        "url": "http://hl7.org/fhir/us/cqfmeasures/StructureDefinition/cqfm-isTestCase",
        "valueBoolean": true
      } ],
      "status": "complete",
      "type": "individual",
      "measure": "https://madie.cms.gov/Measure/CMS190FHIRVTEProphylaxisICU",
      "period": {
        "start": "2026-01-01",
        "end": "2026-12-31"
      },
      "group": [ {
        "id": "Group_1",
        "population": [ {
          "id": "InitialPopulation_1",
          "code": {
            "coding": [ {
              "system": "http://terminology.hl7.org/CodeSystem/measure-population",
              "code": "initial-population",
              "display": "Initial Population"
            } ]
          },
          "count": 2
        }, {
          "id": "Denominator_1",
          "code": {
            "coding": [ {
              "system": "http://terminology.hl7.org/CodeSystem/measure-population",
              "code": "denominator",
              "display": "Denominator"
            } ]
          },
          "count": 2
        }, {
          "id": "DenominatorExclusion_1",
          "code": {
            "coding": [ {
              "system": "http://terminology.hl7.org/CodeSystem/measure-population",
              "code": "denominator-exclusion",
              "display": "Denominator Exclusion"
            } ]
          },
          "count": 0
        }, {
          "id": "Numerator_1",
          "code": {
            "coding": [ {
              "system": "http://terminology.hl7.org/CodeSystem/measure-population",
              "code": "numerator",
              "display": "Numerator"
            } ]
          },
          "count": 1
        }, {
          "id": "DenominatorException_1",
          "code": {
            "coding": [ {
              "system": "http://terminology.hl7.org/CodeSystem/measure-population",
              "code": "denominator-exception",
              "display": "Denominator Exception"
            } ]
          },
          "count": 1
        } ],
        "measureScore": {
          "value": 0.0
        }
      } ],
      "evaluatedResource": [ {
        "reference": "Patient/7572464e-7191-4b5c-bad1-c7acd195178d"
      }, {
        "reference": "Encounter/1d4afd7c-17da-41cb-8da7-4bd1547ab2d1"
      }, {
        "reference": "Encounter/db557555-9f94-49d2-b5d6-31d9266cd331"
      }, {
        "reference": "Encounter/4ea01833-7df5-43ba-ab27-ed0916588f35"
      }, {
        "reference": "Coverage/bb84b6ca-2504-4e77-b729-873cc6279613"
      }, {
        "reference": "Location/54072a61-be1a-4670-b49b-ecd3b708d642"
      }, {
        "reference": "Location/e7ac94fe-ff40-4b34-be3f-b7f320be810c"
      }, {
        "reference": "Procedure/14e03d6b-f993-41c9-bf96-a32be3e3f9e2"
      }, {
        "reference": "Location/3c36e09e-6113-4ae0-b137-66fc72c67357"
      }, {
        "reference": "Organization/a7606229-fbb2-4098-b5b9-1e286e47b1da"
      }, {
        "reference": "Practitioner/26b2e53d-146f-465b-9521-f2e473cf9d72"
      } ]
    },
    "request": {
      "method": "PUT",
      "url": "MeasureReport/3a5265ea-8155-41e2-8738-259f0890dfd8"
    }
  } ]
}