{
  "resourceType": "Bundle",
  "id": "612e6b2e02c62a011f2ecc81",
  "type": "transaction",
  "entry": [ {
    "fullUrl": "https://madie.cms.gov/Patient/2eff6dbd-f3a2-43ee-9ad3-aab4d3b84812",
    "resource": {
      "resourceType": "Patient",
      "id": "2eff6dbd-f3a2-43ee-9ad3-aab4d3b84812",
      "meta": {
        "profile": [ "http://hl7.org/fhir/us/qicore/StructureDefinition/qicore-patient" ]
      },
      "text": {
        "status": "generated",
        "div": "<div xmlns=\"http://www.w3.org/1999/xhtml\"><div class=\"hapiHeaderText\">PtRefMOLMWHTaskReject <b>NUMERPASS </b></div><table class=\"hapiPropertyTable\"><tbody><tr><td>Identifier</td><td>bec2580a47ed4bf7691b191e0654b2de</td></tr><tr><td>Date of birth</td><td><span>02 January 1974</span></td></tr></tbody></table></div>"
      },
      "extension": [ {
        "url": "http://hl7.org/fhir/us/core/StructureDefinition/us-core-race",
        "extension": [ {
          "url": "ombCategory",
          "valueCoding": {
            "system": "urn:oid:2.16.840.1.113883.6.238",
            "code": "1002-5",
            "display": "American Indian or Alaska Native",
            "userSelected": true
          }
        }, {
          "url": "text",
          "valueString": "American Indian or Alaska Native"
        } ]
      }, {
        "url": "http://hl7.org/fhir/us/core/StructureDefinition/us-core-ethnicity",
        "extension": [ {
          "url": "ombCategory",
          "valueCoding": {
            "system": "urn:oid:2.16.840.1.113883.6.238",
            "code": "2135-2",
            "display": "Hispanic or Latino",
            "userSelected": true
          }
        }, {
          "url": "text",
          "valueString": "Hispanic or Latino"
        } ]
      } ],
      "identifier": [ {
        "type": {
          "coding": [ {
            "system": "http://terminology.hl7.org/CodeSystem/v2-0203",
            "code": "MR"
          } ]
        },
        "system": "https://bonnie-fhir.healthit.gov/",
        "value": "612e6b2e02c62a011f2ecc81"
      } ],
      "active": true,
      "name": [ {
        "use": "usual",
        "family": "NUMERPass",
        "given": [ "PtRefMOInjXaTaskReject" ]
      } ],
      "gender": "male",
      "birthDate": "1975-01-02"
    },
    "request": {
      "method": "PUT",
      "url": "Patient/2eff6dbd-f3a2-43ee-9ad3-aab4d3b84812"
    }
  }, {
    "fullUrl": "https://madie.cms.gov/Encounter/3933e442-56fc-46c6-b800-d9d24d8e9323",
    "resource": {
      "resourceType": "Encounter",
      "id": "3933e442-56fc-46c6-b800-d9d24d8e9323",
      "meta": {
        "profile": [ "http://hl7.org/fhir/us/qicore/StructureDefinition/qicore-encounter" ]
      },
      "status": "finished",
      "class": {
        "system": "http://terminology.hl7.org/CodeSystem/v3-ActCode",
        "code": "IMP",
        "display": "inpatient encounter"
      },
      "type": [ {
        "coding": [ {
          "system": "http://snomed.info/sct",
          "code": "8715000"
        } ]
      } ],
      "subject": {
        "reference": "Patient/2eff6dbd-f3a2-43ee-9ad3-aab4d3b84812"
      },
      "period": {
        "start": "2026-11-01T08:00:00.000+00:00",
        "end": "2026-11-26T08:15:00.000+00:00"
      },
      "length": {
        "value": 25,
        "unit": "days"
      }
    },
    "request": {
      "method": "PUT",
      "url": "Encounter/3933e442-56fc-46c6-b800-d9d24d8e9323"
    }
  }, {
    "fullUrl": "https://madie.cms.gov/Coverage/506330fd-798e-4f19-8946-97311f4586ed",
    "resource": {
      "resourceType": "Coverage",
      "id": "506330fd-798e-4f19-8946-97311f4586ed",
      "status": "active",
      "beneficiary": {
        "reference": "Patient/2eff6dbd-f3a2-43ee-9ad3-aab4d3b84812"
      },
      "period": {
        "start": "1975-01-02T08:00:00.000+00:00"
      },
      "payor": [ {
        "reference": "Organization/3ac8109c-55f3-4af3-9745-cb8240abf48a"
      } ]
    },
    "request": {
      "method": "PUT",
      "url": "Coverage/506330fd-798e-4f19-8946-97311f4586ed"
    }
  }, {
    "fullUrl": "https://madie.cms.gov/MedicationRequest/7e7e8831-57a9-4706-a8b9-c071dc5b0783",
    "resource": {
      "resourceType": "MedicationRequest",
      "id": "7e7e8831-57a9-4706-a8b9-c071dc5b0783",
      "meta": {
        "profile": [ "http://hl7.org/fhir/us/qicore/StructureDefinition/qicore-medicationrequest" ]
      },
      "status": "active",
      "intent": "order",
      "category": [ {
        "coding": [ {
          "system": "http://terminology.hl7.org/CodeSystem/medicationrequest-category",
          "code": "inpatient"
        } ]
      } ],
      "doNotPerform": false,
      "medicationCodeableConcept": {
        "coding": [ {
          "system": "http://www.nlm.nih.gov/research/umls/rxnorm",
          "code": "861365"
        } ]
      },
      "subject": {
        "reference": "Patient/2eff6dbd-f3a2-43ee-9ad3-aab4d3b84812"
      },
      "authoredOn": "2026-11-01T08:00:00.000+00:00",
      "requester": {
        "reference": "Practitioner/123456"
      },
      "dosageInstruction": [ {
        "timing": {
          "repeat": {
            "boundsPeriod": {
              "start": "2026-11-03T09:00:00.000+00:00"
            }
          }
        }
      } ]
    },
    "request": {
      "method": "PUT",
      "url": "MedicationRequest/7e7e8831-57a9-4706-a8b9-c071dc5b0783"
    }
  }, {
    "fullUrl": "https://madie.cms.gov/Task/7618d6c5-af78-4598-923b-5eebd356aded",
    "resource": {
      "resourceType": "Task",
      "id": "7618d6c5-af78-4598-923b-5eebd356aded",
      "meta": {
        "profile": [ "http://hl7.org/fhir/us/qicore/StructureDefinition/qicore-taskrejected" ]
      },
      "status": "rejected",
      "statusReason": {
        "coding": [ {
          "system": "http://snomed.info/sct",
          "code": "443390004",
          "display": "Refusal of treatment by patient (situation)",
          "userSelected": true
        } ]
      },
      "code": {
        "coding": [ {
          "system": "http://hl7.org/fhir/CodeSystem/task-code",
          "code": "fulfill"
        } ]
      },
      "focus": {
        "reference": "MedicationRequest/7e7e8831-57a9-4706-a8b9-c071dc5b0783"
      },
      "executionPeriod": {
        "start": "2026-11-01T09:00:00.000+00:00",
        "end": "2026-11-03T09:00:00.000+00:00"
      }
    },
    "request": {
      "method": "PUT",
      "url": "Task/7618d6c5-af78-4598-923b-5eebd356aded"
    }
  }, {
    "fullUrl": "https://madie.cms.gov/Organization/3ac8109c-55f3-4af3-9745-cb8240abf48a",
    "resource": {
      "resourceType": "Organization",
      "id": "3ac8109c-55f3-4af3-9745-cb8240abf48a",
      "meta": {
        "profile": [ "http://hl7.org/fhir/us/qicore/StructureDefinition/qicore-organization" ]
      },
      "identifier": [ {
        "use": "temp",
        "system": "urn:oid:2.16.840.1.113883.4.4",
        "value": "21-3259825"
      } ],
      "active": true,
      "type": [ {
        "coding": [ {
          "system": "http://terminology.hl7.org/CodeSystem/organization-type",
          "code": "pay",
          "display": "Payer"
        } ]
      } ],
      "name": "Blue Cross Blue Shield of Texas",
      "telecom": [ {
        "system": "phone",
        "value": "(+1) 972-766-6900"
      } ],
      "address": [ {
        "use": "billing",
        "type": "postal",
        "line": [ "P.O. Box 660044" ],
        "city": "Dallas",
        "state": "TX",
        "postalCode": "75266-0044",
        "country": "USA"
      } ]
    },
    "request": {
      "method": "PUT",
      "url": "Organization/3ac8109c-55f3-4af3-9745-cb8240abf48a"
    }
  }, {
    "fullUrl": "https://madie.cms.gov/Practitioner/d8d1c44a-5731-4564-a9f9-f07a691b46f9",
    "resource": {
      "resourceType": "Practitioner",
      "id": "d8d1c44a-5731-4564-a9f9-f07a691b46f9",
      "identifier": [ {
        "system": "http://hl7.org/fhir/sid/us-npi",
        "value": "123456"
      } ],
      "name": [ {
        "family": "Evil",
        "prefix": [ "Dr" ]
      } ]
    },
    "request": {
      "method": "PUT",
      "url": "Practitioner/d8d1c44a-5731-4564-a9f9-f07a691b46f9"
    }
  }, {
    "fullUrl": "https://madie.cms.gov/MeasureReport/735dcbb8-d535-493a-a79c-ff4a9f72ee50",
    "resource": {
      "resourceType": "MeasureReport",
      "id": "735dcbb8-d535-493a-a79c-ff4a9f72ee50",
      "meta": {
        "profile": [ "http://hl7.org/fhir/us/cqfmeasures/StructureDefinition/test-case-cqfm" ]
      },
      "contained": [ {
        "resourceType": "Parameters",
        "id": "c3e52091-a8cc-41b5-a8d9-fdea67ff6d54-parameters",
        "parameter": [ {
          "name": "subject",
          "valueString": "2eff6dbd-f3a2-43ee-9ad3-aab4d3b84812"
        } ]
      } ],
      "extension": [ {
        "url": "http://hl7.org/fhir/StructureDefinition/cqf-inputParameters",
        "valueReference": {
          "reference": "#c3e52091-a8cc-41b5-a8d9-fdea67ff6d54-parameters"
        }
      }, {
        "url": "http://hl7.org/fhir/us/cqfmeasures/StructureDefinition/cqfm-testCaseDescription",
        "valueMarkdown": "Injectable Factor Xa Inhibitor  refused with taskReject profile\n"
      } ],
      "modifierExtension": [ {
        "url": "http://hl7.org/fhir/us/cqfmeasures/StructureDefinition/cqfm-isTestCase",
        "valueBoolean": true
      } ],
      "status": "complete",
      "type": "individual",
      "measure": "https://madie.cms.gov/Measure/CMS108FHIRVTEProphylaxis",
      "period": {
        "start": "2026-01-01",
        "end": "2026-12-31"
      },
      "group": [ {
        "id": "Group_1",
        "population": [ {
          "id": "InitialPopulation_1",
          "code": {
            "coding": [ {
              "system": "http://terminology.hl7.org/CodeSystem/measure-population",
              "code": "initial-population",
              "display": "Initial Population"
            } ]
          },
          "count": 1
        }, {
          "id": "Denominator_1",
          "code": {
            "coding": [ {
              "system": "http://terminology.hl7.org/CodeSystem/measure-population",
              "code": "denominator",
              "display": "Denominator"
            } ]
          },
          "count": 1
        }, {
          "id": "DenominatorExclusion_1",
          "code": {
            "coding": [ {
              "system": "http://terminology.hl7.org/CodeSystem/measure-population",
              "code": "denominator-exclusion",
              "display": "Denominator Exclusion"
            } ]
          },
          "count": 0
        }, {
          "id": "Numerator_1",
          "code": {
            "coding": [ {
              "system": "http://terminology.hl7.org/CodeSystem/measure-population",
              "code": "numerator",
              "display": "Numerator"
            } ]
          },
          "count": 1
        } ],
        "measureScore": {
          "value": 0.0
        }
      } ],
      "evaluatedResource": [ {
        "reference": "Patient/2eff6dbd-f3a2-43ee-9ad3-aab4d3b84812"
      }, {
        "reference": "Encounter/3933e442-56fc-46c6-b800-d9d24d8e9323"
      }, {
        "reference": "Coverage/506330fd-798e-4f19-8946-97311f4586ed"
      }, {
        "reference": "MedicationRequest/7e7e8831-57a9-4706-a8b9-c071dc5b0783"
      }, {
        "reference": "Task/7618d6c5-af78-4598-923b-5eebd356aded"
      }, {
        "reference": "Organization/3ac8109c-55f3-4af3-9745-cb8240abf48a"
      }, {
        "reference": "Practitioner/d8d1c44a-5731-4564-a9f9-f07a691b46f9"
      } ]
    },
    "request": {
      "method": "PUT",
      "url": "MeasureReport/735dcbb8-d535-493a-a79c-ff4a9f72ee50"
    }
  } ]
}