{
  "resourceType": "Bundle",
  "id": "633b3f9e0968f80122503cc2",
  "type": "transaction",
  "entry": [ {
    "fullUrl": "https://madie.cms.gov/Patient/b5231904-2642-40fc-beb2-846bf8e96647",
    "resource": {
      "resourceType": "Patient",
      "id": "b5231904-2642-40fc-beb2-846bf8e96647",
      "meta": {
        "profile": [ "http://hl7.org/fhir/us/qicore/StructureDefinition/qicore-patient" ]
      },
      "text": {
        "status": "generated",
        "div": "<div xmlns=\"http://www.w3.org/1999/xhtml\"><div class=\"hapiHeaderText\">EncEndEQMPEndMinus1Minute<b>IPPASS</b></div><table class=\"hapiPropertyTable\"><tbody><tr><td>Date of birth</td><td><span>31 January 2004</span></td></tr></tbody></table></div>"
      },
      "extension": [ {
        "url": "http://hl7.org/fhir/us/core/StructureDefinition/us-core-race",
        "extension": [ {
          "url": "ombCategory",
          "valueCoding": {
            "system": "urn:oid:2.16.840.1.113883.6.238",
            "code": "1002-5",
            "display": "American Indian or Alaska Native",
            "userSelected": true
          }
        }, {
          "url": "text",
          "valueString": "American Indian or Alaska Native"
        } ]
      }, {
        "url": "http://hl7.org/fhir/us/core/StructureDefinition/us-core-ethnicity",
        "extension": [ {
          "url": "ombCategory",
          "valueCoding": {
            "system": "urn:oid:2.16.840.1.113883.6.238",
            "code": "2135-2",
            "display": "Hispanic or Latino",
            "userSelected": true
          }
        }, {
          "url": "text",
          "valueString": "Hispanic or Latino"
        } ]
      } ],
      "identifier": [ {
        "type": {
          "coding": [ {
            "system": "http://terminology.hl7.org/CodeSystem/v2-0203",
            "code": "MR"
          } ]
        },
        "system": "https://bonnie-fhir.healthit.gov/",
        "value": "633b3f9e0968f80122503cc2"
      } ],
      "active": true,
      "name": [ {
        "use": "usual",
        "family": "IPPass",
        "given": [ "EncEndEQMPEndMinus1Minute" ]
      } ],
      "gender": "female",
      "birthDate": "2005-01-31"
    },
    "request": {
      "method": "PUT",
      "url": "Patient/b5231904-2642-40fc-beb2-846bf8e96647"
    }
  }, {
    "fullUrl": "https://madie.cms.gov/Encounter/b3be644b-75ef-4244-8c42-da775cbc2fe5",
    "resource": {
      "resourceType": "Encounter",
      "id": "b3be644b-75ef-4244-8c42-da775cbc2fe5",
      "meta": {
        "profile": [ "http://hl7.org/fhir/us/qicore/StructureDefinition/qicore-encounter" ]
      },
      "status": "finished",
      "class": {
        "system": "http://terminology.hl7.org/CodeSystem/v3-ActCode",
        "code": "IMP",
        "display": "inpatient encounter"
      },
      "type": [ {
        "coding": [ {
          "system": "http://snomed.info/sct",
          "code": "183452005"
        } ]
      } ],
      "subject": {
        "reference": "Patient/b5231904-2642-40fc-beb2-846bf8e96647"
      },
      "period": {
        "start": "2026-02-01T08:00:00.000+00:00",
        "end": "2026-12-31T23:58:00.000+00:00"
      }
    },
    "request": {
      "method": "PUT",
      "url": "Encounter/b3be644b-75ef-4244-8c42-da775cbc2fe5"
    }
  }, {
    "fullUrl": "https://madie.cms.gov/Procedure/90596770-dc10-4af5-8d32-f474b67ab1c3",
    "resource": {
      "resourceType": "Procedure",
      "id": "90596770-dc10-4af5-8d32-f474b67ab1c3",
      "meta": {
        "profile": [ "http://hl7.org/fhir/us/qicore/StructureDefinition/qicore-procedure" ]
      },
      "extension": [ {
        "url": "http://hl7.org/fhir/us/qicore/StructureDefinition/qicore-recorded",
        "valueDateTime": "2014-04-05T13:35:00.000+00:00"
      } ],
      "status": "completed",
      "code": {
        "coding": [ {
          "system": "http://snomed.info/sct",
          "code": "10745001"
        } ]
      },
      "subject": {
        "reference": "Patient/b5231904-2642-40fc-beb2-846bf8e96647"
      },
      "performedPeriod": {
        "start": "2026-02-01T08:00:00.000+00:00",
        "end": "2026-02-05T08:15:00.000+00:00"
      }
    },
    "request": {
      "method": "PUT",
      "url": "Procedure/90596770-dc10-4af5-8d32-f474b67ab1c3"
    }
  }, {
    "fullUrl": "https://madie.cms.gov/Coverage/ce5da3c9-e0f9-458e-b389-4688b4c179e2",
    "resource": {
      "resourceType": "Coverage",
      "id": "ce5da3c9-e0f9-458e-b389-4688b4c179e2",
      "meta": {
        "profile": [ "http://hl7.org/fhir/us/qicore/StructureDefinition/qicore-coverage" ]
      },
      "status": "active",
      "beneficiary": {
        "reference": "Patient/b5231904-2642-40fc-beb2-846bf8e96647"
      },
      "payor": [ {
        "reference": "Organization/9842ddae-1ecb-4531-a1f2-c7f2d2a55e8f"
      } ]
    },
    "request": {
      "method": "PUT",
      "url": "Coverage/ce5da3c9-e0f9-458e-b389-4688b4c179e2"
    }
  }, {
    "fullUrl": "https://madie.cms.gov/Organization/9842ddae-1ecb-4531-a1f2-c7f2d2a55e8f",
    "resource": {
      "resourceType": "Organization",
      "id": "9842ddae-1ecb-4531-a1f2-c7f2d2a55e8f",
      "meta": {
        "profile": [ "http://hl7.org/fhir/us/qicore/StructureDefinition/qicore-organization" ]
      },
      "identifier": [ {
        "use": "temp",
        "system": "urn:oid:2.16.840.1.113883.4.4",
        "value": "21-3259825"
      } ],
      "active": true,
      "type": [ {
        "coding": [ {
          "system": "http://terminology.hl7.org/CodeSystem/organization-type",
          "code": "pay",
          "display": "Payer"
        } ]
      } ],
      "name": "Blue Cross Blue Shield of Texas",
      "telecom": [ {
        "system": "phone",
        "value": "(+1) 972-766-6900"
      } ],
      "address": [ {
        "use": "billing",
        "type": "postal",
        "line": [ "P.O. Box 660044" ],
        "city": "Dallas",
        "state": "TX",
        "postalCode": "75266-0044",
        "country": "USA"
      } ]
    },
    "request": {
      "method": "PUT",
      "url": "Organization/9842ddae-1ecb-4531-a1f2-c7f2d2a55e8f"
    }
  }, {
    "fullUrl": "https://madie.cms.gov/Practitioner/af836ae8-4bd0-475c-98f9-13f2cb03ab85",
    "resource": {
      "resourceType": "Practitioner",
      "id": "af836ae8-4bd0-475c-98f9-13f2cb03ab85",
      "identifier": [ {
        "system": "http://hl7.org/fhir/sid/us-npi",
        "value": "123456"
      } ],
      "name": [ {
        "family": "Evil",
        "prefix": [ "Dr" ]
      } ]
    },
    "request": {
      "method": "PUT",
      "url": "Practitioner/af836ae8-4bd0-475c-98f9-13f2cb03ab85"
    }
  }, {
    "fullUrl": "https://madie.cms.gov/MeasureReport/1151b1a5-a38a-4645-af48-2f928560b641",
    "resource": {
      "resourceType": "MeasureReport",
      "id": "1151b1a5-a38a-4645-af48-2f928560b641",
      "meta": {
        "profile": [ "http://hl7.org/fhir/us/cqfmeasures/StructureDefinition/test-case-cqfm" ]
      },
      "contained": [ {
        "resourceType": "Parameters",
        "id": "d00f8ab9-70b6-4422-9c17-6a5f29f73ca2-parameters",
        "parameter": [ {
          "name": "subject",
          "valueString": "b5231904-2642-40fc-beb2-846bf8e96647"
        } ]
      } ],
      "extension": [ {
        "url": "http://hl7.org/fhir/StructureDefinition/cqf-inputParameters",
        "valueReference": {
          "reference": "#d00f8ab9-70b6-4422-9c17-6a5f29f73ca2-parameters"
        }
      }, {
        "url": "http://hl7.org/fhir/us/cqfmeasures/StructureDefinition/cqfm-testCaseDescription",
        "valueMarkdown": "Encounter end equals  measurement period end minus one minute.\n"
      } ],
      "modifierExtension": [ {
        "url": "http://hl7.org/fhir/us/cqfmeasures/StructureDefinition/cqfm-isTestCase",
        "valueBoolean": true
      } ],
      "status": "complete",
      "type": "individual",
      "measure": "https://madie.cms.gov/Measure/CMS1028FHIRPCSevereOBComps",
      "period": {
        "start": "2026-01-01",
        "end": "2026-12-31"
      },
      "group": [ {
        "id": "Group_1",
        "population": [ {
          "id": "InitialPopulation_1",
          "code": {
            "coding": [ {
              "system": "http://terminology.hl7.org/CodeSystem/measure-population",
              "code": "initial-population",
              "display": "Initial Population"
            } ]
          },
          "count": 1
        }, {
          "id": "Denominator_1",
          "code": {
            "coding": [ {
              "system": "http://terminology.hl7.org/CodeSystem/measure-population",
              "code": "denominator",
              "display": "Denominator"
            } ]
          },
          "count": 0
        }, {
          "id": "Numerator_1",
          "code": {
            "coding": [ {
              "system": "http://terminology.hl7.org/CodeSystem/measure-population",
              "code": "numerator",
              "display": "Numerator"
            } ]
          },
          "count": 0
        }, {
          "id": "NumeratorExclusion_1",
          "code": {
            "coding": [ {
              "system": "http://terminology.hl7.org/CodeSystem/measure-population",
              "code": "numerator-exclusion",
              "display": "Numerator Exclusion"
            } ]
          },
          "count": 0
        } ],
        "measureScore": {
          "value": 0.0
        }
      }, {
        "id": "Group_2",
        "population": [ {
          "id": "InitialPopulation_2",
          "code": {
            "coding": [ {
              "system": "http://terminology.hl7.org/CodeSystem/measure-population",
              "code": "initial-population",
              "display": "Initial Population"
            } ]
          },
          "count": 1
        }, {
          "id": "Denominator_2",
          "code": {
            "coding": [ {
              "system": "http://terminology.hl7.org/CodeSystem/measure-population",
              "code": "denominator",
              "display": "Denominator"
            } ]
          },
          "count": 0
        }, {
          "id": "Numerator_2",
          "code": {
            "coding": [ {
              "system": "http://terminology.hl7.org/CodeSystem/measure-population",
              "code": "numerator",
              "display": "Numerator"
            } ]
          },
          "count": 0
        }, {
          "id": "NumeratorExclusion_2",
          "code": {
            "coding": [ {
              "system": "http://terminology.hl7.org/CodeSystem/measure-population",
              "code": "numerator-exclusion",
              "display": "Numerator Exclusion"
            } ]
          },
          "count": 0
        } ],
        "measureScore": {
          "value": 0.0
        }
      } ],
      "evaluatedResource": [ {
        "reference": "Patient/b5231904-2642-40fc-beb2-846bf8e96647"
      }, {
        "reference": "Encounter/b3be644b-75ef-4244-8c42-da775cbc2fe5"
      }, {
        "reference": "Procedure/90596770-dc10-4af5-8d32-f474b67ab1c3"
      }, {
        "reference": "Coverage/ce5da3c9-e0f9-458e-b389-4688b4c179e2"
      }, {
        "reference": "Organization/9842ddae-1ecb-4531-a1f2-c7f2d2a55e8f"
      }, {
        "reference": "Practitioner/af836ae8-4bd0-475c-98f9-13f2cb03ab85"
      } ]
    },
    "request": {
      "method": "PUT",
      "url": "MeasureReport/1151b1a5-a38a-4645-af48-2f928560b641"
    }
  } ]
}