{
  "resourceType": "Bundle",
  "id": "63487c2e0968f80122540179",
  "type": "transaction",
  "entry": [ {
    "fullUrl": "https://madie.cms.gov/Patient/848869fc-b6bc-41cb-b441-cfba930e2cc4",
    "resource": {
      "resourceType": "Patient",
      "id": "848869fc-b6bc-41cb-b441-cfba930e2cc4",
      "meta": {
        "profile": [ "http://hl7.org/fhir/us/qicore/StructureDefinition/qicore-patient" ]
      },
      "text": {
        "status": "generated",
        "div": "<div xmlns=\"http://www.w3.org/1999/xhtml\"><div class=\"hapiHeaderText\">AssessG1RelDtTimeLTTimeOfDelivRelDtTime<b>DENPASS</b></div><table class=\"hapiPropertyTable\"><tbody><tr><td>Identifier</td><td>919742ce7259ec7b9de1654b5e814cf859dc5253e7d4839ac3b7c6fbe1734140</td></tr><tr><td>Date of birth</td><td><span>14 February 1985</span></td></tr></tbody></table></div>"
      },
      "extension": [ {
        "url": "http://hl7.org/fhir/us/core/StructureDefinition/us-core-race",
        "extension": [ {
          "url": "ombCategory",
          "valueCoding": {
            "system": "urn:oid:2.16.840.1.113883.6.238",
            "code": "1002-5",
            "display": "American Indian or Alaska Native",
            "userSelected": true
          }
        }, {
          "url": "text",
          "valueString": "American Indian or Alaska Native"
        } ]
      }, {
        "url": "http://hl7.org/fhir/us/core/StructureDefinition/us-core-ethnicity",
        "extension": [ {
          "url": "ombCategory",
          "valueCoding": {
            "system": "urn:oid:2.16.840.1.113883.6.238",
            "code": "2135-2",
            "display": "Hispanic or Latino",
            "userSelected": true
          }
        }, {
          "url": "text",
          "valueString": "Hispanic or Latino"
        } ]
      } ],
      "identifier": [ {
        "type": {
          "coding": [ {
            "system": "http://terminology.hl7.org/CodeSystem/v2-0203",
            "code": "MR"
          } ]
        },
        "system": "https://bonnie-fhir.healthit.gov/",
        "value": "63487c2e0968f80122540179"
      } ],
      "active": true,
      "name": [ {
        "use": "usual",
        "family": "DENPass",
        "given": [ "AssessG1RelDtTimeLTTimeOfDelivRelDtTime" ]
      } ],
      "gender": "female",
      "birthDate": "1998-02-14"
    },
    "request": {
      "method": "PUT",
      "url": "Patient/848869fc-b6bc-41cb-b441-cfba930e2cc4"
    }
  }, {
    "fullUrl": "https://madie.cms.gov/Observation/0835198a-ff4f-4126-8ae4-4fcac508d71a",
    "resource": {
      "resourceType": "Observation",
      "id": "0835198a-ff4f-4126-8ae4-4fcac508d71a",
      "meta": {
        "profile": [ "http://hl7.org/fhir/us/qicore/StructureDefinition/qicore-simple-observation" ]
      },
      "status": "final",
      "category": [ {
        "coding": [ {
          "system": "http://terminology.hl7.org/CodeSystem/observation-category",
          "code": "exam",
          "display": "exam",
          "userSelected": true
        } ]
      } ],
      "code": {
        "coding": [ {
          "system": "http://loinc.org",
          "code": "11884-4"
        } ]
      },
      "subject": {
        "reference": "Patient/848869fc-b6bc-41cb-b441-cfba930e2cc4"
      },
      "effectiveDateTime": "2026-06-08T09:15:00.000+00:00",
      "performer": [ {
        "reference": "Organization/example1",
        "display": "Hendricks Country Hospital"
      } ],
      "valueQuantity": {
        "value": 38,
        "system": "http://unitsofmeasure.org",
        "code": "wk"
      }
    },
    "request": {
      "method": "PUT",
      "url": "Observation/0835198a-ff4f-4126-8ae4-4fcac508d71a"
    }
  }, {
    "fullUrl": "https://madie.cms.gov/Observation/ecfc702f-9c72-43a8-8e2e-3e089c239132",
    "resource": {
      "resourceType": "Observation",
      "id": "ecfc702f-9c72-43a8-8e2e-3e089c239132",
      "meta": {
        "profile": [ "http://hl7.org/fhir/us/qicore/StructureDefinition/qicore-simple-observation" ]
      },
      "status": "final",
      "category": [ {
        "coding": [ {
          "system": "http://terminology.hl7.org/CodeSystem/observation-category",
          "code": "exam",
          "display": "exam",
          "userSelected": true
        } ]
      } ],
      "code": {
        "coding": [ {
          "system": "http://loinc.org",
          "code": "11996-6"
        } ]
      },
      "subject": {
        "reference": "Patient/848869fc-b6bc-41cb-b441-cfba930e2cc4"
      },
      "effectiveDateTime": "2026-06-08T19:59:00.000+00:00",
      "performer": [ {
        "reference": "Organization/example1",
        "display": "Hendricks Country Hospital"
      } ],
      "valueInteger": 1
    },
    "request": {
      "method": "PUT",
      "url": "Observation/ecfc702f-9c72-43a8-8e2e-3e089c239132"
    }
  }, {
    "fullUrl": "https://madie.cms.gov/Observation/b436c5d7-1546-4a19-8f57-f9c61efccbc9",
    "resource": {
      "resourceType": "Observation",
      "id": "b436c5d7-1546-4a19-8f57-f9c61efccbc9",
      "meta": {
        "profile": [ "http://hl7.org/fhir/us/qicore/StructureDefinition/qicore-simple-observation" ]
      },
      "status": "final",
      "category": [ {
        "coding": [ {
          "system": "http://terminology.hl7.org/CodeSystem/observation-category",
          "code": "exam",
          "display": "exam",
          "userSelected": true
        } ]
      } ],
      "code": {
        "coding": [ {
          "system": "http://loinc.org",
          "code": "93857-1"
        } ]
      },
      "subject": {
        "reference": "Patient/848869fc-b6bc-41cb-b441-cfba930e2cc4"
      },
      "effectiveDateTime": "2026-06-08T20:00:00.000+00:00",
      "performer": [ {
        "reference": "Organization/example1",
        "display": "Hendricks Country Hospital"
      } ],
      "valueDateTime": "2026-06-08T20:00:00.000+00:00"
    },
    "request": {
      "method": "PUT",
      "url": "Observation/b436c5d7-1546-4a19-8f57-f9c61efccbc9"
    }
  }, {
    "fullUrl": "https://madie.cms.gov/Encounter/1980a7a3-b261-4765-a6ea-60684620fab4",
    "resource": {
      "resourceType": "Encounter",
      "id": "1980a7a3-b261-4765-a6ea-60684620fab4",
      "meta": {
        "profile": [ "http://hl7.org/fhir/us/qicore/StructureDefinition/qicore-encounter" ]
      },
      "status": "finished",
      "class": {
        "system": "http://terminology.hl7.org/CodeSystem/v3-ActCode",
        "code": "IMP",
        "display": "inpatient encounter"
      },
      "type": [ {
        "coding": [ {
          "system": "http://snomed.info/sct",
          "code": "183452005"
        } ]
      } ],
      "subject": {
        "reference": "Patient/848869fc-b6bc-41cb-b441-cfba930e2cc4"
      },
      "period": {
        "start": "2026-06-08T08:00:00.000+00:00",
        "end": "2026-06-10T08:15:00.000+00:00"
      },
      "length": {
        "value": 2,
        "unit": "days"
      },
      "reasonCode": [ {
        "coding": [ {
          "system": "http://snomed.info/sct",
          "code": "169826009",
          "display": "Single live birth from singleton pregnancy (finding)"
        } ]
      } ]
    },
    "request": {
      "method": "PUT",
      "url": "Encounter/1980a7a3-b261-4765-a6ea-60684620fab4"
    }
  }, {
    "fullUrl": "https://madie.cms.gov/Procedure/9d5fcdcd-e617-4dfe-bf30-50fd85309f30",
    "resource": {
      "resourceType": "Procedure",
      "id": "9d5fcdcd-e617-4dfe-bf30-50fd85309f30",
      "meta": {
        "profile": [ "http://hl7.org/fhir/us/qicore/StructureDefinition/qicore-procedure" ]
      },
      "extension": [ {
        "url": "http://hl7.org/fhir/us/qicore/StructureDefinition/qicore-recorded",
        "valueDateTime": "2014-04-05T13:35:00.000+00:00"
      } ],
      "status": "completed",
      "code": {
        "coding": [ {
          "system": "http://www.cms.gov/Medicare/Coding/ICD10",
          "code": "10D07Z3"
        } ]
      },
      "subject": {
        "reference": "Patient/848869fc-b6bc-41cb-b441-cfba930e2cc4"
      },
      "performedPeriod": {
        "start": "2026-06-08T08:10:00.000+00:00",
        "end": "2026-06-08T09:14:00.000+00:00"
      }
    },
    "request": {
      "method": "PUT",
      "url": "Procedure/9d5fcdcd-e617-4dfe-bf30-50fd85309f30"
    }
  }, {
    "fullUrl": "https://madie.cms.gov/Condition/d28da321-47bc-41e4-81f3-0cbe27de9deb",
    "resource": {
      "resourceType": "Condition",
      "id": "d28da321-47bc-41e4-81f3-0cbe27de9deb",
      "meta": {
        "profile": [ "http://hl7.org/fhir/us/qicore/StructureDefinition/qicore-condition-encounter-diagnosis" ]
      },
      "category": [ {
        "coding": [ {
          "system": "http://terminology.hl7.org/CodeSystem/condition-category",
          "code": "encounter-diagnosis",
          "display": "Encounter Diagnosis"
        } ]
      } ],
      "code": {
        "coding": [ {
          "system": "http://snomed.info/sct",
          "version": "2022-09",
          "code": "169826009",
          "display": "Single live birth (finding)",
          "userSelected": true
        } ]
      },
      "subject": {
        "reference": "Patient/848869fc-b6bc-41cb-b441-cfba930e2cc4"
      },
      "recordedDate": "2026-10-18T08:00:00.000+00:00"
    },
    "request": {
      "method": "PUT",
      "url": "Condition/d28da321-47bc-41e4-81f3-0cbe27de9deb"
    }
  }, {
    "fullUrl": "https://madie.cms.gov/Coverage/5629ef56-2c91-4371-b628-ea0cdb69d86e",
    "resource": {
      "resourceType": "Coverage",
      "id": "5629ef56-2c91-4371-b628-ea0cdb69d86e",
      "meta": {
        "profile": [ "http://hl7.org/fhir/us/qicore/StructureDefinition/qicore-coverage" ]
      },
      "status": "active",
      "subscriberId": "523435",
      "beneficiary": {
        "reference": "Patient/848869fc-b6bc-41cb-b441-cfba930e2cc4"
      },
      "relationship": {
        "coding": [ {
          "system": "http://terminology.hl7.org/CodeSystem/subscriber-relationship",
          "code": "self"
        } ]
      },
      "payor": [ {
        "reference": "Organization/4651fd8a-9744-49d8-9057-e270beb53c46"
      } ]
    },
    "request": {
      "method": "PUT",
      "url": "Coverage/5629ef56-2c91-4371-b628-ea0cdb69d86e"
    }
  }, {
    "fullUrl": "https://madie.cms.gov/Organization/4651fd8a-9744-49d8-9057-e270beb53c46",
    "resource": {
      "resourceType": "Organization",
      "id": "4651fd8a-9744-49d8-9057-e270beb53c46",
      "meta": {
        "profile": [ "http://hl7.org/fhir/us/qicore/StructureDefinition/qicore-organization" ]
      },
      "identifier": [ {
        "use": "temp",
        "system": "urn:oid:2.16.840.1.113883.4.4",
        "value": "21-3259825"
      } ],
      "active": true,
      "type": [ {
        "coding": [ {
          "system": "http://terminology.hl7.org/CodeSystem/organization-type",
          "code": "pay",
          "display": "Payer"
        } ]
      } ],
      "name": "Blue Cross Blue Shield of Texas",
      "telecom": [ {
        "system": "phone",
        "value": "(+1) 972-766-6900"
      } ],
      "address": [ {
        "use": "billing",
        "type": "postal",
        "line": [ "P.O. Box 660044" ],
        "city": "Dallas",
        "state": "TX",
        "postalCode": "75266-0044",
        "country": "USA"
      } ]
    },
    "request": {
      "method": "PUT",
      "url": "Organization/4651fd8a-9744-49d8-9057-e270beb53c46"
    }
  }, {
    "fullUrl": "https://madie.cms.gov/Practitioner/ed0acac4-485f-4499-ab31-814f8bd276cc",
    "resource": {
      "resourceType": "Practitioner",
      "id": "ed0acac4-485f-4499-ab31-814f8bd276cc",
      "meta": {
        "profile": [ "http://hl7.org/fhir/us/qicore/StructureDefinition/qicore-practitioner" ]
      },
      "identifier": [ {
        "system": "http://hl7.org/fhir/sid/us-npi",
        "value": "1234567890"
      } ],
      "name": [ {
        "family": "Evil",
        "prefix": [ "Dr" ]
      } ]
    },
    "request": {
      "method": "PUT",
      "url": "Practitioner/ed0acac4-485f-4499-ab31-814f8bd276cc"
    }
  }, {
    "fullUrl": "https://madie.cms.gov/MeasureReport/5ffe1aae-fb13-4415-8cc6-9a16e52eeb96",
    "resource": {
      "resourceType": "MeasureReport",
      "id": "5ffe1aae-fb13-4415-8cc6-9a16e52eeb96",
      "meta": {
        "profile": [ "http://hl7.org/fhir/us/cqfmeasures/StructureDefinition/test-case-cqfm" ]
      },
      "contained": [ {
        "resourceType": "Parameters",
        "id": "7529afc5-4e5d-40a5-94ee-d45a3a67c342-parameters",
        "parameter": [ {
          "name": "subject",
          "valueString": "848869fc-b6bc-41cb-b441-cfba930e2cc4"
        } ]
      } ],
      "extension": [ {
        "url": "http://hl7.org/fhir/StructureDefinition/cqf-inputParameters",
        "valueReference": {
          "reference": "#7529afc5-4e5d-40a5-94ee-d45a3a67c342-parameters"
        }
      }, {
        "url": "http://hl7.org/fhir/us/cqfmeasures/StructureDefinition/cqfm-testCaseDescription",
        "valueMarkdown": "Passes: IP, Pt is 27 years of age,  encounter dx delivery of singleton, gravida=1 rel dt/time before time of delivery time, EGA @ 38 weeks\n"
      } ],
      "modifierExtension": [ {
        "url": "http://hl7.org/fhir/us/cqfmeasures/StructureDefinition/cqfm-isTestCase",
        "valueBoolean": true
      } ],
      "status": "complete",
      "type": "individual",
      "measure": "https://madie.cms.gov/Measure/CMS0334FHIRPCCesareanBirth",
      "period": {
        "start": "2026-01-01",
        "end": "2026-12-31"
      },
      "group": [ {
        "id": "Group_1",
        "population": [ {
          "id": "InitialPopulation_1",
          "code": {
            "coding": [ {
              "system": "http://terminology.hl7.org/CodeSystem/measure-population",
              "code": "initial-population",
              "display": "Initial Population"
            } ]
          },
          "count": 1
        }, {
          "id": "Denominator_1",
          "code": {
            "coding": [ {
              "system": "http://terminology.hl7.org/CodeSystem/measure-population",
              "code": "denominator",
              "display": "Denominator"
            } ]
          },
          "count": 1
        }, {
          "id": "DenominatorExclusion_1",
          "code": {
            "coding": [ {
              "system": "http://terminology.hl7.org/CodeSystem/measure-population",
              "code": "denominator-exclusion",
              "display": "Denominator Exclusion"
            } ]
          },
          "count": 0
        }, {
          "id": "Numerator_1",
          "code": {
            "coding": [ {
              "system": "http://terminology.hl7.org/CodeSystem/measure-population",
              "code": "numerator",
              "display": "Numerator"
            } ]
          },
          "count": 0
        } ],
        "measureScore": {
          "value": 0.0
        }
      } ],
      "evaluatedResource": [ {
        "reference": "Patient/848869fc-b6bc-41cb-b441-cfba930e2cc4"
      }, {
        "reference": "Observation/0835198a-ff4f-4126-8ae4-4fcac508d71a"
      }, {
        "reference": "Observation/ecfc702f-9c72-43a8-8e2e-3e089c239132"
      }, {
        "reference": "Observation/b436c5d7-1546-4a19-8f57-f9c61efccbc9"
      }, {
        "reference": "Encounter/1980a7a3-b261-4765-a6ea-60684620fab4"
      }, {
        "reference": "Procedure/9d5fcdcd-e617-4dfe-bf30-50fd85309f30"
      }, {
        "reference": "Condition/d28da321-47bc-41e4-81f3-0cbe27de9deb"
      }, {
        "reference": "Coverage/5629ef56-2c91-4371-b628-ea0cdb69d86e"
      }, {
        "reference": "Organization/4651fd8a-9744-49d8-9057-e270beb53c46"
      }, {
        "reference": "Practitioner/ed0acac4-485f-4499-ab31-814f8bd276cc"
      } ]
    },
    "request": {
      "method": "PUT",
      "url": "MeasureReport/5ffe1aae-fb13-4415-8cc6-9a16e52eeb96"
    }
  } ]
}