{
  "resourceType": "Bundle",
  "id": "DENEXPass-SevereCogImpairmentDuringMP",
  "type": "collection",
  "entry": [ {
    "fullUrl": "https://madie.cms.gov/Patient/c5387404-0e9c-4503-ab99-ce10dc06da0d",
    "resource": {
      "resourceType": "Patient",
      "id": "c5387404-0e9c-4503-ab99-ce10dc06da0d",
      "meta": {
        "profile": [ "http://hl7.org/fhir/us/qicore/StructureDefinition/qicore-patient" ]
      },
      "extension": [ {
        "url": "http://hl7.org/fhir/us/core/StructureDefinition/us-core-race",
        "extension": [ {
          "url": "ombCategory",
          "valueCoding": {
            "system": "urn:oid:2.16.840.1.113883.6.238",
            "code": "2028-9",
            "display": "Asian"
          }
        }, {
          "url": "text",
          "valueString": "Asian"
        } ]
      }, {
        "url": "http://hl7.org/fhir/us/core/StructureDefinition/us-core-ethnicity",
        "extension": [ {
          "url": "ombCategory",
          "valueCoding": {
            "system": "urn:oid:2.16.840.1.113883.6.238",
            "code": "2135-2",
            "display": "Hispanic or Latino"
          }
        }, {
          "url": "text",
          "valueString": "Hispanic or Latino"
        } ]
      } ],
      "identifier": [ {
        "system": "http://hospital.smarthealthit.org",
        "value": "999999995"
      } ],
      "name": [ {
        "family": "Bertha",
        "given": [ "Betty" ]
      } ],
      "gender": "female",
      "birthDate": "2008-01-01"
    }
  }, {
    "fullUrl": "https://madie.cms.gov/Encounter/b91632d7-511c-46e1-9215-d77e931beb5f",
    "resource": {
      "resourceType": "Encounter",
      "id": "b91632d7-511c-46e1-9215-d77e931beb5f",
      "meta": {
        "profile": [ "http://hl7.org/fhir/us/qicore/StructureDefinition/qicore-encounter" ]
      },
      "status": "finished",
      "class": {
        "system": "http://terminology.hl7.org/CodeSystem/v3-ActCode",
        "code": "AMB",
        "display": "ambulatory"
      },
      "type": [ {
        "coding": [ {
          "system": "http://snomed.info/sct",
          "code": "185317003",
          "display": "Telephone encounter (procedure)"
        } ]
      } ],
      "subject": {
        "reference": "Patient/c5387404-0e9c-4503-ab99-ce10dc06da0d"
      },
      "period": {
        "start": "2026-01-01T01:00:00.000Z",
        "end": "2026-01-01T01:15:00.000Z"
      }
    }
  }, {
    "fullUrl": "https://madie.cms.gov/Encounter/b651da9f-d762-4736-bc85-7941e6d2689e",
    "resource": {
      "resourceType": "Encounter",
      "id": "b651da9f-d762-4736-bc85-7941e6d2689e",
      "meta": {
        "profile": [ "http://hl7.org/fhir/us/qicore/StructureDefinition/qicore-encounter" ]
      },
      "status": "finished",
      "class": {
        "system": "http://terminology.hl7.org/CodeSystem/v3-ActCode",
        "code": "AMB",
        "display": "ambulatory"
      },
      "type": [ {
        "coding": [ {
          "system": "http://snomed.info/sct",
          "code": "185317003",
          "display": "Telephone encounter (procedure)"
        } ]
      } ],
      "subject": {
        "reference": "Patient/c5387404-0e9c-4503-ab99-ce10dc06da0d"
      },
      "period": {
        "start": "2026-01-02T01:00:00.000Z",
        "end": "2026-01-02T01:15:00.000Z"
      }
    }
  }, {
    "fullUrl": "https://madie.cms.gov/Condition/3e5396ea-64c5-4408-af1d-5e596c8c4cb7",
    "resource": {
      "resourceType": "Condition",
      "id": "3e5396ea-64c5-4408-af1d-5e596c8c4cb7",
      "meta": {
        "profile": [ "http://hl7.org/fhir/us/qicore/StructureDefinition/qicore-condition-encounter-diagnosis" ]
      },
      "clinicalStatus": {
        "coding": [ {
          "system": "http://terminology.hl7.org/CodeSystem/condition-clinical",
          "code": "active"
        } ]
      },
      "category": [ {
        "coding": [ {
          "system": "http://terminology.hl7.org/CodeSystem/condition-category",
          "code": "encounter-diagnosis",
          "display": "Encounter Diagnosis"
        } ]
      } ],
      "code": {
        "coding": [ {
          "system": "http://snomed.info/sct",
          "version": "http://snomed.info/sct/731000124108/version/20250301",
          "code": "10091002",
          "display": "High output heart failure (disorder)"
        } ]
      },
      "subject": {
        "reference": "Patient/c5387404-0e9c-4503-ab99-ce10dc06da0d"
      },
      "onsetDateTime": "2025-12-31T00:00:00.000Z"
    }
  }, {
    "fullUrl": "https://madie.cms.gov/Condition/90bdf8df-56b5-4020-8e6a-1bc211bc7612",
    "resource": {
      "resourceType": "Condition",
      "id": "90bdf8df-56b5-4020-8e6a-1bc211bc7612",
      "meta": {
        "profile": [ "http://hl7.org/fhir/us/qicore/StructureDefinition/qicore-condition-encounter-diagnosis" ]
      },
      "clinicalStatus": {
        "coding": [ {
          "system": "http://terminology.hl7.org/CodeSystem/condition-clinical",
          "code": "active"
        } ]
      },
      "category": [ {
        "coding": [ {
          "system": "http://terminology.hl7.org/CodeSystem/condition-category",
          "code": "encounter-diagnosis",
          "display": "Encounter Diagnosis"
        } ]
      } ],
      "code": {
        "coding": [ {
          "system": "http://snomed.info/sct",
          "version": "http://snomed.info/sct/731000124108/version/20250301",
          "code": "702956004",
          "display": "Severe cognitive impairment (finding)"
        } ]
      },
      "subject": {
        "reference": "Patient/c5387404-0e9c-4503-ab99-ce10dc06da0d"
      },
      "onsetDateTime": "2026-12-30T23:59:59.000Z"
    }
  }, {
    "fullUrl": "https://madie.cms.gov/MeasureReport/75bcc62e-1021-42f4-aced-92b72c2c0e68",
    "resource": {
      "resourceType": "MeasureReport",
      "id": "75bcc62e-1021-42f4-aced-92b72c2c0e68",
      "meta": {
        "profile": [ "http://hl7.org/fhir/us/cqfmeasures/StructureDefinition/test-case-cqfm" ]
      },
      "contained": [ {
        "resourceType": "Parameters",
        "id": "83daed44-4cdb-40e1-b1f8-5ec038eb27d5-parameters",
        "parameter": [ {
          "name": "subject",
          "valueString": "c5387404-0e9c-4503-ab99-ce10dc06da0d"
        } ]
      } ],
      "extension": [ {
        "url": "http://hl7.org/fhir/StructureDefinition/cqf-inputParameters",
        "valueReference": {
          "reference": "#83daed44-4cdb-40e1-b1f8-5ec038eb27d5-parameters"
        }
      }, {
        "url": "http://hl7.org/fhir/us/cqfmeasures/StructureDefinition/cqfm-testCaseDescription",
        "valueMarkdown": "Patient has severe cognitive impairment during the MP encounter."
      } ],
      "modifierExtension": [ {
        "url": "http://hl7.org/fhir/us/cqfmeasures/StructureDefinition/cqfm-isTestCase",
        "valueBoolean": true
      } ],
      "status": "complete",
      "type": "individual",
      "measure": "https://madie.cms.gov/Measure/CMS90FHIRFSAforHeartFailure",
      "period": {
        "start": "2026-01-01",
        "end": "2026-12-31"
      },
      "group": [ {
        "id": "Group_1",
        "population": [ {
          "id": "InitialPopulation_1",
          "code": {
            "coding": [ {
              "system": "http://terminology.hl7.org/CodeSystem/measure-population",
              "code": "initial-population",
              "display": "Initial Population"
            } ]
          },
          "count": 1
        }, {
          "id": "Denominator_1",
          "code": {
            "coding": [ {
              "system": "http://terminology.hl7.org/CodeSystem/measure-population",
              "code": "denominator",
              "display": "Denominator"
            } ]
          },
          "count": 1
        }, {
          "id": "DenominatorExclusion_1",
          "code": {
            "coding": [ {
              "system": "http://terminology.hl7.org/CodeSystem/measure-population",
              "code": "denominator-exclusion",
              "display": "Denominator Exclusion"
            } ]
          },
          "count": 1
        }, {
          "id": "Numerator_1",
          "code": {
            "coding": [ {
              "system": "http://terminology.hl7.org/CodeSystem/measure-population",
              "code": "numerator",
              "display": "Numerator"
            } ]
          },
          "count": 0
        } ],
        "measureScore": {
          "value": 1.0
        }
      } ],
      "evaluatedResource": [ {
        "reference": "Patient/c5387404-0e9c-4503-ab99-ce10dc06da0d"
      }, {
        "reference": "Encounter/b91632d7-511c-46e1-9215-d77e931beb5f"
      }, {
        "reference": "Encounter/b651da9f-d762-4736-bc85-7941e6d2689e"
      }, {
        "reference": "Condition/3e5396ea-64c5-4408-af1d-5e596c8c4cb7"
      }, {
        "reference": "Condition/90bdf8df-56b5-4020-8e6a-1bc211bc7612"
      } ]
    }
  } ]
}