{
  "resourceType": "Bundle",
  "id": "IPPPass-OnlineAssessment",
  "type": "transaction",
  "entry": [ {
    "fullUrl": "https://madie.cms.gov/Patient/dbc8c8f1-3f10-4352-adbe-e0d4c12ade72",
    "resource": {
      "resourceType": "Patient",
      "id": "dbc8c8f1-3f10-4352-adbe-e0d4c12ade72",
      "meta": {
        "profile": [ "http://hl7.org/fhir/us/qicore/StructureDefinition/qicore-patient" ]
      },
      "extension": [ {
        "url": "http://hl7.org/fhir/us/core/StructureDefinition/us-core-race",
        "extension": [ {
          "url": "ombCategory",
          "valueCoding": {
            "system": "urn:oid:2.16.840.1.113883.6.238",
            "code": "2028-9",
            "display": "Asian"
          }
        }, {
          "url": "text",
          "valueString": "Asian"
        } ]
      }, {
        "url": "http://hl7.org/fhir/us/core/StructureDefinition/us-core-ethnicity",
        "extension": [ {
          "url": "ombCategory",
          "valueCoding": {
            "system": "urn:oid:2.16.840.1.113883.6.238",
            "code": "2135-2",
            "display": "Hispanic or Latino"
          }
        }, {
          "url": "text",
          "valueString": "Hispanic or Latino"
        } ]
      } ],
      "identifier": [ {
        "system": "http://hospital.smarthealthit.org",
        "value": "999999995"
      } ],
      "name": [ {
        "family": "IPPass",
        "given": [ "OnlineAssessment" ]
      } ],
      "gender": "female",
      "birthDate": "2007-12-31"
    },
    "request": {
      "method": "PUT",
      "url": "Patient/dbc8c8f1-3f10-4352-adbe-e0d4c12ade72"
    }
  }, {
    "fullUrl": "https://madie.cms.gov/Encounter/e9b38fac-8c05-4dcf-9f27-e1aee0798f8b",
    "resource": {
      "resourceType": "Encounter",
      "id": "e9b38fac-8c05-4dcf-9f27-e1aee0798f8b",
      "meta": {
        "profile": [ "http://hl7.org/fhir/us/qicore/StructureDefinition/qicore-encounter" ]
      },
      "status": "finished",
      "class": {
        "system": "http://terminology.hl7.org/CodeSystem/v3-ActCode",
        "code": "AMB",
        "display": "ambulatory"
      },
      "type": [ {
        "coding": [ {
          "system": "http://www.ama-assn.org/go/cpt",
          "code": "99457",
          "display": "Remote physiologic monitoring treatment management services, clinical staff/physician/other qualified health care professional time in a calendar month requiring interactive communication with the patient/caregiver during the month; first 20 minutes"
        } ]
      } ],
      "subject": {
        "reference": "Patient/dbc8c8f1-3f10-4352-adbe-e0d4c12ade72"
      },
      "period": {
        "start": "2026-01-01T00:00:00.000+00:00",
        "end": "2026-01-01T01:00:00.000+00:00"
      }
    },
    "request": {
      "method": "PUT",
      "url": "Encounter/e9b38fac-8c05-4dcf-9f27-e1aee0798f8b"
    }
  }, {
    "fullUrl": "https://madie.cms.gov/Condition/813aa5cc-a9a7-4b38-942e-b71aecd64ef5",
    "resource": {
      "resourceType": "Condition",
      "id": "813aa5cc-a9a7-4b38-942e-b71aecd64ef5",
      "meta": {
        "profile": [ "http://hl7.org/fhir/us/qicore/StructureDefinition/qicore-condition-encounter-diagnosis" ]
      },
      "clinicalStatus": {
        "coding": [ {
          "system": "http://terminology.hl7.org/CodeSystem/condition-clinical",
          "code": "active"
        } ]
      },
      "category": [ {
        "coding": [ {
          "system": "http://terminology.hl7.org/CodeSystem/condition-category",
          "code": "encounter-diagnosis",
          "display": "Encounter Diagnosis"
        } ]
      } ],
      "code": {
        "coding": [ {
          "system": "http://snomed.info/sct",
          "code": "371125006",
          "display": "Labile essential hypertension (disorder)"
        } ]
      },
      "subject": {
        "reference": "Patient/dbc8c8f1-3f10-4352-adbe-e0d4c12ade72"
      },
      "onsetDateTime": "2026-06-30T23:59:59.000+00:00"
    },
    "request": {
      "method": "PUT",
      "url": "Condition/813aa5cc-a9a7-4b38-942e-b71aecd64ef5"
    }
  }, {
    "fullUrl": "https://madie.cms.gov/MeasureReport/7b4148a0-65ef-40c4-bccc-6efa603e461a",
    "resource": {
      "resourceType": "MeasureReport",
      "id": "7b4148a0-65ef-40c4-bccc-6efa603e461a",
      "meta": {
        "profile": [ "http://hl7.org/fhir/us/cqfmeasures/StructureDefinition/test-case-cqfm" ]
      },
      "contained": [ {
        "resourceType": "Parameters",
        "id": "ed84af31-4b20-44b1-9248-2e3434441fa8-parameters",
        "parameter": [ {
          "name": "subject",
          "valueString": "dbc8c8f1-3f10-4352-adbe-e0d4c12ade72"
        } ]
      } ],
      "extension": [ {
        "url": "http://hl7.org/fhir/StructureDefinition/cqf-inputParameters",
        "valueReference": {
          "reference": "#ed84af31-4b20-44b1-9248-2e3434441fa8-parameters"
        }
      }, {
        "url": "http://hl7.org/fhir/us/cqfmeasures/StructureDefinition/cqfm-testCaseDescription",
        "valueMarkdown": "Online assessment during MP"
      } ],
      "modifierExtension": [ {
        "url": "http://hl7.org/fhir/us/cqfmeasures/StructureDefinition/cqfm-isTestCase",
        "valueBoolean": true
      } ],
      "status": "complete",
      "type": "individual",
      "measure": "https://madie.cms.gov/Measure/CMS165FHIRControllingHighBP",
      "period": {
        "start": "2026-01-01",
        "end": "2026-12-31"
      },
      "group": [ {
        "id": "Group_1",
        "population": [ {
          "id": "InitialPopulation_1",
          "code": {
            "coding": [ {
              "system": "http://terminology.hl7.org/CodeSystem/measure-population",
              "code": "initial-population",
              "display": "Initial Population"
            } ]
          },
          "count": 1
        }, {
          "id": "Denominator_1",
          "code": {
            "coding": [ {
              "system": "http://terminology.hl7.org/CodeSystem/measure-population",
              "code": "denominator",
              "display": "Denominator"
            } ]
          },
          "count": 1
        }, {
          "id": "DenominatorExclusion_1",
          "code": {
            "coding": [ {
              "system": "http://terminology.hl7.org/CodeSystem/measure-population",
              "code": "denominator-exclusion",
              "display": "Denominator Exclusion"
            } ]
          },
          "count": 0
        }, {
          "id": "Numerator_1",
          "code": {
            "coding": [ {
              "system": "http://terminology.hl7.org/CodeSystem/measure-population",
              "code": "numerator",
              "display": "Numerator"
            } ]
          },
          "count": 0
        } ],
        "measureScore": {
          "value": 1.0
        }
      } ],
      "evaluatedResource": [ {
        "reference": "Patient/dbc8c8f1-3f10-4352-adbe-e0d4c12ade72"
      }, {
        "reference": "Encounter/e9b38fac-8c05-4dcf-9f27-e1aee0798f8b"
      }, {
        "reference": "Condition/813aa5cc-a9a7-4b38-942e-b71aecd64ef5"
      } ]
    },
    "request": {
      "method": "PUT",
      "url": "MeasureReport/7b4148a0-65ef-40c4-bccc-6efa603e461a"
    }
  } ]
}