{
  "resourceType": "Bundle",
  "id": "ScreAtriNorefAsseModTHENNotMDxCp",
  "type": "transaction",
  "entry": [ {
    "fullUrl": "https://madie.cms.gov/Patient/e5582d8a-91d9-4234-910d-db7a6fa68785",
    "resource": {
      "resourceType": "Patient",
      "id": "e5582d8a-91d9-4234-910d-db7a6fa68785",
      "meta": {
        "profile": [ "http://hl7.org/fhir/us/qicore/StructureDefinition/qicore-patient" ]
      },
      "extension": [ {
        "url": "http://hl7.org/fhir/us/core/StructureDefinition/us-core-race",
        "extension": [ {
          "url": "ombCategory",
          "valueCoding": {
            "system": "urn:oid:2.16.840.1.113883.6.238",
            "code": "2106-3",
            "display": "White",
            "userSelected": true
          }
        }, {
          "url": "text",
          "valueString": "White"
        } ]
      }, {
        "url": "http://hl7.org/fhir/us/core/StructureDefinition/us-core-ethnicity",
        "extension": [ {
          "url": "ombCategory",
          "valueCoding": {
            "system": "urn:oid:2.16.840.1.113883.6.238",
            "code": "2186-5",
            "display": "Not Hispanic or Latino",
            "userSelected": true
          }
        }, {
          "url": "text",
          "valueString": "Not Hispanic or Latino"
        } ]
      }, {
        "url": "http://hl7.org/fhir/us/core/StructureDefinition/us-core-sex",
        "valueCode": "248152002"
      } ],
      "identifier": [ {
        "type": {
          "coding": [ {
            "system": "http://terminology.hl7.org/CodeSystem/v2-0203",
            "code": "MR"
          } ]
        },
        "system": "https://madie.cms.gov/",
        "value": "ScreAtriNorefAsseModTHENNotMDxCp"
      } ],
      "active": true,
      "name": [ {
        "use": "usual",
        "text": "ScreAtriNorefAsseModTHENNotMDxCp",
        "family": "MSROBSPass2",
        "given": [ "ScreAtriNorefAsseModTHENNotMDxCp" ]
      } ],
      "gender": "female",
      "birthDate": "1950-03-10",
      "address": [ {
        "text": "ScreAtriNorefAsseModTHENNotMDxCp, Screened at risk No ref Assessed Mod then Not Malnourished Diagnosed Care Plan, ID=ScreAtriNorefAsseModDxNocp, DOB: 10 Mar 1950"
      } ]
    },
    "request": {
      "method": "PUT",
      "url": "Patient/e5582d8a-91d9-4234-910d-db7a6fa68785"
    }
  }, {
    "fullUrl": "https://madie.cms.gov/Encounter/600e2b99-908b-4ee1-8dd3-1d91e44e951e",
    "resource": {
      "resourceType": "Encounter",
      "id": "600e2b99-908b-4ee1-8dd3-1d91e44e951e",
      "meta": {
        "profile": [ "http://hl7.org/fhir/us/qicore/StructureDefinition/qicore-encounter" ]
      },
      "status": "finished",
      "class": {
        "system": "http://terminology.hl7.org/CodeSystem/v3-ActCode",
        "code": "IMP",
        "display": "inpatient encounter"
      },
      "type": [ {
        "coding": [ {
          "system": "http://snomed.info/sct",
          "code": "183452005"
        } ]
      } ],
      "subject": {
        "reference": "Patient/e5582d8a-91d9-4234-910d-db7a6fa68785"
      },
      "period": {
        "start": "2026-07-14T08:00:00.000+00:00",
        "end": "2026-07-16T08:00:00.000+00:00"
      },
      "reasonCode": [ {
        "coding": [ {
          "system": "http://snomed.info/sct",
          "code": "77675002",
          "display": "Anorexia nervosa, restricting type (disorder)"
        } ]
      } ],
      "diagnosis": [ {
        "condition": {
          "reference": "Condition/f5b56d63-7c9d-4488-b948-321d990ab1b1"
        }
      } ]
    },
    "request": {
      "method": "PUT",
      "url": "Encounter/600e2b99-908b-4ee1-8dd3-1d91e44e951e"
    }
  }, {
    "fullUrl": "https://madie.cms.gov/Observation/eb48a2e4-355c-4046-b3a0-2a81ee024adf",
    "resource": {
      "resourceType": "Observation",
      "id": "eb48a2e4-355c-4046-b3a0-2a81ee024adf",
      "meta": {
        "profile": [ "http://hl7.org/fhir/us/qicore/StructureDefinition/qicore-observation-screening-assessment" ]
      },
      "status": "final",
      "category": [ {
        "coding": [ {
          "system": "http://terminology.hl7.org/CodeSystem/observation-category",
          "code": "survey",
          "display": "Survey"
        } ]
      } ],
      "code": {
        "coding": [ {
          "system": "http://loinc.org",
          "code": "98967-3",
          "display": "Nutritional Risk Screening 2002 panel",
          "userSelected": true
        } ]
      },
      "subject": {
        "reference": "Patient/e5582d8a-91d9-4234-910d-db7a6fa68785"
      },
      "effectiveDateTime": "2026-07-15T08:00:00.000+00:00",
      "valueCodeableConcept": {
        "coding": [ {
          "system": "http://snomed.info/sct",
          "code": "704361005",
          "display": "At risk of deficient food intake",
          "userSelected": true
        } ]
      }
    },
    "request": {
      "method": "PUT",
      "url": "Observation/eb48a2e4-355c-4046-b3a0-2a81ee024adf"
    }
  }, {
    "fullUrl": "https://madie.cms.gov/Observation/6c38f492-f2eb-4021-87dc-2a0a80ea7413",
    "resource": {
      "resourceType": "Observation",
      "id": "6c38f492-f2eb-4021-87dc-2a0a80ea7413",
      "meta": {
        "profile": [ "http://hl7.org/fhir/us/qicore/StructureDefinition/qicore-observation-screening-assessment" ]
      },
      "status": "final",
      "category": [ {
        "coding": [ {
          "system": "http://terminology.hl7.org/CodeSystem/observation-category",
          "code": "survey",
          "display": "Survey"
        } ]
      } ],
      "code": {
        "coding": [ {
          "system": "http://loinc.org",
          "code": "75285-7",
          "display": "Comparative Nutrition Assessment Standards Panel",
          "userSelected": true
        } ]
      },
      "subject": {
        "reference": "Patient/e5582d8a-91d9-4234-910d-db7a6fa68785"
      },
      "effectiveDateTime": "2026-07-14T08:00:00.000+00:00",
      "valueCodeableConcept": {
        "coding": [ {
          "system": "http://snomed.info/sct",
          "code": "190606006",
          "display": "Moderate protein energy malnutrition (disorder)",
          "userSelected": true
        } ]
      }
    },
    "request": {
      "method": "PUT",
      "url": "Observation/6c38f492-f2eb-4021-87dc-2a0a80ea7413"
    }
  }, {
    "fullUrl": "https://madie.cms.gov/Procedure/225b0b30-1c5e-4834-9a6f-5ada9a8fc996",
    "resource": {
      "resourceType": "Procedure",
      "id": "225b0b30-1c5e-4834-9a6f-5ada9a8fc996",
      "meta": {
        "profile": [ "http://hl7.org/fhir/us/qicore/StructureDefinition/qicore-procedure" ]
      },
      "extension": [ {
        "url": "http://hl7.org/fhir/us/qicore/StructureDefinition/qicore-recorded",
        "valueDateTime": "2025-02-02T11:30:00.000+00:00"
      } ],
      "status": "completed",
      "code": {
        "coding": [ {
          "system": "http://snomed.info/sct",
          "code": "445101000124100",
          "display": "Collaborating in nutrition therapy (procedure)"
        } ],
        "text": "Collaborating in nutrition therapy (procedure)"
      },
      "subject": {
        "reference": "Patient/e5582d8a-91d9-4234-910d-db7a6fa68785"
      },
      "encounter": {
        "reference": "Encounter/ScreAtriNorefAsseModTHENNotMDxCpMSROBSPass2"
      },
      "performedPeriod": {
        "start": "2026-07-15T08:00:00.000+00:00",
        "end": "2026-07-15T08:00:00.000+00:00"
      }
    },
    "request": {
      "method": "PUT",
      "url": "Procedure/225b0b30-1c5e-4834-9a6f-5ada9a8fc996"
    }
  }, {
    "fullUrl": "https://madie.cms.gov/Observation/dd8e249c-feda-4f50-adeb-d8c84f4c5a9c",
    "resource": {
      "resourceType": "Observation",
      "id": "dd8e249c-feda-4f50-adeb-d8c84f4c5a9c",
      "meta": {
        "profile": [ "http://hl7.org/fhir/us/qicore/StructureDefinition/qicore-observation-screening-assessment" ]
      },
      "status": "final",
      "category": [ {
        "coding": [ {
          "system": "http://terminology.hl7.org/CodeSystem/observation-category",
          "code": "survey",
          "display": "Survey"
        } ]
      } ],
      "code": {
        "coding": [ {
          "system": "http://loinc.org",
          "code": "75285-7",
          "display": "Comparative Nutrition Assessment Standards Panel",
          "userSelected": true
        } ]
      },
      "subject": {
        "reference": "Patient/e5582d8a-91d9-4234-910d-db7a6fa68785"
      },
      "effectiveDateTime": "2026-07-15T08:00:00.000+00:00",
      "valueCodeableConcept": {
        "coding": [ {
          "system": "http://loinc.org",
          "code": "LA33701-6",
          "display": "Well nourished",
          "userSelected": true
        } ]
      }
    },
    "request": {
      "method": "PUT",
      "url": "Observation/dd8e249c-feda-4f50-adeb-d8c84f4c5a9c"
    }
  }, {
    "fullUrl": "https://madie.cms.gov/Condition/f5b56d63-7c9d-4488-b948-321d990ab1b1",
    "resource": {
      "resourceType": "Condition",
      "id": "f5b56d63-7c9d-4488-b948-321d990ab1b1",
      "meta": {
        "profile": [ "http://hl7.org/fhir/us/qicore/StructureDefinition/qicore-condition-encounter-diagnosis" ]
      },
      "clinicalStatus": {
        "coding": [ {
          "system": "http://terminology.hl7.org/CodeSystem/condition-clinical",
          "code": "active",
          "display": "Active",
          "userSelected": true
        } ]
      },
      "verificationStatus": {
        "coding": [ {
          "system": "http://terminology.hl7.org/CodeSystem/condition-ver-status",
          "code": "confirmed",
          "display": "Confirmed",
          "userSelected": true
        } ]
      },
      "category": [ {
        "coding": [ {
          "system": "http://terminology.hl7.org/CodeSystem/condition-category",
          "code": "encounter-diagnosis",
          "display": "Encounter Diagnosis",
          "userSelected": true
        } ]
      } ],
      "code": {
        "coding": [ {
          "system": "http://snomed.info/sct",
          "code": "77675002",
          "display": "Anorexia nervosa, restricting type (disorder)",
          "userSelected": true
        } ]
      },
      "subject": {
        "reference": "Patient/e5582d8a-91d9-4234-910d-db7a6fa68785"
      },
      "onsetPeriod": {
        "start": "2026-07-14T08:00:00.000+00:00"
      },
      "recordedDate": "2026-07-16T08:00:00.000+00:00"
    },
    "request": {
      "method": "PUT",
      "url": "Condition/f5b56d63-7c9d-4488-b948-321d990ab1b1"
    }
  }, {
    "fullUrl": "https://madie.cms.gov/Coverage/74782c8b-c806-4de7-9f3d-118c7daffc11",
    "resource": {
      "resourceType": "Coverage",
      "id": "74782c8b-c806-4de7-9f3d-118c7daffc11",
      "meta": {
        "profile": [ "http://hl7.org/fhir/us/qicore/StructureDefinition/qicore-coverage" ]
      },
      "status": "active",
      "type": {
        "coding": [ {
          "system": "https://nahdo.org/sopt",
          "version": "9.2",
          "code": "11",
          "display": "Medicare Managed Care (Includes Medicare Advantage Plans)"
        } ]
      },
      "subscriberId": "97531",
      "beneficiary": {
        "reference": "Patient/e5582d8a-91d9-4234-910d-db7a6fa68785"
      },
      "dependent": "0",
      "relationship": {
        "coding": [ {
          "system": "http://terminology.hl7.org/CodeSystem/subscriber-relationship",
          "code": "self"
        } ]
      },
      "period": {
        "start": "2025-10-01T00:00:00.000+00:00"
      },
      "payor": [ {
        "reference": "Organization/ScreAtriNorefAsseModTHENNotMDxCpScreAtriNorefAsseModDxNocp-98"
      } ]
    },
    "request": {
      "method": "PUT",
      "url": "Coverage/74782c8b-c806-4de7-9f3d-118c7daffc11"
    }
  }, {
    "fullUrl": "https://madie.cms.gov/Organization/54f7da8b-6869-4d3b-9599-bb4b2758740f",
    "resource": {
      "resourceType": "Organization",
      "id": "54f7da8b-6869-4d3b-9599-bb4b2758740f",
      "meta": {
        "profile": [ "http://hl7.org/fhir/us/qicore/StructureDefinition/qicore-organization" ]
      },
      "identifier": [ {
        "use": "temp",
        "system": "urn:oid:2.16.840.1.113883.4.4",
        "value": "21-3259825"
      } ],
      "active": true,
      "type": [ {
        "coding": [ {
          "system": "http://terminology.hl7.org/CodeSystem/organization-type",
          "code": "pay",
          "display": "Payer"
        } ]
      } ],
      "name": "Blue Cross Blue Shield of Texas",
      "telecom": [ {
        "system": "phone",
        "value": "(+1) 972-766-6900"
      } ],
      "address": [ {
        "use": "billing",
        "type": "postal",
        "line": [ "P.O. Box 660044" ],
        "city": "Dallas",
        "state": "TX",
        "postalCode": "75266-0044",
        "country": "USA"
      } ]
    },
    "request": {
      "method": "PUT",
      "url": "Organization/54f7da8b-6869-4d3b-9599-bb4b2758740f"
    }
  }, {
    "fullUrl": "https://madie.cms.gov/MeasureReport/7bebb9a5-b5a3-4c5f-9c34-f9216155ace4",
    "resource": {
      "resourceType": "MeasureReport",
      "id": "7bebb9a5-b5a3-4c5f-9c34-f9216155ace4",
      "meta": {
        "profile": [ "http://hl7.org/fhir/us/cqfmeasures/StructureDefinition/test-case-cqfm" ]
      },
      "contained": [ {
        "resourceType": "Parameters",
        "id": "18ea5911-10ef-4902-95f0-2cf43dddc41e-parameters",
        "parameter": [ {
          "name": "subject",
          "valueString": "e5582d8a-91d9-4234-910d-db7a6fa68785"
        } ]
      } ],
      "extension": [ {
        "url": "http://hl7.org/fhir/StructureDefinition/cqf-inputParameters",
        "valueReference": {
          "reference": "#18ea5911-10ef-4902-95f0-2cf43dddc41e-parameters"
        }
      }, {
        "url": "http://hl7.org/fhir/us/cqfmeasures/StructureDefinition/cqfm-testCaseDescription",
        "valueMarkdown": "Screened, At Risk, No Referral, Assessed, mod malnourished, then Not/Mildly Malnourished, Diagnosis (reasonCode), Nutrition Care Plan"
      } ],
      "modifierExtension": [ {
        "url": "http://hl7.org/fhir/us/cqfmeasures/StructureDefinition/cqfm-isTestCase",
        "valueBoolean": true
      } ],
      "status": "complete",
      "type": "individual",
      "measure": "https://madie.cms.gov/Measure/CMS986FHIRMalnutritionScore",
      "period": {
        "start": "2026-01-01",
        "end": "2026-12-31"
      },
      "group": [ {
        "id": "Group_1",
        "population": [ {
          "id": "InitialPopulation_1",
          "code": {
            "coding": [ {
              "system": "http://terminology.hl7.org/CodeSystem/measure-population",
              "code": "initial-population",
              "display": "Initial Population"
            } ]
          },
          "count": 1
        }, {
          "id": "MeasurePopulation_1",
          "code": {
            "coding": [ {
              "system": "http://terminology.hl7.org/CodeSystem/measure-population",
              "code": "measure-population",
              "display": "Measure Population"
            } ]
          },
          "count": 1
        }, {
          "id": "MeasurePopulationExclusion_1",
          "code": {
            "coding": [ {
              "system": "http://terminology.hl7.org/CodeSystem/measure-population",
              "code": "measure-population-exclusion",
              "display": "Measure Population Exclusion"
            } ]
          },
          "count": 0
        }, {
          "id": "MeasureObservation_1_1",
          "code": {
            "coding": [ {
              "system": "http://terminology.hl7.org/CodeSystem/measure-population",
              "code": "measure-population-observation",
              "display": "Measure Population Observation"
            } ]
          },
          "count": 1
        } ],
        "measureScore": {
          "value": 0.0
        }
      }, {
        "id": "Group_2",
        "population": [ {
          "id": "InitialPopulation_2",
          "code": {
            "coding": [ {
              "system": "http://terminology.hl7.org/CodeSystem/measure-population",
              "code": "initial-population",
              "display": "Initial Population"
            } ]
          },
          "count": 1
        }, {
          "id": "MeasurePopulation_2",
          "code": {
            "coding": [ {
              "system": "http://terminology.hl7.org/CodeSystem/measure-population",
              "code": "measure-population",
              "display": "Measure Population"
            } ]
          },
          "count": 1
        }, {
          "id": "MeasurePopulationExclusion_2",
          "code": {
            "coding": [ {
              "system": "http://terminology.hl7.org/CodeSystem/measure-population",
              "code": "measure-population-exclusion",
              "display": "Measure Population Exclusion"
            } ]
          },
          "count": 0
        }, {
          "id": "MeasureObservation_2_1",
          "code": {
            "coding": [ {
              "system": "http://terminology.hl7.org/CodeSystem/measure-population",
              "code": "measure-population-observation",
              "display": "Measure Population Observation"
            } ]
          },
          "count": 1
        } ],
        "measureScore": {
          "value": 0.0
        }
      }, {
        "id": "Group_3",
        "population": [ {
          "id": "InitialPopulation_3",
          "code": {
            "coding": [ {
              "system": "http://terminology.hl7.org/CodeSystem/measure-population",
              "code": "initial-population",
              "display": "Initial Population"
            } ]
          },
          "count": 1
        }, {
          "id": "MeasurePopulation_3",
          "code": {
            "coding": [ {
              "system": "http://terminology.hl7.org/CodeSystem/measure-population",
              "code": "measure-population",
              "display": "Measure Population"
            } ]
          },
          "count": 1
        }, {
          "id": "MeasurePopulationExclusion_3",
          "code": {
            "coding": [ {
              "system": "http://terminology.hl7.org/CodeSystem/measure-population",
              "code": "measure-population-exclusion",
              "display": "Measure Population Exclusion"
            } ]
          },
          "count": 0
        }, {
          "id": "MeasureObservation_3_1",
          "code": {
            "coding": [ {
              "system": "http://terminology.hl7.org/CodeSystem/measure-population",
              "code": "measure-population-observation",
              "display": "Measure Population Observation"
            } ]
          },
          "count": 0
        } ],
        "measureScore": {
          "value": 0.0
        }
      }, {
        "id": "Group_4",
        "population": [ {
          "id": "InitialPopulation_4",
          "code": {
            "coding": [ {
              "system": "http://terminology.hl7.org/CodeSystem/measure-population",
              "code": "initial-population",
              "display": "Initial Population"
            } ]
          },
          "count": 1
        }, {
          "id": "MeasurePopulation_4",
          "code": {
            "coding": [ {
              "system": "http://terminology.hl7.org/CodeSystem/measure-population",
              "code": "measure-population",
              "display": "Measure Population"
            } ]
          },
          "count": 1
        }, {
          "id": "MeasurePopulationExclusion_4",
          "code": {
            "coding": [ {
              "system": "http://terminology.hl7.org/CodeSystem/measure-population",
              "code": "measure-population-exclusion",
              "display": "Measure Population Exclusion"
            } ]
          },
          "count": 0
        }, {
          "id": "MeasureObservation_4_1",
          "code": {
            "coding": [ {
              "system": "http://terminology.hl7.org/CodeSystem/measure-population",
              "code": "measure-population-observation",
              "display": "Measure Population Observation"
            } ]
          },
          "count": 0
        } ],
        "measureScore": {
          "value": 0.0
        }
      }, {
        "id": "Group_5",
        "population": [ {
          "id": "InitialPopulation_5",
          "code": {
            "coding": [ {
              "system": "http://terminology.hl7.org/CodeSystem/measure-population",
              "code": "initial-population",
              "display": "Initial Population"
            } ]
          },
          "count": 1
        }, {
          "id": "MeasurePopulation_5",
          "code": {
            "coding": [ {
              "system": "http://terminology.hl7.org/CodeSystem/measure-population",
              "code": "measure-population",
              "display": "Measure Population"
            } ]
          },
          "count": 1
        }, {
          "id": "MeasurePopulationExclusion_5",
          "code": {
            "coding": [ {
              "system": "http://terminology.hl7.org/CodeSystem/measure-population",
              "code": "measure-population-exclusion",
              "display": "Measure Population Exclusion"
            } ]
          },
          "count": 0
        }, {
          "id": "MeasureObservation_5_1",
          "code": {
            "coding": [ {
              "system": "http://terminology.hl7.org/CodeSystem/measure-population",
              "code": "measure-population-observation",
              "display": "Measure Population Observation"
            } ]
          },
          "count": 2
        } ],
        "measureScore": {
          "value": 0.0
        }
      }, {
        "id": "Group_6",
        "population": [ {
          "id": "InitialPopulation_6",
          "code": {
            "coding": [ {
              "system": "http://terminology.hl7.org/CodeSystem/measure-population",
              "code": "initial-population",
              "display": "Initial Population"
            } ]
          },
          "count": 1
        }, {
          "id": "MeasurePopulation_6",
          "code": {
            "coding": [ {
              "system": "http://terminology.hl7.org/CodeSystem/measure-population",
              "code": "measure-population",
              "display": "Measure Population"
            } ]
          },
          "count": 1
        }, {
          "id": "MeasurePopulationExclusion_6",
          "code": {
            "coding": [ {
              "system": "http://terminology.hl7.org/CodeSystem/measure-population",
              "code": "measure-population-exclusion",
              "display": "Measure Population Exclusion"
            } ]
          },
          "count": 0
        }, {
          "id": "MeasureObservation_6_1",
          "code": {
            "coding": [ {
              "system": "http://terminology.hl7.org/CodeSystem/measure-population",
              "code": "measure-population-observation",
              "display": "Measure Population Observation"
            } ]
          },
          "count": 100
        } ],
        "measureScore": {
          "value": 0.0
        }
      } ],
      "evaluatedResource": [ {
        "reference": "Patient/e5582d8a-91d9-4234-910d-db7a6fa68785"
      }, {
        "reference": "Encounter/600e2b99-908b-4ee1-8dd3-1d91e44e951e"
      }, {
        "reference": "Observation/eb48a2e4-355c-4046-b3a0-2a81ee024adf"
      }, {
        "reference": "Observation/6c38f492-f2eb-4021-87dc-2a0a80ea7413"
      }, {
        "reference": "Procedure/225b0b30-1c5e-4834-9a6f-5ada9a8fc996"
      }, {
        "reference": "Observation/dd8e249c-feda-4f50-adeb-d8c84f4c5a9c"
      }, {
        "reference": "Condition/f5b56d63-7c9d-4488-b948-321d990ab1b1"
      }, {
        "reference": "Coverage/74782c8b-c806-4de7-9f3d-118c7daffc11"
      }, {
        "reference": "Organization/54f7da8b-6869-4d3b-9599-bb4b2758740f"
      } ]
    },
    "request": {
      "method": "PUT",
      "url": "MeasureReport/7bebb9a5-b5a3-4c5f-9c34-f9216155ace4"
    }
  } ]
}