{
  "resourceType": "Bundle",
  "id": "612e6b4302c62a011f2ed188",
  "type": "transaction",
  "entry": [ {
    "fullUrl": "https://madie.cms.gov/Patient/104887a9-056e-4fd3-b47a-176eefbd090b",
    "resource": {
      "resourceType": "Patient",
      "id": "104887a9-056e-4fd3-b47a-176eefbd090b",
      "meta": {
        "profile": [ "http://hl7.org/fhir/us/qicore/StructureDefinition/qicore-patient" ]
      },
      "text": {
        "status": "generated",
        "div": "<div xmlns=\"http://www.w3.org/1999/xhtml\"><div class=\"hapiHeaderText\">CMODrgED2HrsBFAdmSameDateAdmDateDoNotPerformFalse <b>DENEXPASS </b></div><table class=\"hapiPropertyTable\"><tbody><tr><td>Identifier</td><td>059b8a3b4412b01787dc1d643429cbf6</td></tr><tr><td>Date of birth</td><td><span>02 January 1974</span></td></tr></tbody></table></div>"
      },
      "extension": [ {
        "url": "http://hl7.org/fhir/us/core/StructureDefinition/us-core-race",
        "extension": [ {
          "url": "ombCategory",
          "valueCoding": {
            "system": "urn:oid:2.16.840.1.113883.6.238",
            "code": "1002-5",
            "display": "American Indian or Alaska Native",
            "userSelected": true
          }
        }, {
          "url": "text",
          "valueString": "American Indian or Alaska Native"
        } ]
      }, {
        "url": "http://hl7.org/fhir/us/core/StructureDefinition/us-core-ethnicity",
        "extension": [ {
          "url": "ombCategory",
          "valueCoding": {
            "system": "urn:oid:2.16.840.1.113883.6.238",
            "code": "2135-2",
            "display": "Hispanic or Latino",
            "userSelected": true
          }
        }, {
          "url": "text",
          "valueString": "Hispanic or Latino"
        } ]
      } ],
      "identifier": [ {
        "type": {
          "coding": [ {
            "system": "http://terminology.hl7.org/CodeSystem/v2-0203",
            "code": "MR"
          } ]
        },
        "system": "https://bonnie-fhir.healthit.gov/",
        "value": "612e6b4302c62a011f2ed188"
      } ],
      "active": true,
      "name": [ {
        "use": "usual",
        "family": "DENEXPass",
        "given": [ "CMODrgED2HrsBFAdmSameDateAdmDateDoNotPerformFalse" ]
      } ],
      "gender": "male",
      "birthDate": "1975-01-02"
    },
    "request": {
      "method": "PUT",
      "url": "Patient/104887a9-056e-4fd3-b47a-176eefbd090b"
    }
  }, {
    "fullUrl": "https://madie.cms.gov/Encounter/79be2313-8650-43ad-8765-f2693f1e63ef",
    "resource": {
      "resourceType": "Encounter",
      "id": "79be2313-8650-43ad-8765-f2693f1e63ef",
      "meta": {
        "profile": [ "http://hl7.org/fhir/us/qicore/StructureDefinition/qicore-encounter" ]
      },
      "status": "finished",
      "class": {
        "system": "http://terminology.hl7.org/CodeSystem/v3-ActCode",
        "code": "EMER",
        "display": "emergency"
      },
      "type": [ {
        "coding": [ {
          "system": "http://snomed.info/sct",
          "code": "4525004"
        } ]
      } ],
      "subject": {
        "reference": "Patient/104887a9-056e-4fd3-b47a-176eefbd090b"
      },
      "period": {
        "start": "2026-11-01T03:00:00.000+00:00",
        "end": "2026-11-01T05:15:00.000+00:00"
      },
      "length": {
        "value": 0,
        "unit": "days"
      }
    },
    "request": {
      "method": "PUT",
      "url": "Encounter/79be2313-8650-43ad-8765-f2693f1e63ef"
    }
  }, {
    "fullUrl": "https://madie.cms.gov/Encounter/6b779306-f908-4de2-b7d8-75d694c1c021",
    "resource": {
      "resourceType": "Encounter",
      "id": "6b779306-f908-4de2-b7d8-75d694c1c021",
      "meta": {
        "profile": [ "http://hl7.org/fhir/us/qicore/StructureDefinition/qicore-encounter" ]
      },
      "status": "finished",
      "class": {
        "system": "http://terminology.hl7.org/CodeSystem/v3-ActCode",
        "code": "IMP",
        "display": "inpatient encounter"
      },
      "type": [ {
        "coding": [ {
          "system": "http://snomed.info/sct",
          "code": "8715000"
        } ]
      } ],
      "subject": {
        "reference": "Patient/104887a9-056e-4fd3-b47a-176eefbd090b"
      },
      "period": {
        "start": "2026-11-01T08:00:00.000+00:00",
        "end": "2026-11-26T08:15:00.000+00:00"
      },
      "length": {
        "value": 25,
        "unit": "days"
      }
    },
    "request": {
      "method": "PUT",
      "url": "Encounter/6b779306-f908-4de2-b7d8-75d694c1c021"
    }
  }, {
    "fullUrl": "https://madie.cms.gov/ServiceRequest/a74f966b-232c-4e30-95c1-f8b78c62497b",
    "resource": {
      "resourceType": "ServiceRequest",
      "id": "a74f966b-232c-4e30-95c1-f8b78c62497b",
      "meta": {
        "profile": [ "http://hl7.org/fhir/us/qicore/StructureDefinition/qicore-servicerequest" ]
      },
      "status": "completed",
      "intent": "order",
      "doNotPerform": false,
      "code": {
        "coding": [ {
          "system": "http://snomed.info/sct",
          "code": "133918004"
        } ]
      },
      "subject": {
        "reference": "Patient/104887a9-056e-4fd3-b47a-176eefbd090b"
      },
      "authoredOn": "2026-11-01T05:00:00.000+00:00"
    },
    "request": {
      "method": "PUT",
      "url": "ServiceRequest/a74f966b-232c-4e30-95c1-f8b78c62497b"
    }
  }, {
    "fullUrl": "https://madie.cms.gov/Coverage/dc976126-e948-40c8-a4b2-9d42538b2f0d",
    "resource": {
      "resourceType": "Coverage",
      "id": "dc976126-e948-40c8-a4b2-9d42538b2f0d",
      "status": "active",
      "beneficiary": {
        "reference": "Patient/104887a9-056e-4fd3-b47a-176eefbd090b"
      },
      "period": {
        "start": "1975-01-02T08:00:00.000+00:00"
      },
      "payor": [ {
        "reference": "Organization/8d5c6dd3-5045-4fb7-b642-fff45fdfe7d0"
      } ]
    },
    "request": {
      "method": "PUT",
      "url": "Coverage/dc976126-e948-40c8-a4b2-9d42538b2f0d"
    }
  }, {
    "fullUrl": "https://madie.cms.gov/Organization/8d5c6dd3-5045-4fb7-b642-fff45fdfe7d0",
    "resource": {
      "resourceType": "Organization",
      "id": "8d5c6dd3-5045-4fb7-b642-fff45fdfe7d0",
      "meta": {
        "profile": [ "http://hl7.org/fhir/us/qicore/StructureDefinition/qicore-organization" ]
      },
      "identifier": [ {
        "use": "temp",
        "system": "urn:oid:2.16.840.1.113883.4.4",
        "value": "21-3259825"
      } ],
      "active": true,
      "type": [ {
        "coding": [ {
          "system": "http://terminology.hl7.org/CodeSystem/organization-type",
          "code": "pay",
          "display": "Payer"
        } ]
      } ],
      "name": "Blue Cross Blue Shield of Texas",
      "telecom": [ {
        "system": "phone",
        "value": "(+1) 972-766-6900"
      } ],
      "address": [ {
        "use": "billing",
        "type": "postal",
        "line": [ "P.O. Box 660044" ],
        "city": "Dallas",
        "state": "TX",
        "postalCode": "75266-0044",
        "country": "USA"
      } ]
    },
    "request": {
      "method": "PUT",
      "url": "Organization/8d5c6dd3-5045-4fb7-b642-fff45fdfe7d0"
    }
  }, {
    "fullUrl": "https://madie.cms.gov/Practitioner/aecfb749-7607-40b9-9df3-c54dff976403",
    "resource": {
      "resourceType": "Practitioner",
      "id": "aecfb749-7607-40b9-9df3-c54dff976403",
      "identifier": [ {
        "system": "http://hl7.org/fhir/sid/us-npi",
        "value": "123456"
      } ],
      "name": [ {
        "family": "Evil",
        "prefix": [ "Dr" ]
      } ]
    },
    "request": {
      "method": "PUT",
      "url": "Practitioner/aecfb749-7607-40b9-9df3-c54dff976403"
    }
  }, {
    "fullUrl": "https://madie.cms.gov/MeasureReport/d858ecdc-cea2-4d17-b43e-388465dfb115",
    "resource": {
      "resourceType": "MeasureReport",
      "id": "d858ecdc-cea2-4d17-b43e-388465dfb115",
      "meta": {
        "profile": [ "http://hl7.org/fhir/us/cqfmeasures/StructureDefinition/test-case-cqfm" ]
      },
      "contained": [ {
        "resourceType": "Parameters",
        "id": "27e41e9a-31eb-409a-af4c-6d1bf4fb4008-parameters",
        "parameter": [ {
          "name": "subject",
          "valueString": "104887a9-056e-4fd3-b47a-176eefbd090b"
        } ]
      } ],
      "extension": [ {
        "url": "http://hl7.org/fhir/StructureDefinition/cqf-inputParameters",
        "valueReference": {
          "reference": "#27e41e9a-31eb-409a-af4c-6d1bf4fb4008-parameters"
        }
      }, {
        "url": "http://hl7.org/fhir/us/cqfmeasures/StructureDefinition/cqfm-testCaseDescription",
        "valueMarkdown": "CMO occurs in ED that ED ends > 1 hour before Adm. But this case pass because it is on the same day as adm date\n"
      } ],
      "modifierExtension": [ {
        "url": "http://hl7.org/fhir/us/cqfmeasures/StructureDefinition/cqfm-isTestCase",
        "valueBoolean": true
      } ],
      "status": "complete",
      "type": "individual",
      "measure": "https://madie.cms.gov/Measure/CMS108FHIRVTEProphylaxis",
      "period": {
        "start": "2026-01-01",
        "end": "2026-12-31"
      },
      "group": [ {
        "id": "Group_1",
        "population": [ {
          "id": "InitialPopulation_1",
          "code": {
            "coding": [ {
              "system": "http://terminology.hl7.org/CodeSystem/measure-population",
              "code": "initial-population",
              "display": "Initial Population"
            } ]
          },
          "count": 1
        }, {
          "id": "Denominator_1",
          "code": {
            "coding": [ {
              "system": "http://terminology.hl7.org/CodeSystem/measure-population",
              "code": "denominator",
              "display": "Denominator"
            } ]
          },
          "count": 1
        }, {
          "id": "DenominatorExclusion_1",
          "code": {
            "coding": [ {
              "system": "http://terminology.hl7.org/CodeSystem/measure-population",
              "code": "denominator-exclusion",
              "display": "Denominator Exclusion"
            } ]
          },
          "count": 1
        }, {
          "id": "Numerator_1",
          "code": {
            "coding": [ {
              "system": "http://terminology.hl7.org/CodeSystem/measure-population",
              "code": "numerator",
              "display": "Numerator"
            } ]
          },
          "count": 0
        } ],
        "measureScore": {
          "value": 0.0
        }
      } ],
      "evaluatedResource": [ {
        "reference": "Patient/104887a9-056e-4fd3-b47a-176eefbd090b"
      }, {
        "reference": "Encounter/79be2313-8650-43ad-8765-f2693f1e63ef"
      }, {
        "reference": "Encounter/6b779306-f908-4de2-b7d8-75d694c1c021"
      }, {
        "reference": "ServiceRequest/a74f966b-232c-4e30-95c1-f8b78c62497b"
      }, {
        "reference": "Coverage/dc976126-e948-40c8-a4b2-9d42538b2f0d"
      }, {
        "reference": "Organization/8d5c6dd3-5045-4fb7-b642-fff45fdfe7d0"
      }, {
        "reference": "Practitioner/aecfb749-7607-40b9-9df3-c54dff976403"
      } ]
    },
    "request": {
      "method": "PUT",
      "url": "MeasureReport/d858ecdc-cea2-4d17-b43e-388465dfb115"
    }
  } ]
}