{
  "resourceType": "Bundle",
  "id": "tests-NumerPass-RVwithAntidepressantOrderAtAdmission-bundle",
  "type": "transaction",
  "entry": [ {
    "fullUrl": "https://madie.cms.gov/Encounter/18f50cd4-4be7-434e-b775-73c95ebe9c0d",
    "resource": {
      "resourceType": "Encounter",
      "id": "18f50cd4-4be7-434e-b775-73c95ebe9c0d",
      "meta": {
        "profile": [ "http://hl7.org/fhir/us/qicore/StructureDefinition/qicore-encounter" ]
      },
      "status": "finished",
      "class": {
        "system": "http://terminology.hl7.org/CodeSystem/v3-ActCode",
        "code": "IMP",
        "display": "inpatient encounter"
      },
      "type": [ {
        "coding": [ {
          "system": "http://snomed.info/sct",
          "code": "183452005"
        } ]
      } ],
      "subject": {
        "reference": "Patient/a2b51ea0-5a72-4bda-abe5-dd393bfa0545"
      },
      "period": {
        "start": "2026-10-19T08:30:00.000+00:00",
        "end": "2026-10-31T08:15:00.000+00:00"
      },
      "reasonCode": [ {
        "coding": [ {
          "system": "http://snomed.info/sct",
          "code": "14047009"
        } ]
      }, {
        "coding": [ {
          "system": "http://snomed.info/sct",
          "code": "64859006"
        } ]
      } ]
    },
    "request": {
      "method": "PUT",
      "url": "Encounter/18f50cd4-4be7-434e-b775-73c95ebe9c0d"
    }
  }, {
    "fullUrl": "https://madie.cms.gov/Encounter/c606d44e-d5ff-4346-82f9-e38048bd0fa8",
    "resource": {
      "resourceType": "Encounter",
      "id": "c606d44e-d5ff-4346-82f9-e38048bd0fa8",
      "meta": {
        "profile": [ "http://hl7.org/fhir/us/qicore/StructureDefinition/qicore-encounter" ]
      },
      "status": "finished",
      "class": {
        "system": "http://terminology.hl7.org/CodeSystem/v3-ActCode",
        "code": "EMER",
        "display": "emergency encounter"
      },
      "type": [ {
        "coding": [ {
          "system": "http://snomed.info/sct",
          "code": "4525004"
        } ]
      } ],
      "subject": {
        "reference": "Patient/a2b51ea0-5a72-4bda-abe5-dd393bfa0545"
      },
      "period": {
        "start": "2026-10-18T09:15:00.000+00:00",
        "end": "2026-10-19T08:15:00.000+00:00"
      }
    },
    "request": {
      "method": "PUT",
      "url": "Encounter/c606d44e-d5ff-4346-82f9-e38048bd0fa8"
    }
  }, {
    "fullUrl": "https://madie.cms.gov/Patient/a2b51ea0-5a72-4bda-abe5-dd393bfa0545",
    "resource": {
      "resourceType": "Patient",
      "id": "a2b51ea0-5a72-4bda-abe5-dd393bfa0545",
      "meta": {
        "profile": [ "http://hl7.org/fhir/us/qicore/StructureDefinition/qicore-patient" ]
      },
      "extension": [ {
        "url": "http://hl7.org/fhir/us/core/StructureDefinition/us-core-race",
        "extension": [ {
          "url": "ombCategory",
          "valueCoding": {
            "system": "urn:oid:2.16.840.1.113883.6.238",
            "code": "2106-3",
            "display": "White"
          }
        }, {
          "url": "text",
          "valueString": "White"
        } ]
      }, {
        "url": "http://hl7.org/fhir/us/core/StructureDefinition/us-core-ethnicity",
        "extension": [ {
          "url": "ombCategory",
          "valueCoding": {
            "system": "urn:oid:2.16.840.1.113883.6.238",
            "code": "2135-2",
            "display": "Hispanic or Latino"
          }
        }, {
          "url": "text",
          "valueString": "Hispanic or Latino"
        } ]
      }, {
        "url": "http://hl7.org/fhir/us/core/StructureDefinition/us-core-sex",
        "valueCode": "248153007"
      } ],
      "identifier": [ {
        "system": "http://hospital.smarthealthit.org",
        "value": "999999999"
      } ],
      "name": [ {
        "family": "Example",
        "given": [ "Patient" ]
      } ],
      "gender": "female",
      "birthDate": "1956-01-01"
    },
    "request": {
      "method": "PUT",
      "url": "Patient/a2b51ea0-5a72-4bda-abe5-dd393bfa0545"
    }
  }, {
    "fullUrl": "https://madie.cms.gov/Claim/e9f2e195-a95f-4441-8b5b-b03abf715844",
    "resource": {
      "resourceType": "Claim",
      "id": "e9f2e195-a95f-4441-8b5b-b03abf715844",
      "meta": {
        "profile": [ "http://hl7.org/fhir/us/qicore/StructureDefinition/qicore-claim" ]
      },
      "status": "active",
      "type": {
        "coding": [ {
          "system": "http://terminology.hl7.org/CodeSystem/claim-type",
          "code": "institutional",
          "display": "Institutional"
        } ]
      },
      "use": "claim",
      "patient": {
        "reference": "Patient/a2b51ea0-5a72-4bda-abe5-dd393bfa0545"
      },
      "created": "2026-10-22",
      "provider": {
        "reference": "Practitioner/practitioner-1"
      },
      "priority": {
        "coding": [ {
          "system": "http://terminology.hl7.org/CodeSystem/processpriority",
          "code": "normal"
        } ]
      },
      "diagnosis": [ {
        "sequence": 1,
        "diagnosisCodeableConcept": {
          "coding": [ {
            "system": "http://snomed.info/sct",
            "code": "14047009"
          } ]
        }
      } ],
      "insurance": [ {
        "sequence": 1,
        "focal": true,
        "coverage": {
          "reference": "Coverage/coverage-1"
        }
      } ],
      "item": [ {
        "sequence": 1,
        "diagnosisSequence": [ 1, 2 ],
        "productOrService": {
          "coding": [ {
            "system": "http://terminology.hl7.org/CodeSystem/ex-USCLS",
            "code": "1101"
          } ]
        },
        "encounter": [ {
          "reference": "Encounter/18f50cd4-4be7-434e-b775-73c95ebe9c0d"
        } ]
      } ]
    },
    "request": {
      "method": "PUT",
      "url": "Claim/e9f2e195-a95f-4441-8b5b-b03abf715844"
    }
  }, {
    "fullUrl": "https://madie.cms.gov/Claim/0004013b-40a8-4787-a11f-7501198ca8a8",
    "resource": {
      "resourceType": "Claim",
      "id": "0004013b-40a8-4787-a11f-7501198ca8a8",
      "meta": {
        "profile": [ "http://hl7.org/fhir/us/qicore/StructureDefinition/qicore-claim" ]
      },
      "status": "active",
      "type": {
        "coding": [ {
          "system": "http://terminology.hl7.org/CodeSystem/claim-type",
          "code": "institutional",
          "display": "Institutional"
        } ]
      },
      "use": "claim",
      "patient": {
        "reference": "Patient/a2b51ea0-5a72-4bda-abe5-dd393bfa0545"
      },
      "created": "2026-11-01",
      "provider": {
        "reference": "Practitioner/practitioner-1"
      },
      "priority": {
        "coding": [ {
          "system": "http://terminology.hl7.org/CodeSystem/processpriority",
          "code": "normal"
        } ]
      },
      "diagnosis": [ {
        "sequence": 1,
        "diagnosisCodeableConcept": {
          "coding": [ {
            "system": "http://hl7.org/fhir/sid/icd-10-cm",
            "code": "M80.00XA",
            "display": "Age-related osteoporosis with current pathological fracture, unspecified site, initial encounter for fracture"
          } ]
        }
      } ],
      "insurance": [ {
        "sequence": 1,
        "focal": true,
        "coverage": {
          "reference": "Coverage/coverage-1"
        }
      } ],
      "item": [ {
        "sequence": 1,
        "diagnosisSequence": [ 1, 2 ],
        "productOrService": {
          "coding": [ {
            "system": "http://terminology.hl7.org/CodeSystem/ex-USCLS",
            "code": "1101"
          } ]
        },
        "encounter": [ {
          "reference": "Encounter/18f50cd4-4be7-434e-b775-73c95ebe9c0d"
        } ]
      } ]
    },
    "request": {
      "method": "PUT",
      "url": "Claim/0004013b-40a8-4787-a11f-7501198ca8a8"
    }
  }, {
    "fullUrl": "https://madie.cms.gov/MedicationRequest/df6184b3-3343-4b10-9d01-f0de5c81a302",
    "resource": {
      "resourceType": "MedicationRequest",
      "id": "df6184b3-3343-4b10-9d01-f0de5c81a302",
      "meta": {
        "profile": [ "http://hl7.org/fhir/us/qicore/StructureDefinition/qicore-medicationrequest" ]
      },
      "status": "active",
      "intent": "order",
      "category": [ {
        "coding": [ {
          "system": "http://terminology.hl7.org/CodeSystem/medicationrequest-category",
          "code": "community",
          "display": "Community"
        } ]
      } ],
      "medicationCodeableConcept": {
        "coding": [ {
          "system": "http://www.nlm.nih.gov/research/umls/rxnorm",
          "code": "1000048"
        } ]
      },
      "subject": {
        "reference": "Patient/a2b51ea0-5a72-4bda-abe5-dd393bfa0545"
      },
      "authoredOn": "2026-10-15",
      "dispenseRequest": {
        "quantity": {
          "value": 14,
          "unit": "tablet",
          "system": "http://unitsofmeasure.org",
          "code": "{tablet}"
        },
        "expectedSupplyDuration": {
          "value": 14,
          "unit": "days",
          "system": "http://unitsofmeasure.org",
          "code": "d"
        }
      }
    },
    "request": {
      "method": "PUT",
      "url": "MedicationRequest/df6184b3-3343-4b10-9d01-f0de5c81a302"
    }
  }, {
    "fullUrl": "https://madie.cms.gov/Practitioner/aa840aff-dd15-450f-a9b2-eb99d66674e4",
    "resource": {
      "resourceType": "Practitioner",
      "id": "aa840aff-dd15-450f-a9b2-eb99d66674e4",
      "identifier": [ {
        "system": "http://www.cms.gov/identifiers/pracitioners",
        "value": "P12345"
      } ],
      "name": [ {
        "use": "official",
        "family": "Smith",
        "given": [ "John" ]
      } ],
      "qualification": [ {
        "identifier": [ {
          "system": "http://hl7.org/fhir/sid/us-npi",
          "value": "1234567890"
        } ],
        "code": {
          "coding": [ {
            "system": "http://terminology.hl7.org/CodeSystem/v2-0203",
            "code": "MD",
            "display": "Medical License number"
          } ]
        }
      } ]
    },
    "request": {
      "method": "PUT",
      "url": "Practitioner/aa840aff-dd15-450f-a9b2-eb99d66674e4"
    }
  }, {
    "fullUrl": "https://madie.cms.gov/Coverage/e36c8d11-b5a7-4203-9a29-0e9324e49479",
    "resource": {
      "resourceType": "Coverage",
      "id": "e36c8d11-b5a7-4203-9a29-0e9324e49479",
      "status": "active",
      "beneficiary": {
        "reference": "Patient/a2b51ea0-5a72-4bda-abe5-dd393bfa0545"
      },
      "payor": [ {
        "reference": "Organization/a8fc45c0-cfd1-4f5f-bf70-d5198d0474fd"
      } ]
    },
    "request": {
      "method": "PUT",
      "url": "Coverage/e36c8d11-b5a7-4203-9a29-0e9324e49479"
    }
  }, {
    "fullUrl": "https://madie.cms.gov/Organization/a8fc45c0-cfd1-4f5f-bf70-d5198d0474fd",
    "resource": {
      "resourceType": "Organization",
      "id": "a8fc45c0-cfd1-4f5f-bf70-d5198d0474fd",
      "identifier": [ {
        "system": "http://cms.gov/insurance-ids",
        "value": "AET12345"
      } ],
      "type": [ {
        "coding": [ {
          "system": "http://terminology.hl7.org/CodeSystem/organization-type",
          "code": "prov",
          "display": "Healthcare Provider"
        } ]
      } ],
      "name": "Aetna Insurance",
      "telecom": [ {
        "system": "phone",
        "value": "+1-800-123-4567"
      } ],
      "address": [ {
        "line": [ "123 Main Street" ],
        "city": "Cityville",
        "state": "CA",
        "postalCode": "12345",
        "country": "USA"
      } ]
    },
    "request": {
      "method": "PUT",
      "url": "Organization/a8fc45c0-cfd1-4f5f-bf70-d5198d0474fd"
    }
  }, {
    "fullUrl": "https://madie.cms.gov/MeasureReport/95ac321c-2b89-4714-996a-50f4e392bce9",
    "resource": {
      "resourceType": "MeasureReport",
      "id": "95ac321c-2b89-4714-996a-50f4e392bce9",
      "meta": {
        "profile": [ "http://hl7.org/fhir/us/cqfmeasures/StructureDefinition/test-case-cqfm" ]
      },
      "contained": [ {
        "resourceType": "Parameters",
        "id": "302491e1-4c65-45d9-afaa-06724ff38e41-parameters",
        "parameter": [ {
          "name": "subject",
          "valueString": "a2b51ea0-5a72-4bda-abe5-dd393bfa0545"
        } ]
      } ],
      "extension": [ {
        "url": "http://hl7.org/fhir/StructureDefinition/cqf-inputParameters",
        "valueReference": {
          "reference": "#302491e1-4c65-45d9-afaa-06724ff38e41-parameters"
        }
      }, {
        "url": "http://hl7.org/fhir/us/cqfmeasures/StructureDefinition/cqfm-testCaseDescription",
        "valueMarkdown": "RVariable Encounter With CNSdepressant/Antidepressant Order At Admission"
      } ],
      "modifierExtension": [ {
        "url": "http://hl7.org/fhir/us/cqfmeasures/StructureDefinition/cqfm-isTestCase",
        "valueBoolean": true
      } ],
      "status": "complete",
      "type": "individual",
      "measure": "https://madie.cms.gov/Measure/CMS1017FHIRHHFI",
      "period": {
        "start": "2026-01-01",
        "end": "2026-12-31"
      },
      "group": [ {
        "id": "Group_1",
        "population": [ {
          "id": "InitialPopulation_1",
          "code": {
            "coding": [ {
              "system": "http://terminology.hl7.org/CodeSystem/measure-population",
              "code": "initial-population",
              "display": "Initial Population"
            } ]
          },
          "count": 1
        }, {
          "id": "Denominator_1",
          "code": {
            "coding": [ {
              "system": "http://terminology.hl7.org/CodeSystem/measure-population",
              "code": "denominator",
              "display": "Denominator"
            } ]
          },
          "count": 1
        }, {
          "id": "DenominatorExclusion_1",
          "code": {
            "coding": [ {
              "system": "http://terminology.hl7.org/CodeSystem/measure-population",
              "code": "denominator-exclusion",
              "display": "Denominator Exclusion"
            } ]
          },
          "count": 0
        }, {
          "id": "Numerator_1",
          "code": {
            "coding": [ {
              "system": "http://terminology.hl7.org/CodeSystem/measure-population",
              "code": "numerator",
              "display": "Numerator"
            } ]
          },
          "count": 1
        }, {
          "id": "NumeratorExclusion_1",
          "code": {
            "coding": [ {
              "system": "http://terminology.hl7.org/CodeSystem/measure-population",
              "code": "numerator-exclusion",
              "display": "Numerator Exclusion"
            } ]
          },
          "count": 0
        }, {
          "id": "MeasureObservation_1_1_1",
          "code": {
            "coding": [ {
              "system": "http://terminology.hl7.org/CodeSystem/measure-population",
              "code": "measure-observation",
              "display": "Measure Observation"
            } ]
          },
          "count": 12
        }, {
          "id": "MeasureObservation_1_2_1",
          "code": {
            "coding": [ {
              "system": "http://terminology.hl7.org/CodeSystem/measure-population",
              "code": "measure-observation",
              "display": "Measure Observation"
            } ]
          },
          "count": 1
        } ],
        "measureScore": {
          "value": 0.0
        }
      } ],
      "evaluatedResource": [ {
        "reference": "Encounter/18f50cd4-4be7-434e-b775-73c95ebe9c0d"
      }, {
        "reference": "Encounter/c606d44e-d5ff-4346-82f9-e38048bd0fa8"
      }, {
        "reference": "Patient/a2b51ea0-5a72-4bda-abe5-dd393bfa0545"
      }, {
        "reference": "Claim/e9f2e195-a95f-4441-8b5b-b03abf715844"
      }, {
        "reference": "Claim/0004013b-40a8-4787-a11f-7501198ca8a8"
      }, {
        "reference": "MedicationRequest/df6184b3-3343-4b10-9d01-f0de5c81a302"
      }, {
        "reference": "Practitioner/aa840aff-dd15-450f-a9b2-eb99d66674e4"
      }, {
        "reference": "Coverage/e36c8d11-b5a7-4203-9a29-0e9324e49479"
      }, {
        "reference": "Organization/a8fc45c0-cfd1-4f5f-bf70-d5198d0474fd"
      } ]
    },
    "request": {
      "method": "PUT",
      "url": "MeasureReport/95ac321c-2b89-4714-996a-50f4e392bce9"
    }
  } ]
}