{
  "resourceType": "Bundle",
  "id": "63487c300968f801225401be",
  "type": "transaction",
  "entry": [ {
    "fullUrl": "https://madie.cms.gov/Patient/2b5476ea-52e5-467f-966c-81aea3d82ff0",
    "resource": {
      "resourceType": "Patient",
      "id": "2b5476ea-52e5-467f-966c-81aea3d82ff0",
      "meta": {
        "profile": [ "http://hl7.org/fhir/us/qicore/StructureDefinition/qicore-patient" ]
      },
      "text": {
        "status": "generated",
        "div": "<div xmlns=\"http://www.w3.org/1999/xhtml\"><div class=\"hapiHeaderText\">AssessTermLastMissingResult<b>DENOMFail</b></div><table class=\"hapiPropertyTable\"><tbody><tr><td>Identifier</td><td>e6e21c3fa4edfea41e3da1195d4a7d3d8dc72d010572e04bff4dafb21a72c78e</td></tr><tr><td>Date of birth</td><td><span>14 February 1985</span></td></tr></tbody></table></div>"
      },
      "extension": [ {
        "url": "http://hl7.org/fhir/us/core/StructureDefinition/us-core-race",
        "extension": [ {
          "url": "ombCategory",
          "valueCoding": {
            "system": "urn:oid:2.16.840.1.113883.6.238",
            "code": "1002-5",
            "display": "American Indian or Alaska Native",
            "userSelected": true
          }
        }, {
          "url": "text",
          "valueString": "American Indian or Alaska Native"
        } ]
      }, {
        "url": "http://hl7.org/fhir/us/core/StructureDefinition/us-core-ethnicity",
        "extension": [ {
          "url": "ombCategory",
          "valueCoding": {
            "system": "urn:oid:2.16.840.1.113883.6.238",
            "code": "2135-2",
            "display": "Hispanic or Latino",
            "userSelected": true
          }
        }, {
          "url": "text",
          "valueString": "Hispanic or Latino"
        } ]
      } ],
      "identifier": [ {
        "type": {
          "coding": [ {
            "system": "http://terminology.hl7.org/CodeSystem/v2-0203",
            "code": "MR"
          } ]
        },
        "system": "https://bonnie-fhir.healthit.gov/",
        "value": "63487c300968f801225401be"
      } ],
      "active": true,
      "name": [ {
        "use": "usual",
        "family": "DENOMFail",
        "given": [ "AssessTermLastMissingResult" ]
      } ],
      "gender": "female",
      "birthDate": "1998-02-14"
    },
    "request": {
      "method": "PUT",
      "url": "Patient/2b5476ea-52e5-467f-966c-81aea3d82ff0"
    }
  }, {
    "fullUrl": "https://madie.cms.gov/Observation/f0a026f5-05a2-45a9-a3e7-8b13dfec983e",
    "resource": {
      "resourceType": "Observation",
      "id": "f0a026f5-05a2-45a9-a3e7-8b13dfec983e",
      "meta": {
        "profile": [ "http://hl7.org/fhir/us/qicore/StructureDefinition/qicore-simple-observation" ]
      },
      "status": "final",
      "category": [ {
        "coding": [ {
          "system": "http://terminology.hl7.org/CodeSystem/observation-category",
          "code": "exam",
          "display": "exam",
          "userSelected": true
        } ]
      } ],
      "code": {
        "coding": [ {
          "system": "http://loinc.org",
          "code": "11637-6"
        } ]
      },
      "subject": {
        "reference": "Patient/2b5476ea-52e5-467f-966c-81aea3d82ff0"
      },
      "effectiveDateTime": "2025-09-19T09:00:00.000+00:00",
      "valueInteger": 0
    },
    "request": {
      "method": "PUT",
      "url": "Observation/f0a026f5-05a2-45a9-a3e7-8b13dfec983e"
    }
  }, {
    "fullUrl": "https://madie.cms.gov/Observation/27d515b8-edf2-4852-b7e3-2217c48036e4",
    "resource": {
      "resourceType": "Observation",
      "id": "27d515b8-edf2-4852-b7e3-2217c48036e4",
      "meta": {
        "profile": [ "http://hl7.org/fhir/us/qicore/StructureDefinition/qicore-simple-observation" ]
      },
      "status": "final",
      "category": [ {
        "coding": [ {
          "system": "http://terminology.hl7.org/CodeSystem/observation-category",
          "code": "exam",
          "display": "exam",
          "userSelected": true
        } ]
      } ],
      "code": {
        "coding": [ {
          "system": "http://loinc.org",
          "code": "11639-2"
        } ]
      },
      "subject": {
        "reference": "Patient/2b5476ea-52e5-467f-966c-81aea3d82ff0"
      },
      "effectiveDateTime": "2025-09-19T09:00:00.000+00:00"
    },
    "request": {
      "method": "PUT",
      "url": "Observation/27d515b8-edf2-4852-b7e3-2217c48036e4"
    }
  }, {
    "fullUrl": "https://madie.cms.gov/Observation/16375fb3-4cdf-478e-abf5-bf4e6e2b36c3",
    "resource": {
      "resourceType": "Observation",
      "id": "16375fb3-4cdf-478e-abf5-bf4e6e2b36c3",
      "meta": {
        "profile": [ "http://hl7.org/fhir/us/qicore/StructureDefinition/qicore-simple-observation" ]
      },
      "status": "final",
      "category": [ {
        "coding": [ {
          "system": "http://terminology.hl7.org/CodeSystem/observation-category",
          "code": "exam",
          "display": "exam",
          "userSelected": true
        } ]
      } ],
      "code": {
        "coding": [ {
          "system": "http://loinc.org",
          "code": "11884-4"
        } ]
      },
      "subject": {
        "reference": "Patient/2b5476ea-52e5-467f-966c-81aea3d82ff0"
      },
      "effectiveDateTime": "2026-06-08T20:00:00.000+00:00",
      "valueQuantity": {
        "value": 37,
        "system": "http://unitsofmeasure.org",
        "code": "wk"
      }
    },
    "request": {
      "method": "PUT",
      "url": "Observation/16375fb3-4cdf-478e-abf5-bf4e6e2b36c3"
    }
  }, {
    "fullUrl": "https://madie.cms.gov/Observation/ced64ebe-94d1-4b00-8f2f-4f8519b03d3f",
    "resource": {
      "resourceType": "Observation",
      "id": "ced64ebe-94d1-4b00-8f2f-4f8519b03d3f",
      "meta": {
        "profile": [ "http://hl7.org/fhir/us/qicore/StructureDefinition/qicore-simple-observation" ]
      },
      "status": "final",
      "category": [ {
        "coding": [ {
          "system": "http://terminology.hl7.org/CodeSystem/observation-category",
          "code": "exam",
          "display": "exam",
          "userSelected": true
        } ]
      } ],
      "code": {
        "coding": [ {
          "system": "http://loinc.org",
          "code": "93857-1"
        } ]
      },
      "subject": {
        "reference": "Patient/2b5476ea-52e5-467f-966c-81aea3d82ff0"
      },
      "effectiveDateTime": "2026-06-08T20:00:00.000+00:00",
      "valueDateTime": "2026-06-08T20:00:00.000+00:00"
    },
    "request": {
      "method": "PUT",
      "url": "Observation/ced64ebe-94d1-4b00-8f2f-4f8519b03d3f"
    }
  }, {
    "fullUrl": "https://madie.cms.gov/Encounter/7bf9f561-6eb6-4b84-94ff-15e2a0602a7c",
    "resource": {
      "resourceType": "Encounter",
      "id": "7bf9f561-6eb6-4b84-94ff-15e2a0602a7c",
      "meta": {
        "profile": [ "http://hl7.org/fhir/us/qicore/StructureDefinition/qicore-encounter" ]
      },
      "status": "finished",
      "class": {
        "system": "http://terminology.hl7.org/CodeSystem/v3-ActCode",
        "code": "IMP",
        "display": "inpatient encounter"
      },
      "type": [ {
        "coding": [ {
          "system": "http://snomed.info/sct",
          "code": "8715000"
        } ]
      } ],
      "subject": {
        "reference": "Patient/2b5476ea-52e5-467f-966c-81aea3d82ff0"
      },
      "period": {
        "start": "2026-06-08T08:00:00.000+00:00",
        "end": "2026-06-10T08:15:00.000+00:00"
      },
      "length": {
        "value": 2,
        "unit": "days"
      },
      "reasonReference": [ {
        "reference": "Condition/d84d1cb8-d299-4f17-8fba-29349345b762"
      } ]
    },
    "request": {
      "method": "PUT",
      "url": "Encounter/7bf9f561-6eb6-4b84-94ff-15e2a0602a7c"
    }
  }, {
    "fullUrl": "https://madie.cms.gov/Procedure/b8c94632-6512-4c52-94f3-cb72c7f90919",
    "resource": {
      "resourceType": "Procedure",
      "id": "b8c94632-6512-4c52-94f3-cb72c7f90919",
      "meta": {
        "profile": [ "http://hl7.org/fhir/us/qicore/StructureDefinition/qicore-procedure" ]
      },
      "extension": [ {
        "url": "http://hl7.org/fhir/us/qicore/StructureDefinition/qicore-recorded",
        "valueDateTime": "2014-04-05T13:35:00.000+00:00"
      } ],
      "status": "completed",
      "code": {
        "coding": [ {
          "system": "http://www.cms.gov/Medicare/Coding/ICD10",
          "code": "10D00Z0"
        }, {
          "system": "http://snomed.info/sct",
          "code": "4504004"
        } ]
      },
      "subject": {
        "reference": "Patient/2b5476ea-52e5-467f-966c-81aea3d82ff0"
      },
      "performedPeriod": {
        "start": "2026-06-08T20:00:00.000+00:00",
        "end": "2026-06-08T20:15:00.000+00:00"
      }
    },
    "request": {
      "method": "PUT",
      "url": "Procedure/b8c94632-6512-4c52-94f3-cb72c7f90919"
    }
  }, {
    "fullUrl": "https://madie.cms.gov/Condition/d84d1cb8-d299-4f17-8fba-29349345b762",
    "resource": {
      "resourceType": "Condition",
      "id": "d84d1cb8-d299-4f17-8fba-29349345b762",
      "meta": {
        "profile": [ "http://hl7.org/fhir/us/qicore/StructureDefinition/qicore-condition-encounter-diagnosis" ]
      },
      "category": [ {
        "coding": [ {
          "system": "http://terminology.hl7.org/CodeSystem/condition-category",
          "code": "encounter-diagnosis",
          "display": "Encounter Diagnosis"
        } ]
      } ],
      "code": {
        "coding": [ {
          "system": "http://snomed.info/sct",
          "version": "2022-09",
          "code": "169826009",
          "display": "Single live birth from singleton pregnancy (finding)",
          "userSelected": true
        } ]
      },
      "subject": {
        "reference": "Patient/2b5476ea-52e5-467f-966c-81aea3d82ff0"
      },
      "encounter": {
        "reference": "Encounter/7bf9f561-6eb6-4b84-94ff-15e2a0602a7c"
      },
      "recordedDate": "2026-10-21T08:00:00.000+00:00"
    },
    "request": {
      "method": "PUT",
      "url": "Condition/d84d1cb8-d299-4f17-8fba-29349345b762"
    }
  }, {
    "fullUrl": "https://madie.cms.gov/Coverage/a6739948-734a-439e-921c-2034c8ba5c66",
    "resource": {
      "resourceType": "Coverage",
      "id": "a6739948-734a-439e-921c-2034c8ba5c66",
      "meta": {
        "profile": [ "http://hl7.org/fhir/us/qicore/StructureDefinition/qicore-coverage" ]
      },
      "status": "active",
      "subscriberId": "523435",
      "beneficiary": {
        "reference": "Patient/2b5476ea-52e5-467f-966c-81aea3d82ff0"
      },
      "relationship": {
        "coding": [ {
          "system": "http://terminology.hl7.org/CodeSystem/subscriber-relationship",
          "code": "self"
        } ]
      },
      "payor": [ {
        "reference": "Organization/c0262b8f-74f2-4a7a-945b-6280be35ecff"
      } ]
    },
    "request": {
      "method": "PUT",
      "url": "Coverage/a6739948-734a-439e-921c-2034c8ba5c66"
    }
  }, {
    "fullUrl": "https://madie.cms.gov/Organization/c0262b8f-74f2-4a7a-945b-6280be35ecff",
    "resource": {
      "resourceType": "Organization",
      "id": "c0262b8f-74f2-4a7a-945b-6280be35ecff",
      "meta": {
        "profile": [ "http://hl7.org/fhir/us/qicore/StructureDefinition/qicore-organization" ]
      },
      "identifier": [ {
        "use": "temp",
        "system": "urn:oid:2.16.840.1.113883.4.4",
        "value": "21-3259825"
      } ],
      "active": true,
      "type": [ {
        "coding": [ {
          "system": "http://terminology.hl7.org/CodeSystem/organization-type",
          "code": "pay",
          "display": "Payer"
        } ]
      } ],
      "name": "Blue Cross Blue Shield of Texas",
      "telecom": [ {
        "system": "phone",
        "value": "(+1) 972-766-6900"
      } ],
      "address": [ {
        "use": "billing",
        "type": "postal",
        "line": [ "P.O. Box 660044" ],
        "city": "Dallas",
        "state": "TX",
        "postalCode": "75266-0044",
        "country": "USA"
      } ]
    },
    "request": {
      "method": "PUT",
      "url": "Organization/c0262b8f-74f2-4a7a-945b-6280be35ecff"
    }
  }, {
    "fullUrl": "https://madie.cms.gov/Practitioner/d8b86f56-cfb7-49d6-bdd6-b9a3cc688b9d",
    "resource": {
      "resourceType": "Practitioner",
      "id": "d8b86f56-cfb7-49d6-bdd6-b9a3cc688b9d",
      "meta": {
        "profile": [ "http://hl7.org/fhir/us/qicore/StructureDefinition/qicore-practitioner" ]
      },
      "identifier": [ {
        "system": "http://hl7.org/fhir/sid/us-npi",
        "value": "1234567890"
      } ],
      "name": [ {
        "family": "Evil",
        "prefix": [ "Dr" ]
      } ]
    },
    "request": {
      "method": "PUT",
      "url": "Practitioner/d8b86f56-cfb7-49d6-bdd6-b9a3cc688b9d"
    }
  }, {
    "fullUrl": "https://madie.cms.gov/MeasureReport/b024e708-1897-4311-8290-b3bed0630997",
    "resource": {
      "resourceType": "MeasureReport",
      "id": "b024e708-1897-4311-8290-b3bed0630997",
      "meta": {
        "profile": [ "http://hl7.org/fhir/us/cqfmeasures/StructureDefinition/test-case-cqfm" ]
      },
      "contained": [ {
        "resourceType": "Parameters",
        "id": "8b1566d4-552f-44df-8422-89d67bed132a-parameters",
        "parameter": [ {
          "name": "subject",
          "valueString": "2b5476ea-52e5-467f-966c-81aea3d82ff0"
        } ]
      } ],
      "extension": [ {
        "url": "http://hl7.org/fhir/StructureDefinition/cqf-inputParameters",
        "valueReference": {
          "reference": "#8b1566d4-552f-44df-8422-89d67bed132a-parameters"
        }
      }, {
        "url": "http://hl7.org/fhir/us/cqfmeasures/StructureDefinition/cqfm-testCaseDescription",
        "valueMarkdown": "\"Preterm Births=0, Rel Date/time < 42weeks prior to delivery\nTerm Newborn missing result, Rel Date/time < 42weeks prior to delivery\"\n"
      } ],
      "modifierExtension": [ {
        "url": "http://hl7.org/fhir/us/cqfmeasures/StructureDefinition/cqfm-isTestCase",
        "valueBoolean": true
      } ],
      "status": "complete",
      "type": "individual",
      "measure": "https://madie.cms.gov/Measure/CMS0334FHIRPCCesareanBirth",
      "period": {
        "start": "2026-01-01",
        "end": "2026-12-31"
      },
      "group": [ {
        "id": "Group_1",
        "population": [ {
          "id": "InitialPopulation_1",
          "code": {
            "coding": [ {
              "system": "http://terminology.hl7.org/CodeSystem/measure-population",
              "code": "initial-population",
              "display": "Initial Population"
            } ]
          },
          "count": 1
        }, {
          "id": "Denominator_1",
          "code": {
            "coding": [ {
              "system": "http://terminology.hl7.org/CodeSystem/measure-population",
              "code": "denominator",
              "display": "Denominator"
            } ]
          },
          "count": 0
        }, {
          "id": "DenominatorExclusion_1",
          "code": {
            "coding": [ {
              "system": "http://terminology.hl7.org/CodeSystem/measure-population",
              "code": "denominator-exclusion",
              "display": "Denominator Exclusion"
            } ]
          },
          "count": 0
        }, {
          "id": "Numerator_1",
          "code": {
            "coding": [ {
              "system": "http://terminology.hl7.org/CodeSystem/measure-population",
              "code": "numerator",
              "display": "Numerator"
            } ]
          },
          "count": 0
        } ],
        "measureScore": {
          "value": 0.0
        }
      } ],
      "evaluatedResource": [ {
        "reference": "Patient/2b5476ea-52e5-467f-966c-81aea3d82ff0"
      }, {
        "reference": "Observation/f0a026f5-05a2-45a9-a3e7-8b13dfec983e"
      }, {
        "reference": "Observation/27d515b8-edf2-4852-b7e3-2217c48036e4"
      }, {
        "reference": "Observation/16375fb3-4cdf-478e-abf5-bf4e6e2b36c3"
      }, {
        "reference": "Observation/ced64ebe-94d1-4b00-8f2f-4f8519b03d3f"
      }, {
        "reference": "Encounter/7bf9f561-6eb6-4b84-94ff-15e2a0602a7c"
      }, {
        "reference": "Procedure/b8c94632-6512-4c52-94f3-cb72c7f90919"
      }, {
        "reference": "Condition/d84d1cb8-d299-4f17-8fba-29349345b762"
      }, {
        "reference": "Coverage/a6739948-734a-439e-921c-2034c8ba5c66"
      }, {
        "reference": "Organization/c0262b8f-74f2-4a7a-945b-6280be35ecff"
      }, {
        "reference": "Practitioner/d8b86f56-cfb7-49d6-bdd6-b9a3cc688b9d"
      } ]
    },
    "request": {
      "method": "PUT",
      "url": "MeasureReport/b024e708-1897-4311-8290-b3bed0630997"
    }
  } ]
}