{
  "resourceType": "Bundle",
  "id": "2Enc2FallsWithInjuryNullPOAFallsNullPOAFalls",
  "type": "transaction",
  "entry": [ {
    "fullUrl": "https://madie.cms.gov/Claim/5770566f-109c-4b1d-8f31-b99d0e3ffb05",
    "resource": {
      "resourceType": "Claim",
      "id": "5770566f-109c-4b1d-8f31-b99d0e3ffb05",
      "meta": {
        "profile": [ "http://hl7.org/fhir/us/qicore/StructureDefinition/qicore-claim" ]
      },
      "status": "active",
      "type": {
        "coding": [ {
          "system": "http://terminology.hl7.org/CodeSystem/claim-type",
          "code": "professional",
          "display": "Professional"
        } ]
      },
      "use": "claim",
      "patient": {
        "reference": "Patient/5926d62e-8eb9-4742-9bdf-efdcbd08ab7b"
      },
      "created": "2026-12-12",
      "provider": {
        "reference": "Practitioner/practitioner-1"
      },
      "priority": {
        "coding": [ {
          "system": "http://terminology.hl7.org/CodeSystem/processpriority",
          "code": "normal"
        } ]
      },
      "diagnosis": [ {
        "sequence": 1,
        "diagnosisCodeableConcept": {
          "coding": [ {
            "system": "http://hl7.org/fhir/sid/icd-10-cm",
            "code": "W01.0XXA"
          } ]
        }
      } ],
      "insurance": [ {
        "sequence": 1,
        "focal": true,
        "coverage": {
          "reference": "Coverage/coverage-1"
        }
      } ],
      "item": [ {
        "sequence": 1,
        "diagnosisSequence": [ 1, 2 ],
        "productOrService": {
          "coding": [ {
            "system": "http://terminology.hl7.org/CodeSystem/ex-USCLS",
            "code": "1101"
          } ]
        },
        "encounter": [ {
          "reference": "Encounter/a671c02f-4fac-4bfc-a49e-fe23023effb9"
        } ]
      } ]
    },
    "request": {
      "method": "PUT",
      "url": "Claim/5770566f-109c-4b1d-8f31-b99d0e3ffb05"
    }
  }, {
    "fullUrl": "https://madie.cms.gov/Claim/ba7c1819-7cfc-47c9-b949-0b3f9aa8c867",
    "resource": {
      "resourceType": "Claim",
      "id": "ba7c1819-7cfc-47c9-b949-0b3f9aa8c867",
      "meta": {
        "profile": [ "http://hl7.org/fhir/us/qicore/StructureDefinition/qicore-claim" ]
      },
      "status": "active",
      "type": {
        "coding": [ {
          "system": "http://terminology.hl7.org/CodeSystem/claim-type",
          "code": "professional",
          "display": "Professional"
        } ]
      },
      "use": "claim",
      "patient": {
        "reference": "Patient/5926d62e-8eb9-4742-9bdf-efdcbd08ab7b"
      },
      "created": "2026-12-12",
      "provider": {
        "reference": "Practitioner/practitioner-1"
      },
      "priority": {
        "coding": [ {
          "system": "http://terminology.hl7.org/CodeSystem/processpriority",
          "code": "normal"
        } ]
      },
      "diagnosis": [ {
        "sequence": 2,
        "diagnosisCodeableConcept": {
          "coding": [ {
            "system": "http://hl7.org/fhir/sid/icd-10-cm",
            "code": "S01.309A"
          } ]
        },
        "onAdmission": {
          "coding": [ {
            "system": "https://www.cms.gov/Medicare/Medicare-Fee-for-Service-Payment/HospitalAcqCond/Coding",
            "code": "N"
          } ]
        }
      } ],
      "insurance": [ {
        "sequence": 1,
        "focal": true,
        "coverage": {
          "reference": "Coverage/coverage-1"
        }
      } ],
      "item": [ {
        "sequence": 1,
        "diagnosisSequence": [ 1, 2 ],
        "productOrService": {
          "coding": [ {
            "system": "http://terminology.hl7.org/CodeSystem/ex-USCLS",
            "code": "1101"
          } ]
        },
        "encounter": [ {
          "reference": "Encounter/a671c02f-4fac-4bfc-a49e-fe23023effb9"
        } ]
      } ]
    },
    "request": {
      "method": "PUT",
      "url": "Claim/ba7c1819-7cfc-47c9-b949-0b3f9aa8c867"
    }
  }, {
    "fullUrl": "https://madie.cms.gov/Claim/7a9ac29b-451a-4bca-8a4d-b5469b271f5f",
    "resource": {
      "resourceType": "Claim",
      "id": "7a9ac29b-451a-4bca-8a4d-b5469b271f5f",
      "meta": {
        "profile": [ "http://hl7.org/fhir/us/qicore/StructureDefinition/qicore-claim" ]
      },
      "status": "active",
      "type": {
        "coding": [ {
          "system": "http://terminology.hl7.org/CodeSystem/claim-type",
          "code": "professional",
          "display": "Professional"
        } ]
      },
      "use": "claim",
      "patient": {
        "reference": "Patient/5926d62e-8eb9-4742-9bdf-efdcbd08ab7b"
      },
      "created": "2026-12-12",
      "provider": {
        "reference": "Practitioner/practitioner-1"
      },
      "priority": {
        "coding": [ {
          "system": "http://terminology.hl7.org/CodeSystem/processpriority",
          "code": "normal"
        } ]
      },
      "diagnosis": [ {
        "sequence": 1,
        "diagnosisCodeableConcept": {
          "coding": [ {
            "system": "http://snomed.info/sct",
            "code": "14047009"
          } ]
        }
      } ],
      "insurance": [ {
        "sequence": 1,
        "focal": true,
        "coverage": {
          "reference": "Coverage/coverage-1"
        }
      } ],
      "item": [ {
        "sequence": 1,
        "diagnosisSequence": [ 1, 2 ],
        "productOrService": {
          "coding": [ {
            "system": "http://terminology.hl7.org/CodeSystem/ex-USCLS",
            "code": "1101"
          } ]
        },
        "encounter": [ {
          "reference": "Encounter/91011ff5-5f8f-4950-95e6-f5b16b901ed2"
        } ]
      } ]
    },
    "request": {
      "method": "PUT",
      "url": "Claim/7a9ac29b-451a-4bca-8a4d-b5469b271f5f"
    }
  }, {
    "fullUrl": "https://madie.cms.gov/Claim/0ea9ea35-f706-4804-9a87-c9c5b87557a0",
    "resource": {
      "resourceType": "Claim",
      "id": "0ea9ea35-f706-4804-9a87-c9c5b87557a0",
      "meta": {
        "profile": [ "http://hl7.org/fhir/us/qicore/StructureDefinition/qicore-claim" ]
      },
      "status": "active",
      "type": {
        "coding": [ {
          "system": "http://terminology.hl7.org/CodeSystem/claim-type",
          "code": "professional",
          "display": "Professional"
        } ]
      },
      "use": "claim",
      "patient": {
        "reference": "Patient/5926d62e-8eb9-4742-9bdf-efdcbd08ab7b"
      },
      "created": "2026-12-12",
      "provider": {
        "reference": "Practitioner/practitioner-1"
      },
      "priority": {
        "coding": [ {
          "system": "http://terminology.hl7.org/CodeSystem/processpriority",
          "code": "normal"
        } ]
      },
      "diagnosis": [ {
        "sequence": 2,
        "diagnosisCodeableConcept": {
          "coding": [ {
            "system": "http://hl7.org/fhir/sid/icd-10-cm",
            "code": "M80.00XA"
          } ]
        },
        "onAdmission": {
          "coding": [ {
            "system": "https://www.cms.gov/Medicare/Medicare-Fee-for-Service-Payment/HospitalAcqCond/Coding",
            "code": "N"
          } ]
        }
      } ],
      "insurance": [ {
        "sequence": 1,
        "focal": true,
        "coverage": {
          "reference": "Coverage/coverage-1"
        }
      } ],
      "item": [ {
        "sequence": 1,
        "diagnosisSequence": [ 1, 2 ],
        "productOrService": {
          "coding": [ {
            "system": "http://terminology.hl7.org/CodeSystem/ex-USCLS",
            "code": "1101"
          } ]
        },
        "encounter": [ {
          "reference": "Encounter/91011ff5-5f8f-4950-95e6-f5b16b901ed2"
        } ]
      } ]
    },
    "request": {
      "method": "PUT",
      "url": "Claim/0ea9ea35-f706-4804-9a87-c9c5b87557a0"
    }
  }, {
    "fullUrl": "https://madie.cms.gov/Encounter/91011ff5-5f8f-4950-95e6-f5b16b901ed2",
    "resource": {
      "resourceType": "Encounter",
      "id": "91011ff5-5f8f-4950-95e6-f5b16b901ed2",
      "meta": {
        "profile": [ "http://hl7.org/fhir/us/qicore/StructureDefinition/qicore-encounter" ]
      },
      "status": "finished",
      "class": {
        "system": "http://terminology.hl7.org/CodeSystem/v3-ActCode",
        "code": "IMP",
        "display": "inpatient encounter"
      },
      "type": [ {
        "coding": [ {
          "system": "http://snomed.info/sct",
          "code": "183452005"
        } ]
      } ],
      "subject": {
        "reference": "Patient/5926d62e-8eb9-4742-9bdf-efdcbd08ab7b"
      },
      "period": {
        "start": "2026-12-08T08:00:00.000+00:00",
        "end": "2026-12-12T08:15:00.000+00:00"
      },
      "reasonCode": [ {
        "coding": [ {
          "system": "http://snomed.info/sct",
          "code": "14047009"
        } ]
      }, {
        "coding": [ {
          "system": "http://hl7.org/fhir/sid/icd-10-cm",
          "code": "M80.00XA"
        } ]
      } ]
    },
    "request": {
      "method": "PUT",
      "url": "Encounter/91011ff5-5f8f-4950-95e6-f5b16b901ed2"
    }
  }, {
    "fullUrl": "https://madie.cms.gov/Encounter/a671c02f-4fac-4bfc-a49e-fe23023effb9",
    "resource": {
      "resourceType": "Encounter",
      "id": "a671c02f-4fac-4bfc-a49e-fe23023effb9",
      "meta": {
        "profile": [ "http://hl7.org/fhir/us/qicore/StructureDefinition/qicore-encounter" ]
      },
      "status": "finished",
      "class": {
        "system": "http://terminology.hl7.org/CodeSystem/v3-ActCode",
        "code": "IMP",
        "display": "inpatient encounter"
      },
      "type": [ {
        "coding": [ {
          "system": "http://snomed.info/sct",
          "code": "183452005"
        } ]
      } ],
      "subject": {
        "reference": "Patient/5926d62e-8eb9-4742-9bdf-efdcbd08ab7b"
      },
      "period": {
        "start": "2026-11-09T11:00:00.000+00:00",
        "end": "2026-11-12T08:15:00.000+00:00"
      }
    },
    "request": {
      "method": "PUT",
      "url": "Encounter/a671c02f-4fac-4bfc-a49e-fe23023effb9"
    }
  }, {
    "fullUrl": "https://madie.cms.gov/Encounter/8cd90c77-a2bc-499e-9090-b2a17b8c0202",
    "resource": {
      "resourceType": "Encounter",
      "id": "8cd90c77-a2bc-499e-9090-b2a17b8c0202",
      "meta": {
        "profile": [ "http://hl7.org/fhir/us/qicore/StructureDefinition/qicore-encounter" ]
      },
      "status": "finished",
      "class": {
        "system": "http://terminology.hl7.org/CodeSystem/v3-ActCode",
        "code": "IMP",
        "display": "inpatient encounter"
      },
      "type": [ {
        "coding": [ {
          "system": "http://snomed.info/sct",
          "code": "4525004"
        } ]
      } ],
      "subject": {
        "reference": "Patient/5926d62e-8eb9-4742-9bdf-efdcbd08ab7b"
      },
      "period": {
        "start": "2026-11-09T08:00:00.000+00:00",
        "end": "2026-11-09T10:15:00.000+00:00"
      },
      "reasonCode": [ {
        "coding": [ {
          "system": "http://hl7.org/fhir/sid/icd-10-cm",
          "code": "W01.0XXA"
        } ]
      }, {
        "coding": [ {
          "system": "http://hl7.org/fhir/sid/icd-10-cm",
          "code": "S01.309A"
        } ]
      } ]
    },
    "request": {
      "method": "PUT",
      "url": "Encounter/8cd90c77-a2bc-499e-9090-b2a17b8c0202"
    }
  }, {
    "fullUrl": "https://madie.cms.gov/Patient/5926d62e-8eb9-4742-9bdf-efdcbd08ab7b",
    "resource": {
      "resourceType": "Patient",
      "id": "5926d62e-8eb9-4742-9bdf-efdcbd08ab7b",
      "meta": {
        "profile": [ "http://hl7.org/fhir/us/qicore/StructureDefinition/qicore-patient" ]
      },
      "extension": [ {
        "url": "http://hl7.org/fhir/us/core/StructureDefinition/us-core-race",
        "extension": [ {
          "url": "ombCategory",
          "valueCoding": {
            "system": "urn:oid:2.16.840.1.113883.6.238",
            "code": "2054-5",
            "display": "Black or African American",
            "userSelected": true
          }
        }, {
          "url": "text",
          "valueString": "Black or African American"
        } ]
      }, {
        "url": "http://hl7.org/fhir/us/core/StructureDefinition/us-core-ethnicity",
        "extension": [ {
          "url": "ombCategory",
          "valueCoding": {
            "system": "urn:oid:2.16.840.1.113883.6.238",
            "code": "2186-5",
            "display": "Not Hispanic or Latino",
            "userSelected": true
          }
        }, {
          "url": "text",
          "valueString": "Not Hispanic or Latino"
        } ]
      } ],
      "identifier": [ {
        "type": {
          "coding": [ {
            "system": "http://terminology.hl7.org/CodeSystem/v2-0203",
            "code": "MR"
          } ]
        },
        "system": "https://bonnie-fhir.healthit.gov/",
        "value": "61152a3b98086b7a79cbd7c1"
      } ],
      "active": true,
      "name": [ {
        "use": "usual",
        "family": "NUMERPass",
        "given": [ "2Enc2FallsWithInjuryNullPOAFalls" ]
      } ],
      "gender": "male",
      "birthDate": "1964-12-11"
    },
    "request": {
      "method": "PUT",
      "url": "Patient/5926d62e-8eb9-4742-9bdf-efdcbd08ab7b"
    }
  }, {
    "fullUrl": "https://madie.cms.gov/AdverseEvent/ce43d418-1373-4438-8c37-7703384f7c9c",
    "resource": {
      "resourceType": "AdverseEvent",
      "id": "ce43d418-1373-4438-8c37-7703384f7c9c",
      "meta": {
        "profile": [ "http://hl7.org/fhir/us/qicore/StructureDefinition/qicore-adverseevent" ]
      },
      "actuality": "actual",
      "event": {
        "coding": [ {
          "system": "http://hl7.org/fhir/sid/icd-10-cm",
          "code": "W01.0XXA"
        } ]
      },
      "subject": {
        "reference": "Patient/5926d62e-8eb9-4742-9bdf-efdcbd08ab7b"
      },
      "date": "2026-12-09T08:00:00.000+00:00"
    },
    "request": {
      "method": "PUT",
      "url": "AdverseEvent/ce43d418-1373-4438-8c37-7703384f7c9c"
    }
  }, {
    "fullUrl": "https://madie.cms.gov/AdverseEvent/529dfd69-5b52-4ef3-829a-08d3d1bc66f7",
    "resource": {
      "resourceType": "AdverseEvent",
      "id": "529dfd69-5b52-4ef3-829a-08d3d1bc66f7",
      "meta": {
        "profile": [ "http://hl7.org/fhir/us/qicore/StructureDefinition/qicore-adverseevent" ]
      },
      "actuality": "actual",
      "event": {
        "coding": [ {
          "system": "http://snomed.info/sct",
          "code": "14047009"
        } ]
      },
      "subject": {
        "reference": "Patient/5926d62e-8eb9-4742-9bdf-efdcbd08ab7b"
      },
      "date": "2026-11-10T08:00:00.000+00:00"
    },
    "request": {
      "method": "PUT",
      "url": "AdverseEvent/529dfd69-5b52-4ef3-829a-08d3d1bc66f7"
    }
  }, {
    "fullUrl": "https://madie.cms.gov/Practitioner/5593a79a-d92d-4eb3-b0dc-6a7a04a19da5",
    "resource": {
      "resourceType": "Practitioner",
      "id": "5593a79a-d92d-4eb3-b0dc-6a7a04a19da5",
      "identifier": [ {
        "system": "http://www.cms.gov/identifiers/pracitioners",
        "value": "P12345"
      } ],
      "name": [ {
        "use": "official",
        "family": "Smith",
        "given": [ "John" ]
      } ],
      "qualification": [ {
        "identifier": [ {
          "system": "http://hl7.org/fhir/sid/us-npi",
          "value": "1234567890"
        } ],
        "code": {
          "coding": [ {
            "system": "http://terminology.hl7.org/CodeSystem/v2-0203",
            "code": "MD",
            "display": "Medical License number"
          } ]
        }
      } ]
    },
    "request": {
      "method": "PUT",
      "url": "Practitioner/5593a79a-d92d-4eb3-b0dc-6a7a04a19da5"
    }
  }, {
    "fullUrl": "https://madie.cms.gov/Coverage/26f505f3-8641-4843-823b-84c49970c435",
    "resource": {
      "resourceType": "Coverage",
      "id": "26f505f3-8641-4843-823b-84c49970c435",
      "status": "active",
      "beneficiary": {
        "reference": "Patient/5926d62e-8eb9-4742-9bdf-efdcbd08ab7b"
      },
      "payor": [ {
        "reference": "Organization/aee0a12d-fd91-421c-8682-2c088f6774e1"
      } ]
    },
    "request": {
      "method": "PUT",
      "url": "Coverage/26f505f3-8641-4843-823b-84c49970c435"
    }
  }, {
    "fullUrl": "https://madie.cms.gov/Organization/aee0a12d-fd91-421c-8682-2c088f6774e1",
    "resource": {
      "resourceType": "Organization",
      "id": "aee0a12d-fd91-421c-8682-2c088f6774e1",
      "identifier": [ {
        "system": "http://cms.gov/insurance-ids",
        "value": "AET12345"
      } ],
      "type": [ {
        "coding": [ {
          "system": "http://terminology.hl7.org/CodeSystem/organization-type",
          "code": "prov",
          "display": "Healthcare Provider"
        } ]
      } ],
      "name": "Aetna Insurance",
      "telecom": [ {
        "system": "phone",
        "value": "+1-800-123-4567"
      } ],
      "address": [ {
        "line": [ "123 Main Street" ],
        "city": "Cityville",
        "state": "CA",
        "postalCode": "12345",
        "country": "USA"
      } ]
    },
    "request": {
      "method": "PUT",
      "url": "Organization/aee0a12d-fd91-421c-8682-2c088f6774e1"
    }
  }, {
    "fullUrl": "https://madie.cms.gov/MeasureReport/b0fb695d-3be9-4ab8-8bbd-b44cd2691bcb",
    "resource": {
      "resourceType": "MeasureReport",
      "id": "b0fb695d-3be9-4ab8-8bbd-b44cd2691bcb",
      "meta": {
        "profile": [ "http://hl7.org/fhir/us/cqfmeasures/StructureDefinition/test-case-cqfm" ]
      },
      "contained": [ {
        "resourceType": "Parameters",
        "id": "aedb7b17-bf15-4755-b7fc-30f35e3d0132-parameters",
        "parameter": [ {
          "name": "subject",
          "valueString": "5926d62e-8eb9-4742-9bdf-efdcbd08ab7b"
        } ]
      } ],
      "extension": [ {
        "url": "http://hl7.org/fhir/StructureDefinition/cqf-inputParameters",
        "valueReference": {
          "reference": "#aedb7b17-bf15-4755-b7fc-30f35e3d0132-parameters"
        }
      }, {
        "url": "http://hl7.org/fhir/us/cqfmeasures/StructureDefinition/cqfm-testCaseDescription",
        "valueMarkdown": "Patient fall + injury during 2 encounters. Both had Adverse Event Fall + Major or Mod Injury NPOA.\nFalls Have Null POA"
      } ],
      "modifierExtension": [ {
        "url": "http://hl7.org/fhir/us/cqfmeasures/StructureDefinition/cqfm-isTestCase",
        "valueBoolean": true
      } ],
      "status": "complete",
      "type": "individual",
      "measure": "https://madie.cms.gov/Measure/CMS1017FHIRHHFI",
      "period": {
        "start": "2026-01-01",
        "end": "2026-12-31"
      },
      "group": [ {
        "id": "Group_1",
        "population": [ {
          "id": "InitialPopulation_1",
          "code": {
            "coding": [ {
              "system": "http://terminology.hl7.org/CodeSystem/measure-population",
              "code": "initial-population",
              "display": "Initial Population"
            } ]
          },
          "count": 2
        }, {
          "id": "Denominator_1",
          "code": {
            "coding": [ {
              "system": "http://terminology.hl7.org/CodeSystem/measure-population",
              "code": "denominator",
              "display": "Denominator"
            } ]
          },
          "count": 2
        }, {
          "id": "DenominatorExclusion_1",
          "code": {
            "coding": [ {
              "system": "http://terminology.hl7.org/CodeSystem/measure-population",
              "code": "denominator-exclusion",
              "display": "Denominator Exclusion"
            } ]
          },
          "count": 0
        }, {
          "id": "Numerator_1",
          "code": {
            "coding": [ {
              "system": "http://terminology.hl7.org/CodeSystem/measure-population",
              "code": "numerator",
              "display": "Numerator"
            } ]
          },
          "count": 2
        }, {
          "id": "NumeratorExclusion_1",
          "code": {
            "coding": [ {
              "system": "http://terminology.hl7.org/CodeSystem/measure-population",
              "code": "numerator-exclusion",
              "display": "Numerator Exclusion"
            } ]
          },
          "count": 0
        }, {
          "id": "MeasureObservation_1_1_1",
          "code": {
            "coding": [ {
              "system": "http://terminology.hl7.org/CodeSystem/measure-population",
              "code": "measure-observation",
              "display": "Measure Observation"
            } ]
          },
          "count": 4
        }, {
          "id": "MeasureObservation_1_1_2",
          "code": {
            "coding": [ {
              "system": "http://terminology.hl7.org/CodeSystem/measure-population",
              "code": "measure-observation",
              "display": "Measure Observation"
            } ]
          },
          "count": 3
        }, {
          "id": "MeasureObservation_1_2_1",
          "code": {
            "coding": [ {
              "system": "http://terminology.hl7.org/CodeSystem/measure-population",
              "code": "measure-observation",
              "display": "Measure Observation"
            } ]
          },
          "count": 1
        }, {
          "id": "MeasureObservation_1_2_2",
          "code": {
            "coding": [ {
              "system": "http://terminology.hl7.org/CodeSystem/measure-population",
              "code": "measure-observation",
              "display": "Measure Observation"
            } ]
          },
          "count": 1
        } ],
        "measureScore": {
          "value": 0.0
        }
      } ],
      "evaluatedResource": [ {
        "reference": "Claim/5770566f-109c-4b1d-8f31-b99d0e3ffb05"
      }, {
        "reference": "Claim/ba7c1819-7cfc-47c9-b949-0b3f9aa8c867"
      }, {
        "reference": "Claim/7a9ac29b-451a-4bca-8a4d-b5469b271f5f"
      }, {
        "reference": "Claim/0ea9ea35-f706-4804-9a87-c9c5b87557a0"
      }, {
        "reference": "Encounter/91011ff5-5f8f-4950-95e6-f5b16b901ed2"
      }, {
        "reference": "Encounter/a671c02f-4fac-4bfc-a49e-fe23023effb9"
      }, {
        "reference": "Encounter/8cd90c77-a2bc-499e-9090-b2a17b8c0202"
      }, {
        "reference": "Patient/5926d62e-8eb9-4742-9bdf-efdcbd08ab7b"
      }, {
        "reference": "AdverseEvent/ce43d418-1373-4438-8c37-7703384f7c9c"
      }, {
        "reference": "AdverseEvent/529dfd69-5b52-4ef3-829a-08d3d1bc66f7"
      }, {
        "reference": "Practitioner/5593a79a-d92d-4eb3-b0dc-6a7a04a19da5"
      }, {
        "reference": "Coverage/26f505f3-8641-4843-823b-84c49970c435"
      }, {
        "reference": "Organization/aee0a12d-fd91-421c-8682-2c088f6774e1"
      } ]
    },
    "request": {
      "method": "PUT",
      "url": "MeasureReport/b0fb695d-3be9-4ab8-8bbd-b44cd2691bcb"
    }
  } ]
}