{
  "resourceType": "Bundle",
  "id": "657cbdc9b4f1f0343662347a",
  "type": "transaction",
  "entry": [ {
    "fullUrl": "https://madie.cms.gov/Patient/7fef44cf-ef02-4bca-8e88-ebf5b72a212f",
    "resource": {
      "resourceType": "Patient",
      "id": "7fef44cf-ef02-4bca-8e88-ebf5b72a212f",
      "meta": {
        "profile": [ "http://hl7.org/fhir/us/qicore/StructureDefinition/qicore-patient" ]
      },
      "extension": [ {
        "url": "http://hl7.org/fhir/us/core/StructureDefinition/us-core-race",
        "extension": [ {
          "url": "ombCategory",
          "valueCoding": {
            "system": "urn:oid:2.16.840.1.113883.6.238",
            "code": "2106-3",
            "display": "White",
            "userSelected": true
          }
        }, {
          "url": "text",
          "valueString": "White"
        } ]
      }, {
        "url": "http://hl7.org/fhir/us/core/StructureDefinition/us-core-ethnicity",
        "extension": [ {
          "url": "ombCategory",
          "valueCoding": {
            "system": "urn:oid:2.16.840.1.113883.6.238",
            "code": "2186-5",
            "display": "Not Hispanic or Latino",
            "userSelected": true
          }
        }, {
          "url": "text",
          "valueString": "Not Hispanic or Latino"
        } ]
      } ],
      "identifier": [ {
        "type": {
          "coding": [ {
            "system": "http://terminology.hl7.org/CodeSystem/v2-0203",
            "code": "MR"
          } ]
        },
        "system": "https://bonnie-fhir.healthit.gov/",
        "value": "657cbdc9b4f1f0343662347a"
      } ],
      "name": [ {
        "family": "ServiceRequestFail",
        "given": [ "ServiceRequest1MinAfterEncEnd" ]
      } ],
      "gender": "female",
      "birthDate": "2008-01-01"
    },
    "request": {
      "method": "PUT",
      "url": "Patient/7fef44cf-ef02-4bca-8e88-ebf5b72a212f"
    }
  }, {
    "fullUrl": "https://madie.cms.gov/Encounter/33afe9f5-728e-43ed-abf0-a49fb7d46f5c",
    "resource": {
      "resourceType": "Encounter",
      "id": "33afe9f5-728e-43ed-abf0-a49fb7d46f5c",
      "meta": {
        "profile": [ "http://hl7.org/fhir/us/qicore/StructureDefinition/qicore-encounter" ]
      },
      "status": "finished",
      "class": {
        "system": "http://terminology.hl7.org/CodeSystem/v3-ActCode",
        "code": "ACUTE",
        "display": "inpatient acute"
      },
      "type": [ {
        "coding": [ {
          "system": "http://snomed.info/sct",
          "version": "2024",
          "code": "32485007",
          "display": "Hospital admission (procedure)",
          "userSelected": true
        } ]
      } ],
      "subject": {
        "reference": "Patient/7fef44cf-ef02-4bca-8e88-ebf5b72a212f"
      },
      "period": {
        "start": "2026-01-01T08:00:00.000Z",
        "end": "2026-01-02T09:15:00.000Z"
      }
    },
    "request": {
      "method": "PUT",
      "url": "Encounter/33afe9f5-728e-43ed-abf0-a49fb7d46f5c"
    }
  }, {
    "fullUrl": "https://madie.cms.gov/Location/e2a5d57e-8466-41a8-b2fd-432c8284ce1b",
    "resource": {
      "resourceType": "Location",
      "id": "e2a5d57e-8466-41a8-b2fd-432c8284ce1b",
      "meta": {
        "profile": [ "http://hl7.org/fhir/us/qicore/StructureDefinition/qicore-location" ]
      },
      "identifier": [ {
        "use": "usual",
        "system": "http://exampleoflocation.com",
        "value": "B1-S.F2"
      } ],
      "name": "Medical Surgical East, first floor",
      "type": [ {
        "coding": [ {
          "system": "https://www.cdc.gov/nhsn/cdaportal/terminology/codesystem/hsloc.html",
          "code": "1028-0",
          "display": "Medical Cardiac Critical Care",
          "userSelected": true
        } ]
      } ]
    },
    "request": {
      "method": "PUT",
      "url": "Location/e2a5d57e-8466-41a8-b2fd-432c8284ce1b"
    }
  }, {
    "fullUrl": "https://madie.cms.gov/MedicationRequest/94a959fe-9ae6-4c2a-b279-ee5709ac34ef",
    "resource": {
      "resourceType": "MedicationRequest",
      "id": "94a959fe-9ae6-4c2a-b279-ee5709ac34ef",
      "meta": {
        "profile": [ "http://hl7.org/fhir/us/qicore/StructureDefinition/qicore-medicationrequest" ]
      },
      "status": "completed",
      "intent": "order",
      "medicationCodeableConcept": {
        "coding": [ {
          "system": "http://www.nlm.nih.gov/research/umls/rxnorm",
          "version": "06052023",
          "code": "1007184"
        } ]
      },
      "subject": {
        "reference": "Patient/7fef44cf-ef02-4bca-8e88-ebf5b72a212f"
      },
      "authoredOn": "2026-01-01T08:15:00.000Z",
      "requester": {
        "reference": "Practitioner/33d87640-6b2a-40b0-ab11-542478a88d5a"
      },
      "dosageInstruction": [ {
        "timing": {
          "repeat": {
            "boundsPeriod": {
              "start": "2025-01-01T08:15:00.000Z"
            }
          }
        }
      } ]
    },
    "request": {
      "method": "PUT",
      "url": "MedicationRequest/94a959fe-9ae6-4c2a-b279-ee5709ac34ef"
    }
  }, {
    "fullUrl": "https://madie.cms.gov/ServiceRequest/3256ef93-40a9-41e5-8195-e95fa69296b9",
    "resource": {
      "resourceType": "ServiceRequest",
      "id": "3256ef93-40a9-41e5-8195-e95fa69296b9",
      "meta": {
        "profile": [ "http://hl7.org/fhir/us/qicore/StructureDefinition/qicore-servicerequest" ]
      },
      "status": "active",
      "intent": "order",
      "doNotPerform": false,
      "code": {
        "coding": [ {
          "system": "http://www.ama-assn.org/go/cpt",
          "version": "2024",
          "code": "64450",
          "display": "Injection(s), anesthetic agent(s) and/or steroid; other peripheral nerve or branch",
          "userSelected": true
        } ]
      },
      "subject": {
        "reference": "Patient/7fef44cf-ef02-4bca-8e88-ebf5b72a212f"
      },
      "authoredOn": "2026-01-02T09:16:00.000Z"
    },
    "request": {
      "method": "PUT",
      "url": "ServiceRequest/3256ef93-40a9-41e5-8195-e95fa69296b9"
    }
  }, {
    "fullUrl": "https://madie.cms.gov/Coverage/5b5e256e-6c8f-43ed-aaac-42d6e2225cdb",
    "resource": {
      "resourceType": "Coverage",
      "id": "5b5e256e-6c8f-43ed-aaac-42d6e2225cdb",
      "meta": {
        "profile": [ "http://hl7.org/fhir/us/qicore/StructureDefinition/qicore-coverage" ]
      },
      "identifier": [ {
        "system": "http://benefitsinc.com/certificate",
        "value": "12345"
      } ],
      "status": "active",
      "type": {
        "coding": [ {
          "system": "https://nahdo.org/sopt",
          "version": "1.0.1",
          "code": "1",
          "display": "MEDICARE",
          "userSelected": true
        } ]
      },
      "subscriberId": "AB9876",
      "beneficiary": {
        "reference": "Patient/7fef44cf-ef02-4bca-8e88-ebf5b72a212f"
      },
      "relationship": {
        "coding": [ {
          "system": "http://terminology.hl7.org/CodeSystem/subscriber-relationship",
          "code": "self"
        } ]
      },
      "period": {
        "start": "2026-01-01T00:00:00.000Z",
        "end": "2027-03-26T08:15:00.000Z"
      },
      "payor": [ {
        "reference": "Organization/c68a3233-ef27-49bd-aea7-ef4f5acf9b32"
      } ]
    },
    "request": {
      "method": "PUT",
      "url": "Coverage/5b5e256e-6c8f-43ed-aaac-42d6e2225cdb"
    }
  }, {
    "fullUrl": "https://madie.cms.gov/Organization/c68a3233-ef27-49bd-aea7-ef4f5acf9b32",
    "resource": {
      "resourceType": "Organization",
      "id": "c68a3233-ef27-49bd-aea7-ef4f5acf9b32",
      "meta": {
        "profile": [ "http://hl7.org/fhir/us/qicore/StructureDefinition/qicore-organization" ]
      },
      "identifier": [ {
        "use": "temp",
        "system": "urn:oid:2.16.840.1.113883.4.4",
        "value": "21-3259825"
      } ],
      "active": true,
      "type": [ {
        "coding": [ {
          "system": "http://terminology.hl7.org/CodeSystem/organization-type",
          "code": "pay",
          "display": "Payer"
        } ]
      } ],
      "name": "Blue Cross Blue Shield of Texas",
      "telecom": [ {
        "system": "phone",
        "value": "(+1) 972-766-6900"
      } ],
      "address": [ {
        "use": "billing",
        "type": "postal",
        "line": [ "P.O. Box 660044" ],
        "city": "Dallas",
        "state": "TX",
        "postalCode": "75266-0044",
        "country": "USA"
      } ]
    },
    "request": {
      "method": "PUT",
      "url": "Organization/c68a3233-ef27-49bd-aea7-ef4f5acf9b32"
    }
  }, {
    "fullUrl": "https://madie.cms.gov/Practitioner/6e4ea720-6c87-4b9f-981e-c29e1c103bb6",
    "resource": {
      "resourceType": "Practitioner",
      "id": "6e4ea720-6c87-4b9f-981e-c29e1c103bb6",
      "meta": {
        "profile": [ "http://hl7.org/fhir/us/qicore/StructureDefinition/qicore-practitioner" ]
      },
      "identifier": [ {
        "system": "http://hl7.org/fhir/sid/us-npi",
        "value": "0723660813"
      } ],
      "name": [ {
        "family": "Evil",
        "prefix": [ "Dr" ]
      } ]
    },
    "request": {
      "method": "PUT",
      "url": "Practitioner/6e4ea720-6c87-4b9f-981e-c29e1c103bb6"
    }
  }, {
    "fullUrl": "https://madie.cms.gov/MeasureReport/d39bf63c-b6aa-4b98-ab9a-9d3a801ed61d",
    "resource": {
      "resourceType": "MeasureReport",
      "id": "d39bf63c-b6aa-4b98-ab9a-9d3a801ed61d",
      "meta": {
        "profile": [ "http://hl7.org/fhir/us/cqfmeasures/StructureDefinition/test-case-cqfm" ]
      },
      "contained": [ {
        "resourceType": "Parameters",
        "id": "80bcc6c4-d2aa-49dc-8954-2162cd43d9af-parameters",
        "parameter": [ {
          "name": "subject",
          "valueString": "7fef44cf-ef02-4bca-8e88-ebf5b72a212f"
        } ]
      } ],
      "extension": [ {
        "url": "http://hl7.org/fhir/StructureDefinition/cqf-inputParameters",
        "valueReference": {
          "reference": "#80bcc6c4-d2aa-49dc-8954-2162cd43d9af-parameters"
        }
      }, {
        "url": "http://hl7.org/fhir/us/cqfmeasures/StructureDefinition/cqfm-testCaseDescription",
        "valueMarkdown": "Inpatient encounter with diabetic medication during MP with service request 1 minute after encounter end"
      } ],
      "modifierExtension": [ {
        "url": "http://hl7.org/fhir/us/cqfmeasures/StructureDefinition/cqfm-isTestCase",
        "valueBoolean": true
      } ],
      "status": "complete",
      "type": "individual",
      "measure": "https://madie.cms.gov/Measure/NHSNGlycemicControlHypoglycemiaInitialPopulation",
      "period": {
        "start": "2026-01-01",
        "end": "2026-12-31"
      },
      "group": [ {
        "id": "Group_1",
        "population": [ {
          "id": "InitialPopulation_1",
          "code": {
            "coding": [ {
              "system": "http://terminology.hl7.org/CodeSystem/measure-population",
              "code": "initial-population",
              "display": "Initial Population"
            } ]
          },
          "count": 1
        } ],
        "measureScore": {
          "value": 0.0
        }
      } ],
      "evaluatedResource": [ {
        "reference": "Patient/7fef44cf-ef02-4bca-8e88-ebf5b72a212f"
      }, {
        "reference": "Encounter/33afe9f5-728e-43ed-abf0-a49fb7d46f5c"
      }, {
        "reference": "Location/e2a5d57e-8466-41a8-b2fd-432c8284ce1b"
      }, {
        "reference": "MedicationRequest/94a959fe-9ae6-4c2a-b279-ee5709ac34ef"
      }, {
        "reference": "ServiceRequest/3256ef93-40a9-41e5-8195-e95fa69296b9"
      }, {
        "reference": "Coverage/5b5e256e-6c8f-43ed-aaac-42d6e2225cdb"
      }, {
        "reference": "Organization/c68a3233-ef27-49bd-aea7-ef4f5acf9b32"
      }, {
        "reference": "Practitioner/6e4ea720-6c87-4b9f-981e-c29e1c103bb6"
      } ]
    },
    "request": {
      "method": "PUT",
      "url": "MeasureReport/d39bf63c-b6aa-4b98-ab9a-9d3a801ed61d"
    }
  } ]
}