{
  "resourceType": "Bundle",
  "id": "612e6f6802c62a011f2f1b7a",
  "type": "transaction",
  "entry": [ {
    "fullUrl": "https://madie.cms.gov/Patient/e35371bf-1c00-4581-b217-4f98f1d779ec",
    "resource": {
      "resourceType": "Patient",
      "id": "e35371bf-1c00-4581-b217-4f98f1d779ec",
      "meta": {
        "profile": [ "http://hl7.org/fhir/us/qicore/StructureDefinition/qicore-patient" ]
      },
      "text": {
        "status": "generated",
        "div": "<div xmlns=\"http://www.w3.org/1999/xhtml\"><div class=\"hapiHeaderText\">CMODuringObsLT1hrBFAdm <b>DENEXPASS </b></div><table class=\"hapiPropertyTable\"><tbody><tr><td>Identifier</td><td>b76722bfa8b7247c1f4f231ad8af146a5c30960d16e3961ba6c562fdeac74b10</td></tr><tr><td>Date of birth</td><td><span>03 March 1970</span></td></tr></tbody></table></div>"
      },
      "extension": [ {
        "url": "http://hl7.org/fhir/us/core/StructureDefinition/us-core-race",
        "extension": [ {
          "url": "ombCategory",
          "valueCoding": {
            "system": "urn:oid:2.16.840.1.113883.6.238",
            "code": "1002-5",
            "display": "American Indian or Alaska Native",
            "userSelected": true
          }
        }, {
          "url": "text",
          "valueString": "American Indian or Alaska Native"
        } ]
      }, {
        "url": "http://hl7.org/fhir/us/core/StructureDefinition/us-core-ethnicity",
        "extension": [ {
          "url": "ombCategory",
          "valueCoding": {
            "system": "urn:oid:2.16.840.1.113883.6.238",
            "code": "2135-2",
            "display": "Hispanic or Latino",
            "userSelected": true
          }
        }, {
          "url": "text",
          "valueString": "Hispanic or Latino"
        } ]
      } ],
      "identifier": [ {
        "type": {
          "coding": [ {
            "system": "http://terminology.hl7.org/CodeSystem/v2-0203",
            "code": "MR"
          } ]
        },
        "system": "https://bonnie-fhir.healthit.gov/",
        "value": "612e6f6802c62a011f2f1b7a"
      } ],
      "active": true,
      "name": [ {
        "use": "usual",
        "family": "DENEXPass",
        "given": [ "CMODuringObsLT1hrBFAdm" ]
      } ],
      "gender": "female",
      "birthDate": "1971-03-03"
    },
    "request": {
      "method": "PUT",
      "url": "Patient/e35371bf-1c00-4581-b217-4f98f1d779ec"
    }
  }, {
    "fullUrl": "https://madie.cms.gov/Encounter/9ccf7f4f-ee08-41ac-8d5f-c00f74ee1ad5",
    "resource": {
      "resourceType": "Encounter",
      "id": "9ccf7f4f-ee08-41ac-8d5f-c00f74ee1ad5",
      "meta": {
        "profile": [ "http://hl7.org/fhir/us/qicore/StructureDefinition/qicore-encounter" ]
      },
      "status": "finished",
      "class": {
        "system": "http://terminology.hl7.org/CodeSystem/v3-ActCode",
        "code": "EMER",
        "display": "emergency"
      },
      "type": [ {
        "coding": [ {
          "system": "http://snomed.info/sct",
          "code": "4525004"
        } ]
      } ],
      "subject": {
        "reference": "Patient/e35371bf-1c00-4581-b217-4f98f1d779ec"
      },
      "period": {
        "start": "2026-12-04T04:00:00.000+00:00",
        "end": "2026-12-04T05:00:00.000+00:00"
      },
      "length": {
        "value": 0.0,
        "unit": "days"
      }
    },
    "request": {
      "method": "PUT",
      "url": "Encounter/9ccf7f4f-ee08-41ac-8d5f-c00f74ee1ad5"
    }
  }, {
    "fullUrl": "https://madie.cms.gov/Encounter/340e99fb-0b4c-40e3-b85b-728ce4a38fd7",
    "resource": {
      "resourceType": "Encounter",
      "id": "340e99fb-0b4c-40e3-b85b-728ce4a38fd7",
      "meta": {
        "profile": [ "http://hl7.org/fhir/us/qicore/StructureDefinition/qicore-encounter" ]
      },
      "status": "finished",
      "class": {
        "system": "http://terminology.hl7.org/CodeSystem/v3-ActCode",
        "code": "OBSENC",
        "display": "observation encounter"
      },
      "type": [ {
        "coding": [ {
          "system": "http://snomed.info/sct",
          "code": "448951000124107"
        } ]
      } ],
      "subject": {
        "reference": "Patient/e35371bf-1c00-4581-b217-4f98f1d779ec"
      },
      "period": {
        "start": "2026-12-04T05:15:00.000+00:00",
        "end": "2026-12-04T07:15:00.000+00:00"
      }
    },
    "request": {
      "method": "PUT",
      "url": "Encounter/340e99fb-0b4c-40e3-b85b-728ce4a38fd7"
    }
  }, {
    "fullUrl": "https://madie.cms.gov/Encounter/bf93a6c0-cf4c-4e02-970a-64340b23cd2c",
    "resource": {
      "resourceType": "Encounter",
      "id": "bf93a6c0-cf4c-4e02-970a-64340b23cd2c",
      "meta": {
        "profile": [ "http://hl7.org/fhir/us/qicore/StructureDefinition/qicore-encounter" ]
      },
      "status": "finished",
      "class": {
        "system": "http://terminology.hl7.org/CodeSystem/v3-ActCode",
        "code": "IMP",
        "display": "inpatient encounter"
      },
      "type": [ {
        "coding": [ {
          "system": "http://snomed.info/sct",
          "code": "8715000"
        } ]
      } ],
      "subject": {
        "reference": "Patient/e35371bf-1c00-4581-b217-4f98f1d779ec"
      },
      "period": {
        "start": "2026-12-04T08:00:00.000+00:00",
        "end": "2026-12-30T08:15:00.000+00:00"
      },
      "length": {
        "value": 26.0,
        "unit": "days"
      },
      "location": [ {
        "location": {
          "reference": "Location/3976d9f7-6b57-4b0e-803a-3e4fb4ec195a"
        },
        "period": {
          "start": "2026-12-26T08:00:00.000+00:00",
          "end": "2026-12-28T08:15:00.000+00:00"
        }
      } ]
    },
    "request": {
      "method": "PUT",
      "url": "Encounter/bf93a6c0-cf4c-4e02-970a-64340b23cd2c"
    }
  }, {
    "fullUrl": "https://madie.cms.gov/ServiceRequest/1ad3e3b0-a2a1-4e8c-b1b2-6717e3083765",
    "resource": {
      "resourceType": "ServiceRequest",
      "id": "1ad3e3b0-a2a1-4e8c-b1b2-6717e3083765",
      "meta": {
        "profile": [ "http://hl7.org/fhir/us/qicore/StructureDefinition/qicore-servicerequest" ]
      },
      "status": "completed",
      "intent": "order",
      "code": {
        "coding": [ {
          "system": "http://snomed.info/sct",
          "code": "133918004"
        } ]
      },
      "subject": {
        "reference": "Patient/e35371bf-1c00-4581-b217-4f98f1d779ec"
      },
      "authoredOn": "2026-12-04T06:00:00.000+00:00"
    },
    "request": {
      "method": "PUT",
      "url": "ServiceRequest/1ad3e3b0-a2a1-4e8c-b1b2-6717e3083765"
    }
  }, {
    "fullUrl": "https://madie.cms.gov/Coverage/d134ffb3-2262-43ab-af36-face628940c8",
    "resource": {
      "resourceType": "Coverage",
      "id": "d134ffb3-2262-43ab-af36-face628940c8",
      "status": "active",
      "beneficiary": {
        "reference": "Patient/e35371bf-1c00-4581-b217-4f98f1d779ec"
      },
      "period": {
        "start": "1975-03-03T08:00:00.000+00:00"
      },
      "payor": [ {
        "reference": "Organization/e7d63f4e-fbe6-49e4-8e94-bb7f379e1365"
      } ]
    },
    "request": {
      "method": "PUT",
      "url": "Coverage/d134ffb3-2262-43ab-af36-face628940c8"
    }
  }, {
    "fullUrl": "https://madie.cms.gov/Location/3976d9f7-6b57-4b0e-803a-3e4fb4ec195a",
    "resource": {
      "resourceType": "Location",
      "id": "3976d9f7-6b57-4b0e-803a-3e4fb4ec195a",
      "meta": {
        "profile": [ "http://hl7.org/fhir/us/qicore/StructureDefinition/qicore-location" ]
      },
      "identifier": [ {
        "use": "usual",
        "system": "http://exampleoflocation.com",
        "value": "B1-S.F2"
      } ],
      "name": "Medical Surgical East, first floor",
      "type": [ {
        "coding": [ {
          "system": "https://www.cdc.gov/nhsn/cdaportal/terminology/codesystem/hsloc.html",
          "code": "1025-6",
          "display": "Trauma Critical Care",
          "userSelected": true
        } ]
      } ]
    },
    "request": {
      "method": "PUT",
      "url": "Location/3976d9f7-6b57-4b0e-803a-3e4fb4ec195a"
    }
  }, {
    "fullUrl": "https://madie.cms.gov/Organization/e7d63f4e-fbe6-49e4-8e94-bb7f379e1365",
    "resource": {
      "resourceType": "Organization",
      "id": "e7d63f4e-fbe6-49e4-8e94-bb7f379e1365",
      "meta": {
        "profile": [ "http://hl7.org/fhir/us/qicore/StructureDefinition/qicore-organization" ]
      },
      "identifier": [ {
        "use": "temp",
        "system": "urn:oid:2.16.840.1.113883.4.4",
        "value": "21-3259825"
      } ],
      "active": true,
      "type": [ {
        "coding": [ {
          "system": "http://terminology.hl7.org/CodeSystem/organization-type",
          "code": "pay",
          "display": "Payer"
        } ]
      } ],
      "name": "Blue Cross Blue Shield of Texas",
      "telecom": [ {
        "system": "phone",
        "value": "(+1) 972-766-6900"
      } ],
      "address": [ {
        "use": "billing",
        "type": "postal",
        "line": [ "P.O. Box 660044" ],
        "city": "Dallas",
        "state": "TX",
        "postalCode": "75266-0044",
        "country": "USA"
      } ]
    },
    "request": {
      "method": "PUT",
      "url": "Organization/e7d63f4e-fbe6-49e4-8e94-bb7f379e1365"
    }
  }, {
    "fullUrl": "https://madie.cms.gov/Practitioner/bdf575be-6348-490a-b81a-0dd0c85a252c",
    "resource": {
      "resourceType": "Practitioner",
      "id": "bdf575be-6348-490a-b81a-0dd0c85a252c",
      "identifier": [ {
        "system": "http://hl7.org/fhir/sid/us-npi",
        "value": "123456"
      } ],
      "name": [ {
        "family": "Evil",
        "prefix": [ "Dr" ]
      } ]
    },
    "request": {
      "method": "PUT",
      "url": "Practitioner/bdf575be-6348-490a-b81a-0dd0c85a252c"
    }
  }, {
    "fullUrl": "https://madie.cms.gov/MeasureReport/c5b42b31-9e0f-41d7-a636-a44ac4d35321",
    "resource": {
      "resourceType": "MeasureReport",
      "id": "c5b42b31-9e0f-41d7-a636-a44ac4d35321",
      "meta": {
        "profile": [ "http://hl7.org/fhir/us/cqfmeasures/StructureDefinition/test-case-cqfm" ]
      },
      "contained": [ {
        "resourceType": "Parameters",
        "id": "6c690c16-c5e4-4ae6-87b1-0ac2029a1046-parameters",
        "parameter": [ {
          "name": "subject",
          "valueString": "e35371bf-1c00-4581-b217-4f98f1d779ec"
        } ]
      } ],
      "extension": [ {
        "url": "http://hl7.org/fhir/StructureDefinition/cqf-inputParameters",
        "valueReference": {
          "reference": "#6c690c16-c5e4-4ae6-87b1-0ac2029a1046-parameters"
        }
      }, {
        "url": "http://hl7.org/fhir/us/cqfmeasures/StructureDefinition/cqfm-testCaseDescription",
        "valueMarkdown": "meets IPP and Denominator and DenExcl, inpatient visit starts <=1 hour after the end of Observation AND Comfort Measures are ordered during Obs\n"
      } ],
      "modifierExtension": [ {
        "url": "http://hl7.org/fhir/us/cqfmeasures/StructureDefinition/cqfm-isTestCase",
        "valueBoolean": true
      } ],
      "status": "complete",
      "type": "individual",
      "measure": "https://madie.cms.gov/Measure/CMS190FHIRVTEProphylaxisICU",
      "period": {
        "start": "2026-01-01",
        "end": "2026-12-31"
      },
      "group": [ {
        "id": "Group_1",
        "population": [ {
          "id": "InitialPopulation_1",
          "code": {
            "coding": [ {
              "system": "http://terminology.hl7.org/CodeSystem/measure-population",
              "code": "initial-population",
              "display": "Initial Population"
            } ]
          },
          "count": 1
        }, {
          "id": "Denominator_1",
          "code": {
            "coding": [ {
              "system": "http://terminology.hl7.org/CodeSystem/measure-population",
              "code": "denominator",
              "display": "Denominator"
            } ]
          },
          "count": 1
        }, {
          "id": "DenominatorExclusion_1",
          "code": {
            "coding": [ {
              "system": "http://terminology.hl7.org/CodeSystem/measure-population",
              "code": "denominator-exclusion",
              "display": "Denominator Exclusion"
            } ]
          },
          "count": 1
        }, {
          "id": "Numerator_1",
          "code": {
            "coding": [ {
              "system": "http://terminology.hl7.org/CodeSystem/measure-population",
              "code": "numerator",
              "display": "Numerator"
            } ]
          },
          "count": 0
        }, {
          "id": "DenominatorException_1",
          "code": {
            "coding": [ {
              "system": "http://terminology.hl7.org/CodeSystem/measure-population",
              "code": "denominator-exception",
              "display": "Denominator Exception"
            } ]
          },
          "count": 0
        } ],
        "measureScore": {
          "value": 0.0
        }
      } ],
      "evaluatedResource": [ {
        "reference": "Patient/e35371bf-1c00-4581-b217-4f98f1d779ec"
      }, {
        "reference": "Encounter/9ccf7f4f-ee08-41ac-8d5f-c00f74ee1ad5"
      }, {
        "reference": "Encounter/340e99fb-0b4c-40e3-b85b-728ce4a38fd7"
      }, {
        "reference": "Encounter/bf93a6c0-cf4c-4e02-970a-64340b23cd2c"
      }, {
        "reference": "ServiceRequest/1ad3e3b0-a2a1-4e8c-b1b2-6717e3083765"
      }, {
        "reference": "Coverage/d134ffb3-2262-43ab-af36-face628940c8"
      }, {
        "reference": "Location/3976d9f7-6b57-4b0e-803a-3e4fb4ec195a"
      }, {
        "reference": "Organization/e7d63f4e-fbe6-49e4-8e94-bb7f379e1365"
      }, {
        "reference": "Practitioner/bdf575be-6348-490a-b81a-0dd0c85a252c"
      } ]
    },
    "request": {
      "method": "PUT",
      "url": "MeasureReport/c5b42b31-9e0f-41d7-a636-a44ac4d35321"
    }
  } ]
}