{
  "resourceType": "Bundle",
  "id": "6179e8d8ad1a790b7af7524c",
  "type": "transaction",
  "entry": [ {
    "fullUrl": "https://madie.cms.gov/Patient/f1d921e8-bf78-488a-a30e-429e232ffaa9",
    "resource": {
      "resourceType": "Patient",
      "id": "f1d921e8-bf78-488a-a30e-429e232ffaa9",
      "meta": {
        "profile": [ "http://hl7.org/fhir/us/qicore/StructureDefinition/qicore-patient" ]
      },
      "extension": [ {
        "url": "http://hl7.org/fhir/us/core/StructureDefinition/us-core-race",
        "extension": [ {
          "url": "ombCategory",
          "valueCoding": {
            "system": "urn:oid:2.16.840.1.113883.6.238",
            "code": "2076-8",
            "display": "Native Hawaiian or Other Pacific Islander",
            "userSelected": true
          }
        }, {
          "url": "text",
          "valueString": "Native Hawaiian or Other Pacific Islander"
        } ]
      }, {
        "url": "http://hl7.org/fhir/us/core/StructureDefinition/us-core-ethnicity",
        "extension": [ {
          "url": "ombCategory",
          "valueCoding": {
            "system": "urn:oid:2.16.840.1.113883.6.238",
            "code": "2186-5",
            "display": "Not Hispanic or Latino",
            "userSelected": true
          }
        }, {
          "url": "text",
          "valueString": "Not Hispanic or Latino"
        } ]
      }, {
        "url": "http://hl7.org/fhir/us/core/StructureDefinition/us-core-sex",
        "valueCode": "248152002"
      } ],
      "identifier": [ {
        "type": {
          "coding": [ {
            "system": "http://terminology.hl7.org/CodeSystem/v2-0203",
            "code": "MR"
          } ]
        },
        "system": "https://bonnie-fhir.healthit.gov/",
        "value": "6179e8d8ad1a790b7af7524c"
      } ],
      "name": [ {
        "family": "DenExcl2Fail",
        "given": [ "PxExclStartsAfterEndsAfterED" ]
      } ],
      "gender": "female",
      "birthDate": "1985-12-02"
    },
    "request": {
      "method": "PUT",
      "url": "Patient/f1d921e8-bf78-488a-a30e-429e232ffaa9"
    }
  }, {
    "fullUrl": "https://madie.cms.gov/Encounter/d6b3daf6-9642-4b90-9f12-79ebc0d7d500",
    "resource": {
      "resourceType": "Encounter",
      "id": "d6b3daf6-9642-4b90-9f12-79ebc0d7d500",
      "meta": {
        "profile": [ "http://hl7.org/fhir/us/qicore/StructureDefinition/qicore-encounter" ]
      },
      "status": "finished",
      "class": {
        "system": "http://terminology.hl7.org/CodeSystem/v3-ActCode",
        "code": "EMER",
        "display": "emergency",
        "userSelected": true
      },
      "type": [ {
        "coding": [ {
          "system": "http://snomed.info/sct",
          "version": "2020-09",
          "code": "4525004",
          "display": "Emergency department patient visit (procedure)",
          "userSelected": true
        } ]
      } ],
      "subject": {
        "reference": "Patient/f1d921e8-bf78-488a-a30e-429e232ffaa9"
      },
      "period": {
        "start": "2026-10-09T08:05:00.000+00:00",
        "end": "2026-10-10T07:15:00.000+00:00"
      },
      "reasonReference": [ {
        "reference": "Condition/86111b11-f6a9-4cf9-b3cd-732bc5ffd6bd"
      } ]
    },
    "request": {
      "method": "PUT",
      "url": "Encounter/d6b3daf6-9642-4b90-9f12-79ebc0d7d500"
    }
  }, {
    "fullUrl": "https://madie.cms.gov/Condition/86111b11-f6a9-4cf9-b3cd-732bc5ffd6bd",
    "resource": {
      "resourceType": "Condition",
      "id": "86111b11-f6a9-4cf9-b3cd-732bc5ffd6bd",
      "meta": {
        "profile": [ "http://hl7.org/fhir/us/qicore/StructureDefinition/qicore-condition-problems-health-concerns" ]
      },
      "clinicalStatus": {
        "coding": [ {
          "system": "http://terminology.hl7.org/CodeSystem/condition-clinical",
          "code": "active",
          "display": "active",
          "userSelected": true
        } ]
      },
      "category": [ {
        "coding": [ {
          "system": "http://terminology.hl7.org/CodeSystem/condition-category",
          "code": "problem-list-item",
          "display": "Problem List Item",
          "userSelected": true
        } ]
      } ],
      "code": {
        "coding": [ {
          "system": "http://snomed.info/sct",
          "version": "2020-09",
          "code": "401303003",
          "display": "Acute ST segment elevation myocardial infarction (disorder)",
          "userSelected": true
        } ]
      },
      "subject": {
        "reference": "Patient/f1d921e8-bf78-488a-a30e-429e232ffaa9"
      },
      "onsetDateTime": "2026-10-09T08:30:00.000+00:00"
    },
    "request": {
      "method": "PUT",
      "url": "Condition/86111b11-f6a9-4cf9-b3cd-732bc5ffd6bd"
    }
  }, {
    "fullUrl": "https://madie.cms.gov/Procedure/499d2d68-a50e-4b92-bdf1-6541dc29f5a1",
    "resource": {
      "resourceType": "Procedure",
      "id": "499d2d68-a50e-4b92-bdf1-6541dc29f5a1",
      "meta": {
        "profile": [ "http://hl7.org/fhir/us/qicore/StructureDefinition/qicore-procedure" ]
      },
      "extension": [ {
        "url": "http://hl7.org/fhir/us/qicore/StructureDefinition/qicore-recorded",
        "valueDateTime": "2026-10-18T08:15:00.000+00:00"
      } ],
      "status": "completed",
      "category": {
        "coding": [ {
          "system": "http://snomed.info/sct",
          "code": "387713003",
          "display": "Surgical procedure",
          "userSelected": true
        } ]
      },
      "code": {
        "coding": [ {
          "system": "http://www.ama-assn.org/go/cpt",
          "code": "33975",
          "userSelected": true
        } ]
      },
      "subject": {
        "reference": "Patient/f1d921e8-bf78-488a-a30e-429e232ffaa9"
      },
      "performedPeriod": {
        "start": "2026-10-09T06:00:00.000+00:00",
        "end": "2026-10-18T08:15:00.000+00:00"
      }
    },
    "request": {
      "method": "PUT",
      "url": "Procedure/499d2d68-a50e-4b92-bdf1-6541dc29f5a1"
    }
  }, {
    "fullUrl": "https://madie.cms.gov/MeasureReport/38cc9741-86ac-4ba5-86cb-51af24b61bb0",
    "resource": {
      "resourceType": "MeasureReport",
      "id": "38cc9741-86ac-4ba5-86cb-51af24b61bb0",
      "meta": {
        "profile": [ "http://hl7.org/fhir/us/cqfmeasures/StructureDefinition/test-case-cqfm" ]
      },
      "contained": [ {
        "resourceType": "Parameters",
        "id": "1a07379b-6677-4fb0-8590-4ad5266a9de6-parameters",
        "parameter": [ {
          "name": "subject",
          "valueString": "f1d921e8-bf78-488a-a30e-429e232ffaa9"
        } ]
      } ],
      "extension": [ {
        "url": "http://hl7.org/fhir/StructureDefinition/cqf-inputParameters",
        "valueReference": {
          "reference": "#1a07379b-6677-4fb0-8590-4ad5266a9de6-parameters"
        }
      }, {
        "url": "http://hl7.org/fhir/us/cqfmeasures/StructureDefinition/cqfm-testCaseDescription",
        "valueMarkdown": "Patient has Mechanical Circulatory Assist Device (exclusion procedure) that starts 24 hours before and ends after the ED encounter"
      } ],
      "modifierExtension": [ {
        "url": "http://hl7.org/fhir/us/cqfmeasures/StructureDefinition/cqfm-isTestCase",
        "valueBoolean": true
      } ],
      "status": "complete",
      "type": "individual",
      "measure": "https://madie.cms.gov/Measure/CMS996FHIRAptTxforSTEMI",
      "period": {
        "start": "2026-01-01",
        "end": "2026-12-31"
      },
      "group": [ {
        "id": "Group_1",
        "population": [ {
          "id": "InitialPopulation_1",
          "code": {
            "coding": [ {
              "system": "http://terminology.hl7.org/CodeSystem/measure-population",
              "code": "initial-population",
              "display": "Initial Population"
            } ]
          },
          "count": 1
        }, {
          "id": "Denominator_1",
          "code": {
            "coding": [ {
              "system": "http://terminology.hl7.org/CodeSystem/measure-population",
              "code": "denominator",
              "display": "Denominator"
            } ]
          },
          "count": 1
        }, {
          "id": "DenominatorExclusion_1",
          "code": {
            "coding": [ {
              "system": "http://terminology.hl7.org/CodeSystem/measure-population",
              "code": "denominator-exclusion",
              "display": "Denominator Exclusion"
            } ]
          },
          "count": 1
        }, {
          "id": "Numerator_1",
          "code": {
            "coding": [ {
              "system": "http://terminology.hl7.org/CodeSystem/measure-population",
              "code": "numerator",
              "display": "Numerator"
            } ]
          },
          "count": 0
        }, {
          "id": "DenominatorException_1",
          "code": {
            "coding": [ {
              "system": "http://terminology.hl7.org/CodeSystem/measure-population",
              "code": "denominator-exception",
              "display": "Denominator Exception"
            } ]
          },
          "count": 0
        } ],
        "measureScore": {
          "value": 0.0
        }
      } ],
      "evaluatedResource": [ {
        "reference": "Patient/f1d921e8-bf78-488a-a30e-429e232ffaa9"
      }, {
        "reference": "Encounter/d6b3daf6-9642-4b90-9f12-79ebc0d7d500"
      }, {
        "reference": "Condition/86111b11-f6a9-4cf9-b3cd-732bc5ffd6bd"
      }, {
        "reference": "Procedure/499d2d68-a50e-4b92-bdf1-6541dc29f5a1"
      } ]
    },
    "request": {
      "method": "PUT",
      "url": "MeasureReport/38cc9741-86ac-4ba5-86cb-51af24b61bb0"
    }
  } ]
}