{
  "resourceType": "Bundle",
  "id": "63487c2e0968f80122540176",
  "type": "transaction",
  "entry": [ {
    "fullUrl": "https://madie.cms.gov/Patient/73da474b-7013-4d51-8ef8-25c42c3fc686",
    "resource": {
      "resourceType": "Patient",
      "id": "73da474b-7013-4d51-8ef8-25c42c3fc686",
      "meta": {
        "profile": [ "http://hl7.org/fhir/us/qicore/StructureDefinition/qicore-patient" ]
      },
      "text": {
        "status": "generated",
        "div": "<div xmlns=\"http://www.w3.org/1999/xhtml\"><div class=\"hapiHeaderText\">2EncWin42weeks<b>DENOMPass</b></div><table class=\"hapiPropertyTable\"><tbody><tr><td>Identifier</td><td>b8dbe157da4a58e4e68c2785ca3a1f558369f025fbb700c089d37aa7791ee57b</td></tr><tr><td>Date of birth</td><td><span>14 February 1985</span></td></tr></tbody></table></div>"
      },
      "extension": [ {
        "url": "http://hl7.org/fhir/us/core/StructureDefinition/us-core-race",
        "extension": [ {
          "url": "ombCategory",
          "valueCoding": {
            "system": "urn:oid:2.16.840.1.113883.6.238",
            "code": "1002-5",
            "display": "American Indian or Alaska Native",
            "userSelected": true
          }
        }, {
          "url": "text",
          "valueString": "American Indian or Alaska Native"
        } ]
      }, {
        "url": "http://hl7.org/fhir/us/core/StructureDefinition/us-core-ethnicity",
        "extension": [ {
          "url": "ombCategory",
          "valueCoding": {
            "system": "urn:oid:2.16.840.1.113883.6.238",
            "code": "2135-2",
            "display": "Hispanic or Latino",
            "userSelected": true
          }
        }, {
          "url": "text",
          "valueString": "Hispanic or Latino"
        } ]
      } ],
      "identifier": [ {
        "type": {
          "coding": [ {
            "system": "http://terminology.hl7.org/CodeSystem/v2-0203",
            "code": "MR"
          } ]
        },
        "system": "https://bonnie-fhir.healthit.gov/",
        "value": "63487c2e0968f80122540176"
      } ],
      "active": true,
      "name": [ {
        "use": "usual",
        "family": "DENOMPass",
        "given": [ "2EncWin42weeks" ]
      } ],
      "gender": "female",
      "birthDate": "1998-02-14"
    },
    "request": {
      "method": "PUT",
      "url": "Patient/73da474b-7013-4d51-8ef8-25c42c3fc686"
    }
  }, {
    "fullUrl": "https://madie.cms.gov/Observation/242b6e36-e91a-4b6d-a290-7424d9259cd2",
    "resource": {
      "resourceType": "Observation",
      "id": "242b6e36-e91a-4b6d-a290-7424d9259cd2",
      "meta": {
        "profile": [ "http://hl7.org/fhir/us/qicore/StructureDefinition/qicore-simple-observation" ]
      },
      "status": "final",
      "category": [ {
        "coding": [ {
          "system": "http://terminology.hl7.org/CodeSystem/observation-category",
          "code": "exam",
          "display": "exam",
          "userSelected": true
        } ]
      } ],
      "code": {
        "coding": [ {
          "system": "http://loinc.org",
          "code": "11996-6"
        } ]
      },
      "subject": {
        "reference": "Patient/73da474b-7013-4d51-8ef8-25c42c3fc686"
      },
      "effectiveDateTime": "2026-01-31T08:00:00.000+00:00",
      "valueInteger": 1
    },
    "request": {
      "method": "PUT",
      "url": "Observation/242b6e36-e91a-4b6d-a290-7424d9259cd2"
    }
  }, {
    "fullUrl": "https://madie.cms.gov/Observation/3a75c085-679d-45b3-963b-341a331e0e09",
    "resource": {
      "resourceType": "Observation",
      "id": "3a75c085-679d-45b3-963b-341a331e0e09",
      "meta": {
        "profile": [ "http://hl7.org/fhir/us/qicore/StructureDefinition/qicore-simple-observation" ]
      },
      "status": "final",
      "category": [ {
        "coding": [ {
          "system": "http://terminology.hl7.org/CodeSystem/observation-category",
          "code": "exam",
          "display": "exam",
          "userSelected": true
        } ]
      } ],
      "code": {
        "coding": [ {
          "system": "http://loinc.org",
          "code": "11996-6"
        } ]
      },
      "subject": {
        "reference": "Patient/73da474b-7013-4d51-8ef8-25c42c3fc686"
      },
      "effectiveDateTime": "2026-11-09T08:00:00.000+00:00",
      "valueInteger": 1
    },
    "request": {
      "method": "PUT",
      "url": "Observation/3a75c085-679d-45b3-963b-341a331e0e09"
    }
  }, {
    "fullUrl": "https://madie.cms.gov/Observation/f1685413-367f-4f27-95e3-2da803c38058",
    "resource": {
      "resourceType": "Observation",
      "id": "f1685413-367f-4f27-95e3-2da803c38058",
      "meta": {
        "profile": [ "http://hl7.org/fhir/us/qicore/StructureDefinition/qicore-simple-observation" ]
      },
      "status": "final",
      "category": [ {
        "coding": [ {
          "system": "http://terminology.hl7.org/CodeSystem/observation-category",
          "code": "exam",
          "display": "exam",
          "userSelected": true
        } ]
      } ],
      "code": {
        "coding": [ {
          "system": "http://loinc.org",
          "code": "11884-4"
        } ]
      },
      "subject": {
        "reference": "Patient/73da474b-7013-4d51-8ef8-25c42c3fc686"
      },
      "effectiveDateTime": "2026-02-01T09:15:00.000+00:00",
      "valueQuantity": {
        "value": 38,
        "system": "http://unitsofmeasure.org",
        "code": "wk"
      }
    },
    "request": {
      "method": "PUT",
      "url": "Observation/f1685413-367f-4f27-95e3-2da803c38058"
    }
  }, {
    "fullUrl": "https://madie.cms.gov/Observation/ddc198c7-60fd-4faf-9a28-29358df39f16",
    "resource": {
      "resourceType": "Observation",
      "id": "ddc198c7-60fd-4faf-9a28-29358df39f16",
      "meta": {
        "profile": [ "http://hl7.org/fhir/us/qicore/StructureDefinition/qicore-simple-observation" ]
      },
      "status": "final",
      "category": [ {
        "coding": [ {
          "system": "http://terminology.hl7.org/CodeSystem/observation-category",
          "code": "exam",
          "display": "exam",
          "userSelected": true
        } ]
      } ],
      "code": {
        "coding": [ {
          "system": "http://loinc.org",
          "code": "11884-4"
        } ]
      },
      "subject": {
        "reference": "Patient/73da474b-7013-4d51-8ef8-25c42c3fc686"
      },
      "effectiveDateTime": "2026-11-10T08:00:00.000+00:00",
      "valueQuantity": {
        "value": 38,
        "system": "http://unitsofmeasure.org",
        "code": "wk"
      }
    },
    "request": {
      "method": "PUT",
      "url": "Observation/ddc198c7-60fd-4faf-9a28-29358df39f16"
    }
  }, {
    "fullUrl": "https://madie.cms.gov/Observation/4d6e2d6b-d3cb-4602-a621-1d77dacfff68",
    "resource": {
      "resourceType": "Observation",
      "id": "4d6e2d6b-d3cb-4602-a621-1d77dacfff68",
      "meta": {
        "profile": [ "http://hl7.org/fhir/us/qicore/StructureDefinition/qicore-simple-observation" ]
      },
      "status": "final",
      "category": [ {
        "coding": [ {
          "system": "http://terminology.hl7.org/CodeSystem/observation-category",
          "code": "exam",
          "display": "exam",
          "userSelected": true
        } ]
      } ],
      "code": {
        "coding": [ {
          "system": "http://loinc.org",
          "code": "93857-1"
        } ]
      },
      "subject": {
        "reference": "Patient/73da474b-7013-4d51-8ef8-25c42c3fc686"
      },
      "effectiveDateTime": "2026-02-01T19:00:00.000+00:00",
      "valueDateTime": "2026-02-01T19:00:00.000+00:00"
    },
    "request": {
      "method": "PUT",
      "url": "Observation/4d6e2d6b-d3cb-4602-a621-1d77dacfff68"
    }
  }, {
    "fullUrl": "https://madie.cms.gov/Observation/cc37daf1-7e20-4131-95a8-cace72b89e7f",
    "resource": {
      "resourceType": "Observation",
      "id": "cc37daf1-7e20-4131-95a8-cace72b89e7f",
      "meta": {
        "profile": [ "http://hl7.org/fhir/us/qicore/StructureDefinition/qicore-simple-observation" ]
      },
      "status": "final",
      "category": [ {
        "coding": [ {
          "system": "http://terminology.hl7.org/CodeSystem/observation-category",
          "code": "exam",
          "display": "exam",
          "userSelected": true
        } ]
      } ],
      "code": {
        "coding": [ {
          "system": "http://loinc.org",
          "code": "93857-1"
        } ]
      },
      "subject": {
        "reference": "Patient/73da474b-7013-4d51-8ef8-25c42c3fc686"
      },
      "effectiveDateTime": "2026-11-10T08:00:00.000+00:00",
      "valueDateTime": "2026-11-10T08:00:00.000+00:00"
    },
    "request": {
      "method": "PUT",
      "url": "Observation/cc37daf1-7e20-4131-95a8-cace72b89e7f"
    }
  }, {
    "fullUrl": "https://madie.cms.gov/Encounter/44c69229-e259-48fd-a2b1-5e1a6e232e05",
    "resource": {
      "resourceType": "Encounter",
      "id": "44c69229-e259-48fd-a2b1-5e1a6e232e05",
      "meta": {
        "profile": [ "http://hl7.org/fhir/us/qicore/StructureDefinition/qicore-encounter" ]
      },
      "status": "finished",
      "class": {
        "system": "http://terminology.hl7.org/CodeSystem/v3-ActCode",
        "code": "IMP",
        "display": "inpatient encounter"
      },
      "type": [ {
        "coding": [ {
          "system": "http://snomed.info/sct",
          "code": "8715000"
        } ]
      } ],
      "subject": {
        "reference": "Patient/73da474b-7013-4d51-8ef8-25c42c3fc686"
      },
      "period": {
        "start": "2026-02-01T08:00:00.000+00:00",
        "end": "2026-02-05T08:15:00.000+00:00"
      },
      "length": {
        "value": 4,
        "unit": "days"
      },
      "reasonCode": [ {
        "coding": [ {
          "system": "http://snomed.info/sct",
          "code": "169826009",
          "display": "Single live birth from singleton pregnancy (finding)"
        } ]
      } ]
    },
    "request": {
      "method": "PUT",
      "url": "Encounter/44c69229-e259-48fd-a2b1-5e1a6e232e05"
    }
  }, {
    "fullUrl": "https://madie.cms.gov/Encounter/3c98ad71-7286-4d03-953a-7e1ffed92730",
    "resource": {
      "resourceType": "Encounter",
      "id": "3c98ad71-7286-4d03-953a-7e1ffed92730",
      "meta": {
        "profile": [ "http://hl7.org/fhir/us/qicore/StructureDefinition/qicore-encounter" ]
      },
      "status": "finished",
      "class": {
        "system": "http://terminology.hl7.org/CodeSystem/v3-ActCode",
        "code": "IMP",
        "display": "inpatient encounter"
      },
      "type": [ {
        "coding": [ {
          "system": "http://snomed.info/sct",
          "code": "8715000"
        } ]
      } ],
      "subject": {
        "reference": "Patient/73da474b-7013-4d51-8ef8-25c42c3fc686"
      },
      "period": {
        "start": "2026-11-10T08:00:00.000+00:00",
        "end": "2026-11-15T08:15:00.000+00:00"
      },
      "length": {
        "value": 4,
        "unit": "days"
      },
      "reasonCode": [ {
        "coding": [ {
          "system": "http://snomed.info/sct",
          "code": "169826009",
          "display": "Single live birth from singleton pregnancy (finding)"
        } ]
      } ]
    },
    "request": {
      "method": "PUT",
      "url": "Encounter/3c98ad71-7286-4d03-953a-7e1ffed92730"
    }
  }, {
    "fullUrl": "https://madie.cms.gov/Procedure/92ced5be-981a-4075-b8d4-ad72ec59902b",
    "resource": {
      "resourceType": "Procedure",
      "id": "92ced5be-981a-4075-b8d4-ad72ec59902b",
      "meta": {
        "profile": [ "http://hl7.org/fhir/us/qicore/StructureDefinition/qicore-procedure" ]
      },
      "extension": [ {
        "url": "http://hl7.org/fhir/us/qicore/StructureDefinition/qicore-recorded",
        "valueDateTime": "2014-04-05T13:35:00.000+00:00"
      } ],
      "status": "completed",
      "code": {
        "coding": [ {
          "system": "http://snomed.info/sct",
          "code": "177143000"
        } ]
      },
      "subject": {
        "reference": "Patient/73da474b-7013-4d51-8ef8-25c42c3fc686"
      },
      "performedPeriod": {
        "start": "2026-02-01T08:00:00.000+00:00",
        "end": "2026-02-01T08:00:00.000+00:00"
      }
    },
    "request": {
      "method": "PUT",
      "url": "Procedure/92ced5be-981a-4075-b8d4-ad72ec59902b"
    }
  }, {
    "fullUrl": "https://madie.cms.gov/Procedure/ed5c7ef9-5193-4cdc-91dd-327970211509",
    "resource": {
      "resourceType": "Procedure",
      "id": "ed5c7ef9-5193-4cdc-91dd-327970211509",
      "meta": {
        "profile": [ "http://hl7.org/fhir/us/qicore/StructureDefinition/qicore-procedure" ]
      },
      "extension": [ {
        "url": "http://hl7.org/fhir/us/qicore/StructureDefinition/qicore-recorded",
        "valueDateTime": "2014-04-05T13:35:00.000+00:00"
      } ],
      "status": "completed",
      "code": {
        "coding": [ {
          "system": "http://www.cms.gov/Medicare/Coding/ICD10",
          "code": "10D00Z0"
        } ]
      },
      "subject": {
        "reference": "Patient/73da474b-7013-4d51-8ef8-25c42c3fc686"
      },
      "performedPeriod": {
        "start": "2026-11-10T08:00:00.000+00:00",
        "end": "2026-11-15T08:15:00.000+00:00"
      }
    },
    "request": {
      "method": "PUT",
      "url": "Procedure/ed5c7ef9-5193-4cdc-91dd-327970211509"
    }
  }, {
    "fullUrl": "https://madie.cms.gov/Condition/25e1ed29-ca57-4523-b94d-b7dfa86f3fca",
    "resource": {
      "resourceType": "Condition",
      "id": "25e1ed29-ca57-4523-b94d-b7dfa86f3fca",
      "meta": {
        "profile": [ "http://hl7.org/fhir/us/qicore/StructureDefinition/qicore-condition-problems-health-concerns" ]
      },
      "category": [ {
        "coding": [ {
          "system": "http://terminology.hl7.org/CodeSystem/condition-category",
          "code": "encounter-diagnosis",
          "display": "Encounter Diagnosis"
        } ]
      } ],
      "code": {
        "coding": [ {
          "system": "http://snomed.info/sct",
          "version": "2022-09",
          "code": "169826009",
          "display": "Single live birth from singleton pregnancy (finding)",
          "userSelected": true
        } ]
      },
      "subject": {
        "reference": "Patient/73da474b-7013-4d51-8ef8-25c42c3fc686"
      },
      "recordedDate": "2026-10-21T08:00:00.000+00:00"
    },
    "request": {
      "method": "PUT",
      "url": "Condition/25e1ed29-ca57-4523-b94d-b7dfa86f3fca"
    }
  }, {
    "fullUrl": "https://madie.cms.gov/Condition/584e9c46-af54-4c21-9753-062a720fb5e6",
    "resource": {
      "resourceType": "Condition",
      "id": "584e9c46-af54-4c21-9753-062a720fb5e6",
      "meta": {
        "profile": [ "http://hl7.org/fhir/us/qicore/StructureDefinition/qicore-condition-problems-health-concerns" ]
      },
      "category": [ {
        "coding": [ {
          "system": "http://terminology.hl7.org/CodeSystem/condition-category",
          "code": "encounter-diagnosis",
          "display": "Encounter Diagnosis"
        } ]
      } ],
      "code": {
        "coding": [ {
          "system": "http://snomed.info/sct",
          "version": "2022-09",
          "code": "169826009",
          "display": "Single live birth from singleton pregnancy (finding)",
          "userSelected": true
        } ]
      },
      "subject": {
        "reference": "Patient/73da474b-7013-4d51-8ef8-25c42c3fc686"
      },
      "recordedDate": "2026-10-21T08:00:00.000+00:00"
    },
    "request": {
      "method": "PUT",
      "url": "Condition/584e9c46-af54-4c21-9753-062a720fb5e6"
    }
  }, {
    "fullUrl": "https://madie.cms.gov/Coverage/6f3bd331-6514-414b-9c81-36df48fab6e2",
    "resource": {
      "resourceType": "Coverage",
      "id": "6f3bd331-6514-414b-9c81-36df48fab6e2",
      "meta": {
        "profile": [ "http://hl7.org/fhir/us/qicore/StructureDefinition/qicore-coverage" ]
      },
      "status": "active",
      "subscriberId": "523435",
      "beneficiary": {
        "reference": "Patient/73da474b-7013-4d51-8ef8-25c42c3fc686"
      },
      "relationship": {
        "coding": [ {
          "system": "http://terminology.hl7.org/CodeSystem/subscriber-relationship",
          "code": "self"
        } ]
      },
      "payor": [ {
        "reference": "Organization/61ec1d12-8fec-43b8-b9ef-cb4d9b866646"
      } ]
    },
    "request": {
      "method": "PUT",
      "url": "Coverage/6f3bd331-6514-414b-9c81-36df48fab6e2"
    }
  }, {
    "fullUrl": "https://madie.cms.gov/Organization/61ec1d12-8fec-43b8-b9ef-cb4d9b866646",
    "resource": {
      "resourceType": "Organization",
      "id": "61ec1d12-8fec-43b8-b9ef-cb4d9b866646",
      "meta": {
        "profile": [ "http://hl7.org/fhir/us/qicore/StructureDefinition/qicore-organization" ]
      },
      "identifier": [ {
        "use": "temp",
        "system": "urn:oid:2.16.840.1.113883.4.4",
        "value": "21-3259825"
      } ],
      "active": true,
      "type": [ {
        "coding": [ {
          "system": "http://terminology.hl7.org/CodeSystem/organization-type",
          "code": "pay",
          "display": "Payer"
        } ]
      } ],
      "name": "Blue Cross Blue Shield of Texas",
      "telecom": [ {
        "system": "phone",
        "value": "(+1) 972-766-6900"
      } ],
      "address": [ {
        "use": "billing",
        "type": "postal",
        "line": [ "P.O. Box 660044" ],
        "city": "Dallas",
        "state": "TX",
        "postalCode": "75266-0044",
        "country": "USA"
      } ]
    },
    "request": {
      "method": "PUT",
      "url": "Organization/61ec1d12-8fec-43b8-b9ef-cb4d9b866646"
    }
  }, {
    "fullUrl": "https://madie.cms.gov/Condition/a8b4a071-c871-43ac-b110-95eed92ec91f",
    "resource": {
      "resourceType": "Condition",
      "id": "a8b4a071-c871-43ac-b110-95eed92ec91f",
      "meta": {
        "profile": [ "http://hl7.org/fhir/us/qicore/StructureDefinition/qicore-condition" ]
      },
      "category": [ {
        "coding": [ {
          "system": "http://terminology.hl7.org/CodeSystem/condition-category",
          "code": "encounter-diagnosis",
          "display": "Encounter Diagnosis"
        } ]
      } ],
      "code": {
        "coding": [ {
          "system": "http://snomed.info/sct",
          "code": "169826009",
          "display": "Single live birth from singleton pregnancy (finding)"
        } ]
      },
      "subject": {
        "reference": "Patient/73da474b-7013-4d51-8ef8-25c42c3fc686"
      }
    },
    "request": {
      "method": "PUT",
      "url": "Condition/a8b4a071-c871-43ac-b110-95eed92ec91f"
    }
  }, {
    "fullUrl": "https://madie.cms.gov/Condition/48154059-34aa-4f41-a192-6f53233de4ff",
    "resource": {
      "resourceType": "Condition",
      "id": "48154059-34aa-4f41-a192-6f53233de4ff",
      "meta": {
        "profile": [ "http://hl7.org/fhir/us/qicore/StructureDefinition/qicore-condition-problems-health-concerns" ]
      },
      "category": [ {
        "coding": [ {
          "system": "http://terminology.hl7.org/CodeSystem/condition-category",
          "code": "encounter-diagnosis",
          "display": "Encounter Diagnosis"
        } ]
      } ],
      "code": {
        "coding": [ {
          "system": "http://snomed.info/sct",
          "code": "169826009",
          "display": "ingle live birth from singleton pregnancy (finding)"
        } ]
      },
      "subject": {
        "reference": "Patient/73da474b-7013-4d51-8ef8-25c42c3fc686"
      }
    },
    "request": {
      "method": "PUT",
      "url": "Condition/48154059-34aa-4f41-a192-6f53233de4ff"
    }
  }, {
    "fullUrl": "https://madie.cms.gov/Practitioner/d2e3b886-3423-42e5-9c8e-41cdfe5c5ef1",
    "resource": {
      "resourceType": "Practitioner",
      "id": "d2e3b886-3423-42e5-9c8e-41cdfe5c5ef1",
      "meta": {
        "profile": [ "http://hl7.org/fhir/us/qicore/StructureDefinition/qicore-practitioner" ]
      },
      "identifier": [ {
        "system": "http://hl7.org/fhir/sid/us-npi",
        "value": "1234567890"
      } ],
      "name": [ {
        "family": "Evil",
        "prefix": [ "Dr" ]
      } ]
    },
    "request": {
      "method": "PUT",
      "url": "Practitioner/d2e3b886-3423-42e5-9c8e-41cdfe5c5ef1"
    }
  }, {
    "fullUrl": "https://madie.cms.gov/MeasureReport/3788ea44-a0db-44d4-96ac-15ea4b3ecdda",
    "resource": {
      "resourceType": "MeasureReport",
      "id": "3788ea44-a0db-44d4-96ac-15ea4b3ecdda",
      "meta": {
        "profile": [ "http://hl7.org/fhir/us/cqfmeasures/StructureDefinition/test-case-cqfm" ]
      },
      "contained": [ {
        "resourceType": "Parameters",
        "id": "77f08c6a-c58d-4661-ae62-11583fb4513e-parameters",
        "parameter": [ {
          "name": "subject",
          "valueString": "73da474b-7013-4d51-8ef8-25c42c3fc686"
        } ]
      } ],
      "extension": [ {
        "url": "http://hl7.org/fhir/StructureDefinition/cqf-inputParameters",
        "valueReference": {
          "reference": "#77f08c6a-c58d-4661-ae62-11583fb4513e-parameters"
        }
      }, {
        "url": "http://hl7.org/fhir/us/cqfmeasures/StructureDefinition/cqfm-testCaseDescription",
        "valueMarkdown": "Pregnancy 1 delivery documented 2/1/2012, Gravida 1\nPregnancy 2  delivery documented 11/10/2012, Gravida 1 (note, unrealistic for pregnancy 2 to be Gravida 1 (again) but goal was to test if denominator would pass twice)"
      } ],
      "modifierExtension": [ {
        "url": "http://hl7.org/fhir/us/cqfmeasures/StructureDefinition/cqfm-isTestCase",
        "valueBoolean": true
      } ],
      "status": "complete",
      "type": "individual",
      "measure": "https://madie.cms.gov/Measure/CMS0334FHIRPCCesareanBirth",
      "period": {
        "start": "2026-01-01",
        "end": "2026-12-31"
      },
      "group": [ {
        "id": "Group_1",
        "population": [ {
          "id": "InitialPopulation_1",
          "code": {
            "coding": [ {
              "system": "http://terminology.hl7.org/CodeSystem/measure-population",
              "code": "initial-population",
              "display": "Initial Population"
            } ]
          },
          "count": 2
        }, {
          "id": "Denominator_1",
          "code": {
            "coding": [ {
              "system": "http://terminology.hl7.org/CodeSystem/measure-population",
              "code": "denominator",
              "display": "Denominator"
            } ]
          },
          "count": 2
        }, {
          "id": "DenominatorExclusion_1",
          "code": {
            "coding": [ {
              "system": "http://terminology.hl7.org/CodeSystem/measure-population",
              "code": "denominator-exclusion",
              "display": "Denominator Exclusion"
            } ]
          },
          "count": 0
        }, {
          "id": "Numerator_1",
          "code": {
            "coding": [ {
              "system": "http://terminology.hl7.org/CodeSystem/measure-population",
              "code": "numerator",
              "display": "Numerator"
            } ]
          },
          "count": 2
        } ],
        "measureScore": {
          "value": 0.0
        }
      } ],
      "evaluatedResource": [ {
        "reference": "Patient/73da474b-7013-4d51-8ef8-25c42c3fc686"
      }, {
        "reference": "Observation/242b6e36-e91a-4b6d-a290-7424d9259cd2"
      }, {
        "reference": "Observation/3a75c085-679d-45b3-963b-341a331e0e09"
      }, {
        "reference": "Observation/f1685413-367f-4f27-95e3-2da803c38058"
      }, {
        "reference": "Observation/ddc198c7-60fd-4faf-9a28-29358df39f16"
      }, {
        "reference": "Observation/4d6e2d6b-d3cb-4602-a621-1d77dacfff68"
      }, {
        "reference": "Observation/cc37daf1-7e20-4131-95a8-cace72b89e7f"
      }, {
        "reference": "Encounter/44c69229-e259-48fd-a2b1-5e1a6e232e05"
      }, {
        "reference": "Encounter/3c98ad71-7286-4d03-953a-7e1ffed92730"
      }, {
        "reference": "Procedure/92ced5be-981a-4075-b8d4-ad72ec59902b"
      }, {
        "reference": "Procedure/ed5c7ef9-5193-4cdc-91dd-327970211509"
      }, {
        "reference": "Condition/25e1ed29-ca57-4523-b94d-b7dfa86f3fca"
      }, {
        "reference": "Condition/584e9c46-af54-4c21-9753-062a720fb5e6"
      }, {
        "reference": "Coverage/6f3bd331-6514-414b-9c81-36df48fab6e2"
      }, {
        "reference": "Organization/61ec1d12-8fec-43b8-b9ef-cb4d9b866646"
      }, {
        "reference": "Condition/a8b4a071-c871-43ac-b110-95eed92ec91f"
      }, {
        "reference": "Condition/48154059-34aa-4f41-a192-6f53233de4ff"
      }, {
        "reference": "Practitioner/d2e3b886-3423-42e5-9c8e-41cdfe5c5ef1"
      } ]
    },
    "request": {
      "method": "PUT",
      "url": "MeasureReport/3788ea44-a0db-44d4-96ac-15ea4b3ecdda"
    }
  } ]
}