{
  "resourceType": "Bundle",
  "id": "Patient-13-DENEXPass-FrailtySymptomOverlapsMP",
  "type": "transaction",
  "entry": [ {
    "fullUrl": "https://madie.cms.gov/Patient/3b62b0a8-44f2-4365-bcb9-7cadef5bab2e",
    "resource": {
      "resourceType": "Patient",
      "id": "3b62b0a8-44f2-4365-bcb9-7cadef5bab2e",
      "meta": {
        "profile": [ "http://hl7.org/fhir/us/qicore/StructureDefinition/qicore-patient" ]
      },
      "extension": [ {
        "url": "http://hl7.org/fhir/us/core/StructureDefinition/us-core-race",
        "extension": [ {
          "url": "ombCategory",
          "valueCoding": {
            "system": "urn:oid:2.16.840.1.113883.6.238",
            "code": "2028-9",
            "display": "Asian"
          }
        }, {
          "url": "text",
          "valueString": "Asian"
        } ]
      }, {
        "url": "http://hl7.org/fhir/us/core/StructureDefinition/us-core-ethnicity",
        "extension": [ {
          "url": "ombCategory",
          "valueCoding": {
            "system": "urn:oid:2.16.840.1.113883.6.238",
            "code": "2135-2",
            "display": "Hispanic or Latino"
          }
        }, {
          "url": "text",
          "valueString": "Hispanic or Latino"
        } ]
      } ],
      "identifier": [ {
        "system": "http://hospital.smarthealthit.org",
        "value": "999999995"
      } ],
      "name": [ {
        "family": "Bertha",
        "given": [ "Betty" ]
      } ],
      "gender": "female",
      "birthDate": "1959-12-31"
    },
    "request": {
      "method": "PUT",
      "url": "Patient/3b62b0a8-44f2-4365-bcb9-7cadef5bab2e"
    }
  }, {
    "fullUrl": "https://madie.cms.gov/Encounter/0be99746-fa87-4232-849c-3a6986b28dc9",
    "resource": {
      "resourceType": "Encounter",
      "id": "0be99746-fa87-4232-849c-3a6986b28dc9",
      "meta": {
        "profile": [ "http://hl7.org/fhir/us/qicore/StructureDefinition/qicore-encounter" ]
      },
      "status": "finished",
      "class": {
        "system": "http://terminology.hl7.org/CodeSystem/v3-ActCode",
        "code": "AMB",
        "display": "ambulatory"
      },
      "type": [ {
        "coding": [ {
          "system": "http://snomed.info/sct",
          "code": "185460008",
          "display": "Home visit request by patient (procedure)"
        } ]
      } ],
      "subject": {
        "reference": "Patient/3b62b0a8-44f2-4365-bcb9-7cadef5bab2e"
      },
      "period": {
        "start": "2026-01-01T00:00:00.000+00:00",
        "end": "2026-01-01T00:15:00.000+00:00"
      }
    },
    "request": {
      "method": "PUT",
      "url": "Encounter/0be99746-fa87-4232-849c-3a6986b28dc9"
    }
  }, {
    "fullUrl": "https://madie.cms.gov/Condition/adb6d4a1-62ce-40ba-800e-56309e297b53",
    "resource": {
      "resourceType": "Condition",
      "id": "adb6d4a1-62ce-40ba-800e-56309e297b53",
      "meta": {
        "profile": [ "http://hl7.org/fhir/us/qicore/StructureDefinition/qicore-condition-encounter-diagnosis" ]
      },
      "clinicalStatus": {
        "coding": [ {
          "system": "http://terminology.hl7.org/CodeSystem/condition-clinical",
          "code": "active"
        } ]
      },
      "category": [ {
        "coding": [ {
          "system": "http://terminology.hl7.org/CodeSystem/condition-category",
          "code": "encounter-diagnosis",
          "display": "Encounter Diagnosis"
        } ]
      } ],
      "code": {
        "coding": [ {
          "system": "http://snomed.info/sct",
          "code": "102781000119107",
          "display": "Sensory neuropathy due to type 1 diabetes mellitus (disorder)"
        } ]
      },
      "subject": {
        "reference": "Patient/3b62b0a8-44f2-4365-bcb9-7cadef5bab2e"
      },
      "onsetDateTime": "2026-01-01T23:59:00.000+00:00"
    },
    "request": {
      "method": "PUT",
      "url": "Condition/adb6d4a1-62ce-40ba-800e-56309e297b53"
    }
  }, {
    "fullUrl": "https://madie.cms.gov/MedicationRequest/b2567b29-d249-4ae3-8626-b59373e9d3a8",
    "resource": {
      "resourceType": "MedicationRequest",
      "id": "b2567b29-d249-4ae3-8626-b59373e9d3a8",
      "meta": {
        "profile": [ "http://hl7.org/fhir/us/qicore/StructureDefinition/qicore-medicationrequest" ]
      },
      "status": "active",
      "intent": "order",
      "doNotPerform": false,
      "medicationCodeableConcept": {
        "coding": [ {
          "system": "http://www.nlm.nih.gov/research/umls/rxnorm",
          "code": "312836",
          "display": "rivastigmine 6 MG Oral Capsule"
        } ]
      },
      "subject": {
        "reference": "Patient/3b62b0a8-44f2-4365-bcb9-7cadef5bab2e"
      },
      "authoredOn": "2026-01-01T00:00:00.000+00:00",
      "requester": {
        "reference": "Practitioner/example"
      },
      "dispenseRequest": {
        "expectedSupplyDuration": {
          "value": 90,
          "system": "http://unitsofmeasure.org",
          "code": "days"
        }
      }
    },
    "request": {
      "method": "PUT",
      "url": "MedicationRequest/b2567b29-d249-4ae3-8626-b59373e9d3a8"
    }
  }, {
    "fullUrl": "https://madie.cms.gov/Observation/6830ba6c-ae03-41d9-872d-dab46cf7383f",
    "resource": {
      "resourceType": "Observation",
      "id": "6830ba6c-ae03-41d9-872d-dab46cf7383f",
      "meta": {
        "profile": [ "http://hl7.org/fhir/us/qicore/StructureDefinition/qicore-simple-observation" ]
      },
      "status": "final",
      "category": [ {
        "coding": [ {
          "system": "http://terminology.hl7.org/CodeSystem/observation-category",
          "code": "survey"
        } ]
      } ],
      "code": {
        "coding": [ {
          "system": "http://hl7.org/fhir/sid/icd-10-cm",
          "code": "R26.89",
          "display": "Other abnormalities of gait and mobility"
        } ]
      },
      "subject": {
        "reference": "Patient/3b62b0a8-44f2-4365-bcb9-7cadef5bab2e"
      },
      "effectivePeriod": {
        "start": "2026-01-01T00:00:00.000+00:00",
        "end": "2026-01-01T00:00:00.000+00:00"
      }
    },
    "request": {
      "method": "PUT",
      "url": "Observation/6830ba6c-ae03-41d9-872d-dab46cf7383f"
    }
  }, {
    "fullUrl": "https://madie.cms.gov/MeasureReport/e85cf7dc-dcfc-4e0b-b68a-4f8ed1b9ddd4",
    "resource": {
      "resourceType": "MeasureReport",
      "id": "e85cf7dc-dcfc-4e0b-b68a-4f8ed1b9ddd4",
      "meta": {
        "profile": [ "http://hl7.org/fhir/us/cqfmeasures/StructureDefinition/test-case-cqfm" ]
      },
      "contained": [ {
        "resourceType": "Parameters",
        "id": "1add07ff-4d52-4586-89cc-e8acbefc9554-parameters",
        "parameter": [ {
          "name": "subject",
          "valueString": "3b62b0a8-44f2-4365-bcb9-7cadef5bab2e"
        } ]
      } ],
      "extension": [ {
        "url": "http://hl7.org/fhir/StructureDefinition/cqf-inputParameters",
        "valueReference": {
          "reference": "#1add07ff-4d52-4586-89cc-e8acbefc9554-parameters"
        }
      }, {
        "url": "http://hl7.org/fhir/us/cqfmeasures/StructureDefinition/cqfm-testCaseDescription",
        "valueMarkdown": "Frailty symptom overlaps the MP"
      } ],
      "modifierExtension": [ {
        "url": "http://hl7.org/fhir/us/cqfmeasures/StructureDefinition/cqfm-isTestCase",
        "valueBoolean": true
      } ],
      "status": "complete",
      "type": "individual",
      "measure": "https://madie.cms.gov/Measure/CMS122FHIRDiabetesAssessGT9Pct",
      "period": {
        "start": "2026-01-01",
        "end": "2026-12-31"
      },
      "group": [ {
        "id": "Group_1",
        "population": [ {
          "id": "InitialPopulation_1",
          "code": {
            "coding": [ {
              "system": "http://terminology.hl7.org/CodeSystem/measure-population",
              "code": "initial-population",
              "display": "Initial Population"
            } ]
          },
          "count": 1
        }, {
          "id": "Denominator_1",
          "code": {
            "coding": [ {
              "system": "http://terminology.hl7.org/CodeSystem/measure-population",
              "code": "denominator",
              "display": "Denominator"
            } ]
          },
          "count": 1
        }, {
          "id": "DenominatorExclusion_1",
          "code": {
            "coding": [ {
              "system": "http://terminology.hl7.org/CodeSystem/measure-population",
              "code": "denominator-exclusion",
              "display": "Denominator Exclusion"
            } ]
          },
          "count": 1
        }, {
          "id": "Numerator_1",
          "code": {
            "coding": [ {
              "system": "http://terminology.hl7.org/CodeSystem/measure-population",
              "code": "numerator",
              "display": "Numerator"
            } ]
          },
          "count": 0
        } ],
        "measureScore": {
          "value": 1.0
        }
      } ],
      "evaluatedResource": [ {
        "reference": "Patient/3b62b0a8-44f2-4365-bcb9-7cadef5bab2e"
      }, {
        "reference": "Encounter/0be99746-fa87-4232-849c-3a6986b28dc9"
      }, {
        "reference": "Condition/adb6d4a1-62ce-40ba-800e-56309e297b53"
      }, {
        "reference": "MedicationRequest/b2567b29-d249-4ae3-8626-b59373e9d3a8"
      }, {
        "reference": "Observation/6830ba6c-ae03-41d9-872d-dab46cf7383f"
      } ]
    },
    "request": {
      "method": "PUT",
      "url": "MeasureReport/e85cf7dc-dcfc-4e0b-b68a-4f8ed1b9ddd4"
    }
  } ]
}