{
  "resourceType": "Bundle",
  "id": "6323360e414ba67d4e1d1c35",
  "type": "transaction",
  "entry": [ {
    "fullUrl": "https://madie.cms.gov/Patient/3425eac5-be2b-457f-8db1-cdc0c9f01f5e",
    "resource": {
      "resourceType": "Patient",
      "id": "3425eac5-be2b-457f-8db1-cdc0c9f01f5e",
      "meta": {
        "profile": [ "http://hl7.org/fhir/us/qicore/StructureDefinition/qicore-patient" ]
      },
      "extension": [ {
        "url": "http://hl7.org/fhir/us/core/StructureDefinition/us-core-race",
        "extension": [ {
          "url": "ombCategory",
          "valueCoding": {
            "system": "urn:oid:2.16.840.1.113883.6.238",
            "code": "1002-5",
            "display": "American Indian or Alaska Native",
            "userSelected": true
          }
        }, {
          "url": "text",
          "valueString": "American Indian or Alaska Native"
        } ]
      }, {
        "url": "http://hl7.org/fhir/us/core/StructureDefinition/us-core-ethnicity",
        "extension": [ {
          "url": "ombCategory",
          "valueCoding": {
            "system": "urn:oid:2.16.840.1.113883.6.238",
            "code": "2135-2",
            "display": "Hispanic or Latino",
            "userSelected": true
          }
        }, {
          "url": "text",
          "valueString": "Hispanic or Latino"
        } ]
      } ],
      "identifier": [ {
        "system": "http://hospital.smarthealthit.org",
        "value": "999999999"
      } ],
      "name": [ {
        "family": "DENEXFail",
        "given": [ "ProcedurePalliativeCareAfterEnc" ]
      } ],
      "gender": "male",
      "birthDate": "2006-02-01"
    },
    "request": {
      "method": "PUT",
      "url": "Patient/3425eac5-be2b-457f-8db1-cdc0c9f01f5e"
    }
  }, {
    "fullUrl": "https://madie.cms.gov/Encounter/fb92a6c3-c7b6-498f-9947-1defeda835a2",
    "resource": {
      "resourceType": "Encounter",
      "id": "fb92a6c3-c7b6-498f-9947-1defeda835a2",
      "meta": {
        "profile": [ "http://hl7.org/fhir/us/qicore/StructureDefinition/qicore-encounter" ]
      },
      "status": "finished",
      "class": {
        "system": "http://terminology.hl7.org/CodeSystem/v3-ActCode",
        "code": "IMP",
        "display": "inpatient encounter"
      },
      "type": [ {
        "coding": [ {
          "system": "http://snomed.info/sct",
          "code": "183452005",
          "display": "Emergency hospital admission (procedure)",
          "userSelected": true
        } ]
      } ],
      "subject": {
        "reference": "Patient/3425eac5-be2b-457f-8db1-cdc0c9f01f5e"
      },
      "period": {
        "start": "2026-12-28T23:45:00.000+00:00",
        "end": "2026-12-30T23:59:00.000+00:00"
      }
    },
    "request": {
      "method": "PUT",
      "url": "Encounter/fb92a6c3-c7b6-498f-9947-1defeda835a2"
    }
  }, {
    "fullUrl": "https://madie.cms.gov/MedicationRequest/2575f765-28f4-4347-95bd-ce06389941c8",
    "resource": {
      "resourceType": "MedicationRequest",
      "id": "2575f765-28f4-4347-95bd-ce06389941c8",
      "meta": {
        "profile": [ "http://hl7.org/fhir/us/qicore/StructureDefinition/qicore-medicationrequest" ]
      },
      "status": "active",
      "intent": "order",
      "category": [ {
        "coding": [ {
          "system": "http://terminology.hl7.org/CodeSystem/medicationrequest-category",
          "code": "discharge",
          "display": "Discharge",
          "userSelected": true
        } ]
      } ],
      "doNotPerform": false,
      "medicationCodeableConcept": {
        "coding": [ {
          "system": "http://www.nlm.nih.gov/research/umls/rxnorm",
          "code": "2103192",
          "display": "sufentanil 0.03 MG Sublingual Tablet",
          "userSelected": true
        } ]
      },
      "subject": {
        "reference": "Patient/3425eac5-be2b-457f-8db1-cdc0c9f01f5e"
      },
      "authoredOn": "2026-12-30T23:45:00.000+00:00",
      "requester": {
        "reference": "Practitioner/2d0eb101-d69e-421f-a8a9-3798ef1a2340"
      }
    },
    "request": {
      "method": "PUT",
      "url": "MedicationRequest/2575f765-28f4-4347-95bd-ce06389941c8"
    }
  }, {
    "fullUrl": "https://madie.cms.gov/Practitioner/2d0eb101-d69e-421f-a8a9-3798ef1a2340",
    "resource": {
      "resourceType": "Practitioner",
      "id": "2d0eb101-d69e-421f-a8a9-3798ef1a2340",
      "meta": {
        "profile": [ "http://hl7.org/fhir/us/qicore/StructureDefinition/qicore-practitioner" ]
      },
      "identifier": [ {
        "system": "http://hl7.org/fhir/sid/us-npi",
        "value": "9999999896"
      } ],
      "active": true,
      "name": [ {
        "family": "Ramires",
        "given": [ "Alma" ],
        "prefix": [ "Dr" ]
      } ],
      "address": [ {
        "use": "home",
        "line": [ "534 Erewhon St" ],
        "city": "Netherville",
        "state": "IN",
        "postalCode": "46131"
      } ],
      "qualification": [ {
        "identifier": [ {
          "system": "http://goodhealth.org/prIdentifier",
          "value": "12345"
        } ],
        "code": {
          "coding": [ {
            "system": "http://terminology.hl7.org/CodeSystem/v2-0360|2.7",
            "code": "BS",
            "display": "Bachelor of Science"
          } ],
          "text": "Bachelor of Science"
        },
        "period": {
          "start": "1995"
        },
        "issuer": {
          "display": "Example University"
        }
      } ]
    },
    "request": {
      "method": "PUT",
      "url": "Practitioner/2d0eb101-d69e-421f-a8a9-3798ef1a2340"
    }
  }, {
    "fullUrl": "https://madie.cms.gov/Procedure/5ed8fd17-1374-4d05-8150-defca3841d32",
    "resource": {
      "resourceType": "Procedure",
      "id": "5ed8fd17-1374-4d05-8150-defca3841d32",
      "meta": {
        "profile": [ "http://hl7.org/fhir/us/qicore/StructureDefinition/qicore-procedure" ]
      },
      "extension": [ {
        "url": "http://hl7.org/fhir/us/qicore/StructureDefinition/qicore-recorded",
        "valueDateTime": "2026-12-31T00:00:00.000+00:00"
      } ],
      "status": "completed",
      "code": {
        "coding": [ {
          "system": "http://snomed.info/sct",
          "code": "103735009",
          "display": "Palliative care (regime/therapy)",
          "userSelected": true
        } ]
      },
      "subject": {
        "reference": "Patient/3425eac5-be2b-457f-8db1-cdc0c9f01f5e"
      },
      "performedDateTime": "2026-12-31T00:00:00.000+00:00"
    },
    "request": {
      "method": "PUT",
      "url": "Procedure/5ed8fd17-1374-4d05-8150-defca3841d32"
    }
  }, {
    "fullUrl": "https://madie.cms.gov/Coverage/941ec0b8-24a3-4464-a89b-1de574da6dcf",
    "resource": {
      "resourceType": "Coverage",
      "id": "941ec0b8-24a3-4464-a89b-1de574da6dcf",
      "meta": {
        "profile": [ "http://hl7.org/fhir/us/qicore/StructureDefinition/qicore-coverage" ]
      },
      "status": "active",
      "subscriberId": "523435",
      "beneficiary": {
        "reference": "Patient/3425eac5-be2b-457f-8db1-cdc0c9f01f5e"
      },
      "relationship": {
        "coding": [ {
          "system": "http://terminology.hl7.org/CodeSystem/subscriber-relationship",
          "code": "self"
        } ]
      },
      "payor": [ {
        "reference": "Organization/8ba4bc80-d610-4abd-833f-e946c8fb4271"
      } ]
    },
    "request": {
      "method": "PUT",
      "url": "Coverage/941ec0b8-24a3-4464-a89b-1de574da6dcf"
    }
  }, {
    "fullUrl": "https://madie.cms.gov/Organization/8ba4bc80-d610-4abd-833f-e946c8fb4271",
    "resource": {
      "resourceType": "Organization",
      "id": "8ba4bc80-d610-4abd-833f-e946c8fb4271",
      "meta": {
        "profile": [ "http://hl7.org/fhir/us/qicore/StructureDefinition/qicore-organization" ]
      },
      "identifier": [ {
        "use": "temp",
        "system": "urn:oid:2.16.840.1.113883.4.4",
        "value": "21-3259825"
      } ],
      "active": true,
      "type": [ {
        "coding": [ {
          "system": "http://terminology.hl7.org/CodeSystem/organization-type",
          "code": "pay",
          "display": "Payer"
        } ]
      } ],
      "name": "Blue Cross Blue Shield of Texas",
      "telecom": [ {
        "system": "phone",
        "value": "(+1) 972-766-6900"
      } ],
      "address": [ {
        "use": "billing",
        "type": "postal",
        "line": [ "P.O. Box 660044" ],
        "city": "Dallas",
        "state": "TX",
        "postalCode": "75266-0044",
        "country": "USA"
      } ]
    },
    "request": {
      "method": "PUT",
      "url": "Organization/8ba4bc80-d610-4abd-833f-e946c8fb4271"
    }
  }, {
    "fullUrl": "https://madie.cms.gov/MeasureReport/9718691d-fdc6-4cbd-8993-5eff1befb11c",
    "resource": {
      "resourceType": "MeasureReport",
      "id": "9718691d-fdc6-4cbd-8993-5eff1befb11c",
      "meta": {
        "profile": [ "http://hl7.org/fhir/us/cqfmeasures/StructureDefinition/test-case-cqfm" ]
      },
      "contained": [ {
        "resourceType": "Parameters",
        "id": "41ee066f-1669-4139-a486-5ed24946c737-parameters",
        "parameter": [ {
          "name": "subject",
          "valueString": "3425eac5-be2b-457f-8db1-cdc0c9f01f5e"
        } ]
      } ],
      "extension": [ {
        "url": "http://hl7.org/fhir/StructureDefinition/cqf-inputParameters",
        "valueReference": {
          "reference": "#41ee066f-1669-4139-a486-5ed24946c737-parameters"
        }
      }, {
        "url": "http://hl7.org/fhir/us/cqfmeasures/StructureDefinition/cqfm-testCaseDescription",
        "valueMarkdown": "Encounter 1/28 - 1/30, age 18, palliative care performed 1 min after encounter ended, has one opioid\n\n"
      } ],
      "modifierExtension": [ {
        "url": "http://hl7.org/fhir/us/cqfmeasures/StructureDefinition/cqfm-isTestCase",
        "valueBoolean": true
      } ],
      "status": "complete",
      "type": "individual",
      "measure": "https://madie.cms.gov/Measure/CMS506FHIRSafeUseofOpioids",
      "period": {
        "start": "2026-01-01",
        "end": "2026-12-31"
      },
      "group": [ {
        "id": "Group_1",
        "population": [ {
          "id": "InitialPopulation_1",
          "code": {
            "coding": [ {
              "system": "http://terminology.hl7.org/CodeSystem/measure-population",
              "code": "initial-population",
              "display": "Initial Population"
            } ]
          },
          "count": 1
        }, {
          "id": "Denominator_1",
          "code": {
            "coding": [ {
              "system": "http://terminology.hl7.org/CodeSystem/measure-population",
              "code": "denominator",
              "display": "Denominator"
            } ]
          },
          "count": 1
        }, {
          "id": "DenominatorExclusion_1",
          "code": {
            "coding": [ {
              "system": "http://terminology.hl7.org/CodeSystem/measure-population",
              "code": "denominator-exclusion",
              "display": "Denominator Exclusion"
            } ]
          },
          "count": 0
        }, {
          "id": "Numerator_1",
          "code": {
            "coding": [ {
              "system": "http://terminology.hl7.org/CodeSystem/measure-population",
              "code": "numerator",
              "display": "Numerator"
            } ]
          },
          "count": 0
        } ],
        "measureScore": {
          "value": 0.0
        }
      } ],
      "evaluatedResource": [ {
        "reference": "Patient/3425eac5-be2b-457f-8db1-cdc0c9f01f5e"
      }, {
        "reference": "Encounter/fb92a6c3-c7b6-498f-9947-1defeda835a2"
      }, {
        "reference": "MedicationRequest/2575f765-28f4-4347-95bd-ce06389941c8"
      }, {
        "reference": "Practitioner/2d0eb101-d69e-421f-a8a9-3798ef1a2340"
      }, {
        "reference": "Procedure/5ed8fd17-1374-4d05-8150-defca3841d32"
      }, {
        "reference": "Coverage/941ec0b8-24a3-4464-a89b-1de574da6dcf"
      }, {
        "reference": "Organization/8ba4bc80-d610-4abd-833f-e946c8fb4271"
      } ]
    },
    "request": {
      "method": "PUT",
      "url": "MeasureReport/9718691d-fdc6-4cbd-8993-5eff1befb11c"
    }
  } ]
}