{
  "resourceType": "Bundle",
  "id": "NUMEXPass-2Encounters1Num1Exclusion",
  "type": "transaction",
  "entry": [ {
    "fullUrl": "https://madie.cms.gov/Encounter/4a5380ee-82aa-4167-995b-c2dda317293b",
    "resource": {
      "resourceType": "Encounter",
      "id": "4a5380ee-82aa-4167-995b-c2dda317293b",
      "meta": {
        "profile": [ "http://hl7.org/fhir/us/qicore/StructureDefinition/qicore-encounter" ]
      },
      "status": "finished",
      "class": {
        "system": "http://terminology.hl7.org/CodeSystem/v3-ActCode",
        "code": "IMP",
        "display": "inpatient encounter"
      },
      "type": [ {
        "coding": [ {
          "system": "http://snomed.info/sct",
          "code": "183452005"
        } ]
      } ],
      "subject": {
        "reference": "Patient/fd4ea84b-cd39-4d03-9641-9ca8d10bbe67"
      },
      "period": {
        "start": "2026-12-08T08:00:00.000+00:00",
        "end": "2026-12-12T08:15:00.000+00:00"
      },
      "reasonCode": [ {
        "coding": [ {
          "system": "http://snomed.info/sct",
          "code": "14047009"
        } ]
      }, {
        "coding": [ {
          "system": "http://hl7.org/fhir/sid/icd-10-cm",
          "code": "W01.0XXA"
        } ]
      }, {
        "coding": [ {
          "system": "http://hl7.org/fhir/sid/icd-10-cm",
          "code": "S01.00XA"
        } ]
      } ]
    },
    "request": {
      "method": "PUT",
      "url": "Encounter/4a5380ee-82aa-4167-995b-c2dda317293b"
    }
  }, {
    "fullUrl": "https://madie.cms.gov/Encounter/63961192-e9e4-435f-bbae-79885f08e637",
    "resource": {
      "resourceType": "Encounter",
      "id": "63961192-e9e4-435f-bbae-79885f08e637",
      "meta": {
        "profile": [ "http://hl7.org/fhir/us/qicore/StructureDefinition/qicore-encounter" ]
      },
      "status": "finished",
      "class": {
        "system": "http://terminology.hl7.org/CodeSystem/v3-ActCode",
        "code": "IMP",
        "display": "inpatient encounter"
      },
      "type": [ {
        "coding": [ {
          "system": "http://snomed.info/sct",
          "code": "183452005"
        } ]
      } ],
      "subject": {
        "reference": "Patient/fd4ea84b-cd39-4d03-9641-9ca8d10bbe67"
      },
      "period": {
        "start": "2026-11-09T11:00:00.000+00:00",
        "end": "2026-11-12T08:15:00.000+00:00"
      },
      "reasonCode": [ {
        "coding": [ {
          "system": "http://snomed.info/sct",
          "code": "14047009"
        } ]
      }, {
        "coding": [ {
          "system": "http://hl7.org/fhir/sid/icd-10-cm",
          "code": "M80.00XA"
        } ]
      } ]
    },
    "request": {
      "method": "PUT",
      "url": "Encounter/63961192-e9e4-435f-bbae-79885f08e637"
    }
  }, {
    "fullUrl": "https://madie.cms.gov/Patient/fd4ea84b-cd39-4d03-9641-9ca8d10bbe67",
    "resource": {
      "resourceType": "Patient",
      "id": "fd4ea84b-cd39-4d03-9641-9ca8d10bbe67",
      "meta": {
        "profile": [ "http://hl7.org/fhir/us/qicore/StructureDefinition/qicore-patient" ]
      },
      "extension": [ {
        "url": "http://hl7.org/fhir/us/core/StructureDefinition/us-core-race",
        "extension": [ {
          "url": "ombCategory",
          "valueCoding": {
            "system": "urn:oid:2.16.840.1.113883.6.238",
            "code": "2054-5",
            "display": "Black or African American",
            "userSelected": true
          }
        }, {
          "url": "text",
          "valueString": "Black or African American"
        } ]
      }, {
        "url": "http://hl7.org/fhir/us/core/StructureDefinition/us-core-ethnicity",
        "extension": [ {
          "url": "ombCategory",
          "valueCoding": {
            "system": "urn:oid:2.16.840.1.113883.6.238",
            "code": "2186-5",
            "display": "Not Hispanic or Latino",
            "userSelected": true
          }
        }, {
          "url": "text",
          "valueString": "Not Hispanic or Latino"
        } ]
      } ],
      "identifier": [ {
        "type": {
          "coding": [ {
            "system": "http://terminology.hl7.org/CodeSystem/v2-0203",
            "code": "MR"
          } ]
        },
        "system": "https://bonnie-fhir.healthit.gov/",
        "value": "61152a3b98086b7a79cbd7c1"
      } ],
      "active": true,
      "name": [ {
        "use": "usual",
        "family": "NUMEXPass",
        "given": [ "2Encounters1Num1Exclusion" ]
      } ],
      "gender": "male",
      "birthDate": "1964-12-11"
    },
    "request": {
      "method": "PUT",
      "url": "Patient/fd4ea84b-cd39-4d03-9641-9ca8d10bbe67"
    }
  }, {
    "fullUrl": "https://madie.cms.gov/AdverseEvent/844aa899-ef98-4a9b-b2cb-5c7a33b04d10",
    "resource": {
      "resourceType": "AdverseEvent",
      "id": "844aa899-ef98-4a9b-b2cb-5c7a33b04d10",
      "meta": {
        "profile": [ "http://hl7.org/fhir/us/qicore/StructureDefinition/qicore-adverseevent" ]
      },
      "actuality": "actual",
      "event": {
        "coding": [ {
          "system": "http://hl7.org/fhir/sid/icd-10-cm",
          "code": "W01.0XXA"
        } ]
      },
      "subject": {
        "reference": "Patient/fd4ea84b-cd39-4d03-9641-9ca8d10bbe67"
      },
      "encounter": {
        "reference": "Encounter/4a5380ee-82aa-4167-995b-c2dda317293b"
      },
      "date": "2026-12-09T08:00:00.000+00:00"
    },
    "request": {
      "method": "PUT",
      "url": "AdverseEvent/844aa899-ef98-4a9b-b2cb-5c7a33b04d10"
    }
  }, {
    "fullUrl": "https://madie.cms.gov/AdverseEvent/40aa4af7-00d5-4626-ad3e-e94229e73d26",
    "resource": {
      "resourceType": "AdverseEvent",
      "id": "40aa4af7-00d5-4626-ad3e-e94229e73d26",
      "meta": {
        "profile": [ "http://hl7.org/fhir/us/qicore/StructureDefinition/qicore-adverseevent" ]
      },
      "actuality": "actual",
      "event": {
        "coding": [ {
          "system": "http://snomed.info/sct",
          "code": "14047009"
        } ]
      },
      "subject": {
        "reference": "Patient/fd4ea84b-cd39-4d03-9641-9ca8d10bbe67"
      },
      "encounter": {
        "reference": "Encounter/63961192-e9e4-435f-bbae-79885f08e637"
      },
      "date": "2026-11-09T08:00:00.000+00:00"
    },
    "request": {
      "method": "PUT",
      "url": "AdverseEvent/40aa4af7-00d5-4626-ad3e-e94229e73d26"
    }
  }, {
    "fullUrl": "https://madie.cms.gov/Claim/d6edf634-3d78-4487-ade5-d7b1339feeb1",
    "resource": {
      "resourceType": "Claim",
      "id": "d6edf634-3d78-4487-ade5-d7b1339feeb1",
      "meta": {
        "profile": [ "http://hl7.org/fhir/us/qicore/StructureDefinition/qicore-claim" ]
      },
      "status": "active",
      "type": {
        "coding": [ {
          "system": "http://terminology.hl7.org/CodeSystem/claim-type",
          "code": "professional",
          "display": "Professional"
        } ]
      },
      "use": "claim",
      "patient": {
        "reference": "Patient/fd4ea84b-cd39-4d03-9641-9ca8d10bbe67"
      },
      "created": "2026-11-12",
      "provider": {
        "reference": "Practitioner/008ff679-8a50-4b5f-bddd-e5e49ff2b8a4"
      },
      "priority": {
        "coding": [ {
          "system": "http://terminology.hl7.org/CodeSystem/processpriority",
          "code": "normal"
        } ]
      },
      "diagnosis": [ {
        "sequence": 1,
        "diagnosisCodeableConcept": {
          "coding": [ {
            "system": "http://snomed.info/sct",
            "code": "14047009"
          } ]
        },
        "onAdmission": {
          "coding": [ {
            "system": "https://www.cms.gov/Medicare/Medicare-Fee-for-Service-Payment/HospitalAcqCond/Coding",
            "code": "N"
          } ]
        }
      } ],
      "insurance": [ {
        "sequence": 1,
        "focal": true,
        "coverage": {
          "reference": "Coverage/2678a170-421a-45bc-a02c-889e7f52f7b4"
        }
      } ],
      "item": [ {
        "sequence": 1,
        "diagnosisSequence": [ 1, 2 ],
        "productOrService": {
          "coding": [ {
            "system": "http://terminology.hl7.org/CodeSystem/ex-USCLS",
            "code": "1101"
          } ]
        },
        "encounter": [ {
          "reference": "Encounter/63961192-e9e4-435f-bbae-79885f08e637"
        } ]
      } ]
    },
    "request": {
      "method": "PUT",
      "url": "Claim/d6edf634-3d78-4487-ade5-d7b1339feeb1"
    }
  }, {
    "fullUrl": "https://madie.cms.gov/Claim/962cd9fa-660a-4f26-853f-08dc4c2f7ba7",
    "resource": {
      "resourceType": "Claim",
      "id": "962cd9fa-660a-4f26-853f-08dc4c2f7ba7",
      "meta": {
        "profile": [ "http://hl7.org/fhir/us/qicore/StructureDefinition/qicore-claim" ]
      },
      "status": "active",
      "type": {
        "coding": [ {
          "system": "http://terminology.hl7.org/CodeSystem/claim-type",
          "code": "professional",
          "display": "Professional"
        } ]
      },
      "use": "claim",
      "patient": {
        "reference": "Patient/fd4ea84b-cd39-4d03-9641-9ca8d10bbe67"
      },
      "created": "2026-11-12",
      "provider": {
        "reference": "Practitioner/008ff679-8a50-4b5f-bddd-e5e49ff2b8a4"
      },
      "priority": {
        "coding": [ {
          "system": "http://terminology.hl7.org/CodeSystem/processpriority",
          "code": "normal"
        } ]
      },
      "diagnosis": [ {
        "sequence": 2,
        "diagnosisCodeableConcept": {
          "coding": [ {
            "system": "http://hl7.org/fhir/sid/icd-10-cm",
            "code": "M80.00XA"
          } ]
        },
        "onAdmission": {
          "coding": [ {
            "system": "https://www.cms.gov/Medicare/Medicare-Fee-for-Service-Payment/HospitalAcqCond/Coding",
            "code": "N"
          } ]
        }
      } ],
      "insurance": [ {
        "sequence": 1,
        "focal": true,
        "coverage": {
          "reference": "Coverage/2678a170-421a-45bc-a02c-889e7f52f7b4"
        }
      } ],
      "item": [ {
        "sequence": 1,
        "diagnosisSequence": [ 1, 2 ],
        "productOrService": {
          "coding": [ {
            "system": "http://terminology.hl7.org/CodeSystem/ex-USCLS",
            "code": "1101"
          } ]
        },
        "encounter": [ {
          "reference": "Encounter/63961192-e9e4-435f-bbae-79885f08e637"
        } ]
      } ]
    },
    "request": {
      "method": "PUT",
      "url": "Claim/962cd9fa-660a-4f26-853f-08dc4c2f7ba7"
    }
  }, {
    "fullUrl": "https://madie.cms.gov/Claim/ceaa89fa-9cf1-47ae-b833-9f63a27ad44e",
    "resource": {
      "resourceType": "Claim",
      "id": "ceaa89fa-9cf1-47ae-b833-9f63a27ad44e",
      "meta": {
        "profile": [ "http://hl7.org/fhir/us/qicore/StructureDefinition/qicore-claim" ]
      },
      "status": "active",
      "type": {
        "coding": [ {
          "system": "http://terminology.hl7.org/CodeSystem/claim-type",
          "code": "professional",
          "display": "Professional"
        } ]
      },
      "use": "claim",
      "patient": {
        "reference": "Patient/fd4ea84b-cd39-4d03-9641-9ca8d10bbe67"
      },
      "created": "2026-12-12",
      "provider": {
        "reference": "Practitioner/008ff679-8a50-4b5f-bddd-e5e49ff2b8a4"
      },
      "priority": {
        "coding": [ {
          "system": "http://terminology.hl7.org/CodeSystem/processpriority",
          "code": "normal"
        } ]
      },
      "diagnosis": [ {
        "sequence": 1,
        "diagnosisCodeableConcept": {
          "coding": [ {
            "system": "http://snomed.info/sct",
            "code": "14047009"
          } ]
        },
        "onAdmission": {
          "coding": [ {
            "system": "https://www.cms.gov/Medicare/Medicare-Fee-for-Service-Payment/HospitalAcqCond/Coding",
            "code": "Y"
          } ]
        }
      } ],
      "insurance": [ {
        "sequence": 1,
        "focal": true,
        "coverage": {
          "reference": "Coverage/2678a170-421a-45bc-a02c-889e7f52f7b4"
        }
      } ],
      "item": [ {
        "sequence": 1,
        "diagnosisSequence": [ 1, 2, 3 ],
        "productOrService": {
          "coding": [ {
            "system": "http://terminology.hl7.org/CodeSystem/ex-USCLS",
            "code": "1101"
          } ]
        },
        "encounter": [ {
          "reference": "Encounter/4a5380ee-82aa-4167-995b-c2dda317293b"
        } ]
      } ]
    },
    "request": {
      "method": "PUT",
      "url": "Claim/ceaa89fa-9cf1-47ae-b833-9f63a27ad44e"
    }
  }, {
    "fullUrl": "https://madie.cms.gov/Claim/61ddbd58-ec25-4d2d-8bb8-95c32ace86cd",
    "resource": {
      "resourceType": "Claim",
      "id": "61ddbd58-ec25-4d2d-8bb8-95c32ace86cd",
      "meta": {
        "profile": [ "http://hl7.org/fhir/us/qicore/StructureDefinition/qicore-claim" ]
      },
      "status": "active",
      "type": {
        "coding": [ {
          "system": "http://terminology.hl7.org/CodeSystem/claim-type",
          "code": "professional",
          "display": "Professional"
        } ]
      },
      "use": "claim",
      "patient": {
        "reference": "Patient/fd4ea84b-cd39-4d03-9641-9ca8d10bbe67"
      },
      "created": "2026-12-12",
      "provider": {
        "reference": "Practitioner/008ff679-8a50-4b5f-bddd-e5e49ff2b8a4"
      },
      "priority": {
        "coding": [ {
          "system": "http://terminology.hl7.org/CodeSystem/processpriority",
          "code": "normal"
        } ]
      },
      "diagnosis": [ {
        "sequence": 2,
        "diagnosisCodeableConcept": {
          "coding": [ {
            "system": "http://hl7.org/fhir/sid/icd-10-cm",
            "code": "W01.0XXA"
          } ]
        },
        "onAdmission": {
          "coding": [ {
            "system": "https://www.cms.gov/Medicare/Medicare-Fee-for-Service-Payment/HospitalAcqCond/Coding",
            "code": "N"
          } ]
        }
      } ],
      "insurance": [ {
        "sequence": 1,
        "focal": true,
        "coverage": {
          "reference": "Coverage/2678a170-421a-45bc-a02c-889e7f52f7b4"
        }
      } ],
      "item": [ {
        "sequence": 2,
        "diagnosisSequence": [ 1, 2, 3 ],
        "productOrService": {
          "coding": [ {
            "system": "http://terminology.hl7.org/CodeSystem/ex-USCLS",
            "code": "1101"
          } ]
        },
        "encounter": [ {
          "reference": "Encounter/4a5380ee-82aa-4167-995b-c2dda317293b"
        } ]
      } ]
    },
    "request": {
      "method": "PUT",
      "url": "Claim/61ddbd58-ec25-4d2d-8bb8-95c32ace86cd"
    }
  }, {
    "fullUrl": "https://madie.cms.gov/Claim/19f8ed68-6fb7-4b20-b0e6-3e43820a09e5",
    "resource": {
      "resourceType": "Claim",
      "id": "19f8ed68-6fb7-4b20-b0e6-3e43820a09e5",
      "meta": {
        "profile": [ "http://hl7.org/fhir/us/qicore/StructureDefinition/qicore-claim" ]
      },
      "status": "active",
      "type": {
        "coding": [ {
          "system": "http://terminology.hl7.org/CodeSystem/claim-type",
          "code": "professional",
          "display": "Professional"
        } ]
      },
      "use": "claim",
      "patient": {
        "reference": "Patient/fd4ea84b-cd39-4d03-9641-9ca8d10bbe67"
      },
      "created": "2026-12-12",
      "provider": {
        "reference": "Practitioner/008ff679-8a50-4b5f-bddd-e5e49ff2b8a4"
      },
      "priority": {
        "coding": [ {
          "system": "http://terminology.hl7.org/CodeSystem/processpriority",
          "code": "normal"
        } ]
      },
      "diagnosis": [ {
        "sequence": 3,
        "diagnosisCodeableConcept": {
          "coding": [ {
            "system": "http://hl7.org/fhir/sid/icd-10-cm",
            "code": "S01.00XA"
          } ]
        },
        "onAdmission": {
          "coding": [ {
            "system": "https://www.cms.gov/Medicare/Medicare-Fee-for-Service-Payment/HospitalAcqCond/Coding",
            "code": "N"
          } ]
        }
      } ],
      "insurance": [ {
        "sequence": 1,
        "focal": true,
        "coverage": {
          "reference": "Coverage/2678a170-421a-45bc-a02c-889e7f52f7b4"
        }
      } ],
      "item": [ {
        "sequence": 3,
        "diagnosisSequence": [ 1, 2, 3 ],
        "productOrService": {
          "coding": [ {
            "system": "http://terminology.hl7.org/CodeSystem/ex-USCLS",
            "code": "1101"
          } ]
        },
        "encounter": [ {
          "reference": "Encounter/4a5380ee-82aa-4167-995b-c2dda317293b"
        } ]
      } ]
    },
    "request": {
      "method": "PUT",
      "url": "Claim/19f8ed68-6fb7-4b20-b0e6-3e43820a09e5"
    }
  }, {
    "fullUrl": "https://madie.cms.gov/Practitioner/008ff679-8a50-4b5f-bddd-e5e49ff2b8a4",
    "resource": {
      "resourceType": "Practitioner",
      "id": "008ff679-8a50-4b5f-bddd-e5e49ff2b8a4",
      "identifier": [ {
        "system": "http://www.cms.gov/identifiers/pracitioners",
        "value": "P12345"
      } ],
      "name": [ {
        "use": "official",
        "family": "Smith",
        "given": [ "John" ]
      } ],
      "qualification": [ {
        "identifier": [ {
          "system": "http://hl7.org/fhir/sid/us-npi",
          "value": "1234567890"
        } ],
        "code": {
          "coding": [ {
            "system": "http://terminology.hl7.org/CodeSystem/v2-0203",
            "code": "MD",
            "display": "Medical License number"
          } ]
        }
      } ]
    },
    "request": {
      "method": "PUT",
      "url": "Practitioner/008ff679-8a50-4b5f-bddd-e5e49ff2b8a4"
    }
  }, {
    "fullUrl": "https://madie.cms.gov/Coverage/2678a170-421a-45bc-a02c-889e7f52f7b4",
    "resource": {
      "resourceType": "Coverage",
      "id": "2678a170-421a-45bc-a02c-889e7f52f7b4",
      "status": "active",
      "beneficiary": {
        "reference": "Patient/fd4ea84b-cd39-4d03-9641-9ca8d10bbe67"
      },
      "payor": [ {
        "reference": "Organization/f9858ec4-cea8-43fc-a032-eff222c7d0ad"
      } ]
    },
    "request": {
      "method": "PUT",
      "url": "Coverage/2678a170-421a-45bc-a02c-889e7f52f7b4"
    }
  }, {
    "fullUrl": "https://madie.cms.gov/Organization/f9858ec4-cea8-43fc-a032-eff222c7d0ad",
    "resource": {
      "resourceType": "Organization",
      "id": "f9858ec4-cea8-43fc-a032-eff222c7d0ad",
      "identifier": [ {
        "system": "http://cms.gov/insurance-ids",
        "value": "AET12345"
      } ],
      "type": [ {
        "coding": [ {
          "system": "http://terminology.hl7.org/CodeSystem/organization-type",
          "code": "prov",
          "display": "Healthcare Provider"
        } ]
      } ],
      "name": "Aetna Insurance",
      "telecom": [ {
        "system": "phone",
        "value": "+1-800-123-4567"
      } ],
      "address": [ {
        "line": [ "123 Main Street" ],
        "city": "Cityville",
        "state": "CA",
        "postalCode": "12345",
        "country": "USA"
      } ]
    },
    "request": {
      "method": "PUT",
      "url": "Organization/f9858ec4-cea8-43fc-a032-eff222c7d0ad"
    }
  }, {
    "fullUrl": "https://madie.cms.gov/MeasureReport/bed5a065-8af6-4c78-a165-460571622469",
    "resource": {
      "resourceType": "MeasureReport",
      "id": "bed5a065-8af6-4c78-a165-460571622469",
      "meta": {
        "profile": [ "http://hl7.org/fhir/us/cqfmeasures/StructureDefinition/test-case-cqfm" ]
      },
      "contained": [ {
        "resourceType": "Parameters",
        "id": "88460b3c-2779-4a84-9c4b-9c9736254b28-parameters",
        "parameter": [ {
          "name": "subject",
          "valueString": "fd4ea84b-cd39-4d03-9641-9ca8d10bbe67"
        } ]
      } ],
      "extension": [ {
        "url": "http://hl7.org/fhir/StructureDefinition/cqf-inputParameters",
        "valueReference": {
          "reference": "#88460b3c-2779-4a84-9c4b-9c9736254b28-parameters"
        }
      }, {
        "url": "http://hl7.org/fhir/us/cqfmeasures/StructureDefinition/cqfm-testCaseDescription",
        "valueMarkdown": "Enc 1: Adverse Event Fall in Observation. Injury NPOA. Meets Num. Num MO = 1, Den MO = 4\nEnc 2:  Fall POA. Injury NPOA and adverse event Fall during encounter meets Num.  "
      } ],
      "modifierExtension": [ {
        "url": "http://hl7.org/fhir/us/cqfmeasures/StructureDefinition/cqfm-isTestCase",
        "valueBoolean": true
      } ],
      "status": "complete",
      "type": "individual",
      "measure": "https://madie.cms.gov/Measure/CMS1017FHIRHHFI",
      "period": {
        "start": "2026-01-01",
        "end": "2026-12-31"
      },
      "group": [ {
        "id": "Group_1",
        "population": [ {
          "id": "InitialPopulation_1",
          "code": {
            "coding": [ {
              "system": "http://terminology.hl7.org/CodeSystem/measure-population",
              "code": "initial-population",
              "display": "Initial Population"
            } ]
          },
          "count": 2
        }, {
          "id": "Denominator_1",
          "code": {
            "coding": [ {
              "system": "http://terminology.hl7.org/CodeSystem/measure-population",
              "code": "denominator",
              "display": "Denominator"
            } ]
          },
          "count": 2
        }, {
          "id": "DenominatorExclusion_1",
          "code": {
            "coding": [ {
              "system": "http://terminology.hl7.org/CodeSystem/measure-population",
              "code": "denominator-exclusion",
              "display": "Denominator Exclusion"
            } ]
          },
          "count": 1
        }, {
          "id": "Numerator_1",
          "code": {
            "coding": [ {
              "system": "http://terminology.hl7.org/CodeSystem/measure-population",
              "code": "numerator",
              "display": "Numerator"
            } ]
          },
          "count": 2
        }, {
          "id": "NumeratorExclusion_1",
          "code": {
            "coding": [ {
              "system": "http://terminology.hl7.org/CodeSystem/measure-population",
              "code": "numerator-exclusion",
              "display": "Numerator Exclusion"
            } ]
          },
          "count": 1
        }, {
          "id": "MeasureObservation_1_1_1",
          "code": {
            "coding": [ {
              "system": "http://terminology.hl7.org/CodeSystem/measure-population",
              "code": "measure-observation",
              "display": "Measure Observation"
            } ]
          },
          "count": 4
        }, {
          "id": "MeasureObservation_1_2_1",
          "code": {
            "coding": [ {
              "system": "http://terminology.hl7.org/CodeSystem/measure-population",
              "code": "measure-observation",
              "display": "Measure Observation"
            } ]
          },
          "count": 1
        } ],
        "measureScore": {
          "value": 0.0
        }
      } ],
      "evaluatedResource": [ {
        "reference": "Encounter/4a5380ee-82aa-4167-995b-c2dda317293b"
      }, {
        "reference": "Encounter/63961192-e9e4-435f-bbae-79885f08e637"
      }, {
        "reference": "Patient/fd4ea84b-cd39-4d03-9641-9ca8d10bbe67"
      }, {
        "reference": "AdverseEvent/844aa899-ef98-4a9b-b2cb-5c7a33b04d10"
      }, {
        "reference": "AdverseEvent/40aa4af7-00d5-4626-ad3e-e94229e73d26"
      }, {
        "reference": "Claim/d6edf634-3d78-4487-ade5-d7b1339feeb1"
      }, {
        "reference": "Claim/962cd9fa-660a-4f26-853f-08dc4c2f7ba7"
      }, {
        "reference": "Claim/ceaa89fa-9cf1-47ae-b833-9f63a27ad44e"
      }, {
        "reference": "Claim/61ddbd58-ec25-4d2d-8bb8-95c32ace86cd"
      }, {
        "reference": "Claim/19f8ed68-6fb7-4b20-b0e6-3e43820a09e5"
      }, {
        "reference": "Practitioner/008ff679-8a50-4b5f-bddd-e5e49ff2b8a4"
      }, {
        "reference": "Coverage/2678a170-421a-45bc-a02c-889e7f52f7b4"
      }, {
        "reference": "Organization/f9858ec4-cea8-43fc-a032-eff222c7d0ad"
      } ]
    },
    "request": {
      "method": "PUT",
      "url": "MeasureReport/bed5a065-8af6-4c78-a165-460571622469"
    }
  } ]
}