{
  "resourceType": "Bundle",
  "id": "63530623224f3b053967124d",
  "type": "transaction",
  "entry": [ {
    "fullUrl": "https://madie.cms.gov/Patient/f8c34d1e-dfbb-4459-b7c7-ecf0dc6f7c2f",
    "resource": {
      "resourceType": "Patient",
      "id": "f8c34d1e-dfbb-4459-b7c7-ecf0dc6f7c2f",
      "meta": {
        "profile": [ "http://hl7.org/fhir/us/qicore/StructureDefinition/qicore-patient" ]
      },
      "extension": [ {
        "url": "http://hl7.org/fhir/us/core/StructureDefinition/us-core-race",
        "extension": [ {
          "url": "ombCategory",
          "valueCoding": {
            "system": "urn:oid:2.16.840.1.113883.6.238",
            "code": "1002-5",
            "display": "American Indian or Alaska Native",
            "userSelected": true
          }
        }, {
          "url": "text",
          "valueString": "American Indian or Alaska Native"
        } ]
      }, {
        "url": "http://hl7.org/fhir/us/core/StructureDefinition/us-core-ethnicity",
        "extension": [ {
          "url": "ombCategory",
          "valueCoding": {
            "system": "urn:oid:2.16.840.1.113883.6.238",
            "code": "2135-2",
            "display": "Hispanic or Latino",
            "userSelected": true
          }
        }, {
          "url": "text",
          "valueString": "Hispanic or Latino"
        } ]
      } ],
      "identifier": [ {
        "type": {
          "coding": [ {
            "system": "http://terminology.hl7.org/CodeSystem/v2-0203",
            "code": "MR"
          } ]
        },
        "system": "https://bonnie-fhir.healthit.gov/",
        "value": "63530623224f3b053967124d"
      } ],
      "name": [ {
        "family": "DENOMPass",
        "given": [ "EDD24HrsB4DELRsltDtTime" ]
      } ],
      "gender": "female",
      "birthDate": "2005-02-01"
    },
    "request": {
      "method": "PUT",
      "url": "Patient/f8c34d1e-dfbb-4459-b7c7-ecf0dc6f7c2f"
    }
  }, {
    "fullUrl": "https://madie.cms.gov/Encounter/0145b57a-9167-44ff-b2a8-9218d3d69582",
    "resource": {
      "resourceType": "Encounter",
      "id": "0145b57a-9167-44ff-b2a8-9218d3d69582",
      "meta": {
        "profile": [ "http://hl7.org/fhir/us/qicore/StructureDefinition/qicore-encounter" ]
      },
      "status": "finished",
      "class": {
        "system": "http://terminology.hl7.org/CodeSystem/v3-ActCode",
        "code": "IMP",
        "display": "inpatient encounter"
      },
      "type": [ {
        "coding": [ {
          "system": "http://snomed.info/sct",
          "version": "2022-09",
          "code": "183452005",
          "display": "Emergency hospital admission (procedure)",
          "userSelected": true
        } ]
      } ],
      "subject": {
        "reference": "Patient/f8c34d1e-dfbb-4459-b7c7-ecf0dc6f7c2f"
      },
      "period": {
        "start": "2026-02-01T08:00:00.000+00:00",
        "end": "2026-02-05T08:15:00.000+00:00"
      },
      "reasonCode": [ {
        "coding": [ {
          "system": "http://snomed.info/sct",
          "code": "169826009",
          "display": "Single live birth from singleton pregnancy (finding)"
        } ]
      } ]
    },
    "request": {
      "method": "PUT",
      "url": "Encounter/0145b57a-9167-44ff-b2a8-9218d3d69582"
    }
  }, {
    "fullUrl": "https://madie.cms.gov/Procedure/3d0255d0-3ec6-4e6f-b3ec-e190e00dffe1",
    "resource": {
      "resourceType": "Procedure",
      "id": "3d0255d0-3ec6-4e6f-b3ec-e190e00dffe1",
      "meta": {
        "profile": [ "http://hl7.org/fhir/us/qicore/StructureDefinition/qicore-procedure" ]
      },
      "extension": [ {
        "url": "http://hl7.org/fhir/us/qicore/StructureDefinition/qicore-recorded",
        "valueDateTime": "2014-04-05T13:35:00.000+00:00"
      } ],
      "status": "completed",
      "code": {
        "coding": [ {
          "system": "http://www.cms.gov/Medicare/Coding/ICD10",
          "code": "10D07Z3"
        } ]
      },
      "subject": {
        "reference": "Patient/f8c34d1e-dfbb-4459-b7c7-ecf0dc6f7c2f"
      },
      "performedPeriod": {
        "start": "2026-02-01T08:00:00.000+00:00",
        "end": "2026-02-05T08:15:00.000+00:00"
      }
    },
    "request": {
      "method": "PUT",
      "url": "Procedure/3d0255d0-3ec6-4e6f-b3ec-e190e00dffe1"
    }
  }, {
    "fullUrl": "https://madie.cms.gov/Observation/68a77bf5-c93e-4b77-813d-9b7d100cd5a6",
    "resource": {
      "resourceType": "Observation",
      "id": "68a77bf5-c93e-4b77-813d-9b7d100cd5a6",
      "meta": {
        "profile": [ "http://hl7.org/fhir/us/qicore/StructureDefinition/qicore-simple-observation" ]
      },
      "status": "final",
      "category": [ {
        "coding": [ {
          "system": "http://terminology.hl7.org/CodeSystem/observation-category",
          "code": "exam",
          "display": "exam",
          "userSelected": true
        } ]
      } ],
      "code": {
        "coding": [ {
          "system": "http://loinc.org",
          "code": "93857-1",
          "display": "Date and time of obstetric delivery",
          "userSelected": true
        } ]
      },
      "subject": {
        "reference": "Patient/f8c34d1e-dfbb-4459-b7c7-ecf0dc6f7c2f"
      },
      "effectiveDateTime": "2026-02-01T08:00:00.000+00:00",
      "performer": [ {
        "reference": "Organization/example1",
        "display": "Hendricks Country Hospital"
      } ],
      "valueDateTime": "2026-02-01T08:00:00.000+00:00"
    },
    "request": {
      "method": "PUT",
      "url": "Observation/68a77bf5-c93e-4b77-813d-9b7d100cd5a6"
    }
  }, {
    "fullUrl": "https://madie.cms.gov/Observation/99246ae4-95ea-45f9-a292-080391bb8bb6",
    "resource": {
      "resourceType": "Observation",
      "id": "99246ae4-95ea-45f9-a292-080391bb8bb6",
      "meta": {
        "profile": [ "http://hl7.org/fhir/us/qicore/StructureDefinition/qicore-simple-observation" ]
      },
      "status": "final",
      "category": [ {
        "coding": [ {
          "system": "http://terminology.hl7.org/CodeSystem/observation-category",
          "code": "exam",
          "display": "exam",
          "userSelected": true
        } ]
      } ],
      "code": {
        "coding": [ {
          "system": "http://loinc.org",
          "code": "11778-8",
          "display": "Delivery date Estimated",
          "userSelected": true
        } ]
      },
      "subject": {
        "reference": "Patient/f8c34d1e-dfbb-4459-b7c7-ecf0dc6f7c2f"
      },
      "effectiveDateTime": "2026-01-31T08:00:00.000+00:00",
      "performer": [ {
        "reference": "Organization/example1",
        "display": "Hendricks Country Hospital"
      } ],
      "valueDateTime": "2026-01-31T08:00:00.000+00:00"
    },
    "request": {
      "method": "PUT",
      "url": "Observation/99246ae4-95ea-45f9-a292-080391bb8bb6"
    }
  }, {
    "fullUrl": "https://madie.cms.gov/Coverage/7ca59e86-a0c8-45a7-afa1-5454b3e1a0c2",
    "resource": {
      "resourceType": "Coverage",
      "id": "7ca59e86-a0c8-45a7-afa1-5454b3e1a0c2",
      "meta": {
        "profile": [ "http://hl7.org/fhir/us/qicore/StructureDefinition/qicore-coverage" ]
      },
      "status": "active",
      "subscriberId": "523435",
      "beneficiary": {
        "reference": "Patient/f8c34d1e-dfbb-4459-b7c7-ecf0dc6f7c2f"
      },
      "relationship": {
        "coding": [ {
          "system": "http://terminology.hl7.org/CodeSystem/subscriber-relationship",
          "code": "self"
        } ]
      },
      "payor": [ {
        "reference": "Organization/7170d462-7ef2-4626-ae45-2e292f81709a"
      } ]
    },
    "request": {
      "method": "PUT",
      "url": "Coverage/7ca59e86-a0c8-45a7-afa1-5454b3e1a0c2"
    }
  }, {
    "fullUrl": "https://madie.cms.gov/Organization/7170d462-7ef2-4626-ae45-2e292f81709a",
    "resource": {
      "resourceType": "Organization",
      "id": "7170d462-7ef2-4626-ae45-2e292f81709a",
      "meta": {
        "profile": [ "http://hl7.org/fhir/us/qicore/StructureDefinition/qicore-organization" ]
      },
      "identifier": [ {
        "use": "temp",
        "system": "urn:oid:2.16.840.1.113883.4.4",
        "value": "21-3259825"
      } ],
      "active": true,
      "type": [ {
        "coding": [ {
          "system": "http://terminology.hl7.org/CodeSystem/organization-type",
          "code": "pay",
          "display": "Payer"
        } ]
      } ],
      "name": "Blue Cross Blue Shield of Texas",
      "telecom": [ {
        "system": "phone",
        "value": "(+1) 972-766-6900"
      } ],
      "address": [ {
        "use": "billing",
        "type": "postal",
        "line": [ "P.O. Box 660044" ],
        "city": "Dallas",
        "state": "TX",
        "postalCode": "75266-0044",
        "country": "USA"
      } ]
    },
    "request": {
      "method": "PUT",
      "url": "Organization/7170d462-7ef2-4626-ae45-2e292f81709a"
    }
  }, {
    "fullUrl": "https://madie.cms.gov/Practitioner/83428000-ca04-46bf-ab7c-dd039b03e852",
    "resource": {
      "resourceType": "Practitioner",
      "id": "83428000-ca04-46bf-ab7c-dd039b03e852",
      "meta": {
        "profile": [ "http://hl7.org/fhir/us/qicore/StructureDefinition/qicore-practitioner" ]
      },
      "identifier": [ {
        "system": "http://hl7.org/fhir/sid/us-npi",
        "value": "1234567890"
      } ],
      "name": [ {
        "family": "Evil",
        "prefix": [ "Dr" ]
      } ]
    },
    "request": {
      "method": "PUT",
      "url": "Practitioner/83428000-ca04-46bf-ab7c-dd039b03e852"
    }
  }, {
    "fullUrl": "https://madie.cms.gov/MeasureReport/007d0afd-1945-4e6b-8a4f-9fd67abef115",
    "resource": {
      "resourceType": "MeasureReport",
      "id": "007d0afd-1945-4e6b-8a4f-9fd67abef115",
      "meta": {
        "profile": [ "http://hl7.org/fhir/us/cqfmeasures/StructureDefinition/test-case-cqfm" ]
      },
      "contained": [ {
        "resourceType": "Parameters",
        "id": "a45bfb32-c08a-4aae-bffe-5370f7bc7b35-parameters",
        "parameter": [ {
          "name": "subject",
          "valueString": "f8c34d1e-dfbb-4459-b7c7-ecf0dc6f7c2f"
        } ]
      } ],
      "extension": [ {
        "url": "http://hl7.org/fhir/StructureDefinition/cqf-inputParameters",
        "valueReference": {
          "reference": "#a45bfb32-c08a-4aae-bffe-5370f7bc7b35-parameters"
        }
      }, {
        "url": "http://hl7.org/fhir/us/cqfmeasures/StructureDefinition/cqfm-testCaseDescription",
        "valueMarkdown": "Last assessment Performed, Estimated Delivery Date, Relevant time, 24 hours before Delivery Result Date/Time.  EDD has date/time\n"
      } ],
      "modifierExtension": [ {
        "url": "http://hl7.org/fhir/us/cqfmeasures/StructureDefinition/cqfm-isTestCase",
        "valueBoolean": true
      } ],
      "status": "complete",
      "type": "individual",
      "measure": "https://madie.cms.gov/Measure/CMS1028FHIRPCSevereOBComps",
      "period": {
        "start": "2026-01-01",
        "end": "2026-12-31"
      },
      "group": [ {
        "id": "Group_1",
        "population": [ {
          "id": "InitialPopulation_1",
          "code": {
            "coding": [ {
              "system": "http://terminology.hl7.org/CodeSystem/measure-population",
              "code": "initial-population",
              "display": "Initial Population"
            } ]
          },
          "count": 1
        }, {
          "id": "Denominator_1",
          "code": {
            "coding": [ {
              "system": "http://terminology.hl7.org/CodeSystem/measure-population",
              "code": "denominator",
              "display": "Denominator"
            } ]
          },
          "count": 1
        }, {
          "id": "Numerator_1",
          "code": {
            "coding": [ {
              "system": "http://terminology.hl7.org/CodeSystem/measure-population",
              "code": "numerator",
              "display": "Numerator"
            } ]
          },
          "count": 0
        }, {
          "id": "NumeratorExclusion_1",
          "code": {
            "coding": [ {
              "system": "http://terminology.hl7.org/CodeSystem/measure-population",
              "code": "numerator-exclusion",
              "display": "Numerator Exclusion"
            } ]
          },
          "count": 0
        } ],
        "measureScore": {
          "value": 0.0
        }
      }, {
        "id": "Group_2",
        "population": [ {
          "id": "InitialPopulation_2",
          "code": {
            "coding": [ {
              "system": "http://terminology.hl7.org/CodeSystem/measure-population",
              "code": "initial-population",
              "display": "Initial Population"
            } ]
          },
          "count": 1
        }, {
          "id": "Denominator_2",
          "code": {
            "coding": [ {
              "system": "http://terminology.hl7.org/CodeSystem/measure-population",
              "code": "denominator",
              "display": "Denominator"
            } ]
          },
          "count": 1
        }, {
          "id": "Numerator_2",
          "code": {
            "coding": [ {
              "system": "http://terminology.hl7.org/CodeSystem/measure-population",
              "code": "numerator",
              "display": "Numerator"
            } ]
          },
          "count": 0
        }, {
          "id": "NumeratorExclusion_2",
          "code": {
            "coding": [ {
              "system": "http://terminology.hl7.org/CodeSystem/measure-population",
              "code": "numerator-exclusion",
              "display": "Numerator Exclusion"
            } ]
          },
          "count": 0
        } ],
        "measureScore": {
          "value": 0.0
        }
      } ],
      "evaluatedResource": [ {
        "reference": "Patient/f8c34d1e-dfbb-4459-b7c7-ecf0dc6f7c2f"
      }, {
        "reference": "Encounter/0145b57a-9167-44ff-b2a8-9218d3d69582"
      }, {
        "reference": "Procedure/3d0255d0-3ec6-4e6f-b3ec-e190e00dffe1"
      }, {
        "reference": "Observation/68a77bf5-c93e-4b77-813d-9b7d100cd5a6"
      }, {
        "reference": "Observation/99246ae4-95ea-45f9-a292-080391bb8bb6"
      }, {
        "reference": "Coverage/7ca59e86-a0c8-45a7-afa1-5454b3e1a0c2"
      }, {
        "reference": "Organization/7170d462-7ef2-4626-ae45-2e292f81709a"
      }, {
        "reference": "Practitioner/83428000-ca04-46bf-ab7c-dd039b03e852"
      } ]
    },
    "request": {
      "method": "PUT",
      "url": "MeasureReport/007d0afd-1945-4e6b-8a4f-9fd67abef115"
    }
  } ]
}