{
  "resourceType": "Bundle",
  "id": "657cbdc9b4f1f0343662347a",
  "type": "transaction",
  "entry": [ {
    "fullUrl": "https://madie.cms.gov/Patient/64b3d3fd-3ff2-499e-98b4-1bcc38edb02e",
    "resource": {
      "resourceType": "Patient",
      "id": "64b3d3fd-3ff2-499e-98b4-1bcc38edb02e",
      "meta": {
        "profile": [ "http://hl7.org/fhir/us/qicore/StructureDefinition/qicore-patient" ]
      },
      "extension": [ {
        "url": "http://hl7.org/fhir/us/core/StructureDefinition/us-core-race",
        "extension": [ {
          "url": "ombCategory",
          "valueCoding": {
            "system": "urn:oid:2.16.840.1.113883.6.238",
            "code": "2106-3",
            "display": "White",
            "userSelected": true
          }
        }, {
          "url": "text",
          "valueString": "White"
        } ]
      }, {
        "url": "http://hl7.org/fhir/us/core/StructureDefinition/us-core-ethnicity",
        "extension": [ {
          "url": "ombCategory",
          "valueCoding": {
            "system": "urn:oid:2.16.840.1.113883.6.238",
            "code": "2186-5",
            "display": "Not Hispanic or Latino",
            "userSelected": true
          }
        }, {
          "url": "text",
          "valueString": "Not Hispanic or Latino"
        } ]
      } ],
      "identifier": [ {
        "type": {
          "coding": [ {
            "system": "http://terminology.hl7.org/CodeSystem/v2-0203",
            "code": "MR"
          } ]
        },
        "system": "https://bonnie-fhir.healthit.gov/",
        "value": "657cbdc9b4f1f0343662347a"
      } ],
      "name": [ {
        "family": "ChiefComplaintPass",
        "given": [ "ChiefCompaint" ]
      } ],
      "gender": "female",
      "birthDate": "2008-01-01"
    },
    "request": {
      "method": "PUT",
      "url": "Patient/64b3d3fd-3ff2-499e-98b4-1bcc38edb02e"
    }
  }, {
    "fullUrl": "https://madie.cms.gov/Encounter/d8c380f6-df85-464b-a2fd-8729c606f10e",
    "resource": {
      "resourceType": "Encounter",
      "id": "d8c380f6-df85-464b-a2fd-8729c606f10e",
      "meta": {
        "profile": [ "http://hl7.org/fhir/us/qicore/StructureDefinition/qicore-encounter" ]
      },
      "status": "finished",
      "class": {
        "system": "http://terminology.hl7.org/CodeSystem/v3-ActCode",
        "code": "ACUTE",
        "display": "inpatient acute"
      },
      "type": [ {
        "coding": [ {
          "system": "http://snomed.info/sct",
          "version": "2024",
          "code": "32485007",
          "display": "Hospital admission (procedure)",
          "userSelected": true
        } ]
      } ],
      "subject": {
        "reference": "Patient/64b3d3fd-3ff2-499e-98b4-1bcc38edb02e"
      },
      "period": {
        "start": "2026-01-01T08:00:00.000+00:00",
        "end": "2026-01-02T09:15:00.000+00:00"
      },
      "diagnosis": [ {
        "condition": {
          "reference": "Condition/4e99b2cf-80c9-4ccc-ab20-99df365dc456"
        },
        "use": {
          "coding": [ {
            "system": "http://terminology.hl7.org/CodeSystem/diagnosis-role",
            "code": "CC",
            "display": "Chief complaint"
          } ]
        }
      } ]
    },
    "request": {
      "method": "PUT",
      "url": "Encounter/d8c380f6-df85-464b-a2fd-8729c606f10e"
    }
  }, {
    "fullUrl": "https://madie.cms.gov/Location/b677c33e-c96c-4026-a3aa-e0d785183603",
    "resource": {
      "resourceType": "Location",
      "id": "b677c33e-c96c-4026-a3aa-e0d785183603",
      "meta": {
        "profile": [ "http://hl7.org/fhir/us/qicore/StructureDefinition/qicore-location" ]
      },
      "identifier": [ {
        "use": "usual",
        "system": "http://exampleoflocation.com",
        "value": "B1-S.F2"
      } ],
      "name": "Medical Surgical East, first floor",
      "type": [ {
        "coding": [ {
          "system": "https://www.cdc.gov/nhsn/cdaportal/terminology/codesystem/hsloc.html",
          "code": "1028-0",
          "display": "Medical Cardiac Critical Care",
          "userSelected": true
        } ]
      } ]
    },
    "request": {
      "method": "PUT",
      "url": "Location/b677c33e-c96c-4026-a3aa-e0d785183603"
    }
  }, {
    "fullUrl": "https://madie.cms.gov/MedicationRequest/18706676-0622-45da-8629-e46f0abdb510",
    "resource": {
      "resourceType": "MedicationRequest",
      "id": "18706676-0622-45da-8629-e46f0abdb510",
      "meta": {
        "profile": [ "http://hl7.org/fhir/us/qicore/StructureDefinition/qicore-medicationrequest" ]
      },
      "status": "completed",
      "intent": "order",
      "medicationCodeableConcept": {
        "coding": [ {
          "system": "http://www.nlm.nih.gov/research/umls/rxnorm",
          "version": "06052023",
          "code": "1007184"
        } ]
      },
      "subject": {
        "reference": "Patient/64b3d3fd-3ff2-499e-98b4-1bcc38edb02e"
      },
      "authoredOn": "2026-01-01T08:15:00.000+00:00",
      "requester": {
        "reference": "Practitioner/33d87640-6b2a-40b0-ab11-542478a88d5a"
      },
      "dosageInstruction": [ {
        "timing": {
          "repeat": {
            "boundsPeriod": {
              "start": "2025-01-01T08:15:00.000+00:00"
            }
          }
        }
      } ]
    },
    "request": {
      "method": "PUT",
      "url": "MedicationRequest/18706676-0622-45da-8629-e46f0abdb510"
    }
  }, {
    "fullUrl": "https://madie.cms.gov/Condition/4e99b2cf-80c9-4ccc-ab20-99df365dc456",
    "resource": {
      "resourceType": "Condition",
      "id": "4e99b2cf-80c9-4ccc-ab20-99df365dc456",
      "meta": {
        "profile": [ "http://hl7.org/fhir/us/qicore/StructureDefinition/qicore-condition-problems-health-concerns" ]
      },
      "clinicalStatus": {
        "coding": [ {
          "system": "http://terminology.hl7.org/CodeSystem/condition-clinical",
          "code": "resolved",
          "display": "resolved",
          "userSelected": true
        } ]
      },
      "verificationStatus": {
        "coding": [ {
          "system": "http://terminology.hl7.org/CodeSystem/condition-ver-status",
          "code": "confirmed",
          "display": "confirmed",
          "userSelected": true
        } ]
      },
      "category": [ {
        "coding": [ {
          "system": "http://terminology.hl7.org/CodeSystem/condition-category",
          "code": "problem-list-item",
          "display": "Problem List Item"
        } ]
      } ],
      "code": {
        "coding": [ {
          "system": "http://snomed.info/sct",
          "code": "1001000119102",
          "display": "Pulmonary embolism with pulmonary infarction (disorder)"
        } ]
      },
      "subject": {
        "reference": "Patient/64b3d3fd-3ff2-499e-98b4-1bcc38edb02e"
      },
      "onsetPeriod": {
        "start": "2026-01-01T08:00:00.000+00:00",
        "end": "2026-01-03T08:15:00.000+00:00"
      }
    },
    "request": {
      "method": "PUT",
      "url": "Condition/4e99b2cf-80c9-4ccc-ab20-99df365dc456"
    }
  }, {
    "fullUrl": "https://madie.cms.gov/Coverage/33fafa94-c293-47cf-a7fc-94fd9e7e08fd",
    "resource": {
      "resourceType": "Coverage",
      "id": "33fafa94-c293-47cf-a7fc-94fd9e7e08fd",
      "meta": {
        "profile": [ "http://hl7.org/fhir/us/qicore/StructureDefinition/qicore-coverage" ]
      },
      "identifier": [ {
        "system": "http://benefitsinc.com/certificate",
        "value": "12345"
      } ],
      "status": "active",
      "type": {
        "coding": [ {
          "system": "https://nahdo.org/sopt",
          "version": "1.0.1",
          "code": "1",
          "display": "MEDICARE",
          "userSelected": true
        } ]
      },
      "subscriberId": "AB9876",
      "beneficiary": {
        "reference": "Patient/64b3d3fd-3ff2-499e-98b4-1bcc38edb02e"
      },
      "relationship": {
        "coding": [ {
          "system": "http://terminology.hl7.org/CodeSystem/subscriber-relationship",
          "code": "self"
        } ]
      },
      "payor": [ {
        "reference": "Organization/89e4a836-6568-4909-bfdd-a7126cb8ee08"
      } ]
    },
    "request": {
      "method": "PUT",
      "url": "Coverage/33fafa94-c293-47cf-a7fc-94fd9e7e08fd"
    }
  }, {
    "fullUrl": "https://madie.cms.gov/Organization/89e4a836-6568-4909-bfdd-a7126cb8ee08",
    "resource": {
      "resourceType": "Organization",
      "id": "89e4a836-6568-4909-bfdd-a7126cb8ee08",
      "meta": {
        "profile": [ "http://hl7.org/fhir/us/qicore/StructureDefinition/qicore-organization" ]
      },
      "identifier": [ {
        "use": "temp",
        "system": "urn:oid:2.16.840.1.113883.4.4",
        "value": "21-3259825"
      } ],
      "active": true,
      "type": [ {
        "coding": [ {
          "system": "http://terminology.hl7.org/CodeSystem/organization-type",
          "code": "pay",
          "display": "Payer"
        } ]
      } ],
      "name": "Blue Cross Blue Shield of Texas",
      "telecom": [ {
        "system": "phone",
        "value": "(+1) 972-766-6900"
      } ],
      "address": [ {
        "use": "billing",
        "type": "postal",
        "line": [ "P.O. Box 660044" ],
        "city": "Dallas",
        "state": "TX",
        "postalCode": "75266-0044",
        "country": "USA"
      } ]
    },
    "request": {
      "method": "PUT",
      "url": "Organization/89e4a836-6568-4909-bfdd-a7126cb8ee08"
    }
  }, {
    "fullUrl": "https://madie.cms.gov/Practitioner/1ca3cb33-a4ae-4a9c-ab52-4270e77db1c1",
    "resource": {
      "resourceType": "Practitioner",
      "id": "1ca3cb33-a4ae-4a9c-ab52-4270e77db1c1",
      "meta": {
        "profile": [ "http://hl7.org/fhir/us/qicore/StructureDefinition/qicore-practitioner" ]
      },
      "identifier": [ {
        "system": "http://hl7.org/fhir/sid/us-npi",
        "value": "0723660813"
      } ],
      "name": [ {
        "family": "Evil",
        "prefix": [ "Dr" ]
      } ]
    },
    "request": {
      "method": "PUT",
      "url": "Practitioner/1ca3cb33-a4ae-4a9c-ab52-4270e77db1c1"
    }
  }, {
    "fullUrl": "https://madie.cms.gov/MeasureReport/177bdca6-e177-4ec9-9119-0eac33f6aee1",
    "resource": {
      "resourceType": "MeasureReport",
      "id": "177bdca6-e177-4ec9-9119-0eac33f6aee1",
      "meta": {
        "profile": [ "http://hl7.org/fhir/us/cqfmeasures/StructureDefinition/test-case-cqfm" ]
      },
      "contained": [ {
        "resourceType": "Parameters",
        "id": "5eea9c75-1651-4e77-b0aa-dbb9456c228f-parameters",
        "parameter": [ {
          "name": "subject",
          "valueString": "64b3d3fd-3ff2-499e-98b4-1bcc38edb02e"
        } ]
      } ],
      "extension": [ {
        "url": "http://hl7.org/fhir/StructureDefinition/cqf-inputParameters",
        "valueReference": {
          "reference": "#5eea9c75-1651-4e77-b0aa-dbb9456c228f-parameters"
        }
      }, {
        "url": "http://hl7.org/fhir/us/cqfmeasures/StructureDefinition/cqfm-testCaseDescription",
        "valueMarkdown": "Inpatient encounter with diabetic medication during MP with SDE chief complaint"
      } ],
      "modifierExtension": [ {
        "url": "http://hl7.org/fhir/us/cqfmeasures/StructureDefinition/cqfm-isTestCase",
        "valueBoolean": true
      } ],
      "status": "complete",
      "type": "individual",
      "measure": "https://madie.cms.gov/Measure/NHSNGlycemicControlHypoglycemiaInitialPopulation",
      "period": {
        "start": "2026-01-01",
        "end": "2026-12-31"
      },
      "group": [ {
        "id": "Group_1",
        "population": [ {
          "id": "InitialPopulation_1",
          "code": {
            "coding": [ {
              "system": "http://terminology.hl7.org/CodeSystem/measure-population",
              "code": "initial-population",
              "display": "Initial Population"
            } ]
          },
          "count": 1
        } ],
        "measureScore": {
          "value": 0.0
        }
      } ],
      "evaluatedResource": [ {
        "reference": "Patient/64b3d3fd-3ff2-499e-98b4-1bcc38edb02e"
      }, {
        "reference": "Encounter/d8c380f6-df85-464b-a2fd-8729c606f10e"
      }, {
        "reference": "Location/b677c33e-c96c-4026-a3aa-e0d785183603"
      }, {
        "reference": "MedicationRequest/18706676-0622-45da-8629-e46f0abdb510"
      }, {
        "reference": "Condition/4e99b2cf-80c9-4ccc-ab20-99df365dc456"
      }, {
        "reference": "Coverage/33fafa94-c293-47cf-a7fc-94fd9e7e08fd"
      }, {
        "reference": "Organization/89e4a836-6568-4909-bfdd-a7126cb8ee08"
      }, {
        "reference": "Practitioner/1ca3cb33-a4ae-4a9c-ab52-4270e77db1c1"
      } ]
    },
    "request": {
      "method": "PUT",
      "url": "MeasureReport/177bdca6-e177-4ec9-9119-0eac33f6aee1"
    }
  } ]
}