{
  "resourceType": "Bundle",
  "id": "62c880eb0111a60120dc21eb",
  "type": "transaction",
  "entry": [ {
    "fullUrl": "https://madie.cms.gov/Patient/b0729673-76ed-4c08-ae06-acd214ad203d",
    "resource": {
      "resourceType": "Patient",
      "id": "b0729673-76ed-4c08-ae06-acd214ad203d",
      "meta": {
        "profile": [ "http://hl7.org/fhir/us/qicore/StructureDefinition/qicore-patient" ]
      },
      "extension": [ {
        "url": "http://hl7.org/fhir/us/core/StructureDefinition/us-core-race",
        "extension": [ {
          "url": "ombCategory",
          "valueCoding": {
            "system": "urn:oid:2.16.840.1.113883.6.238",
            "code": "1002-5",
            "display": "American Indian or Alaska Native"
          }
        }, {
          "url": "text",
          "valueString": "American Indian or Alaska Native"
        } ]
      }, {
        "url": "http://hl7.org/fhir/us/core/StructureDefinition/us-core-ethnicity",
        "extension": [ {
          "url": "ombCategory",
          "valueCoding": {
            "system": "urn:oid:2.16.840.1.113883.6.238",
            "code": "2135-2",
            "display": "Hispanic or Latino"
          }
        }, {
          "url": "text",
          "valueString": "Hispanic or Latino"
        } ]
      } ],
      "identifier": [ {
        "type": {
          "coding": [ {
            "system": "http://terminology.hl7.org/CodeSystem/v2-0203",
            "code": "MR"
          } ]
        },
        "system": "https://bonnie-fhir.healthit.gov/",
        "value": "62c880eb0111a60120dc21eb"
      } ],
      "active": true,
      "name": [ {
        "use": "usual",
        "family": "NUMERPassPop1",
        "given": [ "PainAssessDuringEnc" ]
      } ],
      "gender": "female",
      "birthDate": "1971-02-18"
    },
    "request": {
      "method": "PUT",
      "url": "Patient/b0729673-76ed-4c08-ae06-acd214ad203d"
    }
  }, {
    "fullUrl": "https://madie.cms.gov/Condition/6ebc64ba-4643-4822-8e4e-e741e4c547d4",
    "resource": {
      "resourceType": "Condition",
      "id": "6ebc64ba-4643-4822-8e4e-e741e4c547d4",
      "meta": {
        "profile": [ "http://hl7.org/fhir/us/qicore/StructureDefinition/qicore-condition-problems-health-concerns" ]
      },
      "clinicalStatus": {
        "coding": [ {
          "system": "http://terminology.hl7.org/CodeSystem/condition-clinical",
          "code": "active",
          "display": "active"
        } ]
      },
      "verificationStatus": {
        "coding": [ {
          "system": "http://terminology.hl7.org/CodeSystem/condition-ver-status",
          "code": "confirmed",
          "display": "Confirmed"
        } ]
      },
      "category": [ {
        "coding": [ {
          "system": "http://terminology.hl7.org/CodeSystem/condition-category",
          "code": "problem-list-item",
          "display": "Problem List Item"
        } ]
      } ],
      "code": {
        "coding": [ {
          "system": "http://snomed.info/sct",
          "code": "107691000119101"
        }, {
          "system": "http://hl7.org/fhir/sid/icd-10-cm",
          "code": "C48.0"
        } ]
      },
      "subject": {
        "reference": "Patient/b0729673-76ed-4c08-ae06-acd214ad203d"
      },
      "onsetDateTime": "2024-11-01T08:00:00.000+00:00"
    },
    "request": {
      "method": "PUT",
      "url": "Condition/6ebc64ba-4643-4822-8e4e-e741e4c547d4"
    }
  }, {
    "fullUrl": "https://madie.cms.gov/Encounter/62de2948-31a6-4b84-a9fb-553fcc154619",
    "resource": {
      "resourceType": "Encounter",
      "id": "62de2948-31a6-4b84-a9fb-553fcc154619",
      "meta": {
        "profile": [ "http://hl7.org/fhir/us/qicore/StructureDefinition/qicore-encounter" ]
      },
      "status": "finished",
      "class": {
        "system": "http://terminology.hl7.org/CodeSystem/v3-ActCode",
        "code": "AMB",
        "display": "ambulatory",
        "userSelected": true
      },
      "type": [ {
        "coding": [ {
          "system": "http://snomed.info/sct",
          "code": "185463005"
        } ]
      } ],
      "subject": {
        "reference": "Patient/b0729673-76ed-4c08-ae06-acd214ad203d"
      },
      "period": {
        "start": "2026-01-30T08:00:00.000+00:00",
        "end": "2026-01-30T08:15:00.000+00:00"
      }
    },
    "request": {
      "method": "PUT",
      "url": "Encounter/62de2948-31a6-4b84-a9fb-553fcc154619"
    }
  }, {
    "fullUrl": "https://madie.cms.gov/Encounter/a1ffc91f-f955-43e8-8bed-f6e03a81d385",
    "resource": {
      "resourceType": "Encounter",
      "id": "a1ffc91f-f955-43e8-8bed-f6e03a81d385",
      "meta": {
        "profile": [ "http://hl7.org/fhir/us/qicore/StructureDefinition/qicore-encounter" ]
      },
      "status": "finished",
      "class": {
        "system": "http://terminology.hl7.org/CodeSystem/v3-ActCode",
        "code": "AMB",
        "display": "ambulatory",
        "userSelected": true
      },
      "type": [ {
        "coding": [ {
          "system": "http://snomed.info/sct",
          "code": "185463005"
        } ]
      } ],
      "subject": {
        "reference": "Patient/b0729673-76ed-4c08-ae06-acd214ad203d"
      },
      "period": {
        "start": "2026-03-03T13:30:00.000+00:00",
        "end": "2026-03-03T14:30:00.000+00:00"
      }
    },
    "request": {
      "method": "PUT",
      "url": "Encounter/a1ffc91f-f955-43e8-8bed-f6e03a81d385"
    }
  }, {
    "fullUrl": "https://madie.cms.gov/Encounter/411ce1ac-62f0-4a2b-9fa6-03dd4ebb3f10",
    "resource": {
      "resourceType": "Encounter",
      "id": "411ce1ac-62f0-4a2b-9fa6-03dd4ebb3f10",
      "meta": {
        "profile": [ "http://hl7.org/fhir/us/qicore/StructureDefinition/qicore-encounter" ]
      },
      "status": "finished",
      "class": {
        "system": "http://terminology.hl7.org/CodeSystem/v3-ActCode",
        "code": "AMB",
        "display": "ambulatory",
        "userSelected": true
      },
      "type": [ {
        "coding": [ {
          "system": "http://snomed.info/sct",
          "code": "185463005"
        } ]
      } ],
      "subject": {
        "reference": "Patient/b0729673-76ed-4c08-ae06-acd214ad203d"
      },
      "period": {
        "start": "2026-05-30T08:00:00.000+00:00",
        "end": "2026-05-30T08:15:00.000+00:00"
      }
    },
    "request": {
      "method": "PUT",
      "url": "Encounter/411ce1ac-62f0-4a2b-9fa6-03dd4ebb3f10"
    }
  }, {
    "fullUrl": "https://madie.cms.gov/Encounter/90c6ee2d-7fe9-4590-85c8-cb818c336d3e",
    "resource": {
      "resourceType": "Encounter",
      "id": "90c6ee2d-7fe9-4590-85c8-cb818c336d3e",
      "meta": {
        "profile": [ "http://hl7.org/fhir/us/qicore/StructureDefinition/qicore-encounter" ]
      },
      "status": "finished",
      "class": {
        "system": "http://terminology.hl7.org/CodeSystem/v3-ActCode",
        "code": "AMB",
        "display": "ambulatory",
        "userSelected": true
      },
      "type": [ {
        "coding": [ {
          "system": "http://snomed.info/sct",
          "code": "185463005"
        } ]
      } ],
      "subject": {
        "reference": "Patient/b0729673-76ed-4c08-ae06-acd214ad203d"
      },
      "period": {
        "start": "2026-07-03T08:00:00.000+00:00",
        "end": "2026-07-03T08:15:00.000+00:00"
      }
    },
    "request": {
      "method": "PUT",
      "url": "Encounter/90c6ee2d-7fe9-4590-85c8-cb818c336d3e"
    }
  }, {
    "fullUrl": "https://madie.cms.gov/Coverage/e3195c8e-a47e-4497-9b65-db33129a60de",
    "resource": {
      "resourceType": "Coverage",
      "id": "e3195c8e-a47e-4497-9b65-db33129a60de",
      "meta": {
        "profile": [ "http://hl7.org/fhir/us/qicore/StructureDefinition/qicore-coverage" ]
      },
      "status": "active",
      "beneficiary": {
        "reference": "Patient/b0729673-76ed-4c08-ae06-acd214ad203d"
      },
      "period": {
        "start": "1971-02-18T08:00:00.000+00:00"
      },
      "payor": [ {
        "reference": "Organization/749ad38b-1f27-4486-ae54-4a4b0a71e6d5"
      } ]
    },
    "request": {
      "method": "PUT",
      "url": "Coverage/e3195c8e-a47e-4497-9b65-db33129a60de"
    }
  }, {
    "fullUrl": "https://madie.cms.gov/Procedure/c815b225-2e1d-405f-b1c6-f4dacb203e91",
    "resource": {
      "resourceType": "Procedure",
      "id": "c815b225-2e1d-405f-b1c6-f4dacb203e91",
      "meta": {
        "profile": [ "http://hl7.org/fhir/us/qicore/StructureDefinition/qicore-procedure" ]
      },
      "extension": [ {
        "url": "http://hl7.org/fhir/us/qicore/StructureDefinition/qicore-recorded",
        "valueDateTime": "2026-02-27T12:35:00.000+00:00"
      } ],
      "status": "completed",
      "code": {
        "coding": [ {
          "system": "http://snomed.info/sct",
          "code": "169396008"
        } ]
      },
      "subject": {
        "reference": "Patient/b0729673-76ed-4c08-ae06-acd214ad203d"
      },
      "performedPeriod": {
        "start": "2026-02-27T08:00:00.000+00:00",
        "end": "2026-02-27T08:15:00.000+00:00"
      }
    },
    "request": {
      "method": "PUT",
      "url": "Procedure/c815b225-2e1d-405f-b1c6-f4dacb203e91"
    }
  }, {
    "fullUrl": "https://madie.cms.gov/Procedure/ecb673a0-61e5-4db8-b644-f2b07fba8e56",
    "resource": {
      "resourceType": "Procedure",
      "id": "ecb673a0-61e5-4db8-b644-f2b07fba8e56",
      "meta": {
        "profile": [ "http://hl7.org/fhir/us/qicore/StructureDefinition/qicore-procedure" ]
      },
      "extension": [ {
        "url": "http://hl7.org/fhir/us/qicore/StructureDefinition/qicore-recorded",
        "valueDateTime": "2026-04-01T12:35:00.000+00:00"
      } ],
      "status": "completed",
      "code": {
        "coding": [ {
          "system": "http://snomed.info/sct",
          "code": "169396008"
        } ]
      },
      "subject": {
        "reference": "Patient/b0729673-76ed-4c08-ae06-acd214ad203d"
      },
      "performedPeriod": {
        "start": "2026-04-01T08:00:00.000+00:00",
        "end": "2026-04-01T08:15:00.000+00:00"
      }
    },
    "request": {
      "method": "PUT",
      "url": "Procedure/ecb673a0-61e5-4db8-b644-f2b07fba8e56"
    }
  }, {
    "fullUrl": "https://madie.cms.gov/Procedure/213fe0ab-0ae1-43c2-b9b8-60440277df4d",
    "resource": {
      "resourceType": "Procedure",
      "id": "213fe0ab-0ae1-43c2-b9b8-60440277df4d",
      "meta": {
        "profile": [ "http://hl7.org/fhir/us/qicore/StructureDefinition/qicore-procedure" ]
      },
      "extension": [ {
        "url": "http://hl7.org/fhir/us/qicore/StructureDefinition/qicore-recorded",
        "valueDateTime": "2026-06-04T12:35:00.000+00:00"
      } ],
      "status": "completed",
      "code": {
        "coding": [ {
          "system": "http://snomed.info/sct",
          "code": "169396008"
        } ]
      },
      "subject": {
        "reference": "Patient/b0729673-76ed-4c08-ae06-acd214ad203d"
      },
      "performedPeriod": {
        "start": "2026-06-04T08:00:00.000+00:00",
        "end": "2026-06-04T08:15:00.000+00:00"
      }
    },
    "request": {
      "method": "PUT",
      "url": "Procedure/213fe0ab-0ae1-43c2-b9b8-60440277df4d"
    }
  }, {
    "fullUrl": "https://madie.cms.gov/Observation/d150f915-6a0a-4881-85bb-90a1346ba768",
    "resource": {
      "resourceType": "Observation",
      "id": "d150f915-6a0a-4881-85bb-90a1346ba768",
      "meta": {
        "profile": [ "http://hl7.org/fhir/us/qicore/StructureDefinition/qicore-observation-screening-assessment" ]
      },
      "status": "final",
      "category": [ {
        "coding": [ {
          "system": "http://terminology.hl7.org/CodeSystem/observation-category",
          "code": "survey",
          "display": "Survey"
        } ],
        "text": "Survey"
      } ],
      "code": {
        "coding": [ {
          "system": "http://loinc.org",
          "code": "38208-5",
          "display": "Pain severity - Reported"
        } ],
        "text": "Pain severity - Reported"
      },
      "subject": {
        "reference": "Patient/b0729673-76ed-4c08-ae06-acd214ad203d"
      },
      "effectiveDateTime": "2026-03-03T14:00:00.000+00:00",
      "valueInteger": 10
    },
    "request": {
      "method": "PUT",
      "url": "Observation/d150f915-6a0a-4881-85bb-90a1346ba768"
    }
  }, {
    "fullUrl": "https://madie.cms.gov/Observation/acf4fa0e-ab51-459b-87c8-58e12313bc22",
    "resource": {
      "resourceType": "Observation",
      "id": "acf4fa0e-ab51-459b-87c8-58e12313bc22",
      "meta": {
        "profile": [ "http://hl7.org/fhir/us/qicore/StructureDefinition/qicore-observation-screening-assessment" ]
      },
      "status": "final",
      "category": [ {
        "coding": [ {
          "system": "http://terminology.hl7.org/CodeSystem/observation-category",
          "code": "survey",
          "display": "Survey"
        } ],
        "text": "Survey"
      } ],
      "code": {
        "coding": [ {
          "system": "http://loinc.org",
          "code": "38208-5",
          "display": "Pain severity - Reported"
        } ],
        "text": "Pain severity - Reported"
      },
      "subject": {
        "reference": "Patient/b0729673-76ed-4c08-ae06-acd214ad203d"
      },
      "effectiveDateTime": "2026-05-22T08:00:00.000+00:00"
    },
    "request": {
      "method": "PUT",
      "url": "Observation/acf4fa0e-ab51-459b-87c8-58e12313bc22"
    }
  }, {
    "fullUrl": "https://madie.cms.gov/Observation/0c724af4-0252-4c32-a2af-2d57870f4aad",
    "resource": {
      "resourceType": "Observation",
      "id": "0c724af4-0252-4c32-a2af-2d57870f4aad",
      "meta": {
        "profile": [ "http://hl7.org/fhir/us/qicore/StructureDefinition/qicore-observation-screening-assessment" ]
      },
      "status": "final",
      "category": [ {
        "coding": [ {
          "system": "http://terminology.hl7.org/CodeSystem/observation-category",
          "code": "survey",
          "display": "Survey"
        } ],
        "text": "Survey"
      } ],
      "code": {
        "coding": [ {
          "system": "http://loinc.org",
          "code": "38208-5",
          "display": "Pain severity - Reported"
        } ],
        "text": "Pain severity - Reported"
      },
      "subject": {
        "reference": "Patient/b0729673-76ed-4c08-ae06-acd214ad203d"
      },
      "effectiveDateTime": "2026-06-01T11:30:00.000+00:00"
    },
    "request": {
      "method": "PUT",
      "url": "Observation/0c724af4-0252-4c32-a2af-2d57870f4aad"
    }
  }, {
    "fullUrl": "https://madie.cms.gov/Organization/749ad38b-1f27-4486-ae54-4a4b0a71e6d5",
    "resource": {
      "resourceType": "Organization",
      "id": "749ad38b-1f27-4486-ae54-4a4b0a71e6d5",
      "meta": {
        "profile": [ "http://hl7.org/fhir/us/qicore/StructureDefinition/qicore-organization" ]
      },
      "identifier": [ {
        "use": "temp",
        "system": "urn:oid:2.16.840.1.113883.4.4",
        "value": "21-3259825"
      } ],
      "active": true,
      "type": [ {
        "coding": [ {
          "system": "http://terminology.hl7.org/CodeSystem/organization-type",
          "code": "pay",
          "display": "Payer"
        } ]
      } ],
      "name": "Blue Cross Blue Shield of Texas",
      "telecom": [ {
        "system": "phone",
        "value": "(+1) 972-766-6900"
      } ],
      "address": [ {
        "use": "billing",
        "type": "postal",
        "line": [ "P.O. Box 660044" ],
        "city": "Dallas",
        "state": "TX",
        "postalCode": "75266-0044",
        "country": "USA"
      } ]
    },
    "request": {
      "method": "PUT",
      "url": "Organization/749ad38b-1f27-4486-ae54-4a4b0a71e6d5"
    }
  }, {
    "fullUrl": "https://madie.cms.gov/MeasureReport/b0929e75-4f2d-429f-9116-a0cd9d184232",
    "resource": {
      "resourceType": "MeasureReport",
      "id": "b0929e75-4f2d-429f-9116-a0cd9d184232",
      "meta": {
        "profile": [ "http://hl7.org/fhir/us/cqfmeasures/StructureDefinition/test-case-cqfm" ]
      },
      "contained": [ {
        "resourceType": "Parameters",
        "id": "7eb71b8f-e93b-47eb-9a4f-b9ce3b5164c4-parameters",
        "parameter": [ {
          "name": "subject",
          "valueString": "b0729673-76ed-4c08-ae06-acd214ad203d"
        } ]
      } ],
      "extension": [ {
        "url": "http://hl7.org/fhir/StructureDefinition/cqf-inputParameters",
        "valueReference": {
          "reference": "#7eb71b8f-e93b-47eb-9a4f-b9ce3b5164c4-parameters"
        }
      }, {
        "url": "http://hl7.org/fhir/us/cqfmeasures/StructureDefinition/cqfm-testCaseDescription",
        "valueMarkdown": "Patient with cancer diagnosis overlaps the office visits during measurement period. Chemotherapy administered, and pain intensity assessment was performed during an office visit.   \n\n"
      } ],
      "modifierExtension": [ {
        "url": "http://hl7.org/fhir/us/cqfmeasures/StructureDefinition/cqfm-isTestCase",
        "valueBoolean": true
      } ],
      "status": "complete",
      "type": "individual",
      "measure": "https://madie.cms.gov/Measure/CMS157FHIRPainIntensityQuantified",
      "period": {
        "start": "2026-01-01",
        "end": "2026-12-31"
      },
      "group": [ {
        "id": "Group_1",
        "population": [ {
          "id": "InitialPopulation_1",
          "code": {
            "coding": [ {
              "system": "http://terminology.hl7.org/CodeSystem/measure-population",
              "code": "initial-population",
              "display": "Initial Population"
            } ]
          },
          "count": 1
        }, {
          "id": "Denominator_1",
          "code": {
            "coding": [ {
              "system": "http://terminology.hl7.org/CodeSystem/measure-population",
              "code": "denominator",
              "display": "Denominator"
            } ]
          },
          "count": 1
        }, {
          "id": "Numerator_1",
          "code": {
            "coding": [ {
              "system": "http://terminology.hl7.org/CodeSystem/measure-population",
              "code": "numerator",
              "display": "Numerator"
            } ]
          },
          "count": 1
        } ],
        "measureScore": {
          "value": 0.0
        }
      }, {
        "id": "Group_2",
        "population": [ {
          "id": "InitialPopulation_2",
          "code": {
            "coding": [ {
              "system": "http://terminology.hl7.org/CodeSystem/measure-population",
              "code": "initial-population",
              "display": "Initial Population"
            } ]
          },
          "count": 0
        }, {
          "id": "Denominator_2",
          "code": {
            "coding": [ {
              "system": "http://terminology.hl7.org/CodeSystem/measure-population",
              "code": "denominator",
              "display": "Denominator"
            } ]
          },
          "count": 0
        }, {
          "id": "Numerator_2",
          "code": {
            "coding": [ {
              "system": "http://terminology.hl7.org/CodeSystem/measure-population",
              "code": "numerator",
              "display": "Numerator"
            } ]
          },
          "count": 0
        } ],
        "measureScore": {
          "value": 0.0
        }
      } ],
      "evaluatedResource": [ {
        "reference": "Patient/b0729673-76ed-4c08-ae06-acd214ad203d"
      }, {
        "reference": "Condition/6ebc64ba-4643-4822-8e4e-e741e4c547d4"
      }, {
        "reference": "Encounter/62de2948-31a6-4b84-a9fb-553fcc154619"
      }, {
        "reference": "Encounter/a1ffc91f-f955-43e8-8bed-f6e03a81d385"
      }, {
        "reference": "Encounter/411ce1ac-62f0-4a2b-9fa6-03dd4ebb3f10"
      }, {
        "reference": "Encounter/90c6ee2d-7fe9-4590-85c8-cb818c336d3e"
      }, {
        "reference": "Coverage/e3195c8e-a47e-4497-9b65-db33129a60de"
      }, {
        "reference": "Procedure/c815b225-2e1d-405f-b1c6-f4dacb203e91"
      }, {
        "reference": "Procedure/ecb673a0-61e5-4db8-b644-f2b07fba8e56"
      }, {
        "reference": "Procedure/213fe0ab-0ae1-43c2-b9b8-60440277df4d"
      }, {
        "reference": "Observation/d150f915-6a0a-4881-85bb-90a1346ba768"
      }, {
        "reference": "Observation/acf4fa0e-ab51-459b-87c8-58e12313bc22"
      }, {
        "reference": "Observation/0c724af4-0252-4c32-a2af-2d57870f4aad"
      }, {
        "reference": "Organization/749ad38b-1f27-4486-ae54-4a4b0a71e6d5"
      } ]
    },
    "request": {
      "method": "PUT",
      "url": "MeasureReport/b0929e75-4f2d-429f-9116-a0cd9d184232"
    }
  } ]
}