{
  "resourceType": "Bundle",
  "id": "612e6b2002c62a011f2ec907",
  "type": "transaction",
  "entry": [ {
    "fullUrl": "https://madie.cms.gov/Patient/1f59fbfd-286a-4d4e-bd11-17769e86e872",
    "resource": {
      "resourceType": "Patient",
      "id": "1f59fbfd-286a-4d4e-bd11-17769e86e872",
      "meta": {
        "profile": [ "http://hl7.org/fhir/us/qicore/StructureDefinition/qicore-patient" ]
      },
      "text": {
        "status": "generated",
        "div": "<div xmlns=\"http://www.w3.org/1999/xhtml\"><div class=\"hapiHeaderText\">CMPerfRvltStartNULLEndDayAfAdm <b>DENEXFAIL </b></div><table class=\"hapiPropertyTable\"><tbody><tr><td>Identifier</td><td>8e120c670e34f79f329b985203cc966e</td></tr><tr><td>Date of birth</td><td><span>02 January 1974</span></td></tr></tbody></table></div>"
      },
      "extension": [ {
        "url": "http://hl7.org/fhir/us/core/StructureDefinition/us-core-race",
        "extension": [ {
          "url": "ombCategory",
          "valueCoding": {
            "system": "urn:oid:2.16.840.1.113883.6.238",
            "code": "1002-5",
            "display": "American Indian or Alaska Native",
            "userSelected": true
          }
        }, {
          "url": "text",
          "valueString": "American Indian or Alaska Native"
        } ]
      }, {
        "url": "http://hl7.org/fhir/us/core/StructureDefinition/us-core-ethnicity",
        "extension": [ {
          "url": "ombCategory",
          "valueCoding": {
            "system": "urn:oid:2.16.840.1.113883.6.238",
            "code": "2135-2",
            "display": "Hispanic or Latino",
            "userSelected": true
          }
        }, {
          "url": "text",
          "valueString": "Hispanic or Latino"
        } ]
      } ],
      "identifier": [ {
        "type": {
          "coding": [ {
            "system": "http://terminology.hl7.org/CodeSystem/v2-0203",
            "code": "MR"
          } ]
        },
        "system": "https://bonnie-fhir.healthit.gov/",
        "value": "612e6b2002c62a011f2ec907"
      } ],
      "active": true,
      "name": [ {
        "use": "usual",
        "family": "DENEXFail",
        "given": [ "CMPerfRvltStartNULLEndDayAfAdm" ]
      } ],
      "gender": "male",
      "birthDate": "1975-01-02"
    },
    "request": {
      "method": "PUT",
      "url": "Patient/1f59fbfd-286a-4d4e-bd11-17769e86e872"
    }
  }, {
    "fullUrl": "https://madie.cms.gov/Encounter/ccf1ab89-c714-4824-a1a0-92b7aa3865e8",
    "resource": {
      "resourceType": "Encounter",
      "id": "ccf1ab89-c714-4824-a1a0-92b7aa3865e8",
      "meta": {
        "profile": [ "http://hl7.org/fhir/us/qicore/StructureDefinition/qicore-encounter" ]
      },
      "status": "finished",
      "class": {
        "system": "http://terminology.hl7.org/CodeSystem/v3-ActCode",
        "code": "IMP",
        "display": "inpatient encounter"
      },
      "type": [ {
        "coding": [ {
          "system": "http://snomed.info/sct",
          "code": "8715000"
        } ]
      } ],
      "subject": {
        "reference": "Patient/1f59fbfd-286a-4d4e-bd11-17769e86e872"
      },
      "period": {
        "start": "2026-11-01T08:00:00.000+00:00",
        "end": "2026-11-26T08:15:00.000+00:00"
      },
      "length": {
        "value": 25.0,
        "unit": "days"
      }
    },
    "request": {
      "method": "PUT",
      "url": "Encounter/ccf1ab89-c714-4824-a1a0-92b7aa3865e8"
    }
  }, {
    "fullUrl": "https://madie.cms.gov/Procedure/08123ca0-1806-4274-8edf-208b48e0a9dc",
    "resource": {
      "resourceType": "Procedure",
      "id": "08123ca0-1806-4274-8edf-208b48e0a9dc",
      "meta": {
        "profile": [ "http://hl7.org/fhir/us/qicore/StructureDefinition/qicore-procedure" ]
      },
      "extension": [ {
        "url": "http://hl7.org/fhir/us/qicore/StructureDefinition/qicore-recorded",
        "valueDateTime": "2013-12-04T13:35:00.000+00:00"
      } ],
      "status": "completed",
      "code": {
        "coding": [ {
          "system": "http://snomed.info/sct",
          "code": "133918004"
        } ]
      },
      "subject": {
        "reference": "Patient/1f59fbfd-286a-4d4e-bd11-17769e86e872"
      },
      "performedPeriod": {
        "end": "2026-11-02T08:15:00.000+00:00"
      }
    },
    "request": {
      "method": "PUT",
      "url": "Procedure/08123ca0-1806-4274-8edf-208b48e0a9dc"
    }
  }, {
    "fullUrl": "https://madie.cms.gov/Coverage/e6f7d61c-2c34-4376-a900-e0a9384f4bcf",
    "resource": {
      "resourceType": "Coverage",
      "id": "e6f7d61c-2c34-4376-a900-e0a9384f4bcf",
      "status": "active",
      "beneficiary": {
        "reference": "Patient/1f59fbfd-286a-4d4e-bd11-17769e86e872"
      },
      "period": {
        "start": "1975-01-02T08:00:00.000+00:00"
      },
      "payor": [ {
        "reference": "Organization/bfe72989-32cf-4cfe-a60c-08b627b6f79f"
      } ]
    },
    "request": {
      "method": "PUT",
      "url": "Coverage/e6f7d61c-2c34-4376-a900-e0a9384f4bcf"
    }
  }, {
    "fullUrl": "https://madie.cms.gov/Organization/bfe72989-32cf-4cfe-a60c-08b627b6f79f",
    "resource": {
      "resourceType": "Organization",
      "id": "bfe72989-32cf-4cfe-a60c-08b627b6f79f",
      "meta": {
        "profile": [ "http://hl7.org/fhir/us/qicore/StructureDefinition/qicore-organization" ]
      },
      "identifier": [ {
        "use": "temp",
        "system": "urn:oid:2.16.840.1.113883.4.4",
        "value": "21-3259825"
      } ],
      "active": true,
      "type": [ {
        "coding": [ {
          "system": "http://terminology.hl7.org/CodeSystem/organization-type",
          "code": "pay",
          "display": "Payer"
        } ]
      } ],
      "name": "Blue Cross Blue Shield of Texas",
      "telecom": [ {
        "system": "phone",
        "value": "(+1) 972-766-6900"
      } ],
      "address": [ {
        "use": "billing",
        "type": "postal",
        "line": [ "P.O. Box 660044" ],
        "city": "Dallas",
        "state": "TX",
        "postalCode": "75266-0044",
        "country": "USA"
      } ]
    },
    "request": {
      "method": "PUT",
      "url": "Organization/bfe72989-32cf-4cfe-a60c-08b627b6f79f"
    }
  }, {
    "fullUrl": "https://madie.cms.gov/Practitioner/aa2bd82c-54bc-4e51-a4e8-9c949a9efa5f",
    "resource": {
      "resourceType": "Practitioner",
      "id": "aa2bd82c-54bc-4e51-a4e8-9c949a9efa5f",
      "identifier": [ {
        "system": "http://hl7.org/fhir/sid/us-npi",
        "value": "123456"
      } ],
      "name": [ {
        "family": "Evil",
        "prefix": [ "Dr" ]
      } ]
    },
    "request": {
      "method": "PUT",
      "url": "Practitioner/aa2bd82c-54bc-4e51-a4e8-9c949a9efa5f"
    }
  }, {
    "fullUrl": "https://madie.cms.gov/MeasureReport/13149fe0-6c8a-45e9-80a5-d878fdc3cf7c",
    "resource": {
      "resourceType": "MeasureReport",
      "id": "13149fe0-6c8a-45e9-80a5-d878fdc3cf7c",
      "meta": {
        "profile": [ "http://hl7.org/fhir/us/cqfmeasures/StructureDefinition/test-case-cqfm" ]
      },
      "contained": [ {
        "resourceType": "Parameters",
        "id": "1816dd92-a142-4e9f-9335-efff2c567e9c-parameters",
        "parameter": [ {
          "name": "subject",
          "valueString": "1f59fbfd-286a-4d4e-bd11-17769e86e872"
        } ]
      } ],
      "extension": [ {
        "url": "http://hl7.org/fhir/StructureDefinition/cqf-inputParameters",
        "valueReference": {
          "reference": "#1816dd92-a142-4e9f-9335-efff2c567e9c-parameters"
        }
      }, {
        "url": "http://hl7.org/fhir/us/cqfmeasures/StructureDefinition/cqfm-testCaseDescription",
        "valueMarkdown": "comfort measures performed relevantPeriod start is null. end with day after IP encounter start\n"
      } ],
      "modifierExtension": [ {
        "url": "http://hl7.org/fhir/us/cqfmeasures/StructureDefinition/cqfm-isTestCase",
        "valueBoolean": true
      } ],
      "status": "complete",
      "type": "individual",
      "measure": "https://madie.cms.gov/Measure/CMS108FHIRVTEProphylaxis",
      "period": {
        "start": "2026-01-01",
        "end": "2026-12-31"
      },
      "group": [ {
        "id": "Group_1",
        "population": [ {
          "id": "InitialPopulation_1",
          "code": {
            "coding": [ {
              "system": "http://terminology.hl7.org/CodeSystem/measure-population",
              "code": "initial-population",
              "display": "Initial Population"
            } ]
          },
          "count": 1
        }, {
          "id": "Denominator_1",
          "code": {
            "coding": [ {
              "system": "http://terminology.hl7.org/CodeSystem/measure-population",
              "code": "denominator",
              "display": "Denominator"
            } ]
          },
          "count": 1
        }, {
          "id": "DenominatorExclusion_1",
          "code": {
            "coding": [ {
              "system": "http://terminology.hl7.org/CodeSystem/measure-population",
              "code": "denominator-exclusion",
              "display": "Denominator Exclusion"
            } ]
          },
          "count": 0
        }, {
          "id": "Numerator_1",
          "code": {
            "coding": [ {
              "system": "http://terminology.hl7.org/CodeSystem/measure-population",
              "code": "numerator",
              "display": "Numerator"
            } ]
          },
          "count": 0
        } ],
        "measureScore": {
          "value": 0.0
        }
      } ],
      "evaluatedResource": [ {
        "reference": "Patient/1f59fbfd-286a-4d4e-bd11-17769e86e872"
      }, {
        "reference": "Encounter/ccf1ab89-c714-4824-a1a0-92b7aa3865e8"
      }, {
        "reference": "Procedure/08123ca0-1806-4274-8edf-208b48e0a9dc"
      }, {
        "reference": "Coverage/e6f7d61c-2c34-4376-a900-e0a9384f4bcf"
      }, {
        "reference": "Organization/bfe72989-32cf-4cfe-a60c-08b627b6f79f"
      }, {
        "reference": "Practitioner/aa2bd82c-54bc-4e51-a4e8-9c949a9efa5f"
      } ]
    },
    "request": {
      "method": "PUT",
      "url": "MeasureReport/13149fe0-6c8a-45e9-80a5-d878fdc3cf7c"
    }
  } ]
}