{
  "resourceType": "Bundle",
  "id": "888a80a15a66f70123c7222c",
  "type": "transaction",
  "entry": [ {
    "fullUrl": "https://madie.cms.gov/Patient/de1effc3-8e72-4017-b2bd-5917c49bd8bb",
    "resource": {
      "resourceType": "Patient",
      "id": "de1effc3-8e72-4017-b2bd-5917c49bd8bb",
      "meta": {
        "profile": [ "http://hl7.org/fhir/us/qicore/StructureDefinition/qicore-patient" ]
      },
      "extension": [ {
        "url": "http://hl7.org/fhir/us/core/StructureDefinition/us-core-race",
        "extension": [ {
          "url": "ombCategory",
          "valueCoding": {
            "system": "urn:oid:2.16.840.1.113883.6.238",
            "code": "2028-9",
            "display": "Asian",
            "userSelected": true
          }
        }, {
          "url": "text",
          "valueString": "Asian"
        } ]
      }, {
        "url": "http://hl7.org/fhir/us/core/StructureDefinition/us-core-ethnicity",
        "extension": [ {
          "url": "ombCategory",
          "valueCoding": {
            "system": "urn:oid:2.16.840.1.113883.6.238",
            "code": "2186-5",
            "display": "Not Hispanic or Latino",
            "userSelected": true
          }
        }, {
          "url": "text",
          "valueString": "Not Hispanic or Latino"
        } ]
      } ],
      "identifier": [ {
        "system": "http://hospital.smarthealthit.org",
        "value": "999999999"
      } ],
      "name": [ {
        "family": "NUMERPass",
        "given": [ "2Enc2Numerators" ]
      } ],
      "gender": "female",
      "birthDate": "1999-02-01"
    },
    "request": {
      "method": "PUT",
      "url": "Patient/de1effc3-8e72-4017-b2bd-5917c49bd8bb"
    }
  }, {
    "fullUrl": "https://madie.cms.gov/Encounter/dd3fcc15-f53d-4c27-80aa-6e8d07bd60b3",
    "resource": {
      "resourceType": "Encounter",
      "id": "dd3fcc15-f53d-4c27-80aa-6e8d07bd60b3",
      "meta": {
        "profile": [ "http://hl7.org/fhir/us/qicore/StructureDefinition/qicore-encounter" ]
      },
      "status": "finished",
      "class": {
        "system": "http://terminology.hl7.org/CodeSystem/v3-ActCode",
        "code": "IMP",
        "display": "inpatient encounter"
      },
      "type": [ {
        "coding": [ {
          "system": "http://snomed.info/sct",
          "code": "183452005"
        } ]
      } ],
      "subject": {
        "reference": "Patient/de1effc3-8e72-4017-b2bd-5917c49bd8bb"
      },
      "period": {
        "start": "2026-07-11T08:00:00.000+00:00",
        "end": "2026-07-16T08:15:00.000+00:00"
      },
      "location": [ {
        "location": {
          "reference": "Location/81c44d74-5ca8-49a9-b53f-6069b3c8c62a"
        },
        "period": {
          "start": "2026-07-11T09:00:00.000+00:00",
          "end": "2026-07-11T10:15:00.000+00:00"
        }
      } ]
    },
    "request": {
      "method": "PUT",
      "url": "Encounter/dd3fcc15-f53d-4c27-80aa-6e8d07bd60b3"
    }
  }, {
    "fullUrl": "https://madie.cms.gov/Location/81c44d74-5ca8-49a9-b53f-6069b3c8c62a",
    "resource": {
      "resourceType": "Location",
      "id": "81c44d74-5ca8-49a9-b53f-6069b3c8c62a",
      "meta": {
        "profile": [ "http://hl7.org/fhir/us/qicore/StructureDefinition/qicore-location" ]
      },
      "identifier": [ {
        "use": "usual",
        "system": "http://exampleoflocation.com",
        "value": "B1-S.F2"
      } ],
      "name": "Medical Surgical East, first floor",
      "type": [ {
        "coding": [ {
          "system": "https://www.cdc.gov/nhsn/cdaportal/terminology/codesystem/hsloc.html",
          "code": "1096-7",
          "display": "Operating Room/Suite"
        } ]
      } ]
    },
    "request": {
      "method": "PUT",
      "url": "Location/81c44d74-5ca8-49a9-b53f-6069b3c8c62a"
    }
  }, {
    "fullUrl": "https://madie.cms.gov/Encounter/53f5154d-2399-4d19-a1d3-3d1cbd773d9b",
    "resource": {
      "resourceType": "Encounter",
      "id": "53f5154d-2399-4d19-a1d3-3d1cbd773d9b",
      "meta": {
        "profile": [ "http://hl7.org/fhir/us/qicore/StructureDefinition/qicore-encounter" ]
      },
      "status": "finished",
      "class": {
        "system": "http://terminology.hl7.org/CodeSystem/v3-ActCode",
        "code": "IMP",
        "display": "inpatient encounter"
      },
      "type": [ {
        "coding": [ {
          "system": "http://snomed.info/sct",
          "code": "183452005",
          "display": "Inpatient encounter"
        } ]
      } ],
      "subject": {
        "reference": "Patient/de1effc3-8e72-4017-b2bd-5917c49bd8bb"
      },
      "period": {
        "start": "2026-09-06T08:00:00.000+00:00",
        "end": "2026-09-13T08:15:00.000+00:00"
      }
    },
    "request": {
      "method": "PUT",
      "url": "Encounter/53f5154d-2399-4d19-a1d3-3d1cbd773d9b"
    }
  }, {
    "fullUrl": "https://madie.cms.gov/MedicationAdministration/13a9a70d-1f2e-4e83-ac39-235d30857dc4",
    "resource": {
      "resourceType": "MedicationAdministration",
      "id": "13a9a70d-1f2e-4e83-ac39-235d30857dc4",
      "meta": {
        "profile": [ "http://hl7.org/fhir/us/qicore/StructureDefinition/qicore-medicationadministration" ]
      },
      "status": "completed",
      "medicationCodeableConcept": {
        "coding": [ {
          "system": "http://www.nlm.nih.gov/research/umls/rxnorm",
          "code": "1010600",
          "display": "Opioids, All"
        } ]
      },
      "subject": {
        "reference": "Patient/de1effc3-8e72-4017-b2bd-5917c49bd8bb"
      },
      "effectivePeriod": {
        "start": "2026-07-11T09:00:00.000+00:00",
        "end": "2026-07-11T09:15:00.000+00:00"
      }
    },
    "request": {
      "method": "PUT",
      "url": "MedicationAdministration/13a9a70d-1f2e-4e83-ac39-235d30857dc4"
    }
  }, {
    "fullUrl": "https://madie.cms.gov/MedicationAdministration/4c1d2ffe-4c72-4b81-b173-0a4c0d21a629",
    "resource": {
      "resourceType": "MedicationAdministration",
      "id": "4c1d2ffe-4c72-4b81-b173-0a4c0d21a629",
      "meta": {
        "profile": [ "http://hl7.org/fhir/us/qicore/StructureDefinition/qicore-medicationadministration" ]
      },
      "status": "completed",
      "medicationCodeableConcept": {
        "coding": [ {
          "system": "http://www.nlm.nih.gov/research/umls/rxnorm",
          "code": "2589612",
          "display": "Opioid Antagonist"
        } ]
      },
      "subject": {
        "reference": "Patient/de1effc3-8e72-4017-b2bd-5917c49bd8bb"
      },
      "effectiveDateTime": "2026-07-11T14:00:00.000+00:00",
      "dosage": {
        "route": {
          "coding": [ {
            "system": "http://snomed.info/sct",
            "code": "34206005",
            "display": "Subcutaneous route"
          } ]
        }
      }
    },
    "request": {
      "method": "PUT",
      "url": "MedicationAdministration/4c1d2ffe-4c72-4b81-b173-0a4c0d21a629"
    }
  }, {
    "fullUrl": "https://madie.cms.gov/MedicationAdministration/386df742-beb3-4891-98d9-db0110b22fd2",
    "resource": {
      "resourceType": "MedicationAdministration",
      "id": "386df742-beb3-4891-98d9-db0110b22fd2",
      "meta": {
        "profile": [ "http://hl7.org/fhir/us/qicore/StructureDefinition/qicore-medicationadministration" ]
      },
      "status": "completed",
      "medicationCodeableConcept": {
        "coding": [ {
          "system": "http://www.nlm.nih.gov/research/umls/rxnorm",
          "code": "1010600",
          "display": "Opioids, All"
        } ]
      },
      "subject": {
        "reference": "Patient/de1effc3-8e72-4017-b2bd-5917c49bd8bb"
      },
      "effectiveDateTime": "2026-07-11T13:00:00.000+00:00"
    },
    "request": {
      "method": "PUT",
      "url": "MedicationAdministration/386df742-beb3-4891-98d9-db0110b22fd2"
    }
  }, {
    "fullUrl": "https://madie.cms.gov/MedicationAdministration/e8084c35-3472-49f1-9473-84944595f686",
    "resource": {
      "resourceType": "MedicationAdministration",
      "id": "e8084c35-3472-49f1-9473-84944595f686",
      "meta": {
        "profile": [ "http://hl7.org/fhir/us/qicore/StructureDefinition/qicore-medicationadministration" ]
      },
      "status": "completed",
      "medicationCodeableConcept": {
        "coding": [ {
          "system": "http://www.nlm.nih.gov/research/umls/rxnorm",
          "code": "1010600",
          "display": "Opioids, All"
        } ]
      },
      "subject": {
        "reference": "Patient/de1effc3-8e72-4017-b2bd-5917c49bd8bb"
      },
      "effectivePeriod": {
        "start": "2026-09-07T08:00:00.000+00:00",
        "end": "2026-09-07T08:15:00.000+00:00"
      }
    },
    "request": {
      "method": "PUT",
      "url": "MedicationAdministration/e8084c35-3472-49f1-9473-84944595f686"
    }
  }, {
    "fullUrl": "https://madie.cms.gov/MedicationAdministration/51db9238-5430-45ca-9e68-7ba1cc6ed523",
    "resource": {
      "resourceType": "MedicationAdministration",
      "id": "51db9238-5430-45ca-9e68-7ba1cc6ed523",
      "meta": {
        "profile": [ "http://hl7.org/fhir/us/qicore/StructureDefinition/qicore-medicationadministration" ]
      },
      "status": "completed",
      "medicationCodeableConcept": {
        "coding": [ {
          "system": "http://www.nlm.nih.gov/research/umls/rxnorm",
          "code": "1191222",
          "display": "Opioid Antagonist"
        } ]
      },
      "subject": {
        "reference": "Patient/de1effc3-8e72-4017-b2bd-5917c49bd8bb"
      },
      "effectivePeriod": {
        "start": "2026-09-07T08:16:00.000+00:00",
        "end": "2026-09-07T08:18:00.000+00:00"
      },
      "dosage": {
        "route": {
          "coding": [ {
            "system": "http://snomed.info/sct",
            "code": "34206005",
            "display": "Subcutaneous route"
          } ]
        }
      }
    },
    "request": {
      "method": "PUT",
      "url": "MedicationAdministration/51db9238-5430-45ca-9e68-7ba1cc6ed523"
    }
  }, {
    "fullUrl": "https://madie.cms.gov/Coverage/3dde0aaa-c548-4b5b-8f3c-03366cfb1176",
    "resource": {
      "resourceType": "Coverage",
      "id": "3dde0aaa-c548-4b5b-8f3c-03366cfb1176",
      "meta": {
        "profile": [ "http://hl7.org/fhir/us/qicore/StructureDefinition/qicore-coverage" ]
      },
      "status": "active",
      "subscriberId": "523435",
      "beneficiary": {
        "reference": "Patient/de1effc3-8e72-4017-b2bd-5917c49bd8bb"
      },
      "relationship": {
        "coding": [ {
          "system": "http://terminology.hl7.org/CodeSystem/subscriber-relationship",
          "code": "self"
        } ]
      },
      "payor": [ {
        "reference": "Organization/5de22c23-a810-45d6-904b-a4239754f1a3"
      } ]
    },
    "request": {
      "method": "PUT",
      "url": "Coverage/3dde0aaa-c548-4b5b-8f3c-03366cfb1176"
    }
  }, {
    "fullUrl": "https://madie.cms.gov/Organization/5de22c23-a810-45d6-904b-a4239754f1a3",
    "resource": {
      "resourceType": "Organization",
      "id": "5de22c23-a810-45d6-904b-a4239754f1a3",
      "meta": {
        "profile": [ "http://hl7.org/fhir/us/qicore/StructureDefinition/qicore-organization" ]
      },
      "identifier": [ {
        "use": "temp",
        "system": "urn:oid:2.16.840.1.113883.4.4",
        "value": "21-3259825"
      } ],
      "active": true,
      "type": [ {
        "coding": [ {
          "system": "http://terminology.hl7.org/CodeSystem/organization-type",
          "code": "pay",
          "display": "Payer"
        } ]
      } ],
      "name": "Blue Cross Blue Shield of Texas",
      "telecom": [ {
        "system": "phone",
        "value": "(+1) 972-766-6900"
      } ],
      "address": [ {
        "use": "billing",
        "type": "postal",
        "line": [ "P.O. Box 660044" ],
        "city": "Dallas",
        "state": "TX",
        "postalCode": "75266-0044",
        "country": "USA"
      } ]
    },
    "request": {
      "method": "PUT",
      "url": "Organization/5de22c23-a810-45d6-904b-a4239754f1a3"
    }
  }, {
    "fullUrl": "https://madie.cms.gov/MeasureReport/3647f684-f0eb-4277-af74-a52718383c6f",
    "resource": {
      "resourceType": "MeasureReport",
      "id": "3647f684-f0eb-4277-af74-a52718383c6f",
      "meta": {
        "profile": [ "http://hl7.org/fhir/us/cqfmeasures/StructureDefinition/test-case-cqfm" ]
      },
      "contained": [ {
        "resourceType": "Parameters",
        "id": "d4528bab-3ce3-46e1-a4f1-a288f6073e12-parameters",
        "parameter": [ {
          "name": "subject",
          "valueString": "de1effc3-8e72-4017-b2bd-5917c49bd8bb"
        } ]
      } ],
      "extension": [ {
        "url": "http://hl7.org/fhir/StructureDefinition/cqf-inputParameters",
        "valueReference": {
          "reference": "#d4528bab-3ce3-46e1-a4f1-a288f6073e12-parameters"
        }
      }, {
        "url": "http://hl7.org/fhir/us/cqfmeasures/StructureDefinition/cqfm-testCaseDescription",
        "valueMarkdown": "Encounter-1 7/11 - 7/16, MedAdmin-1 Opioid in OR location, MedAdmin-2 Antagonist at 1400, MedAdmin-3 2nd Opioid at 1300\nEncounter-2 9/6 - 9/13, MedAdmin-4 Opioid 0800, MedAdmin-5 Antagonist at 0816\n"
      } ],
      "modifierExtension": [ {
        "url": "http://hl7.org/fhir/us/cqfmeasures/StructureDefinition/cqfm-isTestCase",
        "valueBoolean": true
      } ],
      "status": "complete",
      "type": "individual",
      "measure": "https://madie.cms.gov/Measure/CMS819FHIRHHORAE",
      "period": {
        "start": "2026-01-01",
        "end": "2026-12-31"
      },
      "group": [ {
        "id": "Group_1",
        "population": [ {
          "id": "InitialPopulation_1",
          "code": {
            "coding": [ {
              "system": "http://terminology.hl7.org/CodeSystem/measure-population",
              "code": "initial-population",
              "display": "Initial Population"
            } ]
          },
          "count": 2
        }, {
          "id": "Denominator_1",
          "code": {
            "coding": [ {
              "system": "http://terminology.hl7.org/CodeSystem/measure-population",
              "code": "denominator",
              "display": "Denominator"
            } ]
          },
          "count": 2
        }, {
          "id": "Numerator_1",
          "code": {
            "coding": [ {
              "system": "http://terminology.hl7.org/CodeSystem/measure-population",
              "code": "numerator",
              "display": "Numerator"
            } ]
          },
          "count": 2
        } ],
        "measureScore": {
          "value": 0.0
        }
      } ],
      "evaluatedResource": [ {
        "reference": "Patient/de1effc3-8e72-4017-b2bd-5917c49bd8bb"
      }, {
        "reference": "Encounter/dd3fcc15-f53d-4c27-80aa-6e8d07bd60b3"
      }, {
        "reference": "Location/81c44d74-5ca8-49a9-b53f-6069b3c8c62a"
      }, {
        "reference": "Encounter/53f5154d-2399-4d19-a1d3-3d1cbd773d9b"
      }, {
        "reference": "MedicationAdministration/13a9a70d-1f2e-4e83-ac39-235d30857dc4"
      }, {
        "reference": "MedicationAdministration/4c1d2ffe-4c72-4b81-b173-0a4c0d21a629"
      }, {
        "reference": "MedicationAdministration/386df742-beb3-4891-98d9-db0110b22fd2"
      }, {
        "reference": "MedicationAdministration/e8084c35-3472-49f1-9473-84944595f686"
      }, {
        "reference": "MedicationAdministration/51db9238-5430-45ca-9e68-7ba1cc6ed523"
      }, {
        "reference": "Coverage/3dde0aaa-c548-4b5b-8f3c-03366cfb1176"
      }, {
        "reference": "Organization/5de22c23-a810-45d6-904b-a4239754f1a3"
      } ]
    },
    "request": {
      "method": "PUT",
      "url": "MeasureReport/3647f684-f0eb-4277-af74-a52718383c6f"
    }
  } ]
}