{
  "resourceType": "Bundle",
  "id": "657cbdc9b4f1f0343662347a",
  "type": "transaction",
  "entry": [ {
    "fullUrl": "https://madie.cms.gov/Patient/e7ada800-676f-48e9-9a4b-f505901d3c95",
    "resource": {
      "resourceType": "Patient",
      "id": "e7ada800-676f-48e9-9a4b-f505901d3c95",
      "meta": {
        "profile": [ "http://hl7.org/fhir/us/qicore/StructureDefinition/qicore-patient" ]
      },
      "extension": [ {
        "url": "http://hl7.org/fhir/us/core/StructureDefinition/us-core-race",
        "extension": [ {
          "url": "ombCategory",
          "valueCoding": {
            "system": "urn:oid:2.16.840.1.113883.6.238",
            "code": "2106-3",
            "display": "White",
            "userSelected": true
          }
        }, {
          "url": "text",
          "valueString": "White"
        } ]
      }, {
        "url": "http://hl7.org/fhir/us/core/StructureDefinition/us-core-ethnicity",
        "extension": [ {
          "url": "ombCategory",
          "valueCoding": {
            "system": "urn:oid:2.16.840.1.113883.6.238",
            "code": "2186-5",
            "display": "Not Hispanic or Latino",
            "userSelected": true
          }
        }, {
          "url": "text",
          "valueString": "Not Hispanic or Latino"
        } ]
      } ],
      "identifier": [ {
        "type": {
          "coding": [ {
            "system": "http://terminology.hl7.org/CodeSystem/v2-0203",
            "code": "MR"
          } ]
        },
        "system": "https://bonnie-fhir.healthit.gov/",
        "value": "657cbdc9b4f1f0343662347a"
      } ],
      "name": [ {
        "family": "InitialPopulationEncountersPass",
        "given": [ "InitialPopulationEncAttributes" ]
      } ],
      "gender": "female",
      "birthDate": "2008-01-01"
    },
    "request": {
      "method": "PUT",
      "url": "Patient/e7ada800-676f-48e9-9a4b-f505901d3c95"
    }
  }, {
    "fullUrl": "https://madie.cms.gov/Encounter/5d4b75e3-e7b4-4739-bc2f-48c5cc9e15b6",
    "resource": {
      "resourceType": "Encounter",
      "id": "5d4b75e3-e7b4-4739-bc2f-48c5cc9e15b6",
      "meta": {
        "profile": [ "http://hl7.org/fhir/us/qicore/StructureDefinition/qicore-encounter" ]
      },
      "identifier": [ {
        "type": {
          "coding": [ {
            "system": "http://terminology.hl7.org/CodeSystem/v2-0203",
            "code": "MR"
          } ]
        },
        "system": "https://bonnie-fhir.healthit.gov/",
        "value": "657cbdc9b4f1f0343662347a"
      } ],
      "status": "entered-in-error",
      "class": {
        "system": "http://terminology.hl7.org/CodeSystem/v3-ActCode",
        "code": "ACUTE",
        "display": "inpatient acute"
      },
      "type": [ {
        "coding": [ {
          "system": "http://snomed.info/sct",
          "version": "2024",
          "code": "32485007",
          "display": "Hospital admission (procedure)",
          "userSelected": true
        } ]
      } ],
      "serviceType": {
        "coding": [ {
          "system": "https://hl7.org/fhir/R4/codesystem-service-type.html",
          "code": "21",
          "display": "Hydrotherapy"
        } ]
      },
      "priority": {
        "coding": [ {
          "system": "https://terminology.hl7.org/5.5.0/CodeSystem-v3-ActPriority.html",
          "code": "R",
          "display": "routine"
        } ]
      },
      "subject": {
        "reference": "Patient/e7ada800-676f-48e9-9a4b-f505901d3c95"
      },
      "period": {
        "start": "2026-01-01T08:00:00.000Z",
        "end": "2026-01-02T09:15:00.000Z"
      },
      "reasonCode": [ {
        "coding": [ {
          "system": "http://snomed.info/sct",
          "code": "183932001",
          "display": "Procedure contraindicated (situation)",
          "userSelected": true
        } ]
      } ],
      "location": [ {
        "location": {
          "reference": "Location/2eec076c-0585-4677-b255-8c20371a6a16"
        },
        "period": {
          "start": "2026-01-01T00:00:00.000Z",
          "end": "2026-01-01T10:01:00.000Z"
        }
      } ],
      "partOf": {
        "reference": "Location/2",
        "display": "USS Enterprise"
      }
    },
    "request": {
      "method": "PUT",
      "url": "Encounter/5d4b75e3-e7b4-4739-bc2f-48c5cc9e15b6"
    }
  }, {
    "fullUrl": "https://madie.cms.gov/Location/2eec076c-0585-4677-b255-8c20371a6a16",
    "resource": {
      "resourceType": "Location",
      "id": "2eec076c-0585-4677-b255-8c20371a6a16",
      "meta": {
        "profile": [ "http://hl7.org/fhir/us/qicore/StructureDefinition/qicore-location" ]
      },
      "identifier": [ {
        "use": "usual",
        "system": "http://exampleoflocation.com",
        "value": "B1-S.F2"
      } ],
      "name": "Medical Surgical East, first floor",
      "type": [ {
        "coding": [ {
          "system": "https://www.cdc.gov/nhsn/cdaportal/terminology/codesystem/hsloc.html",
          "code": "1025-6",
          "display": "Trauma Critical Care",
          "userSelected": true
        } ]
      } ]
    },
    "request": {
      "method": "PUT",
      "url": "Location/2eec076c-0585-4677-b255-8c20371a6a16"
    }
  }, {
    "fullUrl": "https://madie.cms.gov/MedicationAdministration/a61ab0c9-9b76-45a1-b231-66e355568623",
    "resource": {
      "resourceType": "MedicationAdministration",
      "id": "a61ab0c9-9b76-45a1-b231-66e355568623",
      "meta": {
        "profile": [ "http://hl7.org/fhir/us/qicore/StructureDefinition/qicore-medicationadministration" ]
      },
      "status": "completed",
      "medicationCodeableConcept": {
        "coding": [ {
          "system": "http://www.nlm.nih.gov/research/umls/rxnorm",
          "code": "1007184",
          "display": "insulin aspart protamine, human / insulin aspart, human"
        } ]
      },
      "subject": {
        "reference": "Patient/e7ada800-676f-48e9-9a4b-f505901d3c95"
      },
      "effectivePeriod": {
        "start": "2026-01-01T08:00:00.000Z",
        "end": "2026-01-01T08:15:00.000Z"
      }
    },
    "request": {
      "method": "PUT",
      "url": "MedicationAdministration/a61ab0c9-9b76-45a1-b231-66e355568623"
    }
  }, {
    "fullUrl": "https://madie.cms.gov/Coverage/55601929-d922-4920-9327-a77d2ac60030",
    "resource": {
      "resourceType": "Coverage",
      "id": "55601929-d922-4920-9327-a77d2ac60030",
      "meta": {
        "profile": [ "http://hl7.org/fhir/us/qicore/StructureDefinition/qicore-coverage" ]
      },
      "identifier": [ {
        "system": "http://benefitsinc.com/certificate",
        "value": "12345"
      } ],
      "status": "active",
      "type": {
        "coding": [ {
          "system": "https://nahdo.org/sopt",
          "version": "1.0.1",
          "code": "1",
          "display": "MEDICARE",
          "userSelected": true
        } ]
      },
      "subscriberId": "AB9876",
      "beneficiary": {
        "reference": "Patient/e7ada800-676f-48e9-9a4b-f505901d3c95"
      },
      "relationship": {
        "coding": [ {
          "system": "http://terminology.hl7.org/CodeSystem/subscriber-relationship",
          "code": "self"
        } ]
      },
      "payor": [ {
        "reference": "Organization/e49aaf29-4a11-4283-96bc-b30a1d4115b0"
      } ]
    },
    "request": {
      "method": "PUT",
      "url": "Coverage/55601929-d922-4920-9327-a77d2ac60030"
    }
  }, {
    "fullUrl": "https://madie.cms.gov/Organization/e49aaf29-4a11-4283-96bc-b30a1d4115b0",
    "resource": {
      "resourceType": "Organization",
      "id": "e49aaf29-4a11-4283-96bc-b30a1d4115b0",
      "meta": {
        "profile": [ "http://hl7.org/fhir/us/qicore/StructureDefinition/qicore-organization" ]
      },
      "identifier": [ {
        "use": "temp",
        "system": "urn:oid:2.16.840.1.113883.4.4",
        "value": "21-3259825"
      } ],
      "active": true,
      "type": [ {
        "coding": [ {
          "system": "http://terminology.hl7.org/CodeSystem/organization-type",
          "code": "pay",
          "display": "Payer"
        } ]
      } ],
      "name": "Blue Cross Blue Shield of Texas",
      "telecom": [ {
        "system": "phone",
        "value": "(+1) 972-766-6900"
      } ],
      "address": [ {
        "use": "billing",
        "type": "postal",
        "line": [ "P.O. Box 660044" ],
        "city": "Dallas",
        "state": "TX",
        "postalCode": "75266-0044",
        "country": "USA"
      } ]
    },
    "request": {
      "method": "PUT",
      "url": "Organization/e49aaf29-4a11-4283-96bc-b30a1d4115b0"
    }
  }, {
    "fullUrl": "https://madie.cms.gov/Practitioner/4e260682-b8e7-465a-9003-04e27b14fa82",
    "resource": {
      "resourceType": "Practitioner",
      "id": "4e260682-b8e7-465a-9003-04e27b14fa82",
      "meta": {
        "profile": [ "http://hl7.org/fhir/us/qicore/StructureDefinition/qicore-practitioner" ]
      },
      "identifier": [ {
        "system": "http://hl7.org/fhir/sid/us-npi",
        "value": "0723660813"
      } ],
      "name": [ {
        "family": "Evil",
        "prefix": [ "Dr" ]
      } ]
    },
    "request": {
      "method": "PUT",
      "url": "Practitioner/4e260682-b8e7-465a-9003-04e27b14fa82"
    }
  }, {
    "fullUrl": "https://madie.cms.gov/MeasureReport/f75be299-d1d1-44f5-a440-253f2d4b5e5a",
    "resource": {
      "resourceType": "MeasureReport",
      "id": "f75be299-d1d1-44f5-a440-253f2d4b5e5a",
      "meta": {
        "profile": [ "http://hl7.org/fhir/us/cqfmeasures/StructureDefinition/test-case-cqfm" ]
      },
      "contained": [ {
        "resourceType": "Parameters",
        "id": "dfe97a6c-4db0-411f-8560-1f8eb66afd11-parameters",
        "parameter": [ {
          "name": "subject",
          "valueString": "e7ada800-676f-48e9-9a4b-f505901d3c95"
        } ]
      } ],
      "extension": [ {
        "url": "http://hl7.org/fhir/StructureDefinition/cqf-inputParameters",
        "valueReference": {
          "reference": "#dfe97a6c-4db0-411f-8560-1f8eb66afd11-parameters"
        }
      }, {
        "url": "http://hl7.org/fhir/us/cqfmeasures/StructureDefinition/cqfm-testCaseDescription",
        "valueMarkdown": "Testing initial population encounters attributes"
      } ],
      "modifierExtension": [ {
        "url": "http://hl7.org/fhir/us/cqfmeasures/StructureDefinition/cqfm-isTestCase",
        "valueBoolean": true
      } ],
      "status": "complete",
      "type": "individual",
      "measure": "https://madie.cms.gov/Measure/NHSNGlycemicControlHypoglycemiaInitialPopulation",
      "period": {
        "start": "2026-01-01",
        "end": "2026-12-31"
      },
      "group": [ {
        "id": "Group_1",
        "population": [ {
          "id": "InitialPopulation_1",
          "code": {
            "coding": [ {
              "system": "http://terminology.hl7.org/CodeSystem/measure-population",
              "code": "initial-population",
              "display": "Initial Population"
            } ]
          },
          "count": 1
        } ],
        "measureScore": {
          "value": 0.0
        }
      } ],
      "evaluatedResource": [ {
        "reference": "Patient/e7ada800-676f-48e9-9a4b-f505901d3c95"
      }, {
        "reference": "Encounter/5d4b75e3-e7b4-4739-bc2f-48c5cc9e15b6"
      }, {
        "reference": "Location/2eec076c-0585-4677-b255-8c20371a6a16"
      }, {
        "reference": "MedicationAdministration/a61ab0c9-9b76-45a1-b231-66e355568623"
      }, {
        "reference": "Coverage/55601929-d922-4920-9327-a77d2ac60030"
      }, {
        "reference": "Organization/e49aaf29-4a11-4283-96bc-b30a1d4115b0"
      }, {
        "reference": "Practitioner/4e260682-b8e7-465a-9003-04e27b14fa82"
      } ]
    },
    "request": {
      "method": "PUT",
      "url": "MeasureReport/f75be299-d1d1-44f5-a440-253f2d4b5e5a"
    }
  } ]
}