{
  "resourceType": "Bundle",
  "id": "j1f044ef3e654daa9113",
  "type": "transaction",
  "entry": [ {
    "fullUrl": "https://madie.cms.gov/Patient/08dd0cf8-1ee9-4f75-909d-ea482cec75c5",
    "resource": {
      "resourceType": "Patient",
      "id": "08dd0cf8-1ee9-4f75-909d-ea482cec75c5",
      "meta": {
        "profile": [ "http://hl7.org/fhir/us/qicore/StructureDefinition/qicore-patient" ]
      },
      "extension": [ {
        "url": "http://hl7.org/fhir/us/core/StructureDefinition/us-core-race",
        "extension": [ {
          "url": "ombCategory",
          "valueCoding": {
            "system": "urn:oid:2.16.840.1.113883.6.238",
            "code": "1002-5",
            "display": "American Indian or Alaska Native",
            "userSelected": true
          }
        }, {
          "url": "text",
          "valueString": "American Indian or Alaska Native"
        } ]
      }, {
        "url": "http://hl7.org/fhir/us/core/StructureDefinition/us-core-ethnicity",
        "extension": [ {
          "url": "ombCategory",
          "valueCoding": {
            "system": "urn:oid:2.16.840.1.113883.6.238",
            "code": "2135-2",
            "display": "Hispanic or Latino",
            "userSelected": true
          }
        }, {
          "url": "text",
          "valueString": "Hispanic or Latino"
        } ]
      }, {
        "url": "http://hl7.org/fhir/us/core/StructureDefinition/us-core-sex",
        "valueCode": "248153007"
      } ],
      "identifier": [ {
        "type": {
          "coding": [ {
            "system": "http://terminology.hl7.org/CodeSystem/v2-0203",
            "code": "MR"
          } ]
        },
        "system": "https://bonnie-fhir.healthit.gov/",
        "value": "j1f044ef3e654daa9113"
      } ],
      "name": [ {
        "family": "DENEXCL6PASS",
        "given": [ "LongTermAnticoagulantUseIncludeseED" ]
      } ],
      "gender": "male",
      "birthDate": "1976-09-23"
    },
    "request": {
      "method": "PUT",
      "url": "Patient/08dd0cf8-1ee9-4f75-909d-ea482cec75c5"
    }
  }, {
    "fullUrl": "https://madie.cms.gov/Encounter/6cfc4b3b-cc12-44dd-b815-d6232af35be0",
    "resource": {
      "resourceType": "Encounter",
      "id": "6cfc4b3b-cc12-44dd-b815-d6232af35be0",
      "meta": {
        "profile": [ "http://hl7.org/fhir/us/qicore/StructureDefinition/qicore-encounter" ]
      },
      "status": "finished",
      "class": {
        "system": "http://terminology.hl7.org/CodeSystem/v3-ActCode",
        "code": "EMER",
        "display": "emergency",
        "userSelected": true
      },
      "type": [ {
        "coding": [ {
          "system": "http://snomed.info/sct",
          "version": "2020-09",
          "code": "4525004",
          "display": "Emergency department patient visit",
          "userSelected": true
        } ]
      } ],
      "subject": {
        "reference": "Patient/08dd0cf8-1ee9-4f75-909d-ea482cec75c5"
      },
      "period": {
        "start": "2026-10-09T05:00:00.000+00:00",
        "end": "2026-10-13T17:00:00.000+00:00"
      },
      "reasonCode": [ {
        "coding": [ {
          "system": "http://hl7.org/fhir/sid/icd-10-cm",
          "code": "I21.21",
          "display": "ST elevation (STEMI) myocardial infarction involving left circumflex coronary artery",
          "userSelected": true
        } ]
      } ]
    },
    "request": {
      "method": "PUT",
      "url": "Encounter/6cfc4b3b-cc12-44dd-b815-d6232af35be0"
    }
  }, {
    "fullUrl": "https://madie.cms.gov/Condition/26048e39-c766-49cf-8cd7-95c050931de8",
    "resource": {
      "resourceType": "Condition",
      "id": "26048e39-c766-49cf-8cd7-95c050931de8",
      "meta": {
        "profile": [ "http://hl7.org/fhir/us/qicore/StructureDefinition/qicore-condition-problems-health-concerns" ]
      },
      "clinicalStatus": {
        "coding": [ {
          "system": "http://terminology.hl7.org/CodeSystem/condition-clinical",
          "code": "inactive",
          "display": "Inactive",
          "userSelected": true
        } ]
      },
      "verificationStatus": {
        "coding": [ {
          "system": "http://terminology.hl7.org/CodeSystem/condition-ver-status",
          "code": "provisional"
        } ]
      },
      "category": [ {
        "coding": [ {
          "system": "http://terminology.hl7.org/CodeSystem/condition-category",
          "code": "problem-list-item",
          "display": "Problem List Item",
          "userSelected": true
        } ]
      } ],
      "code": {
        "coding": [ {
          "system": "http://hl7.org/fhir/sid/icd-10-cm",
          "code": "Z79.01",
          "display": "Long term (current) use of anticoagulants",
          "userSelected": true
        } ]
      },
      "subject": {
        "reference": "Patient/08dd0cf8-1ee9-4f75-909d-ea482cec75c5"
      },
      "onsetDateTime": "2025-10-01T06:00:00.000+00:00",
      "abatementDateTime": "2026-11-25T06:00:00.000+00:00"
    },
    "request": {
      "method": "PUT",
      "url": "Condition/26048e39-c766-49cf-8cd7-95c050931de8"
    }
  }, {
    "fullUrl": "https://madie.cms.gov/MeasureReport/7739d33e-84f8-4da1-a519-58136fba1e21",
    "resource": {
      "resourceType": "MeasureReport",
      "id": "7739d33e-84f8-4da1-a519-58136fba1e21",
      "meta": {
        "profile": [ "http://hl7.org/fhir/us/cqfmeasures/StructureDefinition/test-case-cqfm" ]
      },
      "contained": [ {
        "resourceType": "Parameters",
        "id": "f4da272b-a5dd-493d-8d83-09715e2cafb3-parameters",
        "parameter": [ {
          "name": "subject",
          "valueString": "08dd0cf8-1ee9-4f75-909d-ea482cec75c5"
        } ]
      } ],
      "extension": [ {
        "url": "http://hl7.org/fhir/StructureDefinition/cqf-inputParameters",
        "valueReference": {
          "reference": "#f4da272b-a5dd-493d-8d83-09715e2cafb3-parameters"
        }
      }, {
        "url": "http://hl7.org/fhir/us/cqfmeasures/StructureDefinition/cqfm-testCaseDescription",
        "valueMarkdown": "Patient has long term  anticoagulant use before and includes ED "
      } ],
      "modifierExtension": [ {
        "url": "http://hl7.org/fhir/us/cqfmeasures/StructureDefinition/cqfm-isTestCase",
        "valueBoolean": true
      } ],
      "status": "complete",
      "type": "individual",
      "measure": "https://madie.cms.gov/Measure/CMS996FHIRAptTxforSTEMI",
      "period": {
        "start": "2026-01-01",
        "end": "2026-12-31"
      },
      "group": [ {
        "id": "Group_1",
        "population": [ {
          "id": "InitialPopulation_1",
          "code": {
            "coding": [ {
              "system": "http://terminology.hl7.org/CodeSystem/measure-population",
              "code": "initial-population",
              "display": "Initial Population"
            } ]
          },
          "count": 1
        }, {
          "id": "Denominator_1",
          "code": {
            "coding": [ {
              "system": "http://terminology.hl7.org/CodeSystem/measure-population",
              "code": "denominator",
              "display": "Denominator"
            } ]
          },
          "count": 1
        }, {
          "id": "DenominatorExclusion_1",
          "code": {
            "coding": [ {
              "system": "http://terminology.hl7.org/CodeSystem/measure-population",
              "code": "denominator-exclusion",
              "display": "Denominator Exclusion"
            } ]
          },
          "count": 1
        }, {
          "id": "Numerator_1",
          "code": {
            "coding": [ {
              "system": "http://terminology.hl7.org/CodeSystem/measure-population",
              "code": "numerator",
              "display": "Numerator"
            } ]
          },
          "count": 0
        }, {
          "id": "DenominatorException_1",
          "code": {
            "coding": [ {
              "system": "http://terminology.hl7.org/CodeSystem/measure-population",
              "code": "denominator-exception",
              "display": "Denominator Exception"
            } ]
          },
          "count": 0
        } ],
        "measureScore": {
          "value": 0.0
        }
      } ],
      "evaluatedResource": [ {
        "reference": "Patient/08dd0cf8-1ee9-4f75-909d-ea482cec75c5"
      }, {
        "reference": "Encounter/6cfc4b3b-cc12-44dd-b815-d6232af35be0"
      }, {
        "reference": "Condition/26048e39-c766-49cf-8cd7-95c050931de8"
      } ]
    },
    "request": {
      "method": "PUT",
      "url": "MeasureReport/7739d33e-84f8-4da1-a519-58136fba1e21"
    }
  } ]
}