{
  "resourceType": "Bundle",
  "id": "NUMPass-70-on-Jan1-1",
  "type": "transaction",
  "entry": [ {
    "fullUrl": "https://madie.cms.gov/Patient/38255f11-9b45-497d-b798-6f0a54f02f37",
    "resource": {
      "resourceType": "Patient",
      "id": "38255f11-9b45-497d-b798-6f0a54f02f37",
      "meta": {
        "profile": [ "http://hl7.org/fhir/us/qicore/StructureDefinition/qicore-patient" ]
      },
      "extension": [ {
        "url": "http://hl7.org/fhir/us/core/StructureDefinition/us-core-race",
        "extension": [ {
          "url": "ombCategory",
          "valueCoding": {
            "system": "urn:oid:2.16.840.1.113883.6.238",
            "code": "2028-9",
            "display": "Asian"
          }
        }, {
          "url": "text",
          "valueString": "Asian"
        } ]
      }, {
        "url": "http://hl7.org/fhir/us/core/StructureDefinition/us-core-ethnicity",
        "extension": [ {
          "url": "ombCategory",
          "valueCoding": {
            "system": "urn:oid:2.16.840.1.113883.6.238",
            "code": "2186-5",
            "display": "Not Hispanic or Latino"
          }
        }, {
          "url": "text",
          "valueString": "Not Hispanic or Latino"
        } ]
      } ],
      "identifier": [ {
        "system": "http://hospital.smarthealthit.org",
        "value": "999999995"
      } ],
      "name": [ {
        "family": "NUMPass",
        "given": [ "NUMPass-70-on-Jan1-1" ]
      } ],
      "gender": "male",
      "birthDate": "1956-01-01"
    },
    "request": {
      "method": "PUT",
      "url": "Patient/38255f11-9b45-497d-b798-6f0a54f02f37"
    }
  }, {
    "fullUrl": "https://madie.cms.gov/Encounter/ca9433c0-ffce-4d14-b3bb-75e976120829",
    "resource": {
      "resourceType": "Encounter",
      "id": "ca9433c0-ffce-4d14-b3bb-75e976120829",
      "meta": {
        "profile": [ "http://hl7.org/fhir/us/qicore/StructureDefinition/qicore-encounter" ]
      },
      "status": "finished",
      "class": {
        "system": "http://terminology.hl7.org/CodeSystem/v3-ActCode",
        "code": "AMB",
        "display": "ambulatory"
      },
      "type": [ {
        "coding": [ {
          "system": "http://snomed.info/sct",
          "code": "11429006"
        } ]
      } ],
      "subject": {
        "reference": "Patient/38255f11-9b45-497d-b798-6f0a54f02f37"
      },
      "period": {
        "start": "2026-01-04T08:00:00.000+00:00",
        "end": "2026-01-04T08:00:00.000+00:00"
      }
    },
    "request": {
      "method": "PUT",
      "url": "Encounter/ca9433c0-ffce-4d14-b3bb-75e976120829"
    }
  }, {
    "fullUrl": "https://madie.cms.gov/Encounter/8d5567a0-19f2-49f3-9039-db33cdd59349",
    "resource": {
      "resourceType": "Encounter",
      "id": "8d5567a0-19f2-49f3-9039-db33cdd59349",
      "meta": {
        "profile": [ "http://hl7.org/fhir/us/qicore/StructureDefinition/qicore-encounter" ]
      },
      "status": "finished",
      "class": {
        "system": "http://terminology.hl7.org/CodeSystem/v3-ActCode",
        "code": "AMB",
        "display": "ambulatory"
      },
      "type": [ {
        "coding": [ {
          "system": "http://www.ama-assn.org/go/cpt",
          "code": "99203",
          "display": "Office or other outpatient visit for the evaluation and management of a new patient, which requires a medically appropriate history and/or examination and low level of medical decision making. When using time for code selection, 30-44 minutes of total time is spent on the date of the encounter."
        } ]
      } ],
      "subject": {
        "reference": "Patient/38255f11-9b45-497d-b798-6f0a54f02f37"
      },
      "period": {
        "start": "2026-01-04T08:00:00.000+00:00",
        "end": "2026-01-04T08:00:00.000+00:00"
      }
    },
    "request": {
      "method": "PUT",
      "url": "Encounter/8d5567a0-19f2-49f3-9039-db33cdd59349"
    }
  }, {
    "fullUrl": "https://madie.cms.gov/Observation/46cac289-b065-4c94-9d0f-5055cbdf3427",
    "resource": {
      "resourceType": "Observation",
      "id": "46cac289-b065-4c94-9d0f-5055cbdf3427",
      "meta": {
        "profile": [ "http://hl7.org/fhir/us/core/StructureDefinition/us-core-bmi" ]
      },
      "status": "final",
      "category": [ {
        "coding": [ {
          "system": "http://terminology.hl7.org/CodeSystem/observation-category",
          "code": "vital-signs",
          "display": "Vital Signs"
        } ]
      } ],
      "code": {
        "coding": [ {
          "system": "http://loinc.org",
          "code": "39156-5",
          "display": "Body mass index (BMI) [Ratio]"
        } ]
      },
      "subject": {
        "reference": "Patient/38255f11-9b45-497d-b798-6f0a54f02f37"
      },
      "effectiveDateTime": "2026-01-04T08:00:00.000+00:00",
      "issued": "2026-01-04T08:00:00.000+00:00",
      "valueQuantity": {
        "value": 23,
        "unit": "kg/m2",
        "system": "http://unitsofmeasure.org",
        "code": "kg/m2"
      }
    },
    "request": {
      "method": "PUT",
      "url": "Observation/46cac289-b065-4c94-9d0f-5055cbdf3427"
    }
  }, {
    "fullUrl": "https://madie.cms.gov/Condition/a78fd1d3-1a4c-4671-8554-fc77f13e74eb",
    "resource": {
      "resourceType": "Condition",
      "id": "a78fd1d3-1a4c-4671-8554-fc77f13e74eb",
      "meta": {
        "profile": [ "http://hl7.org/fhir/us/qicore/StructureDefinition/qicore-condition-problems-health-concerns" ]
      },
      "clinicalStatus": {
        "coding": [ {
          "system": "http://terminology.hl7.org/CodeSystem/condition-clinical",
          "code": "active",
          "display": "active",
          "userSelected": true
        } ]
      },
      "category": [ {
        "coding": [ {
          "system": "http://terminology.hl7.org/CodeSystem/condition-category",
          "code": "problem-list-item",
          "display": "Problem List Item"
        } ]
      } ],
      "code": {
        "coding": [ {
          "system": "http://snomed.info/sct",
          "code": "714628002"
        } ]
      },
      "subject": {
        "reference": "Patient/38255f11-9b45-497d-b798-6f0a54f02f37"
      },
      "onsetDateTime": "2000-12-30T00:00:00.000+00:00"
    },
    "request": {
      "method": "PUT",
      "url": "Condition/a78fd1d3-1a4c-4671-8554-fc77f13e74eb"
    }
  }, {
    "fullUrl": "https://madie.cms.gov/MeasureReport/5bef1739-31aa-4337-b0a8-3e0d729f852b",
    "resource": {
      "resourceType": "MeasureReport",
      "id": "5bef1739-31aa-4337-b0a8-3e0d729f852b",
      "meta": {
        "profile": [ "http://hl7.org/fhir/us/cqfmeasures/StructureDefinition/test-case-cqfm" ]
      },
      "contained": [ {
        "resourceType": "Parameters",
        "id": "239f76f2-1632-418b-9e68-566e76386026-parameters",
        "parameter": [ {
          "name": "subject",
          "valueString": "38255f11-9b45-497d-b798-6f0a54f02f37"
        } ]
      } ],
      "extension": [ {
        "url": "http://hl7.org/fhir/StructureDefinition/cqf-inputParameters",
        "valueReference": {
          "reference": "#239f76f2-1632-418b-9e68-566e76386026-parameters"
        }
      }, {
        "url": "http://hl7.org/fhir/us/cqfmeasures/StructureDefinition/cqfm-testCaseDescription",
        "valueMarkdown": "DENEX-prediabetes-diagnosis-dayoftest-longago"
      } ],
      "modifierExtension": [ {
        "url": "http://hl7.org/fhir/us/cqfmeasures/StructureDefinition/cqfm-isTestCase",
        "valueBoolean": true
      } ],
      "status": "complete",
      "type": "individual",
      "measure": "https://madie.cms.gov/Measure/CMS1154ScreeningPrediabetesFHIR",
      "period": {
        "start": "2026-01-01",
        "end": "2026-12-31"
      },
      "group": [ {
        "id": "Group_1",
        "population": [ {
          "id": "InitialPopulation_1",
          "code": {
            "coding": [ {
              "system": "http://terminology.hl7.org/CodeSystem/measure-population",
              "code": "initial-population",
              "display": "Initial Population"
            } ]
          },
          "count": 1
        }, {
          "id": "Denominator_1",
          "code": {
            "coding": [ {
              "system": "http://terminology.hl7.org/CodeSystem/measure-population",
              "code": "denominator",
              "display": "Denominator"
            } ]
          },
          "count": 1
        }, {
          "id": "DenominatorExclusion_1",
          "code": {
            "coding": [ {
              "system": "http://terminology.hl7.org/CodeSystem/measure-population",
              "code": "denominator-exclusion",
              "display": "Denominator Exclusion"
            } ]
          },
          "count": 1
        }, {
          "id": "Numerator_1",
          "code": {
            "coding": [ {
              "system": "http://terminology.hl7.org/CodeSystem/measure-population",
              "code": "numerator",
              "display": "Numerator"
            } ]
          },
          "count": 0
        } ],
        "measureScore": {
          "value": 1.0
        }
      } ],
      "evaluatedResource": [ {
        "reference": "Patient/38255f11-9b45-497d-b798-6f0a54f02f37"
      }, {
        "reference": "Encounter/ca9433c0-ffce-4d14-b3bb-75e976120829"
      }, {
        "reference": "Encounter/8d5567a0-19f2-49f3-9039-db33cdd59349"
      }, {
        "reference": "Observation/46cac289-b065-4c94-9d0f-5055cbdf3427"
      }, {
        "reference": "Condition/a78fd1d3-1a4c-4671-8554-fc77f13e74eb"
      } ]
    },
    "request": {
      "method": "PUT",
      "url": "MeasureReport/5bef1739-31aa-4337-b0a8-3e0d729f852b"
    }
  } ]
}