{
  "resourceType": "Bundle",
  "id": "63487c2d0968f80122540145",
  "type": "transaction",
  "entry": [ {
    "fullUrl": "https://madie.cms.gov/Patient/a354a551-030b-4e72-979a-a81cbb7b8249",
    "resource": {
      "resourceType": "Patient",
      "id": "a354a551-030b-4e72-979a-a81cbb7b8249",
      "meta": {
        "profile": [ "http://hl7.org/fhir/us/qicore/StructureDefinition/qicore-patient" ]
      },
      "text": {
        "status": "generated",
        "div": "<div xmlns=\"http://www.w3.org/1999/xhtml\"><div class=\"hapiHeaderText\">AssessP1<b>DENOMFail</b></div><table class=\"hapiPropertyTable\"><tbody><tr><td>Identifier</td><td>433af885768545c0b7502198218da0f1b5a64d7905cba864af8028ff627f6e9c</td></tr><tr><td>Date of birth</td><td><span>14 February 1985</span></td></tr></tbody></table></div>"
      },
      "extension": [ {
        "url": "http://hl7.org/fhir/us/core/StructureDefinition/us-core-race",
        "extension": [ {
          "url": "ombCategory",
          "valueCoding": {
            "system": "urn:oid:2.16.840.1.113883.6.238",
            "code": "1002-5",
            "display": "American Indian or Alaska Native",
            "userSelected": true
          }
        }, {
          "url": "text",
          "valueString": "American Indian or Alaska Native"
        } ]
      }, {
        "url": "http://hl7.org/fhir/us/core/StructureDefinition/us-core-ethnicity",
        "extension": [ {
          "url": "ombCategory",
          "valueCoding": {
            "system": "urn:oid:2.16.840.1.113883.6.238",
            "code": "2135-2",
            "display": "Hispanic or Latino",
            "userSelected": true
          }
        }, {
          "url": "text",
          "valueString": "Hispanic or Latino"
        } ]
      } ],
      "identifier": [ {
        "type": {
          "coding": [ {
            "system": "http://terminology.hl7.org/CodeSystem/v2-0203",
            "code": "MR"
          } ]
        },
        "system": "https://bonnie-fhir.healthit.gov/",
        "value": "63487c2d0968f80122540145"
      } ],
      "active": true,
      "name": [ {
        "use": "usual",
        "family": "DENOMFail",
        "given": [ "AssessP1" ]
      } ],
      "gender": "female",
      "birthDate": "1998-02-14"
    },
    "request": {
      "method": "PUT",
      "url": "Patient/a354a551-030b-4e72-979a-a81cbb7b8249"
    }
  }, {
    "fullUrl": "https://madie.cms.gov/Observation/36bafd8c-e536-447d-8554-a4ee6a6b5c22",
    "resource": {
      "resourceType": "Observation",
      "id": "36bafd8c-e536-447d-8554-a4ee6a6b5c22",
      "meta": {
        "profile": [ "http://hl7.org/fhir/us/qicore/StructureDefinition/qicore-simple-observation" ]
      },
      "status": "final",
      "category": [ {
        "coding": [ {
          "system": "http://terminology.hl7.org/CodeSystem/observation-category",
          "code": "exam",
          "display": "exam",
          "userSelected": true
        } ]
      } ],
      "code": {
        "coding": [ {
          "system": "http://loinc.org",
          "code": "11977-6"
        } ]
      },
      "subject": {
        "reference": "Patient/a354a551-030b-4e72-979a-a81cbb7b8249"
      },
      "effectiveDateTime": "2026-03-08T09:00:00.000+00:00",
      "valueInteger": 1
    },
    "request": {
      "method": "PUT",
      "url": "Observation/36bafd8c-e536-447d-8554-a4ee6a6b5c22"
    }
  }, {
    "fullUrl": "https://madie.cms.gov/Observation/c5dfa573-c509-4554-962b-62f3d6a3e2c3",
    "resource": {
      "resourceType": "Observation",
      "id": "c5dfa573-c509-4554-962b-62f3d6a3e2c3",
      "meta": {
        "profile": [ "http://hl7.org/fhir/us/qicore/StructureDefinition/qicore-simple-observation" ]
      },
      "status": "final",
      "category": [ {
        "coding": [ {
          "system": "http://terminology.hl7.org/CodeSystem/observation-category",
          "code": "exam",
          "display": "exam",
          "userSelected": true
        } ]
      } ],
      "code": {
        "coding": [ {
          "system": "http://loinc.org",
          "code": "11884-4"
        } ]
      },
      "subject": {
        "reference": "Patient/a354a551-030b-4e72-979a-a81cbb7b8249"
      },
      "effectiveDateTime": "2026-06-08T20:00:00.000+00:00",
      "valueQuantity": {
        "value": 37,
        "system": "http://unitsofmeasure.org",
        "code": "wk"
      }
    },
    "request": {
      "method": "PUT",
      "url": "Observation/c5dfa573-c509-4554-962b-62f3d6a3e2c3"
    }
  }, {
    "fullUrl": "https://madie.cms.gov/Observation/54632722-b181-4e18-a0ea-658d20139b1f",
    "resource": {
      "resourceType": "Observation",
      "id": "54632722-b181-4e18-a0ea-658d20139b1f",
      "meta": {
        "profile": [ "http://hl7.org/fhir/us/qicore/StructureDefinition/qicore-simple-observation" ]
      },
      "status": "final",
      "category": [ {
        "coding": [ {
          "system": "http://terminology.hl7.org/CodeSystem/observation-category",
          "code": "exam",
          "display": "exam",
          "userSelected": true
        } ]
      } ],
      "code": {
        "coding": [ {
          "system": "http://loinc.org",
          "code": "93857-1"
        } ]
      },
      "subject": {
        "reference": "Patient/a354a551-030b-4e72-979a-a81cbb7b8249"
      },
      "effectiveDateTime": "2026-06-08T20:00:00.000+00:00",
      "valueDateTime": "2026-06-08T20:00:00.000+00:00"
    },
    "request": {
      "method": "PUT",
      "url": "Observation/54632722-b181-4e18-a0ea-658d20139b1f"
    }
  }, {
    "fullUrl": "https://madie.cms.gov/Encounter/5894dcdc-89ce-4c0f-9c13-c3ef3602fbad",
    "resource": {
      "resourceType": "Encounter",
      "id": "5894dcdc-89ce-4c0f-9c13-c3ef3602fbad",
      "meta": {
        "profile": [ "http://hl7.org/fhir/us/qicore/StructureDefinition/qicore-encounter" ]
      },
      "status": "finished",
      "class": {
        "system": "http://terminology.hl7.org/CodeSystem/v3-ActCode",
        "code": "IMP",
        "display": "inpatient encounter"
      },
      "type": [ {
        "coding": [ {
          "system": "http://snomed.info/sct",
          "code": "8715000"
        } ]
      } ],
      "subject": {
        "reference": "Patient/a354a551-030b-4e72-979a-a81cbb7b8249"
      },
      "period": {
        "start": "2026-06-08T08:00:00.000+00:00",
        "end": "2026-06-10T08:15:00.000+00:00"
      },
      "length": {
        "value": 2,
        "unit": "days"
      },
      "reasonReference": [ {
        "reference": "Condition/4e4d6ff8-b60a-45ee-9736-611013e26c70"
      } ]
    },
    "request": {
      "method": "PUT",
      "url": "Encounter/5894dcdc-89ce-4c0f-9c13-c3ef3602fbad"
    }
  }, {
    "fullUrl": "https://madie.cms.gov/Procedure/4b123f59-41db-4f35-973d-0f9458029fa8",
    "resource": {
      "resourceType": "Procedure",
      "id": "4b123f59-41db-4f35-973d-0f9458029fa8",
      "meta": {
        "profile": [ "http://hl7.org/fhir/us/qicore/StructureDefinition/qicore-procedure" ]
      },
      "extension": [ {
        "url": "http://hl7.org/fhir/us/qicore/StructureDefinition/qicore-recorded",
        "valueDateTime": "2014-04-05T13:35:00.000+00:00"
      } ],
      "status": "completed",
      "code": {
        "coding": [ {
          "system": "http://www.cms.gov/Medicare/Coding/ICD10",
          "code": "10D00Z0"
        }, {
          "system": "http://snomed.info/sct",
          "code": "4504004"
        } ]
      },
      "subject": {
        "reference": "Patient/a354a551-030b-4e72-979a-a81cbb7b8249"
      },
      "performedPeriod": {
        "start": "2026-06-08T20:00:00.000+00:00",
        "end": "2026-06-08T20:15:00.000+00:00"
      }
    },
    "request": {
      "method": "PUT",
      "url": "Procedure/4b123f59-41db-4f35-973d-0f9458029fa8"
    }
  }, {
    "fullUrl": "https://madie.cms.gov/Condition/4e4d6ff8-b60a-45ee-9736-611013e26c70",
    "resource": {
      "resourceType": "Condition",
      "id": "4e4d6ff8-b60a-45ee-9736-611013e26c70",
      "meta": {
        "profile": [ "http://hl7.org/fhir/us/qicore/StructureDefinition/qicore-condition-encounter-diagnosis" ]
      },
      "category": [ {
        "coding": [ {
          "system": "http://terminology.hl7.org/CodeSystem/condition-category",
          "code": "encounter-diagnosis",
          "display": "Encounter Diagnosis"
        } ]
      } ],
      "code": {
        "coding": [ {
          "system": "http://snomed.info/sct",
          "version": "2022-09",
          "code": "169826009",
          "display": "Single live birth from singleton pregnancy (finding)",
          "userSelected": true
        } ]
      },
      "subject": {
        "reference": "Patient/a354a551-030b-4e72-979a-a81cbb7b8249"
      },
      "encounter": {
        "reference": "Encounter/5894dcdc-89ce-4c0f-9c13-c3ef3602fbad"
      },
      "recordedDate": "2026-10-21T08:00:00.000+00:00"
    },
    "request": {
      "method": "PUT",
      "url": "Condition/4e4d6ff8-b60a-45ee-9736-611013e26c70"
    }
  }, {
    "fullUrl": "https://madie.cms.gov/Coverage/2ea36436-e0b0-44a2-ac7d-69e5e3ea70f3",
    "resource": {
      "resourceType": "Coverage",
      "id": "2ea36436-e0b0-44a2-ac7d-69e5e3ea70f3",
      "meta": {
        "profile": [ "http://hl7.org/fhir/us/qicore/StructureDefinition/qicore-coverage" ]
      },
      "status": "active",
      "subscriberId": "523435",
      "beneficiary": {
        "reference": "Patient/a354a551-030b-4e72-979a-a81cbb7b8249"
      },
      "relationship": {
        "coding": [ {
          "system": "http://terminology.hl7.org/CodeSystem/subscriber-relationship",
          "code": "self"
        } ]
      },
      "payor": [ {
        "reference": "Organization/31fe2180-3884-4dc3-a46e-8cbb17150287"
      } ]
    },
    "request": {
      "method": "PUT",
      "url": "Coverage/2ea36436-e0b0-44a2-ac7d-69e5e3ea70f3"
    }
  }, {
    "fullUrl": "https://madie.cms.gov/Organization/31fe2180-3884-4dc3-a46e-8cbb17150287",
    "resource": {
      "resourceType": "Organization",
      "id": "31fe2180-3884-4dc3-a46e-8cbb17150287",
      "meta": {
        "profile": [ "http://hl7.org/fhir/us/qicore/StructureDefinition/qicore-organization" ]
      },
      "identifier": [ {
        "use": "temp",
        "system": "urn:oid:2.16.840.1.113883.4.4",
        "value": "21-3259825"
      } ],
      "active": true,
      "type": [ {
        "coding": [ {
          "system": "http://terminology.hl7.org/CodeSystem/organization-type",
          "code": "pay",
          "display": "Payer"
        } ]
      } ],
      "name": "Blue Cross Blue Shield of Texas",
      "telecom": [ {
        "system": "phone",
        "value": "(+1) 972-766-6900"
      } ],
      "address": [ {
        "use": "billing",
        "type": "postal",
        "line": [ "P.O. Box 660044" ],
        "city": "Dallas",
        "state": "TX",
        "postalCode": "75266-0044",
        "country": "USA"
      } ]
    },
    "request": {
      "method": "PUT",
      "url": "Organization/31fe2180-3884-4dc3-a46e-8cbb17150287"
    }
  }, {
    "fullUrl": "https://madie.cms.gov/Practitioner/ea354c67-ec2a-4a81-be61-9a0b63ed80d6",
    "resource": {
      "resourceType": "Practitioner",
      "id": "ea354c67-ec2a-4a81-be61-9a0b63ed80d6",
      "meta": {
        "profile": [ "http://hl7.org/fhir/us/qicore/StructureDefinition/qicore-practitioner" ]
      },
      "identifier": [ {
        "system": "http://hl7.org/fhir/sid/us-npi",
        "value": "1234567890"
      } ],
      "name": [ {
        "family": "Evil",
        "prefix": [ "Dr" ]
      } ]
    },
    "request": {
      "method": "PUT",
      "url": "Practitioner/ea354c67-ec2a-4a81-be61-9a0b63ed80d6"
    }
  }, {
    "fullUrl": "https://madie.cms.gov/MeasureReport/674be964-228c-426d-a86a-af50836d1107",
    "resource": {
      "resourceType": "MeasureReport",
      "id": "674be964-228c-426d-a86a-af50836d1107",
      "meta": {
        "profile": [ "http://hl7.org/fhir/us/cqfmeasures/StructureDefinition/test-case-cqfm" ]
      },
      "contained": [ {
        "resourceType": "Parameters",
        "id": "2377317d-8eae-4fe8-b68e-65eb1898f96a-parameters",
        "parameter": [ {
          "name": "subject",
          "valueString": "a354a551-030b-4e72-979a-a81cbb7b8249"
        } ]
      } ],
      "extension": [ {
        "url": "http://hl7.org/fhir/StructureDefinition/cqf-inputParameters",
        "valueReference": {
          "reference": "#2377317d-8eae-4fe8-b68e-65eb1898f96a-parameters"
        }
      }, {
        "url": "http://hl7.org/fhir/us/cqfmeasures/StructureDefinition/cqfm-testCaseDescription",
        "valueMarkdown": "Passes IP,  fail Denom with  Parity= 1\n"
      } ],
      "modifierExtension": [ {
        "url": "http://hl7.org/fhir/us/cqfmeasures/StructureDefinition/cqfm-isTestCase",
        "valueBoolean": true
      } ],
      "status": "complete",
      "type": "individual",
      "measure": "https://madie.cms.gov/Measure/CMS0334FHIRPCCesareanBirth",
      "period": {
        "start": "2026-01-01",
        "end": "2026-12-31"
      },
      "group": [ {
        "id": "Group_1",
        "population": [ {
          "id": "InitialPopulation_1",
          "code": {
            "coding": [ {
              "system": "http://terminology.hl7.org/CodeSystem/measure-population",
              "code": "initial-population",
              "display": "Initial Population"
            } ]
          },
          "count": 1
        }, {
          "id": "Denominator_1",
          "code": {
            "coding": [ {
              "system": "http://terminology.hl7.org/CodeSystem/measure-population",
              "code": "denominator",
              "display": "Denominator"
            } ]
          },
          "count": 0
        }, {
          "id": "DenominatorExclusion_1",
          "code": {
            "coding": [ {
              "system": "http://terminology.hl7.org/CodeSystem/measure-population",
              "code": "denominator-exclusion",
              "display": "Denominator Exclusion"
            } ]
          },
          "count": 0
        }, {
          "id": "Numerator_1",
          "code": {
            "coding": [ {
              "system": "http://terminology.hl7.org/CodeSystem/measure-population",
              "code": "numerator",
              "display": "Numerator"
            } ]
          },
          "count": 0
        } ],
        "measureScore": {
          "value": 0.0
        }
      } ],
      "evaluatedResource": [ {
        "reference": "Patient/a354a551-030b-4e72-979a-a81cbb7b8249"
      }, {
        "reference": "Observation/36bafd8c-e536-447d-8554-a4ee6a6b5c22"
      }, {
        "reference": "Observation/c5dfa573-c509-4554-962b-62f3d6a3e2c3"
      }, {
        "reference": "Observation/54632722-b181-4e18-a0ea-658d20139b1f"
      }, {
        "reference": "Encounter/5894dcdc-89ce-4c0f-9c13-c3ef3602fbad"
      }, {
        "reference": "Procedure/4b123f59-41db-4f35-973d-0f9458029fa8"
      }, {
        "reference": "Condition/4e4d6ff8-b60a-45ee-9736-611013e26c70"
      }, {
        "reference": "Coverage/2ea36436-e0b0-44a2-ac7d-69e5e3ea70f3"
      }, {
        "reference": "Organization/31fe2180-3884-4dc3-a46e-8cbb17150287"
      }, {
        "reference": "Practitioner/ea354c67-ec2a-4a81-be61-9a0b63ed80d6"
      } ]
    },
    "request": {
      "method": "PUT",
      "url": "MeasureReport/674be964-228c-426d-a86a-af50836d1107"
    }
  } ]
}