{
  "resourceType": "Bundle",
  "id": "63487c2d0968f80122540155",
  "type": "transaction",
  "entry": [ {
    "fullUrl": "https://madie.cms.gov/Patient/ea482ebf-f11a-4984-9289-0257711ed160",
    "resource": {
      "resourceType": "Patient",
      "id": "ea482ebf-f11a-4984-9289-0257711ed160",
      "meta": {
        "profile": [ "http://hl7.org/fhir/us/qicore/StructureDefinition/qicore-patient" ]
      },
      "text": {
        "status": "generated",
        "div": "<div xmlns=\"http://www.w3.org/1999/xhtml\"><div class=\"hapiHeaderText\">ProcCsectStartEQDelivEncStart<b>NUMPASS</b></div><table class=\"hapiPropertyTable\"><tbody><tr><td>Identifier</td><td>ba4fd3b10ac3c0774130502644ec993f7ad4c4fe84bc3b79df4100b77375baef</td></tr><tr><td>Date of birth</td><td><span>14 February 1985</span></td></tr></tbody></table></div>"
      },
      "extension": [ {
        "url": "http://hl7.org/fhir/us/core/StructureDefinition/us-core-race",
        "extension": [ {
          "url": "ombCategory",
          "valueCoding": {
            "system": "urn:oid:2.16.840.1.113883.6.238",
            "code": "1002-5",
            "display": "American Indian or Alaska Native",
            "userSelected": true
          }
        }, {
          "url": "text",
          "valueString": "American Indian or Alaska Native"
        } ]
      }, {
        "url": "http://hl7.org/fhir/us/core/StructureDefinition/us-core-ethnicity",
        "extension": [ {
          "url": "ombCategory",
          "valueCoding": {
            "system": "urn:oid:2.16.840.1.113883.6.238",
            "code": "2135-2",
            "display": "Hispanic or Latino",
            "userSelected": true
          }
        }, {
          "url": "text",
          "valueString": "Hispanic or Latino"
        } ]
      }, {
        "url": "http://hl7.org/fhir/us/core/StructureDefinition/us-core-sex",
        "valueCode": "248152002"
      } ],
      "identifier": [ {
        "type": {
          "coding": [ {
            "system": "http://terminology.hl7.org/CodeSystem/v2-0203",
            "code": "MR"
          } ]
        },
        "system": "https://bonnie-fhir.healthit.gov/",
        "value": "63487c2d0968f80122540155"
      } ],
      "active": true,
      "name": [ {
        "use": "usual",
        "family": "NUMPass",
        "given": [ "ProcCsectStartEQDelivEncStart" ]
      } ],
      "gender": "female",
      "birthDate": "1998-02-14"
    },
    "request": {
      "method": "PUT",
      "url": "Patient/ea482ebf-f11a-4984-9289-0257711ed160"
    }
  }, {
    "fullUrl": "https://madie.cms.gov/Observation/fd311c94-171d-44f3-8567-af7eebca38e8",
    "resource": {
      "resourceType": "Observation",
      "id": "fd311c94-171d-44f3-8567-af7eebca38e8",
      "meta": {
        "profile": [ "http://hl7.org/fhir/us/qicore/StructureDefinition/qicore-simple-observation" ]
      },
      "status": "final",
      "category": [ {
        "coding": [ {
          "system": "http://terminology.hl7.org/CodeSystem/observation-category",
          "code": "exam",
          "display": "exam",
          "userSelected": true
        } ]
      } ],
      "code": {
        "coding": [ {
          "system": "http://loinc.org",
          "code": "11996-6"
        } ]
      },
      "subject": {
        "reference": "Patient/ea482ebf-f11a-4984-9289-0257711ed160"
      },
      "effectiveDateTime": "2026-02-09T08:00:00.000+00:00",
      "performer": [ {
        "reference": "Organization/example1",
        "display": "Hendricks Country Hospital"
      } ],
      "valueInteger": 1
    },
    "request": {
      "method": "PUT",
      "url": "Observation/fd311c94-171d-44f3-8567-af7eebca38e8"
    }
  }, {
    "fullUrl": "https://madie.cms.gov/Observation/d7e2eea7-56fb-4e88-b24a-41e71e06c323",
    "resource": {
      "resourceType": "Observation",
      "id": "d7e2eea7-56fb-4e88-b24a-41e71e06c323",
      "meta": {
        "profile": [ "http://hl7.org/fhir/us/qicore/StructureDefinition/qicore-simple-observation" ]
      },
      "status": "final",
      "category": [ {
        "coding": [ {
          "system": "http://terminology.hl7.org/CodeSystem/observation-category",
          "code": "exam",
          "display": "exam",
          "userSelected": true
        } ]
      } ],
      "code": {
        "coding": [ {
          "system": "http://loinc.org",
          "code": "11884-4"
        } ]
      },
      "subject": {
        "reference": "Patient/ea482ebf-f11a-4984-9289-0257711ed160"
      },
      "effectiveDateTime": "2026-11-28T21:15:00.000+00:00",
      "performer": [ {
        "reference": "Organization/example1",
        "display": "Hendricks Country Hospital"
      } ],
      "valueQuantity": {
        "value": 40,
        "system": "http://unitsofmeasure.org",
        "code": "wk"
      }
    },
    "request": {
      "method": "PUT",
      "url": "Observation/d7e2eea7-56fb-4e88-b24a-41e71e06c323"
    }
  }, {
    "fullUrl": "https://madie.cms.gov/Observation/a6352b9b-b9bd-4da8-9ad5-db591bff3261",
    "resource": {
      "resourceType": "Observation",
      "id": "a6352b9b-b9bd-4da8-9ad5-db591bff3261",
      "meta": {
        "profile": [ "http://hl7.org/fhir/us/qicore/StructureDefinition/qicore-simple-observation" ]
      },
      "status": "final",
      "category": [ {
        "coding": [ {
          "system": "http://terminology.hl7.org/CodeSystem/observation-category",
          "code": "exam",
          "display": "exam",
          "userSelected": true
        } ]
      } ],
      "code": {
        "coding": [ {
          "system": "http://loinc.org",
          "code": "93857-1"
        } ]
      },
      "subject": {
        "reference": "Patient/ea482ebf-f11a-4984-9289-0257711ed160"
      },
      "effectiveDateTime": "2026-11-28T21:15:00.000+00:00",
      "performer": [ {
        "reference": "Organization/example1",
        "display": "Hendricks Country Hospital"
      } ],
      "valueDateTime": "2026-11-28T21:15:00.000+00:00"
    },
    "request": {
      "method": "PUT",
      "url": "Observation/a6352b9b-b9bd-4da8-9ad5-db591bff3261"
    }
  }, {
    "fullUrl": "https://madie.cms.gov/Encounter/b7de4338-6ac1-4f13-9a0b-1314c6df841a",
    "resource": {
      "resourceType": "Encounter",
      "id": "b7de4338-6ac1-4f13-9a0b-1314c6df841a",
      "meta": {
        "profile": [ "http://hl7.org/fhir/us/qicore/StructureDefinition/qicore-encounter" ]
      },
      "status": "finished",
      "class": {
        "system": "http://terminology.hl7.org/CodeSystem/v3-ActCode",
        "code": "IMP",
        "display": "inpatient encounter"
      },
      "type": [ {
        "coding": [ {
          "system": "http://snomed.info/sct",
          "code": "8715000"
        } ]
      } ],
      "subject": {
        "reference": "Patient/ea482ebf-f11a-4984-9289-0257711ed160"
      },
      "period": {
        "start": "2026-11-28T08:00:00.000+00:00",
        "end": "2026-11-30T08:15:00.000+00:00"
      },
      "reasonCode": [ {
        "coding": [ {
          "system": "http://snomed.info/sct",
          "code": "169826009",
          "display": "Single live birth from singleton pregnancy (finding)"
        } ]
      } ]
    },
    "request": {
      "method": "PUT",
      "url": "Encounter/b7de4338-6ac1-4f13-9a0b-1314c6df841a"
    }
  }, {
    "fullUrl": "https://madie.cms.gov/Procedure/2f8219ca-9761-412f-bb90-f17e64aa0bd1",
    "resource": {
      "resourceType": "Procedure",
      "id": "2f8219ca-9761-412f-bb90-f17e64aa0bd1",
      "meta": {
        "profile": [ "http://hl7.org/fhir/us/qicore/StructureDefinition/qicore-procedure" ]
      },
      "extension": [ {
        "url": "http://hl7.org/fhir/us/qicore/StructureDefinition/qicore-recorded",
        "valueDateTime": "2014-04-05T13:35:00.000+00:00"
      } ],
      "status": "completed",
      "code": {
        "coding": [ {
          "system": "http://www.cms.gov/Medicare/Coding/ICD10",
          "code": "10D00Z0"
        } ]
      },
      "subject": {
        "reference": "Patient/ea482ebf-f11a-4984-9289-0257711ed160"
      },
      "performedPeriod": {
        "start": "2026-11-28T08:00:00.000+00:00",
        "end": "2026-11-28T09:00:00.000+00:00"
      }
    },
    "request": {
      "method": "PUT",
      "url": "Procedure/2f8219ca-9761-412f-bb90-f17e64aa0bd1"
    }
  }, {
    "fullUrl": "https://madie.cms.gov/Condition/112703dd-581e-4f3f-8525-c6c3d9572846",
    "resource": {
      "resourceType": "Condition",
      "id": "112703dd-581e-4f3f-8525-c6c3d9572846",
      "meta": {
        "profile": [ "http://hl7.org/fhir/us/qicore/StructureDefinition/qicore-condition-encounter-diagnosis" ]
      },
      "category": [ {
        "coding": [ {
          "system": "http://terminology.hl7.org/CodeSystem/condition-category",
          "code": "encounter-diagnosis",
          "display": "Encounter Diagnosis"
        } ]
      } ],
      "code": {
        "coding": [ {
          "system": "http://snomed.info/sct",
          "version": "2022-09",
          "code": "169826009",
          "display": "Single live birth from singleton pregnancy (finding)",
          "userSelected": true
        } ]
      },
      "subject": {
        "reference": "Patient/ea482ebf-f11a-4984-9289-0257711ed160"
      },
      "recordedDate": "2026-10-17T08:00:00.000+00:00"
    },
    "request": {
      "method": "PUT",
      "url": "Condition/112703dd-581e-4f3f-8525-c6c3d9572846"
    }
  }, {
    "fullUrl": "https://madie.cms.gov/Coverage/d9f4d08d-67de-4d57-8418-f0c7c4589370",
    "resource": {
      "resourceType": "Coverage",
      "id": "d9f4d08d-67de-4d57-8418-f0c7c4589370",
      "meta": {
        "profile": [ "http://hl7.org/fhir/us/qicore/StructureDefinition/qicore-coverage" ]
      },
      "status": "active",
      "subscriberId": "523435",
      "beneficiary": {
        "reference": "Patient/ea482ebf-f11a-4984-9289-0257711ed160"
      },
      "relationship": {
        "coding": [ {
          "system": "http://terminology.hl7.org/CodeSystem/subscriber-relationship",
          "code": "self"
        } ]
      },
      "payor": [ {
        "reference": "Organization/74465b60-24af-40d1-a381-8d6361bbe439"
      } ]
    },
    "request": {
      "method": "PUT",
      "url": "Coverage/d9f4d08d-67de-4d57-8418-f0c7c4589370"
    }
  }, {
    "fullUrl": "https://madie.cms.gov/Organization/74465b60-24af-40d1-a381-8d6361bbe439",
    "resource": {
      "resourceType": "Organization",
      "id": "74465b60-24af-40d1-a381-8d6361bbe439",
      "meta": {
        "profile": [ "http://hl7.org/fhir/us/qicore/StructureDefinition/qicore-organization" ]
      },
      "identifier": [ {
        "use": "temp",
        "system": "urn:oid:2.16.840.1.113883.4.4",
        "value": "21-3259825"
      } ],
      "active": true,
      "type": [ {
        "coding": [ {
          "system": "http://terminology.hl7.org/CodeSystem/organization-type",
          "code": "pay",
          "display": "Payer"
        } ]
      } ],
      "name": "Blue Cross Blue Shield of Texas",
      "telecom": [ {
        "system": "phone",
        "value": "(+1) 972-766-6900"
      } ],
      "address": [ {
        "use": "billing",
        "type": "postal",
        "line": [ "P.O. Box 660044" ],
        "city": "Dallas",
        "state": "TX",
        "postalCode": "75266-0044",
        "country": "USA"
      } ]
    },
    "request": {
      "method": "PUT",
      "url": "Organization/74465b60-24af-40d1-a381-8d6361bbe439"
    }
  }, {
    "fullUrl": "https://madie.cms.gov/Practitioner/c074216c-1d96-416a-b0d3-c5a906b27d1c",
    "resource": {
      "resourceType": "Practitioner",
      "id": "c074216c-1d96-416a-b0d3-c5a906b27d1c",
      "meta": {
        "profile": [ "http://hl7.org/fhir/us/qicore/StructureDefinition/qicore-practitioner" ]
      },
      "identifier": [ {
        "system": "http://hl7.org/fhir/sid/us-npi",
        "value": "1234567890"
      } ],
      "name": [ {
        "family": "Evil",
        "prefix": [ "Dr" ]
      } ]
    },
    "request": {
      "method": "PUT",
      "url": "Practitioner/c074216c-1d96-416a-b0d3-c5a906b27d1c"
    }
  }, {
    "fullUrl": "https://madie.cms.gov/MeasureReport/e86f4fb9-42ab-4b37-ae38-461a7a5103ac",
    "resource": {
      "resourceType": "MeasureReport",
      "id": "e86f4fb9-42ab-4b37-ae38-461a7a5103ac",
      "meta": {
        "profile": [ "http://hl7.org/fhir/us/cqfmeasures/StructureDefinition/test-case-cqfm" ]
      },
      "contained": [ {
        "resourceType": "Parameters",
        "id": "4f71d40b-1da0-4f43-b1e9-249bc843cc99-parameters",
        "parameter": [ {
          "name": "subject",
          "valueString": "ea482ebf-f11a-4984-9289-0257711ed160"
        } ]
      } ],
      "extension": [ {
        "url": "http://hl7.org/fhir/StructureDefinition/cqf-inputParameters",
        "valueReference": {
          "reference": "#4f71d40b-1da0-4f43-b1e9-249bc843cc99-parameters"
        }
      }, {
        "url": "http://hl7.org/fhir/us/cqfmeasures/StructureDefinition/cqfm-testCaseDescription",
        "valueMarkdown": "Passes IP, DEN, NUM; Gravida 1(effective date 42 weeks)  and EGA 40 weeks;  Start of Proc Csect equals start of Delivery Encounter."
      } ],
      "modifierExtension": [ {
        "url": "http://hl7.org/fhir/us/cqfmeasures/StructureDefinition/cqfm-isTestCase",
        "valueBoolean": true
      } ],
      "status": "complete",
      "type": "individual",
      "measure": "https://madie.cms.gov/Measure/CMS0334FHIRPCCesareanBirth",
      "period": {
        "start": "2026-01-01",
        "end": "2026-12-31"
      },
      "group": [ {
        "id": "Group_1",
        "population": [ {
          "id": "InitialPopulation_1",
          "code": {
            "coding": [ {
              "system": "http://terminology.hl7.org/CodeSystem/measure-population",
              "code": "initial-population",
              "display": "Initial Population"
            } ]
          },
          "count": 1
        }, {
          "id": "Denominator_1",
          "code": {
            "coding": [ {
              "system": "http://terminology.hl7.org/CodeSystem/measure-population",
              "code": "denominator",
              "display": "Denominator"
            } ]
          },
          "count": 1
        }, {
          "id": "DenominatorExclusion_1",
          "code": {
            "coding": [ {
              "system": "http://terminology.hl7.org/CodeSystem/measure-population",
              "code": "denominator-exclusion",
              "display": "Denominator Exclusion"
            } ]
          },
          "count": 0
        }, {
          "id": "Numerator_1",
          "code": {
            "coding": [ {
              "system": "http://terminology.hl7.org/CodeSystem/measure-population",
              "code": "numerator",
              "display": "Numerator"
            } ]
          },
          "count": 1
        } ],
        "measureScore": {
          "value": 0.0
        }
      } ],
      "evaluatedResource": [ {
        "reference": "Patient/ea482ebf-f11a-4984-9289-0257711ed160"
      }, {
        "reference": "Observation/fd311c94-171d-44f3-8567-af7eebca38e8"
      }, {
        "reference": "Observation/d7e2eea7-56fb-4e88-b24a-41e71e06c323"
      }, {
        "reference": "Observation/a6352b9b-b9bd-4da8-9ad5-db591bff3261"
      }, {
        "reference": "Encounter/b7de4338-6ac1-4f13-9a0b-1314c6df841a"
      }, {
        "reference": "Procedure/2f8219ca-9761-412f-bb90-f17e64aa0bd1"
      }, {
        "reference": "Condition/112703dd-581e-4f3f-8525-c6c3d9572846"
      }, {
        "reference": "Coverage/d9f4d08d-67de-4d57-8418-f0c7c4589370"
      }, {
        "reference": "Organization/74465b60-24af-40d1-a381-8d6361bbe439"
      }, {
        "reference": "Practitioner/c074216c-1d96-416a-b0d3-c5a906b27d1c"
      } ]
    },
    "request": {
      "method": "PUT",
      "url": "MeasureReport/e86f4fb9-42ab-4b37-ae38-461a7a5103ac"
    }
  } ]
}