{
  "resourceType": "Bundle",
  "id": "46313213416131",
  "type": "collection",
  "entry": [ {
    "fullUrl": "https://madie.cms.gov/Patient/07efd4bb-b45d-4bfd-aeb2-08de49742d91",
    "resource": {
      "resourceType": "Patient",
      "id": "07efd4bb-b45d-4bfd-aeb2-08de49742d91",
      "meta": {
        "profile": [ "http://hl7.org/fhir/us/qicore/StructureDefinition/qicore-patient" ]
      },
      "extension": [ {
        "url": "http://hl7.org/fhir/us/core/StructureDefinition/us-core-race",
        "extension": [ {
          "url": "ombCategory",
          "valueCoding": {
            "system": "urn:oid:2.16.840.1.113883.6.238",
            "code": "2106-3",
            "display": "White"
          }
        }, {
          "url": "detailed",
          "valueCoding": {
            "system": "urn:oid:2.16.840.1.113883.6.238",
            "code": "2036-2",
            "display": "Filipino"
          }
        }, {
          "url": "text",
          "valueString": "mixed"
        } ]
      }, {
        "url": "http://hl7.org/fhir/us/core/StructureDefinition/us-core-ethnicity",
        "extension": [ {
          "url": "ombCategory",
          "valueCoding": {
            "system": "urn:oid:2.16.840.1.113883.6.238",
            "code": "2135-2",
            "display": "Hispanic or Latino"
          }
        }, {
          "url": "detailed",
          "valueCoding": {
            "system": "urn:oid:2.16.840.1.113883.6.238",
            "code": "2148-5",
            "display": "Mexican"
          }
        }, {
          "url": "text",
          "valueString": "Hispanic or Latino"
        } ]
      } ],
      "identifier": [ {
        "type": {
          "coding": [ {
            "system": "http://terminology.hl7.org/CodeSystem/v2-0203",
            "code": "MR"
          } ]
        },
        "system": "https://bonnie-fhir.healthit.gov/",
        "value": "46431231346541"
      } ],
      "active": true,
      "name": [ {
        "use": "usual",
        "family": "DENOMEXEPPass",
        "given": [ "BetalBlockerNotOrderedPR" ]
      } ],
      "gender": "male",
      "birthDate": "1973-12-13"
    }
  }, {
    "fullUrl": "https://madie.cms.gov/Encounter/22cc3ede-20b6-4857-8bf7-d057fa021b41",
    "resource": {
      "resourceType": "Encounter",
      "id": "22cc3ede-20b6-4857-8bf7-d057fa021b41",
      "meta": {
        "profile": [ "http://hl7.org/fhir/us/qicore/StructureDefinition/qicore-encounter" ]
      },
      "status": "finished",
      "class": {
        "system": "http://terminology.hl7.org/CodeSystem/v3-ActCode",
        "code": "AMB",
        "display": "ambulatory"
      },
      "type": [ {
        "coding": [ {
          "system": "http://www.ama-assn.org/go/cpt",
          "version": "2024",
          "code": "99213"
        } ]
      } ],
      "subject": {
        "reference": "Patient/07efd4bb-b45d-4bfd-aeb2-08de49742d91"
      },
      "period": {
        "start": "2026-04-14T14:40:00.000+00:00",
        "end": "2026-04-14T14:50:00.000+00:00"
      },
      "length": {
        "value": 0,
        "unit": "days"
      }
    }
  }, {
    "fullUrl": "https://madie.cms.gov/Encounter/bd66c8e2-0224-4913-8b8b-2b05098deb44",
    "resource": {
      "resourceType": "Encounter",
      "id": "bd66c8e2-0224-4913-8b8b-2b05098deb44",
      "meta": {
        "profile": [ "http://hl7.org/fhir/us/qicore/StructureDefinition/qicore-encounter" ]
      },
      "status": "finished",
      "class": {
        "system": "http://terminology.hl7.org/CodeSystem/v3-ActCode",
        "code": "AMB",
        "display": "ambulatory"
      },
      "type": [ {
        "coding": [ {
          "system": "http://www.ama-assn.org/go/cpt",
          "version": "2024",
          "code": "99213"
        } ]
      } ],
      "subject": {
        "reference": "Patient/07efd4bb-b45d-4bfd-aeb2-08de49742d91"
      },
      "period": {
        "start": "2026-07-20T11:50:00.000+00:00",
        "end": "2026-07-20T12:50:00.000+00:00"
      },
      "length": {
        "value": 0,
        "unit": "days"
      }
    }
  }, {
    "fullUrl": "https://madie.cms.gov/MedicationRequest/17bf2289-2b2d-4116-8c8e-6695fa7c634b",
    "resource": {
      "resourceType": "MedicationRequest",
      "id": "17bf2289-2b2d-4116-8c8e-6695fa7c634b",
      "meta": {
        "profile": [ "http://hl7.org/fhir/us/qicore/StructureDefinition/qicore-medicationnotrequested" ]
      },
      "status": "completed",
      "intent": "order",
      "doNotPerform": true,
      "medicationCodeableConcept": {
        "coding": [ {
          "system": "http://www.nlm.nih.gov/research/umls/rxnorm",
          "version": "08072023",
          "code": "1999033",
          "display": "24 HR metoprolol succinate 200 MG Extended Release Oral Capsule"
        } ]
      },
      "subject": {
        "reference": "Patient/07efd4bb-b45d-4bfd-aeb2-08de49742d91"
      },
      "authoredOn": "2026-07-20T12:15:00.000+00:00",
      "requester": {
        "reference": "Practitioner/2fb0c20e-2583-4c22-b773-7782fd7b9ede"
      },
      "reasonCode": [ {
        "coding": [ {
          "system": "http://snomed.info/sct",
          "version": "http://snomed.info/sct/731000124108/version/20230301",
          "code": "406149000",
          "display": "Medication declined (situation)"
        } ]
      } ]
    }
  }, {
    "fullUrl": "https://madie.cms.gov/Practitioner/2fb0c20e-2583-4c22-b773-7782fd7b9ede",
    "resource": {
      "resourceType": "Practitioner",
      "id": "2fb0c20e-2583-4c22-b773-7782fd7b9ede",
      "meta": {
        "profile": [ "http://hl7.org/fhir/us/qicore/StructureDefinition/qicore-practitioner" ]
      },
      "identifier": [ {
        "use": "temp",
        "system": "urn:oid:2.16.840.1.113883.4.336",
        "value": "Practitioner-45"
      } ],
      "active": true,
      "name": [ {
        "family": "Strangelove",
        "given": [ "Adam" ],
        "prefix": [ "Dr" ]
      } ],
      "qualification": [ {
        "identifier": [ {
          "system": "http://mock-data.org/UniversityIdentifier",
          "value": "12345"
        } ],
        "code": {
          "coding": [ {
            "system": "http://terminology.hl7.org/CodeSystem/v2-0360|2.7",
            "code": "BS",
            "display": "Bachelor of Science"
          } ],
          "text": "Bachelor of Science"
        },
        "period": {
          "start": "1996"
        },
        "issuer": {
          "display": "Example University"
        }
      } ]
    }
  }, {
    "fullUrl": "https://madie.cms.gov/Condition/90ae6a7f-eccb-4a67-af8c-f3973b7ac81d",
    "resource": {
      "resourceType": "Condition",
      "id": "90ae6a7f-eccb-4a67-af8c-f3973b7ac81d",
      "meta": {
        "profile": [ "http://hl7.org/fhir/us/qicore/StructureDefinition/qicore-condition-problems-health-concerns" ]
      },
      "clinicalStatus": {
        "coding": [ {
          "system": "http://terminology.hl7.org/CodeSystem/condition-clinical",
          "code": "active",
          "display": "Active"
        } ]
      },
      "verificationStatus": {
        "coding": [ {
          "system": "http://terminology.hl7.org/CodeSystem/condition-ver-status",
          "code": "confirmed",
          "display": "Confirmed"
        } ]
      },
      "category": [ {
        "coding": [ {
          "system": "http://terminology.hl7.org/CodeSystem/condition-category",
          "code": "problem-list-item",
          "display": "Problem List Item"
        } ]
      } ],
      "code": {
        "coding": [ {
          "system": "http://hl7.org/fhir/sid/icd-10-cm",
          "version": "2024",
          "code": "I11.0"
        } ]
      },
      "subject": {
        "reference": "Patient/07efd4bb-b45d-4bfd-aeb2-08de49742d91"
      },
      "onsetPeriod": {
        "start": "2026-04-11T10:00:00.000+00:00"
      }
    }
  }, {
    "fullUrl": "https://madie.cms.gov/Condition/4ece6b2d-019a-45be-b159-34601f9376d6",
    "resource": {
      "resourceType": "Condition",
      "id": "4ece6b2d-019a-45be-b159-34601f9376d6",
      "meta": {
        "profile": [ "http://hl7.org/fhir/us/qicore/StructureDefinition/qicore-condition-problems-health-concerns" ]
      },
      "clinicalStatus": {
        "coding": [ {
          "system": "http://terminology.hl7.org/CodeSystem/condition-clinical",
          "code": "active",
          "display": "Active"
        } ]
      },
      "verificationStatus": {
        "coding": [ {
          "system": "http://terminology.hl7.org/CodeSystem/condition-ver-status",
          "code": "confirmed",
          "display": "Confirmed"
        } ]
      },
      "category": [ {
        "coding": [ {
          "system": "http://terminology.hl7.org/CodeSystem/condition-category",
          "code": "problem-list-item",
          "display": "Problem List Item"
        } ]
      } ],
      "severity": {
        "coding": [ {
          "system": "http://snomed.info/sct",
          "version": "http://snomed.info/sct/731000124108/version/20240301",
          "code": "24484000",
          "display": "Severe (severity modifier) (qualifier value)"
        } ]
      },
      "code": {
        "coding": [ {
          "system": "http://snomed.info/sct",
          "version": "http://snomed.info/sct/731000124108/version/20250301",
          "code": "134401001",
          "display": "Left ventricular systolic dysfunction (disorder)"
        } ]
      },
      "subject": {
        "reference": "Patient/07efd4bb-b45d-4bfd-aeb2-08de49742d91"
      },
      "onsetPeriod": {
        "start": "2026-04-14T14:41:00.000+00:00"
      }
    }
  }, {
    "fullUrl": "https://madie.cms.gov/MeasureReport/ad01867d-c2c7-4317-9925-deb909d156e6",
    "resource": {
      "resourceType": "MeasureReport",
      "id": "ad01867d-c2c7-4317-9925-deb909d156e6",
      "meta": {
        "profile": [ "http://hl7.org/fhir/us/cqfmeasures/StructureDefinition/test-case-cqfm" ]
      },
      "contained": [ {
        "resourceType": "Parameters",
        "id": "bb29a5bc-302a-4a19-bd93-740a28d5e93e-parameters",
        "parameter": [ {
          "name": "subject",
          "valueString": "07efd4bb-b45d-4bfd-aeb2-08de49742d91"
        } ]
      } ],
      "extension": [ {
        "url": "http://hl7.org/fhir/StructureDefinition/cqf-inputParameters",
        "valueReference": {
          "reference": "#bb29a5bc-302a-4a19-bd93-740a28d5e93e-parameters"
        }
      }, {
        "url": "http://hl7.org/fhir/us/cqfmeasures/StructureDefinition/cqfm-testCaseDescription",
        "valueMarkdown": "Beta Blocker was not ordered for LVSD Patient for Patient Reasons. Note: Denominator Exception deselected for now due to negation issue."
      } ],
      "modifierExtension": [ {
        "url": "http://hl7.org/fhir/us/cqfmeasures/StructureDefinition/cqfm-isTestCase",
        "valueBoolean": true
      } ],
      "status": "complete",
      "type": "individual",
      "measure": "https://madie.cms.gov/Measure/CMS144FHIRHFBetaBlockerForLVSD",
      "period": {
        "start": "2026-01-01",
        "end": "2026-12-31"
      },
      "group": [ {
        "id": "Group_1",
        "population": [ {
          "id": "InitialPopulation_1",
          "code": {
            "coding": [ {
              "system": "http://terminology.hl7.org/CodeSystem/measure-population",
              "code": "initial-population",
              "display": "Initial Population"
            } ]
          },
          "count": 1
        }, {
          "id": "Denominator_1",
          "code": {
            "coding": [ {
              "system": "http://terminology.hl7.org/CodeSystem/measure-population",
              "code": "denominator",
              "display": "Denominator"
            } ]
          },
          "count": 1
        }, {
          "id": "DenominatorExclusion_1",
          "code": {
            "coding": [ {
              "system": "http://terminology.hl7.org/CodeSystem/measure-population",
              "code": "denominator-exclusion",
              "display": "Denominator Exclusion"
            } ]
          },
          "count": 0
        }, {
          "id": "Numerator_1",
          "code": {
            "coding": [ {
              "system": "http://terminology.hl7.org/CodeSystem/measure-population",
              "code": "numerator",
              "display": "Numerator"
            } ]
          },
          "count": 0
        }, {
          "id": "DenominatorException_1",
          "code": {
            "coding": [ {
              "system": "http://terminology.hl7.org/CodeSystem/measure-population",
              "code": "denominator-exception",
              "display": "Denominator Exception"
            } ]
          },
          "count": 1
        } ],
        "measureScore": {
          "value": 1.0
        }
      } ],
      "evaluatedResource": [ {
        "reference": "Patient/07efd4bb-b45d-4bfd-aeb2-08de49742d91"
      }, {
        "reference": "Encounter/22cc3ede-20b6-4857-8bf7-d057fa021b41"
      }, {
        "reference": "Encounter/bd66c8e2-0224-4913-8b8b-2b05098deb44"
      }, {
        "reference": "MedicationRequest/17bf2289-2b2d-4116-8c8e-6695fa7c634b"
      }, {
        "reference": "Practitioner/2fb0c20e-2583-4c22-b773-7782fd7b9ede"
      }, {
        "reference": "Condition/90ae6a7f-eccb-4a67-af8c-f3973b7ac81d"
      }, {
        "reference": "Condition/4ece6b2d-019a-45be-b159-34601f9376d6"
      } ]
    }
  } ]
}