{
  "resourceType": "Bundle",
  "id": "64944c508572d953d016cf7b",
  "type": "collection",
  "entry": [ {
    "fullUrl": "https://madie.cms.gov/Patient/061ab97e-4e5d-4c1d-91dc-21e34b415b5b",
    "resource": {
      "resourceType": "Patient",
      "id": "061ab97e-4e5d-4c1d-91dc-21e34b415b5b",
      "meta": {
        "profile": [ "http://hl7.org/fhir/us/qicore/StructureDefinition/qicore-patient" ]
      },
      "extension": [ {
        "url": "http://hl7.org/fhir/us/core/StructureDefinition/us-core-race",
        "extension": [ {
          "url": "ombCategory",
          "valueCoding": {
            "system": "urn:oid:2.16.840.1.113883.6.238",
            "code": "2106-3",
            "display": "White",
            "userSelected": true
          }
        }, {
          "url": "text",
          "valueString": "White"
        } ]
      }, {
        "url": "http://hl7.org/fhir/us/core/StructureDefinition/us-core-ethnicity",
        "extension": [ {
          "url": "ombCategory",
          "valueCoding": {
            "system": "urn:oid:2.16.840.1.113883.6.238",
            "code": "2135-2",
            "display": "Hispanic or Latino",
            "userSelected": true
          }
        }, {
          "url": "text",
          "valueString": "Hispanic or Latino"
        } ]
      } ],
      "identifier": [ {
        "type": {
          "coding": [ {
            "system": "http://terminology.hl7.org/CodeSystem/v2-0203",
            "code": "MR"
          } ]
        },
        "system": "https://bonnie-fhir.healthit.gov/",
        "value": "64944c508572d953d016cf7b"
      } ],
      "name": [ {
        "family": "IPFail",
        "given": [ "HIVDxonApr1ofMP" ]
      } ],
      "gender": "unknown",
      "birthDate": "1991-02-09"
    }
  }, {
    "fullUrl": "https://madie.cms.gov/Condition/013463d7-95b3-4b82-8c41-bd541b6df527",
    "resource": {
      "resourceType": "Condition",
      "id": "013463d7-95b3-4b82-8c41-bd541b6df527",
      "meta": {
        "profile": [ "http://hl7.org/fhir/us/qicore/StructureDefinition/qicore-condition-problems-health-concerns" ]
      },
      "clinicalStatus": {
        "coding": [ {
          "system": "http://terminology.hl7.org/CodeSystem/condition-clinical",
          "code": "active",
          "display": "active",
          "userSelected": true
        } ]
      },
      "category": [ {
        "coding": [ {
          "system": "http://terminology.hl7.org/CodeSystem/condition-category",
          "code": "problem-list-item",
          "display": "Problem List Item"
        } ]
      } ],
      "code": {
        "coding": [ {
          "system": "http://hl7.org/fhir/sid/icd-10-cm",
          "code": "O98.73",
          "userSelected": true
        } ]
      },
      "subject": {
        "reference": "Patient/061ab97e-4e5d-4c1d-91dc-21e34b415b5b"
      },
      "onsetDateTime": "2026-04-01T00:45:00.000+00:00",
      "recordedDate": "2026-04-01T00:45:00.000+00:00"
    }
  }, {
    "fullUrl": "https://madie.cms.gov/Encounter/092f67a1-cd7e-409e-82c4-3de11d5e9f61",
    "resource": {
      "resourceType": "Encounter",
      "id": "092f67a1-cd7e-409e-82c4-3de11d5e9f61",
      "meta": {
        "profile": [ "http://hl7.org/fhir/us/qicore/StructureDefinition/qicore-encounter" ]
      },
      "status": "finished",
      "class": {
        "system": "http://terminology.hl7.org/CodeSystem/v3-ActCode",
        "code": "AMB",
        "display": "ambulatory"
      },
      "type": [ {
        "coding": [ {
          "system": "http://snomed.info/sct",
          "version": "2022-09",
          "code": "12843005",
          "display": "Subsequent hospital visit by physician (procedure)",
          "userSelected": true
        } ]
      } ],
      "subject": {
        "reference": "Patient/061ab97e-4e5d-4c1d-91dc-21e34b415b5b"
      },
      "period": {
        "start": "2026-03-07T15:00:00.000+00:00",
        "end": "2026-03-07T15:45:00.000+00:00"
      }
    }
  }, {
    "fullUrl": "https://madie.cms.gov/Coverage/9ed3f71d-7a8f-4883-87ac-f87c79bcc1b8",
    "resource": {
      "resourceType": "Coverage",
      "id": "9ed3f71d-7a8f-4883-87ac-f87c79bcc1b8",
      "meta": {
        "profile": [ "http://hl7.org/fhir/us/qicore/StructureDefinition/qicore-coverage" ]
      },
      "status": "active",
      "subscriberId": "123456",
      "beneficiary": {
        "reference": "Patient/061ab97e-4e5d-4c1d-91dc-21e34b415b5b"
      },
      "relationship": {
        "coding": [ {
          "system": "http://terminology.hl7.org/CodeSystem/subscriber-relationship",
          "code": "self",
          "display": "Self"
        } ]
      },
      "payor": [ {
        "reference": "Organization/e9724384-654c-4fab-a206-3678a7e16a00"
      } ]
    }
  }, {
    "fullUrl": "https://madie.cms.gov/Organization/e9724384-654c-4fab-a206-3678a7e16a00",
    "resource": {
      "resourceType": "Organization",
      "id": "e9724384-654c-4fab-a206-3678a7e16a00",
      "meta": {
        "profile": [ "http://hl7.org/fhir/us/qicore/StructureDefinition/qicore-organization" ]
      },
      "identifier": [ {
        "use": "temp",
        "system": "urn:oid:2.16.840.1.113883.4.4",
        "value": "21-3259825"
      } ],
      "active": true,
      "type": [ {
        "coding": [ {
          "system": "http://terminology.hl7.org/CodeSystem/organization-type",
          "code": "pay",
          "display": "Payer"
        } ]
      } ],
      "name": "Blue Cross Blue Shield of Texas",
      "telecom": [ {
        "system": "phone",
        "value": "(+1) 972-766-6900"
      } ],
      "address": [ {
        "use": "billing",
        "type": "postal",
        "line": [ "P.O. Box 660044" ],
        "city": "Dallas",
        "state": "TX",
        "postalCode": "75266-0044",
        "country": "USA"
      } ]
    }
  }, {
    "fullUrl": "https://madie.cms.gov/Practitioner/af5f3dcc-1776-493c-b57a-8caff0d233af",
    "resource": {
      "resourceType": "Practitioner",
      "id": "af5f3dcc-1776-493c-b57a-8caff0d233af",
      "meta": {
        "profile": [ "http://hl7.org/fhir/us/qicore/StructureDefinition/qicore-practitioner" ]
      },
      "identifier": [ {
        "system": "http://hl7.org/fhir/sid/us-npi",
        "value": "1689411712"
      } ],
      "name": [ {
        "family": "Evil",
        "prefix": [ "Dr" ]
      } ]
    }
  }, {
    "fullUrl": "https://madie.cms.gov/MeasureReport/24c23d28-80db-4a84-9999-43b15c41ed94",
    "resource": {
      "resourceType": "MeasureReport",
      "id": "24c23d28-80db-4a84-9999-43b15c41ed94",
      "meta": {
        "profile": [ "http://hl7.org/fhir/us/cqfmeasures/StructureDefinition/test-case-cqfm" ]
      },
      "contained": [ {
        "resourceType": "Parameters",
        "id": "e9abef6e-02af-4af4-b062-b504073f0fbf-parameters",
        "parameter": [ {
          "name": "subject",
          "valueString": "061ab97e-4e5d-4c1d-91dc-21e34b415b5b"
        } ]
      } ],
      "extension": [ {
        "url": "http://hl7.org/fhir/StructureDefinition/cqf-inputParameters",
        "valueReference": {
          "reference": "#e9abef6e-02af-4af4-b062-b504073f0fbf-parameters"
        }
      }, {
        "url": "http://hl7.org/fhir/us/cqfmeasures/StructureDefinition/cqfm-testCaseDescription",
        "valueMarkdown": "HIV diagnosis onset on April 1st of the MP (91st day/non-leap year), with a qualifying encounter during the first 240 days of MP"
      } ],
      "modifierExtension": [ {
        "url": "http://hl7.org/fhir/us/cqfmeasures/StructureDefinition/cqfm-isTestCase",
        "valueBoolean": true
      } ],
      "status": "complete",
      "type": "individual",
      "measure": "https://madie.cms.gov/Measure/CMS314FHIRHIVViralSuppression",
      "period": {
        "start": "2026-01-01",
        "end": "2026-12-31"
      },
      "group": [ {
        "id": "Group_1",
        "population": [ {
          "id": "InitialPopulation_1",
          "code": {
            "coding": [ {
              "system": "http://terminology.hl7.org/CodeSystem/measure-population",
              "code": "initial-population",
              "display": "Initial Population"
            } ]
          },
          "count": 0
        }, {
          "id": "Denominator_1",
          "code": {
            "coding": [ {
              "system": "http://terminology.hl7.org/CodeSystem/measure-population",
              "code": "denominator",
              "display": "Denominator"
            } ]
          },
          "count": 0
        }, {
          "id": "Numerator_1",
          "code": {
            "coding": [ {
              "system": "http://terminology.hl7.org/CodeSystem/measure-population",
              "code": "numerator",
              "display": "Numerator"
            } ]
          },
          "count": 0
        } ],
        "measureScore": {
          "value": 1.0
        }
      } ],
      "evaluatedResource": [ {
        "reference": "Patient/061ab97e-4e5d-4c1d-91dc-21e34b415b5b"
      }, {
        "reference": "Condition/013463d7-95b3-4b82-8c41-bd541b6df527"
      }, {
        "reference": "Encounter/092f67a1-cd7e-409e-82c4-3de11d5e9f61"
      }, {
        "reference": "Coverage/9ed3f71d-7a8f-4883-87ac-f87c79bcc1b8"
      }, {
        "reference": "Organization/e9724384-654c-4fab-a206-3678a7e16a00"
      }, {
        "reference": "Practitioner/af5f3dcc-1776-493c-b57a-8caff0d233af"
      } ]
    }
  } ]
}