{
  "resourceType": "Bundle",
  "id": "62c880ec0111a60120dc2211",
  "type": "transaction",
  "entry": [ {
    "fullUrl": "https://madie.cms.gov/Patient/7cedf97f-741c-4c37-9ae9-40e0b8c64576",
    "resource": {
      "resourceType": "Patient",
      "id": "7cedf97f-741c-4c37-9ae9-40e0b8c64576",
      "meta": {
        "profile": [ "http://hl7.org/fhir/us/qicore/StructureDefinition/qicore-patient" ]
      },
      "extension": [ {
        "url": "http://hl7.org/fhir/us/core/StructureDefinition/us-core-race",
        "extension": [ {
          "url": "ombCategory",
          "valueCoding": {
            "system": "urn:oid:2.16.840.1.113883.6.238",
            "code": "1002-5",
            "display": "American Indian or Alaska Native",
            "userSelected": true
          }
        }, {
          "url": "text",
          "valueString": "American Indian or Alaska Native"
        } ]
      }, {
        "url": "http://hl7.org/fhir/us/core/StructureDefinition/us-core-ethnicity",
        "extension": [ {
          "url": "ombCategory",
          "valueCoding": {
            "system": "urn:oid:2.16.840.1.113883.6.238",
            "code": "2135-2",
            "display": "Hispanic or Latino",
            "userSelected": true
          }
        }, {
          "url": "text",
          "valueString": "Hispanic or Latino"
        } ]
      } ],
      "identifier": [ {
        "type": {
          "coding": [ {
            "system": "http://terminology.hl7.org/CodeSystem/v2-0203",
            "code": "MR"
          } ]
        },
        "system": "https://bonnie-fhir.healthit.gov/",
        "value": "62c880ec0111a60120dc2211"
      } ],
      "active": true,
      "name": [ {
        "use": "usual",
        "family": "NUMERPassPop2",
        "given": [ "PainAssess6DaysB4RadTx" ]
      } ],
      "gender": "male",
      "birthDate": "1976-04-25"
    },
    "request": {
      "method": "PUT",
      "url": "Patient/7cedf97f-741c-4c37-9ae9-40e0b8c64576"
    }
  }, {
    "fullUrl": "https://madie.cms.gov/Observation/8172aab2-6501-4d46-9b6b-8cf0de72cd85",
    "resource": {
      "resourceType": "Observation",
      "id": "8172aab2-6501-4d46-9b6b-8cf0de72cd85",
      "meta": {
        "profile": [ "http://hl7.org/fhir/us/qicore/StructureDefinition/qicore-observation-screening-assessment" ]
      },
      "status": "final",
      "category": [ {
        "coding": [ {
          "system": "http://terminology.hl7.org/CodeSystem/observation-category",
          "code": "survey",
          "display": "Survey"
        } ],
        "text": "Survey"
      } ],
      "code": {
        "coding": [ {
          "system": "http://loinc.org",
          "code": "38208-5",
          "display": "Pain severity - Reported"
        } ],
        "text": "Pain severity - Reported"
      },
      "subject": {
        "reference": "Patient/7cedf97f-741c-4c37-9ae9-40e0b8c64576"
      },
      "effectiveDateTime": "2026-04-30T12:45:00.000+00:00",
      "valueInteger": 9
    },
    "request": {
      "method": "PUT",
      "url": "Observation/8172aab2-6501-4d46-9b6b-8cf0de72cd85"
    }
  }, {
    "fullUrl": "https://madie.cms.gov/Condition/cca49091-00b9-4850-a1b7-6aa76a7d7125",
    "resource": {
      "resourceType": "Condition",
      "id": "cca49091-00b9-4850-a1b7-6aa76a7d7125",
      "meta": {
        "profile": [ "http://hl7.org/fhir/us/qicore/StructureDefinition/qicore-condition-problems-health-concerns" ]
      },
      "clinicalStatus": {
        "coding": [ {
          "system": "http://terminology.hl7.org/CodeSystem/condition-clinical",
          "code": "active",
          "display": "active",
          "userSelected": true
        } ]
      },
      "verificationStatus": {
        "coding": [ {
          "system": "http://terminology.hl7.org/CodeSystem/condition-ver-status",
          "code": "confirmed",
          "display": "Confirmed"
        } ]
      },
      "category": [ {
        "coding": [ {
          "system": "http://terminology.hl7.org/CodeSystem/condition-category",
          "code": "problem-list-item",
          "display": "Problem List Item"
        } ]
      } ],
      "code": {
        "coding": [ {
          "system": "http://hl7.org/fhir/sid/icd-10-cm",
          "code": "C00.3"
        } ]
      },
      "subject": {
        "reference": "Patient/7cedf97f-741c-4c37-9ae9-40e0b8c64576"
      },
      "onsetDateTime": "2022-05-06T13:30:00.000+00:00"
    },
    "request": {
      "method": "PUT",
      "url": "Condition/cca49091-00b9-4850-a1b7-6aa76a7d7125"
    }
  }, {
    "fullUrl": "https://madie.cms.gov/Coverage/09d8896b-ee02-41ba-9af7-da50f2bced14",
    "resource": {
      "resourceType": "Coverage",
      "id": "09d8896b-ee02-41ba-9af7-da50f2bced14",
      "meta": {
        "profile": [ "http://hl7.org/fhir/us/qicore/StructureDefinition/qicore-coverage" ]
      },
      "status": "active",
      "beneficiary": {
        "reference": "Patient/7cedf97f-741c-4c37-9ae9-40e0b8c64576"
      },
      "period": {
        "start": "1976-04-25T08:00:00.000+00:00"
      },
      "payor": [ {
        "reference": "Organization/422f6cc5-645d-44bb-a5bb-d0ca1fcf2ecb"
      } ]
    },
    "request": {
      "method": "PUT",
      "url": "Coverage/09d8896b-ee02-41ba-9af7-da50f2bced14"
    }
  }, {
    "fullUrl": "https://madie.cms.gov/Encounter/7030470f-eca3-41dd-8aad-787ce99cb7b0",
    "resource": {
      "resourceType": "Encounter",
      "id": "7030470f-eca3-41dd-8aad-787ce99cb7b0",
      "meta": {
        "profile": [ "http://hl7.org/fhir/us/qicore/StructureDefinition/qicore-encounter" ]
      },
      "status": "finished",
      "class": {
        "system": "http://terminology.hl7.org/CodeSystem/v3-ActCode",
        "code": "AMB",
        "display": "ambulatory",
        "userSelected": true
      },
      "type": [ {
        "coding": [ {
          "system": "http://www.ama-assn.org/go/cpt",
          "code": "77427",
          "display": "Radiation treatment management, 5 treatments",
          "userSelected": true
        } ]
      } ],
      "subject": {
        "reference": "Patient/7cedf97f-741c-4c37-9ae9-40e0b8c64576"
      },
      "period": {
        "start": "2026-05-06T08:00:00.000+00:00",
        "end": "2026-05-06T08:15:00.000+00:00"
      }
    },
    "request": {
      "method": "PUT",
      "url": "Encounter/7030470f-eca3-41dd-8aad-787ce99cb7b0"
    }
  }, {
    "fullUrl": "https://madie.cms.gov/Organization/422f6cc5-645d-44bb-a5bb-d0ca1fcf2ecb",
    "resource": {
      "resourceType": "Organization",
      "id": "422f6cc5-645d-44bb-a5bb-d0ca1fcf2ecb",
      "meta": {
        "profile": [ "http://hl7.org/fhir/us/qicore/StructureDefinition/qicore-organization" ]
      },
      "identifier": [ {
        "use": "temp",
        "system": "urn:oid:2.16.840.1.113883.4.4",
        "value": "21-3259825"
      } ],
      "active": true,
      "type": [ {
        "coding": [ {
          "system": "http://terminology.hl7.org/CodeSystem/organization-type",
          "code": "pay",
          "display": "Payer"
        } ]
      } ],
      "name": "Blue Cross Blue Shield of Texas",
      "telecom": [ {
        "system": "phone",
        "value": "(+1) 972-766-6900"
      } ],
      "address": [ {
        "use": "billing",
        "type": "postal",
        "line": [ "P.O. Box 660044" ],
        "city": "Dallas",
        "state": "TX",
        "postalCode": "75266-0044",
        "country": "USA"
      } ]
    },
    "request": {
      "method": "PUT",
      "url": "Organization/422f6cc5-645d-44bb-a5bb-d0ca1fcf2ecb"
    }
  }, {
    "fullUrl": "https://madie.cms.gov/Practitioner/fccd09e5-d582-44d0-9277-70093a6d0aba",
    "resource": {
      "resourceType": "Practitioner",
      "id": "fccd09e5-d582-44d0-9277-70093a6d0aba",
      "meta": {
        "profile": [ "http://hl7.org/fhir/us/qicore/StructureDefinition/qicore-practitioner" ]
      },
      "identifier": [ {
        "system": "http://hl7.org/fhir/sid/us-npi",
        "value": "1234567890"
      } ],
      "name": [ {
        "family": "Evil",
        "prefix": [ "Dr" ]
      } ]
    },
    "request": {
      "method": "PUT",
      "url": "Practitioner/fccd09e5-d582-44d0-9277-70093a6d0aba"
    }
  }, {
    "fullUrl": "https://madie.cms.gov/MeasureReport/32f463b3-7147-4a6c-aaf5-05478cb060da",
    "resource": {
      "resourceType": "MeasureReport",
      "id": "32f463b3-7147-4a6c-aaf5-05478cb060da",
      "meta": {
        "profile": [ "http://hl7.org/fhir/us/cqfmeasures/StructureDefinition/test-case-cqfm" ]
      },
      "contained": [ {
        "resourceType": "Parameters",
        "id": "52bc67de-93f7-42b3-963e-a106a7bf978f-parameters",
        "parameter": [ {
          "name": "subject",
          "valueString": "7cedf97f-741c-4c37-9ae9-40e0b8c64576"
        } ]
      } ],
      "extension": [ {
        "url": "http://hl7.org/fhir/StructureDefinition/cqf-inputParameters",
        "valueReference": {
          "reference": "#52bc67de-93f7-42b3-963e-a106a7bf978f-parameters"
        }
      }, {
        "url": "http://hl7.org/fhir/us/cqfmeasures/StructureDefinition/cqfm-testCaseDescription",
        "valueMarkdown": "Patient with cancer diagnosis that overlaps radiation treatment management during measurement period. Pain intensity assessment was performed 6 days before radiation treatment management.\n"
      } ],
      "modifierExtension": [ {
        "url": "http://hl7.org/fhir/us/cqfmeasures/StructureDefinition/cqfm-isTestCase",
        "valueBoolean": true
      } ],
      "status": "complete",
      "type": "individual",
      "measure": "https://madie.cms.gov/Measure/CMS157FHIRPainIntensityQuantified",
      "period": {
        "start": "2026-01-01",
        "end": "2026-12-31"
      },
      "group": [ {
        "id": "Group_1",
        "population": [ {
          "id": "InitialPopulation_1",
          "code": {
            "coding": [ {
              "system": "http://terminology.hl7.org/CodeSystem/measure-population",
              "code": "initial-population",
              "display": "Initial Population"
            } ]
          },
          "count": 0
        }, {
          "id": "Denominator_1",
          "code": {
            "coding": [ {
              "system": "http://terminology.hl7.org/CodeSystem/measure-population",
              "code": "denominator",
              "display": "Denominator"
            } ]
          },
          "count": 0
        }, {
          "id": "Numerator_1",
          "code": {
            "coding": [ {
              "system": "http://terminology.hl7.org/CodeSystem/measure-population",
              "code": "numerator",
              "display": "Numerator"
            } ]
          },
          "count": 0
        } ],
        "measureScore": {
          "value": 0.0
        }
      }, {
        "id": "Group_2",
        "population": [ {
          "id": "InitialPopulation_2",
          "code": {
            "coding": [ {
              "system": "http://terminology.hl7.org/CodeSystem/measure-population",
              "code": "initial-population",
              "display": "Initial Population"
            } ]
          },
          "count": 1
        }, {
          "id": "Denominator_2",
          "code": {
            "coding": [ {
              "system": "http://terminology.hl7.org/CodeSystem/measure-population",
              "code": "denominator",
              "display": "Denominator"
            } ]
          },
          "count": 1
        }, {
          "id": "Numerator_2",
          "code": {
            "coding": [ {
              "system": "http://terminology.hl7.org/CodeSystem/measure-population",
              "code": "numerator",
              "display": "Numerator"
            } ]
          },
          "count": 1
        } ],
        "measureScore": {
          "value": 0.0
        }
      } ],
      "evaluatedResource": [ {
        "reference": "Patient/7cedf97f-741c-4c37-9ae9-40e0b8c64576"
      }, {
        "reference": "Observation/8172aab2-6501-4d46-9b6b-8cf0de72cd85"
      }, {
        "reference": "Condition/cca49091-00b9-4850-a1b7-6aa76a7d7125"
      }, {
        "reference": "Coverage/09d8896b-ee02-41ba-9af7-da50f2bced14"
      }, {
        "reference": "Encounter/7030470f-eca3-41dd-8aad-787ce99cb7b0"
      }, {
        "reference": "Organization/422f6cc5-645d-44bb-a5bb-d0ca1fcf2ecb"
      }, {
        "reference": "Practitioner/fccd09e5-d582-44d0-9277-70093a6d0aba"
      } ]
    },
    "request": {
      "method": "PUT",
      "url": "MeasureReport/32f463b3-7147-4a6c-aaf5-05478cb060da"
    }
  } ]
}