{
  "resourceType": "Bundle",
  "id": "633b3f9f0968f80122503cdb",
  "type": "transaction",
  "entry": [ {
    "fullUrl": "https://madie.cms.gov/Patient/abb2e07a-48c5-4e6a-94cb-1ab396e1e86a",
    "resource": {
      "resourceType": "Patient",
      "id": "abb2e07a-48c5-4e6a-94cb-1ab396e1e86a",
      "meta": {
        "profile": [ "http://hl7.org/fhir/us/qicore/StructureDefinition/qicore-patient" ]
      },
      "text": {
        "status": "generated",
        "div": "<div xmlns=\"http://www.w3.org/1999/xhtml\"><div class=\"hapiHeaderText\">HystWithIncretaAndSMMDx<b>NUMEXCFail</b></div><table class=\"hapiPropertyTable\"><tbody><tr><td>Date of birth</td><td><span>01 February 2004</span></td></tr></tbody></table></div>"
      },
      "extension": [ {
        "url": "http://hl7.org/fhir/us/core/StructureDefinition/us-core-race",
        "extension": [ {
          "url": "ombCategory",
          "valueCoding": {
            "system": "urn:oid:2.16.840.1.113883.6.238",
            "code": "1002-5",
            "display": "American Indian or Alaska Native",
            "userSelected": true
          }
        }, {
          "url": "text",
          "valueString": "American Indian or Alaska Native"
        } ]
      }, {
        "url": "http://hl7.org/fhir/us/core/StructureDefinition/us-core-ethnicity",
        "extension": [ {
          "url": "ombCategory",
          "valueCoding": {
            "system": "urn:oid:2.16.840.1.113883.6.238",
            "code": "2135-2",
            "display": "Hispanic or Latino",
            "userSelected": true
          }
        }, {
          "url": "text",
          "valueString": "Hispanic or Latino"
        } ]
      } ],
      "identifier": [ {
        "type": {
          "coding": [ {
            "system": "http://terminology.hl7.org/CodeSystem/v2-0203",
            "code": "MR"
          } ]
        },
        "system": "https://bonnie-fhir.healthit.gov/",
        "value": "633b3f9f0968f80122503cdb"
      } ],
      "active": true,
      "name": [ {
        "use": "usual",
        "family": "NUMEXCFail",
        "given": [ "HystWithIncretaAndSMMDx" ]
      } ],
      "gender": "female",
      "birthDate": "2005-02-01"
    },
    "request": {
      "method": "PUT",
      "url": "Patient/abb2e07a-48c5-4e6a-94cb-1ab396e1e86a"
    }
  }, {
    "fullUrl": "https://madie.cms.gov/Observation/62520469-7b1d-4a75-8607-a3643a001a2a",
    "resource": {
      "resourceType": "Observation",
      "id": "62520469-7b1d-4a75-8607-a3643a001a2a",
      "meta": {
        "profile": [ "http://hl7.org/fhir/us/qicore/StructureDefinition/qicore-simple-observation" ]
      },
      "status": "final",
      "category": [ {
        "coding": [ {
          "system": "http://terminology.hl7.org/CodeSystem/observation-category",
          "code": "exam",
          "display": "exam",
          "userSelected": true
        } ]
      } ],
      "code": {
        "coding": [ {
          "system": "http://loinc.org",
          "code": "93857-1"
        } ]
      },
      "subject": {
        "reference": "Patient/abb2e07a-48c5-4e6a-94cb-1ab396e1e86a"
      },
      "effectiveDateTime": "2026-02-01T08:00:00.000+00:00",
      "performer": [ {
        "reference": "Organization/example1",
        "display": "Hendricks Country Hospital"
      } ],
      "valueDateTime": "2026-02-01T08:00:00.000+00:00"
    },
    "request": {
      "method": "PUT",
      "url": "Observation/62520469-7b1d-4a75-8607-a3643a001a2a"
    }
  }, {
    "fullUrl": "https://madie.cms.gov/Observation/96a74e4e-272b-43ca-9957-68943a2ae6c0",
    "resource": {
      "resourceType": "Observation",
      "id": "96a74e4e-272b-43ca-9957-68943a2ae6c0",
      "meta": {
        "profile": [ "http://hl7.org/fhir/us/qicore/StructureDefinition/qicore-simple-observation" ]
      },
      "status": "final",
      "category": [ {
        "coding": [ {
          "system": "http://terminology.hl7.org/CodeSystem/observation-category",
          "code": "exam",
          "display": "exam",
          "userSelected": true
        } ]
      } ],
      "code": {
        "coding": [ {
          "system": "http://loinc.org",
          "code": "11884-4"
        } ]
      },
      "subject": {
        "reference": "Patient/abb2e07a-48c5-4e6a-94cb-1ab396e1e86a"
      },
      "effectiveDateTime": "2026-02-01T08:00:00.000+00:00",
      "performer": [ {
        "reference": "Organization/example1",
        "display": "Hendricks Country Hospital"
      } ],
      "valueQuantity": {
        "value": 20,
        "system": "http://unitsofmeasure.org",
        "code": "wk"
      }
    },
    "request": {
      "method": "PUT",
      "url": "Observation/96a74e4e-272b-43ca-9957-68943a2ae6c0"
    }
  }, {
    "fullUrl": "https://madie.cms.gov/Encounter/b46afc28-7c0a-4718-8464-d82ab0ccf439",
    "resource": {
      "resourceType": "Encounter",
      "id": "b46afc28-7c0a-4718-8464-d82ab0ccf439",
      "meta": {
        "profile": [ "http://hl7.org/fhir/us/qicore/StructureDefinition/qicore-encounter" ]
      },
      "status": "finished",
      "class": {
        "system": "http://terminology.hl7.org/CodeSystem/v3-ActCode",
        "code": "IMP",
        "display": "inpatient encounter"
      },
      "type": [ {
        "coding": [ {
          "system": "http://snomed.info/sct",
          "code": "183452005"
        } ]
      } ],
      "subject": {
        "reference": "Patient/abb2e07a-48c5-4e6a-94cb-1ab396e1e86a"
      },
      "period": {
        "start": "2026-02-01T08:00:00.000+00:00",
        "end": "2026-02-05T08:15:00.000+00:00"
      },
      "reasonReference": [ {
        "reference": "Condition/2577a504-c741-419d-a911-8b866f380583"
      } ],
      "diagnosis": [ {
        "extension": [ {
          "url": "http://hl7.org/fhir/us/qicore/StructureDefinition/qicore-encounter-diagnosisPresentOnAdmission",
          "valueCodeableConcept": {
            "coding": [ {
              "system": "https://www.cms.gov/Medicare/Medicare-Fee-for-Service-Payment/HospitalAcqCond/Coding",
              "code": "N"
            } ]
          }
        } ],
        "condition": {
          "reference": "Condition/4a519cc5-54b6-4e1e-b9b5-714ef5a99be7"
        }
      } ]
    },
    "request": {
      "method": "PUT",
      "url": "Encounter/b46afc28-7c0a-4718-8464-d82ab0ccf439"
    }
  }, {
    "fullUrl": "https://madie.cms.gov/Condition/2577a504-c741-419d-a911-8b866f380583",
    "resource": {
      "resourceType": "Condition",
      "id": "2577a504-c741-419d-a911-8b866f380583",
      "meta": {
        "profile": [ "http://hl7.org/fhir/us/qicore/StructureDefinition/qicore-condition-encounter-diagnosis" ]
      },
      "category": [ {
        "coding": [ {
          "system": "http://terminology.hl7.org/CodeSystem/condition-category",
          "code": "encounter-diagnosis",
          "display": "Encounter Diagnosis"
        } ]
      } ],
      "code": {
        "coding": [ {
          "system": "http://hl7.org/fhir/sid/icd-10-cm",
          "version": "2023",
          "code": "Z3A.20",
          "display": "20 weeks gestation",
          "userSelected": true
        } ]
      },
      "subject": {
        "reference": "Patient/abb2e07a-48c5-4e6a-94cb-1ab396e1e86a"
      },
      "recordedDate": "2026-10-26T08:00:00.000+00:00"
    },
    "request": {
      "method": "PUT",
      "url": "Condition/2577a504-c741-419d-a911-8b866f380583"
    }
  }, {
    "fullUrl": "https://madie.cms.gov/Condition/4a519cc5-54b6-4e1e-b9b5-714ef5a99be7",
    "resource": {
      "resourceType": "Condition",
      "id": "4a519cc5-54b6-4e1e-b9b5-714ef5a99be7",
      "meta": {
        "profile": [ "http://hl7.org/fhir/us/qicore/StructureDefinition/qicore-condition" ]
      },
      "category": [ {
        "coding": [ {
          "system": "http://terminology.hl7.org/CodeSystem/condition-category",
          "code": "encounter-diagnosis",
          "display": "Encounter Diagnosis"
        } ]
      } ],
      "code": {
        "coding": [ {
          "system": "http://hl7.org/fhir/sid/icd-10-cm",
          "version": "2023",
          "code": "A32.7",
          "display": "Listerial sepsis",
          "userSelected": true
        } ]
      },
      "subject": {
        "reference": "Patient/abb2e07a-48c5-4e6a-94cb-1ab396e1e86a"
      },
      "recordedDate": "2026-10-26T08:00:00.000+00:00"
    },
    "request": {
      "method": "PUT",
      "url": "Condition/4a519cc5-54b6-4e1e-b9b5-714ef5a99be7"
    }
  }, {
    "fullUrl": "https://madie.cms.gov/Condition/628107d9-1cc9-49aa-9a04-4d9adee3461d",
    "resource": {
      "resourceType": "Condition",
      "id": "628107d9-1cc9-49aa-9a04-4d9adee3461d",
      "meta": {
        "profile": [ "http://hl7.org/fhir/us/qicore/StructureDefinition/qicore-condition" ]
      },
      "category": [ {
        "coding": [ {
          "system": "http://terminology.hl7.org/CodeSystem/condition-category",
          "code": "encounter-diagnosis",
          "display": "Encounter Diagnosis"
        } ]
      } ],
      "code": {
        "coding": [ {
          "system": "http://hl7.org/fhir/sid/icd-10-cm",
          "version": "2023",
          "code": "O43.229",
          "display": "Placenta increta, unspecified trimester",
          "userSelected": true
        } ]
      },
      "subject": {
        "reference": "Patient/abb2e07a-48c5-4e6a-94cb-1ab396e1e86a"
      },
      "recordedDate": "2026-02-01T08:00:00.000+00:00"
    },
    "request": {
      "method": "PUT",
      "url": "Condition/628107d9-1cc9-49aa-9a04-4d9adee3461d"
    }
  }, {
    "fullUrl": "https://madie.cms.gov/Coverage/b05daddc-8ea6-463c-a632-10cf1500cf9d",
    "resource": {
      "resourceType": "Coverage",
      "id": "b05daddc-8ea6-463c-a632-10cf1500cf9d",
      "status": "active",
      "beneficiary": {
        "reference": "Patient/abb2e07a-48c5-4e6a-94cb-1ab396e1e86a"
      },
      "period": {
        "start": "2005-02-01T08:00:00.000+00:00"
      },
      "payor": [ {
        "reference": "Organization/34c804fb-6d42-4fa7-9151-9b8d8b542137"
      } ]
    },
    "request": {
      "method": "PUT",
      "url": "Coverage/b05daddc-8ea6-463c-a632-10cf1500cf9d"
    }
  }, {
    "fullUrl": "https://madie.cms.gov/Procedure/b57302b3-3a6a-412a-a97a-ba0a1483d94a",
    "resource": {
      "resourceType": "Procedure",
      "id": "b57302b3-3a6a-412a-a97a-ba0a1483d94a",
      "meta": {
        "profile": [ "http://hl7.org/fhir/us/qicore/StructureDefinition/qicore-procedure" ]
      },
      "extension": [ {
        "url": "http://hl7.org/fhir/us/qicore/StructureDefinition/qicore-recorded",
        "valueDateTime": "2014-04-05T13:35:00.000+00:00"
      } ],
      "status": "completed",
      "code": {
        "coding": [ {
          "system": "http://snomed.info/sct",
          "code": "10745001"
        } ]
      },
      "subject": {
        "reference": "Patient/abb2e07a-48c5-4e6a-94cb-1ab396e1e86a"
      },
      "performedPeriod": {
        "start": "2026-02-01T08:00:00.000+00:00",
        "end": "2026-02-05T08:15:00.000+00:00"
      }
    },
    "request": {
      "method": "PUT",
      "url": "Procedure/b57302b3-3a6a-412a-a97a-ba0a1483d94a"
    }
  }, {
    "fullUrl": "https://madie.cms.gov/Procedure/1ca5cb8e-b523-41c0-b146-41422ced6585",
    "resource": {
      "resourceType": "Procedure",
      "id": "1ca5cb8e-b523-41c0-b146-41422ced6585",
      "meta": {
        "profile": [ "http://hl7.org/fhir/us/qicore/StructureDefinition/qicore-procedure" ]
      },
      "extension": [ {
        "url": "http://hl7.org/fhir/us/qicore/StructureDefinition/qicore-recorded",
        "valueDateTime": "2026-02-01T04:01:00.000+00:00"
      } ],
      "status": "completed",
      "code": {
        "coding": [ {
          "system": "http://snomed.info/sct",
          "code": "11050006"
        } ]
      },
      "subject": {
        "reference": "Patient/abb2e07a-48c5-4e6a-94cb-1ab396e1e86a"
      },
      "performedPeriod": {
        "start": "2026-02-04T00:00:00.000+00:00",
        "end": "2026-02-04T11:59:00.000+00:00"
      }
    },
    "request": {
      "method": "PUT",
      "url": "Procedure/1ca5cb8e-b523-41c0-b146-41422ced6585"
    }
  }, {
    "fullUrl": "https://madie.cms.gov/Organization/34c804fb-6d42-4fa7-9151-9b8d8b542137",
    "resource": {
      "resourceType": "Organization",
      "id": "34c804fb-6d42-4fa7-9151-9b8d8b542137",
      "meta": {
        "profile": [ "http://hl7.org/fhir/us/qicore/StructureDefinition/qicore-organization" ]
      },
      "identifier": [ {
        "use": "temp",
        "system": "urn:oid:2.16.840.1.113883.4.4",
        "value": "21-3259825"
      } ],
      "active": true,
      "type": [ {
        "coding": [ {
          "system": "http://terminology.hl7.org/CodeSystem/organization-type",
          "code": "pay",
          "display": "Payer"
        } ]
      } ],
      "name": "Blue Cross Blue Shield of Texas",
      "telecom": [ {
        "system": "phone",
        "value": "(+1) 972-766-6900"
      } ],
      "address": [ {
        "use": "billing",
        "type": "postal",
        "line": [ "P.O. Box 660044" ],
        "city": "Dallas",
        "state": "TX",
        "postalCode": "75266-0044",
        "country": "USA"
      } ]
    },
    "request": {
      "method": "PUT",
      "url": "Organization/34c804fb-6d42-4fa7-9151-9b8d8b542137"
    }
  }, {
    "fullUrl": "https://madie.cms.gov/Practitioner/cd843112-2557-4ec4-a165-902224abc840",
    "resource": {
      "resourceType": "Practitioner",
      "id": "cd843112-2557-4ec4-a165-902224abc840",
      "meta": {
        "profile": [ "http://hl7.org/fhir/us/qicore/StructureDefinition/qicore-practitioner" ]
      },
      "identifier": [ {
        "system": "http://hl7.org/fhir/sid/us-npi",
        "value": "9999999896"
      } ],
      "name": [ {
        "family": "Evil",
        "prefix": [ "Dr" ]
      } ]
    },
    "request": {
      "method": "PUT",
      "url": "Practitioner/cd843112-2557-4ec4-a165-902224abc840"
    }
  }, {
    "fullUrl": "https://madie.cms.gov/MeasureReport/ff6acda3-9517-4f0a-9758-3796e3a24914",
    "resource": {
      "resourceType": "MeasureReport",
      "id": "ff6acda3-9517-4f0a-9758-3796e3a24914",
      "meta": {
        "profile": [ "http://hl7.org/fhir/us/cqfmeasures/StructureDefinition/test-case-cqfm" ]
      },
      "contained": [ {
        "resourceType": "Parameters",
        "id": "d0b807c5-69b4-4932-a976-3cb4ead5986c-parameters",
        "parameter": [ {
          "name": "subject",
          "valueString": "abb2e07a-48c5-4e6a-94cb-1ab396e1e86a"
        } ]
      } ],
      "extension": [ {
        "url": "http://hl7.org/fhir/StructureDefinition/cqf-inputParameters",
        "valueReference": {
          "reference": "#d0b807c5-69b4-4932-a976-3cb4ead5986c-parameters"
        }
      }, {
        "url": "http://hl7.org/fhir/us/cqfmeasures/StructureDefinition/cqfm-testCaseDescription",
        "valueMarkdown": "Hysterectomy with Placenta Increta and Sepsis (SMM Diagnosis)"
      } ],
      "modifierExtension": [ {
        "url": "http://hl7.org/fhir/us/cqfmeasures/StructureDefinition/cqfm-isTestCase",
        "valueBoolean": true
      } ],
      "status": "complete",
      "type": "individual",
      "measure": "https://madie.cms.gov/Measure/CMS1028FHIRPCSevereOBComps",
      "period": {
        "start": "2026-01-01",
        "end": "2026-12-31"
      },
      "group": [ {
        "id": "Group_1",
        "population": [ {
          "id": "InitialPopulation_1",
          "code": {
            "coding": [ {
              "system": "http://terminology.hl7.org/CodeSystem/measure-population",
              "code": "initial-population",
              "display": "Initial Population"
            } ]
          },
          "count": 1
        }, {
          "id": "Denominator_1",
          "code": {
            "coding": [ {
              "system": "http://terminology.hl7.org/CodeSystem/measure-population",
              "code": "denominator",
              "display": "Denominator"
            } ]
          },
          "count": 1
        }, {
          "id": "Numerator_1",
          "code": {
            "coding": [ {
              "system": "http://terminology.hl7.org/CodeSystem/measure-population",
              "code": "numerator",
              "display": "Numerator"
            } ]
          },
          "count": 1
        }, {
          "id": "NumeratorExclusion_1",
          "code": {
            "coding": [ {
              "system": "http://terminology.hl7.org/CodeSystem/measure-population",
              "code": "numerator-exclusion",
              "display": "Numerator Exclusion"
            } ]
          },
          "count": 0
        } ],
        "measureScore": {
          "value": 0.0
        }
      }, {
        "id": "Group_2",
        "population": [ {
          "id": "InitialPopulation_2",
          "code": {
            "coding": [ {
              "system": "http://terminology.hl7.org/CodeSystem/measure-population",
              "code": "initial-population",
              "display": "Initial Population"
            } ]
          },
          "count": 1
        }, {
          "id": "Denominator_2",
          "code": {
            "coding": [ {
              "system": "http://terminology.hl7.org/CodeSystem/measure-population",
              "code": "denominator",
              "display": "Denominator"
            } ]
          },
          "count": 1
        }, {
          "id": "Numerator_2",
          "code": {
            "coding": [ {
              "system": "http://terminology.hl7.org/CodeSystem/measure-population",
              "code": "numerator",
              "display": "Numerator"
            } ]
          },
          "count": 1
        }, {
          "id": "NumeratorExclusion_2",
          "code": {
            "coding": [ {
              "system": "http://terminology.hl7.org/CodeSystem/measure-population",
              "code": "numerator-exclusion",
              "display": "Numerator Exclusion"
            } ]
          },
          "count": 0
        } ],
        "measureScore": {
          "value": 0.0
        }
      } ],
      "evaluatedResource": [ {
        "reference": "Patient/abb2e07a-48c5-4e6a-94cb-1ab396e1e86a"
      }, {
        "reference": "Observation/62520469-7b1d-4a75-8607-a3643a001a2a"
      }, {
        "reference": "Observation/96a74e4e-272b-43ca-9957-68943a2ae6c0"
      }, {
        "reference": "Encounter/b46afc28-7c0a-4718-8464-d82ab0ccf439"
      }, {
        "reference": "Condition/2577a504-c741-419d-a911-8b866f380583"
      }, {
        "reference": "Condition/4a519cc5-54b6-4e1e-b9b5-714ef5a99be7"
      }, {
        "reference": "Condition/628107d9-1cc9-49aa-9a04-4d9adee3461d"
      }, {
        "reference": "Coverage/b05daddc-8ea6-463c-a632-10cf1500cf9d"
      }, {
        "reference": "Procedure/b57302b3-3a6a-412a-a97a-ba0a1483d94a"
      }, {
        "reference": "Procedure/1ca5cb8e-b523-41c0-b146-41422ced6585"
      }, {
        "reference": "Organization/34c804fb-6d42-4fa7-9151-9b8d8b542137"
      }, {
        "reference": "Practitioner/cd843112-2557-4ec4-a165-902224abc840"
      } ]
    },
    "request": {
      "method": "PUT",
      "url": "MeasureReport/ff6acda3-9517-4f0a-9758-3796e3a24914"
    }
  } ]
}