{
  "resourceType": "Bundle",
  "id": "649f26e9cbedae3863128657",
  "type": "collection",
  "entry": [ {
    "fullUrl": "https://madie.cms.gov/Patient/efa9696e-1451-4f5e-895a-552485e5c2b9",
    "resource": {
      "resourceType": "Patient",
      "id": "efa9696e-1451-4f5e-895a-552485e5c2b9",
      "meta": {
        "profile": [ "http://hl7.org/fhir/us/qicore/StructureDefinition/qicore-patient" ]
      },
      "extension": [ {
        "url": "http://hl7.org/fhir/us/core/StructureDefinition/us-core-race",
        "extension": [ {
          "url": "ombCategory",
          "valueCoding": {
            "system": "urn:oid:2.16.840.1.113883.6.238",
            "code": "2054-5",
            "display": "Black or African American",
            "userSelected": true
          }
        }, {
          "url": "text",
          "valueString": "Black or African American"
        } ]
      }, {
        "url": "http://hl7.org/fhir/us/core/StructureDefinition/us-core-ethnicity",
        "extension": [ {
          "url": "ombCategory",
          "valueCoding": {
            "system": "urn:oid:2.16.840.1.113883.6.238",
            "code": "2186-5",
            "display": "Not Hispanic or Latino",
            "userSelected": true
          }
        }, {
          "url": "text",
          "valueString": "Not Hispanic or Latino"
        } ]
      } ],
      "identifier": [ {
        "type": {
          "coding": [ {
            "system": "http://terminology.hl7.org/CodeSystem/v2-0203",
            "code": "MR"
          } ]
        },
        "system": "https://bonnie-fhir.healthit.gov/",
        "value": "649f26e9cbedae3863128657"
      } ],
      "name": [ {
        "family": "IPPass",
        "given": [ "AgeOver13" ]
      } ],
      "gender": "female",
      "birthDate": "2001-02-04"
    }
  }, {
    "fullUrl": "https://madie.cms.gov/Condition/3420f4e9-a6ea-4c1d-a5d5-ecbccf8481ec",
    "resource": {
      "resourceType": "Condition",
      "id": "3420f4e9-a6ea-4c1d-a5d5-ecbccf8481ec",
      "meta": {
        "profile": [ "http://hl7.org/fhir/us/qicore/StructureDefinition/qicore-condition-problems-health-concerns" ]
      },
      "clinicalStatus": {
        "coding": [ {
          "system": "http://terminology.hl7.org/CodeSystem/condition-clinical",
          "code": "active",
          "display": "active",
          "userSelected": true
        } ]
      },
      "category": [ {
        "coding": [ {
          "system": "http://terminology.hl7.org/CodeSystem/condition-category",
          "code": "problem-list-item",
          "display": "Problem List Item"
        } ]
      } ],
      "code": {
        "coding": [ {
          "system": "http://hl7.org/fhir/sid/icd-9-cm",
          "version": "2013",
          "code": "042",
          "display": "Human immunodeficiency virus [HIV] disease",
          "userSelected": true
        }, {
          "system": "http://snomed.info/sct",
          "version": "http://snomed.info/sct/731000124108/version/20250301",
          "code": "165816005",
          "userSelected": true
        } ]
      },
      "subject": {
        "reference": "Patient/efa9696e-1451-4f5e-895a-552485e5c2b9"
      },
      "onsetDateTime": "2018-09-28T08:00:00.000+00:00",
      "recordedDate": "2018-09-28T08:00:00.000+00:00"
    }
  }, {
    "fullUrl": "https://madie.cms.gov/Encounter/0cd1dc7d-38df-4d21-9757-2808fafb77df",
    "resource": {
      "resourceType": "Encounter",
      "id": "0cd1dc7d-38df-4d21-9757-2808fafb77df",
      "meta": {
        "profile": [ "http://hl7.org/fhir/us/qicore/StructureDefinition/qicore-encounter" ]
      },
      "status": "finished",
      "class": {
        "system": "http://terminology.hl7.org/CodeSystem/v3-ActCode",
        "code": "AMB",
        "display": "ambulatory"
      },
      "type": [ {
        "coding": [ {
          "system": "http://www.ama-assn.org/go/cpt",
          "version": "2023",
          "code": "99381",
          "display": "Initial comprehensive preventive medicine evaluation and management of an individual including an age and gender appropriate history, examination, counseling/anticipatory guidance/risk factor reduction interventions, and the ordering of laboratory/diagnostic procedures, new patient; infant (age younger than 1 year)",
          "userSelected": true
        } ]
      } ],
      "subject": {
        "reference": "Patient/efa9696e-1451-4f5e-895a-552485e5c2b9"
      },
      "period": {
        "start": "2026-09-28T08:00:00.000+00:00",
        "end": "2026-09-28T08:30:00.000+00:00"
      }
    }
  }, {
    "fullUrl": "https://madie.cms.gov/Coverage/c8d46ca5-c9fb-4049-8152-f4ae9703a3bd",
    "resource": {
      "resourceType": "Coverage",
      "id": "c8d46ca5-c9fb-4049-8152-f4ae9703a3bd",
      "meta": {
        "profile": [ "http://hl7.org/fhir/us/qicore/StructureDefinition/qicore-coverage" ]
      },
      "status": "active",
      "subscriberId": "123456",
      "beneficiary": {
        "reference": "Patient/efa9696e-1451-4f5e-895a-552485e5c2b9"
      },
      "relationship": {
        "coding": [ {
          "system": "http://terminology.hl7.org/CodeSystem/subscriber-relationship",
          "code": "self",
          "display": "Self"
        } ]
      },
      "payor": [ {
        "reference": "Organization/57c520bd-229c-4add-b3e0-743b8e6c923f"
      } ]
    }
  }, {
    "fullUrl": "https://madie.cms.gov/Organization/57c520bd-229c-4add-b3e0-743b8e6c923f",
    "resource": {
      "resourceType": "Organization",
      "id": "57c520bd-229c-4add-b3e0-743b8e6c923f",
      "meta": {
        "profile": [ "http://hl7.org/fhir/us/qicore/StructureDefinition/qicore-organization" ]
      },
      "identifier": [ {
        "use": "temp",
        "system": "urn:oid:2.16.840.1.113883.4.4",
        "value": "21-3259825"
      } ],
      "active": true,
      "type": [ {
        "coding": [ {
          "system": "http://terminology.hl7.org/CodeSystem/organization-type",
          "code": "pay",
          "display": "Payer"
        } ]
      } ],
      "name": "Blue Cross Blue Shield of Texas",
      "telecom": [ {
        "system": "phone",
        "value": "(+1) 972-766-6900"
      } ],
      "address": [ {
        "use": "billing",
        "type": "postal",
        "line": [ "P.O. Box 660044" ],
        "city": "Dallas",
        "state": "TX",
        "postalCode": "75266-0044",
        "country": "USA"
      } ]
    }
  }, {
    "fullUrl": "https://madie.cms.gov/Practitioner/224e8b78-6188-40be-80d3-fc73375ca857",
    "resource": {
      "resourceType": "Practitioner",
      "id": "224e8b78-6188-40be-80d3-fc73375ca857",
      "meta": {
        "profile": [ "http://hl7.org/fhir/us/qicore/StructureDefinition/qicore-practitioner" ]
      },
      "identifier": [ {
        "system": "http://hl7.org/fhir/sid/us-npi",
        "value": "1689411712"
      } ],
      "name": [ {
        "family": "Evil",
        "prefix": [ "Dr" ]
      } ]
    }
  }, {
    "fullUrl": "https://madie.cms.gov/MeasureReport/dd12edfd-3391-42c7-b2ea-7a52c1631ab8",
    "resource": {
      "resourceType": "MeasureReport",
      "id": "dd12edfd-3391-42c7-b2ea-7a52c1631ab8",
      "meta": {
        "profile": [ "http://hl7.org/fhir/us/cqfmeasures/StructureDefinition/test-case-cqfm" ]
      },
      "contained": [ {
        "resourceType": "Parameters",
        "id": "9aa1b254-69cf-4b66-8ff8-b8f80b799eec-parameters",
        "parameter": [ {
          "name": "subject",
          "valueString": "efa9696e-1451-4f5e-895a-552485e5c2b9"
        } ]
      } ],
      "extension": [ {
        "url": "http://hl7.org/fhir/StructureDefinition/cqf-inputParameters",
        "valueReference": {
          "reference": "#9aa1b254-69cf-4b66-8ff8-b8f80b799eec-parameters"
        }
      }, {
        "url": "http://hl7.org/fhir/us/cqfmeasures/StructureDefinition/cqfm-testCaseDescription",
        "valueMarkdown": "Patient is over 13 years old"
      } ],
      "modifierExtension": [ {
        "url": "http://hl7.org/fhir/us/cqfmeasures/StructureDefinition/cqfm-isTestCase",
        "valueBoolean": true
      } ],
      "status": "complete",
      "type": "individual",
      "measure": "https://madie.cms.gov/Measure/CMS1188FHIRHIVSTITesting",
      "period": {
        "start": "2026-01-01",
        "end": "2026-12-31"
      },
      "group": [ {
        "id": "Group_1",
        "population": [ {
          "id": "InitialPopulation_1",
          "code": {
            "coding": [ {
              "system": "http://terminology.hl7.org/CodeSystem/measure-population",
              "code": "initial-population",
              "display": "Initial Population"
            } ]
          },
          "count": 1
        }, {
          "id": "Denominator_1",
          "code": {
            "coding": [ {
              "system": "http://terminology.hl7.org/CodeSystem/measure-population",
              "code": "denominator",
              "display": "Denominator"
            } ]
          },
          "count": 1
        }, {
          "id": "Numerator_1",
          "code": {
            "coding": [ {
              "system": "http://terminology.hl7.org/CodeSystem/measure-population",
              "code": "numerator",
              "display": "Numerator"
            } ]
          },
          "count": 0
        } ],
        "measureScore": {
          "value": 1.0
        }
      } ],
      "evaluatedResource": [ {
        "reference": "Patient/efa9696e-1451-4f5e-895a-552485e5c2b9"
      }, {
        "reference": "Condition/3420f4e9-a6ea-4c1d-a5d5-ecbccf8481ec"
      }, {
        "reference": "Encounter/0cd1dc7d-38df-4d21-9757-2808fafb77df"
      }, {
        "reference": "Coverage/c8d46ca5-c9fb-4049-8152-f4ae9703a3bd"
      }, {
        "reference": "Organization/57c520bd-229c-4add-b3e0-743b8e6c923f"
      }, {
        "reference": "Practitioner/224e8b78-6188-40be-80d3-fc73375ca857"
      } ]
    }
  } ]
}