{
  "resourceType": "Bundle",
  "id": "63487c2d0968f8012254015a",
  "type": "transaction",
  "entry": [ {
    "fullUrl": "https://madie.cms.gov/Patient/8f3e1bc6-45ca-40ae-9e33-e9d97c6df55f",
    "resource": {
      "resourceType": "Patient",
      "id": "8f3e1bc6-45ca-40ae-9e33-e9d97c6df55f",
      "meta": {
        "profile": [ "http://hl7.org/fhir/us/qicore/StructureDefinition/qicore-patient" ]
      },
      "text": {
        "status": "generated",
        "div": "<div xmlns=\"http://www.w3.org/1999/xhtml\"><div class=\"hapiHeaderText\">TermMissingResultAssessPre<b>DENOMFail</b></div><table class=\"hapiPropertyTable\"><tbody><tr><td>Identifier</td><td>f1b9e4b3392b77f1a2fea2b625f7cf28fad883bb54105146a2733314d50d6a83</td></tr><tr><td>Date of birth</td><td><span>14 February 1985</span></td></tr></tbody></table></div>"
      },
      "extension": [ {
        "url": "http://hl7.org/fhir/us/core/StructureDefinition/us-core-race",
        "extension": [ {
          "url": "ombCategory",
          "valueCoding": {
            "system": "urn:oid:2.16.840.1.113883.6.238",
            "code": "1002-5",
            "display": "American Indian or Alaska Native",
            "userSelected": true
          }
        }, {
          "url": "text",
          "valueString": "American Indian or Alaska Native"
        } ]
      }, {
        "url": "http://hl7.org/fhir/us/core/StructureDefinition/us-core-ethnicity",
        "extension": [ {
          "url": "ombCategory",
          "valueCoding": {
            "system": "urn:oid:2.16.840.1.113883.6.238",
            "code": "2135-2",
            "display": "Hispanic or Latino",
            "userSelected": true
          }
        }, {
          "url": "text",
          "valueString": "Hispanic or Latino"
        } ]
      } ],
      "identifier": [ {
        "type": {
          "coding": [ {
            "system": "http://terminology.hl7.org/CodeSystem/v2-0203",
            "code": "MR"
          } ]
        },
        "system": "https://bonnie-fhir.healthit.gov/",
        "value": "63487c2d0968f8012254015a"
      } ],
      "active": true,
      "name": [ {
        "use": "usual",
        "family": "DENOMFail",
        "given": [ "TermMissingResultAssessPre" ]
      } ],
      "gender": "female",
      "birthDate": "1998-02-14"
    },
    "request": {
      "method": "PUT",
      "url": "Patient/8f3e1bc6-45ca-40ae-9e33-e9d97c6df55f"
    }
  }, {
    "fullUrl": "https://madie.cms.gov/Observation/8d1ca454-c088-4b29-8ca4-36f3df681d95",
    "resource": {
      "resourceType": "Observation",
      "id": "8d1ca454-c088-4b29-8ca4-36f3df681d95",
      "meta": {
        "profile": [ "http://hl7.org/fhir/us/qicore/StructureDefinition/qicore-simple-observation" ]
      },
      "status": "final",
      "category": [ {
        "coding": [ {
          "system": "http://terminology.hl7.org/CodeSystem/observation-category",
          "code": "exam",
          "display": "exam",
          "userSelected": true
        } ]
      } ],
      "code": {
        "coding": [ {
          "system": "http://loinc.org",
          "code": "11637-6"
        } ]
      },
      "subject": {
        "reference": "Patient/8f3e1bc6-45ca-40ae-9e33-e9d97c6df55f"
      },
      "effectiveDateTime": "2025-09-19T09:00:00.000+00:00",
      "performer": [ {
        "reference": "Organization/example1",
        "display": "Hendricks Country Hospital"
      } ]
    },
    "request": {
      "method": "PUT",
      "url": "Observation/8d1ca454-c088-4b29-8ca4-36f3df681d95"
    }
  }, {
    "fullUrl": "https://madie.cms.gov/Observation/937d71e9-5cbf-4c59-8792-2710c04a1ff9",
    "resource": {
      "resourceType": "Observation",
      "id": "937d71e9-5cbf-4c59-8792-2710c04a1ff9",
      "meta": {
        "profile": [ "http://hl7.org/fhir/us/qicore/StructureDefinition/qicore-simple-observation" ]
      },
      "status": "final",
      "category": [ {
        "coding": [ {
          "system": "http://terminology.hl7.org/CodeSystem/observation-category",
          "code": "exam",
          "display": "exam",
          "userSelected": true
        } ]
      } ],
      "code": {
        "coding": [ {
          "system": "http://loinc.org",
          "code": "11639-2"
        } ]
      },
      "subject": {
        "reference": "Patient/8f3e1bc6-45ca-40ae-9e33-e9d97c6df55f"
      },
      "effectiveDateTime": "2025-09-19T09:00:00.000+00:00",
      "performer": [ {
        "reference": "Organization/example1",
        "display": "Hendricks Country Hospital"
      } ],
      "valueInteger": 0
    },
    "request": {
      "method": "PUT",
      "url": "Observation/937d71e9-5cbf-4c59-8792-2710c04a1ff9"
    }
  }, {
    "fullUrl": "https://madie.cms.gov/Observation/db115d1f-c1d4-429d-a99f-471f53107a96",
    "resource": {
      "resourceType": "Observation",
      "id": "db115d1f-c1d4-429d-a99f-471f53107a96",
      "meta": {
        "profile": [ "http://hl7.org/fhir/us/qicore/StructureDefinition/qicore-simple-observation" ]
      },
      "status": "final",
      "category": [ {
        "coding": [ {
          "system": "http://terminology.hl7.org/CodeSystem/observation-category",
          "code": "exam",
          "display": "exam",
          "userSelected": true
        } ]
      } ],
      "code": {
        "coding": [ {
          "system": "http://loinc.org",
          "code": "11884-4"
        } ]
      },
      "subject": {
        "reference": "Patient/8f3e1bc6-45ca-40ae-9e33-e9d97c6df55f"
      },
      "effectiveDateTime": "2026-06-08T20:00:00.000+00:00",
      "performer": [ {
        "reference": "Organization/example1",
        "display": "Hendricks Country Hospital"
      } ],
      "valueQuantity": {
        "value": 37,
        "system": "http://unitsofmeasure.org",
        "code": "wk"
      }
    },
    "request": {
      "method": "PUT",
      "url": "Observation/db115d1f-c1d4-429d-a99f-471f53107a96"
    }
  }, {
    "fullUrl": "https://madie.cms.gov/Observation/d6d4cbee-ed84-4d8b-a78d-ef514a7e5443",
    "resource": {
      "resourceType": "Observation",
      "id": "d6d4cbee-ed84-4d8b-a78d-ef514a7e5443",
      "meta": {
        "profile": [ "http://hl7.org/fhir/us/qicore/StructureDefinition/qicore-simple-observation" ]
      },
      "status": "final",
      "category": [ {
        "coding": [ {
          "system": "http://terminology.hl7.org/CodeSystem/observation-category",
          "code": "exam",
          "display": "exam",
          "userSelected": true
        } ]
      } ],
      "code": {
        "coding": [ {
          "system": "http://loinc.org",
          "code": "93857-1"
        } ]
      },
      "subject": {
        "reference": "Patient/8f3e1bc6-45ca-40ae-9e33-e9d97c6df55f"
      },
      "effectiveDateTime": "2026-06-08T20:00:00.000+00:00",
      "performer": [ {
        "reference": "Organization/example1",
        "display": "Hendricks Country Hospital"
      } ],
      "valueDateTime": "2026-06-08T20:00:00.000+00:00"
    },
    "request": {
      "method": "PUT",
      "url": "Observation/d6d4cbee-ed84-4d8b-a78d-ef514a7e5443"
    }
  }, {
    "fullUrl": "https://madie.cms.gov/Encounter/c5dff307-5dab-4e0f-bd76-8bd36ef0bdcf",
    "resource": {
      "resourceType": "Encounter",
      "id": "c5dff307-5dab-4e0f-bd76-8bd36ef0bdcf",
      "meta": {
        "profile": [ "http://hl7.org/fhir/us/qicore/StructureDefinition/qicore-encounter" ]
      },
      "status": "finished",
      "class": {
        "system": "http://terminology.hl7.org/CodeSystem/v3-ActCode",
        "code": "IMP",
        "display": "inpatient encounter"
      },
      "type": [ {
        "coding": [ {
          "system": "http://snomed.info/sct",
          "code": "8715000"
        } ]
      } ],
      "subject": {
        "reference": "Patient/8f3e1bc6-45ca-40ae-9e33-e9d97c6df55f"
      },
      "period": {
        "start": "2026-06-08T08:00:00.000+00:00",
        "end": "2026-06-10T08:15:00.000+00:00"
      },
      "length": {
        "value": 2,
        "unit": "days"
      },
      "reasonReference": [ {
        "reference": "Condition/delivery-of-singleton-f83c"
      } ]
    },
    "request": {
      "method": "PUT",
      "url": "Encounter/c5dff307-5dab-4e0f-bd76-8bd36ef0bdcf"
    }
  }, {
    "fullUrl": "https://madie.cms.gov/Procedure/b258d673-b078-4fe0-b8a7-8772b33e7422",
    "resource": {
      "resourceType": "Procedure",
      "id": "b258d673-b078-4fe0-b8a7-8772b33e7422",
      "meta": {
        "profile": [ "http://hl7.org/fhir/us/qicore/StructureDefinition/qicore-procedure" ]
      },
      "extension": [ {
        "url": "http://hl7.org/fhir/us/qicore/StructureDefinition/qicore-recorded",
        "valueDateTime": "2014-04-05T13:35:00.000+00:00"
      } ],
      "status": "completed",
      "code": {
        "coding": [ {
          "system": "http://www.cms.gov/Medicare/Coding/ICD10",
          "code": "10D00Z0"
        }, {
          "system": "http://snomed.info/sct",
          "code": "4504004"
        } ]
      },
      "subject": {
        "reference": "Patient/8f3e1bc6-45ca-40ae-9e33-e9d97c6df55f"
      },
      "performedPeriod": {
        "start": "2026-06-08T20:00:00.000+00:00",
        "end": "2026-06-08T20:15:00.000+00:00"
      }
    },
    "request": {
      "method": "PUT",
      "url": "Procedure/b258d673-b078-4fe0-b8a7-8772b33e7422"
    }
  }, {
    "fullUrl": "https://madie.cms.gov/Condition/5b97c18e-a25f-432a-a043-c4ee8b6bac68",
    "resource": {
      "resourceType": "Condition",
      "id": "5b97c18e-a25f-432a-a043-c4ee8b6bac68",
      "meta": {
        "profile": [ "http://hl7.org/fhir/us/qicore/StructureDefinition/qicore-condition-encounter-diagnosis" ]
      },
      "category": [ {
        "coding": [ {
          "system": "http://terminology.hl7.org/CodeSystem/condition-category",
          "code": "encounter-diagnosis",
          "display": "Encounter Diagnosis"
        } ]
      } ],
      "code": {
        "coding": [ {
          "system": "http://snomed.info/sct",
          "version": "2022-09",
          "code": "169826009",
          "display": "Single live birth (finding)",
          "userSelected": true
        } ]
      },
      "subject": {
        "reference": "Patient/8f3e1bc6-45ca-40ae-9e33-e9d97c6df55f"
      },
      "encounter": {
        "reference": "Encounter/c5dff307-5dab-4e0f-bd76-8bd36ef0bdcf"
      },
      "recordedDate": "2026-10-21T08:00:00.000+00:00"
    },
    "request": {
      "method": "PUT",
      "url": "Condition/5b97c18e-a25f-432a-a043-c4ee8b6bac68"
    }
  }, {
    "fullUrl": "https://madie.cms.gov/Coverage/229c06be-a5a2-4a8a-8f4c-5f250f18df99",
    "resource": {
      "resourceType": "Coverage",
      "id": "229c06be-a5a2-4a8a-8f4c-5f250f18df99",
      "meta": {
        "profile": [ "http://hl7.org/fhir/us/qicore/StructureDefinition/qicore-coverage" ]
      },
      "status": "active",
      "subscriberId": "523435",
      "beneficiary": {
        "reference": "Patient/8f3e1bc6-45ca-40ae-9e33-e9d97c6df55f"
      },
      "relationship": {
        "coding": [ {
          "system": "http://terminology.hl7.org/CodeSystem/subscriber-relationship",
          "code": "self"
        } ]
      },
      "payor": [ {
        "reference": "Organization/5f00a425-288a-4f00-b842-2c6a1d226ac9"
      } ]
    },
    "request": {
      "method": "PUT",
      "url": "Coverage/229c06be-a5a2-4a8a-8f4c-5f250f18df99"
    }
  }, {
    "fullUrl": "https://madie.cms.gov/Organization/5f00a425-288a-4f00-b842-2c6a1d226ac9",
    "resource": {
      "resourceType": "Organization",
      "id": "5f00a425-288a-4f00-b842-2c6a1d226ac9",
      "meta": {
        "profile": [ "http://hl7.org/fhir/us/qicore/StructureDefinition/qicore-organization" ]
      },
      "identifier": [ {
        "use": "temp",
        "system": "urn:oid:2.16.840.1.113883.4.4",
        "value": "21-3259825"
      } ],
      "active": true,
      "type": [ {
        "coding": [ {
          "system": "http://terminology.hl7.org/CodeSystem/organization-type",
          "code": "pay",
          "display": "Payer"
        } ]
      } ],
      "name": "Blue Cross Blue Shield of Texas",
      "telecom": [ {
        "system": "phone",
        "value": "(+1) 972-766-6900"
      } ],
      "address": [ {
        "use": "billing",
        "type": "postal",
        "line": [ "P.O. Box 660044" ],
        "city": "Dallas",
        "state": "TX",
        "postalCode": "75266-0044",
        "country": "USA"
      } ]
    },
    "request": {
      "method": "PUT",
      "url": "Organization/5f00a425-288a-4f00-b842-2c6a1d226ac9"
    }
  }, {
    "fullUrl": "https://madie.cms.gov/Practitioner/00c52a4b-deb7-4abe-9f50-09daa6407215",
    "resource": {
      "resourceType": "Practitioner",
      "id": "00c52a4b-deb7-4abe-9f50-09daa6407215",
      "meta": {
        "profile": [ "http://hl7.org/fhir/us/qicore/StructureDefinition/qicore-practitioner" ]
      },
      "identifier": [ {
        "system": "http://hl7.org/fhir/sid/us-npi",
        "value": "1234567890"
      } ],
      "name": [ {
        "family": "Evil",
        "prefix": [ "Dr" ]
      } ]
    },
    "request": {
      "method": "PUT",
      "url": "Practitioner/00c52a4b-deb7-4abe-9f50-09daa6407215"
    }
  }, {
    "fullUrl": "https://madie.cms.gov/MeasureReport/343e1ac5-ed50-4370-982b-02df9ec51764",
    "resource": {
      "resourceType": "MeasureReport",
      "id": "343e1ac5-ed50-4370-982b-02df9ec51764",
      "meta": {
        "profile": [ "http://hl7.org/fhir/us/cqfmeasures/StructureDefinition/test-case-cqfm" ]
      },
      "contained": [ {
        "resourceType": "Parameters",
        "id": "7a0daa1f-f34b-426b-890c-ee01f81a2c2f-parameters",
        "parameter": [ {
          "name": "subject",
          "valueString": "8f3e1bc6-45ca-40ae-9e33-e9d97c6df55f"
        } ]
      } ],
      "extension": [ {
        "url": "http://hl7.org/fhir/StructureDefinition/cqf-inputParameters",
        "valueReference": {
          "reference": "#7a0daa1f-f34b-426b-890c-ee01f81a2c2f-parameters"
        }
      }, {
        "url": "http://hl7.org/fhir/us/cqfmeasures/StructureDefinition/cqfm-testCaseDescription",
        "valueMarkdown": "\"Preterm Births missing result,   rel date/time < 42weeks prior to asse delivery\nTerm Newborn=0, rel date/time < 42weeks prior to Asse delivery\"\n"
      } ],
      "modifierExtension": [ {
        "url": "http://hl7.org/fhir/us/cqfmeasures/StructureDefinition/cqfm-isTestCase",
        "valueBoolean": true
      } ],
      "status": "complete",
      "type": "individual",
      "measure": "https://madie.cms.gov/Measure/CMS0334FHIRPCCesareanBirth",
      "period": {
        "start": "2026-01-01",
        "end": "2026-12-31"
      },
      "group": [ {
        "id": "Group_1",
        "population": [ {
          "id": "InitialPopulation_1",
          "code": {
            "coding": [ {
              "system": "http://terminology.hl7.org/CodeSystem/measure-population",
              "code": "initial-population",
              "display": "Initial Population"
            } ]
          },
          "count": 1
        }, {
          "id": "Denominator_1",
          "code": {
            "coding": [ {
              "system": "http://terminology.hl7.org/CodeSystem/measure-population",
              "code": "denominator",
              "display": "Denominator"
            } ]
          },
          "count": 0
        }, {
          "id": "DenominatorExclusion_1",
          "code": {
            "coding": [ {
              "system": "http://terminology.hl7.org/CodeSystem/measure-population",
              "code": "denominator-exclusion",
              "display": "Denominator Exclusion"
            } ]
          },
          "count": 0
        }, {
          "id": "Numerator_1",
          "code": {
            "coding": [ {
              "system": "http://terminology.hl7.org/CodeSystem/measure-population",
              "code": "numerator",
              "display": "Numerator"
            } ]
          },
          "count": 0
        } ],
        "measureScore": {
          "value": 0.0
        }
      } ],
      "evaluatedResource": [ {
        "reference": "Patient/8f3e1bc6-45ca-40ae-9e33-e9d97c6df55f"
      }, {
        "reference": "Observation/8d1ca454-c088-4b29-8ca4-36f3df681d95"
      }, {
        "reference": "Observation/937d71e9-5cbf-4c59-8792-2710c04a1ff9"
      }, {
        "reference": "Observation/db115d1f-c1d4-429d-a99f-471f53107a96"
      }, {
        "reference": "Observation/d6d4cbee-ed84-4d8b-a78d-ef514a7e5443"
      }, {
        "reference": "Encounter/c5dff307-5dab-4e0f-bd76-8bd36ef0bdcf"
      }, {
        "reference": "Procedure/b258d673-b078-4fe0-b8a7-8772b33e7422"
      }, {
        "reference": "Condition/5b97c18e-a25f-432a-a043-c4ee8b6bac68"
      }, {
        "reference": "Coverage/229c06be-a5a2-4a8a-8f4c-5f250f18df99"
      }, {
        "reference": "Organization/5f00a425-288a-4f00-b842-2c6a1d226ac9"
      }, {
        "reference": "Practitioner/00c52a4b-deb7-4abe-9f50-09daa6407215"
      } ]
    },
    "request": {
      "method": "PUT",
      "url": "MeasureReport/343e1ac5-ed50-4370-982b-02df9ec51764"
    }
  } ]
}