{
  "resourceType": "Bundle",
  "id": "DENEXPass-FrailtyDxOverlapsMP2",
  "type": "transaction",
  "entry": [ {
    "fullUrl": "https://madie.cms.gov/Patient/f5771b74-a7de-439a-a51f-49a3863e086b",
    "resource": {
      "resourceType": "Patient",
      "id": "f5771b74-a7de-439a-a51f-49a3863e086b",
      "meta": {
        "profile": [ "http://hl7.org/fhir/us/qicore/StructureDefinition/qicore-patient" ]
      },
      "extension": [ {
        "url": "http://hl7.org/fhir/us/core/StructureDefinition/us-core-race",
        "extension": [ {
          "url": "ombCategory",
          "valueCoding": {
            "system": "urn:oid:2.16.840.1.113883.6.238",
            "code": "2028-9",
            "display": "Asian",
            "userSelected": true
          }
        }, {
          "url": "text",
          "valueString": "Asian"
        } ]
      }, {
        "url": "http://hl7.org/fhir/us/core/StructureDefinition/us-core-ethnicity",
        "extension": [ {
          "url": "ombCategory",
          "valueCoding": {
            "system": "urn:oid:2.16.840.1.113883.6.238",
            "code": "2135-2",
            "display": "Hispanic or Latino",
            "userSelected": true
          }
        }, {
          "url": "text",
          "valueString": "Hispanic or Latino"
        } ]
      } ],
      "identifier": [ {
        "type": {
          "coding": [ {
            "system": "http://terminology.hl7.org/CodeSystem/v2-0203",
            "code": "MR"
          } ]
        },
        "system": "http://hospital.smarthealthit.org",
        "value": "999999995"
      } ],
      "name": [ {
        "family": "Bertha",
        "given": [ "Betty" ]
      } ],
      "gender": "female",
      "birthDate": "1957-12-31"
    },
    "request": {
      "method": "PUT",
      "url": "Patient/f5771b74-a7de-439a-a51f-49a3863e086b"
    }
  }, {
    "fullUrl": "https://madie.cms.gov/Encounter/e4d73842-92be-41b0-9f30-845156702d01",
    "resource": {
      "resourceType": "Encounter",
      "id": "e4d73842-92be-41b0-9f30-845156702d01",
      "meta": {
        "profile": [ "http://hl7.org/fhir/us/qicore/StructureDefinition/qicore-encounter" ]
      },
      "status": "finished",
      "class": {
        "system": "http://terminology.hl7.org/CodeSystem/v3-ActCode",
        "code": "AMB",
        "display": "ambulatory"
      },
      "type": [ {
        "coding": [ {
          "system": "http://snomed.info/sct",
          "code": "185460008",
          "display": "Home visit request by patient (procedure)"
        } ]
      } ],
      "subject": {
        "reference": "Patient/f5771b74-a7de-439a-a51f-49a3863e086b"
      },
      "period": {
        "start": "2026-01-01T00:00:00.000+00:00",
        "end": "2026-01-01T00:15:00.000+00:00"
      }
    },
    "request": {
      "method": "PUT",
      "url": "Encounter/e4d73842-92be-41b0-9f30-845156702d01"
    }
  }, {
    "fullUrl": "https://madie.cms.gov/Condition/5f518151-f0cc-4564-9261-a14c5acfc32e",
    "resource": {
      "resourceType": "Condition",
      "id": "5f518151-f0cc-4564-9261-a14c5acfc32e",
      "meta": {
        "profile": [ "http://hl7.org/fhir/us/qicore/StructureDefinition/qicore-condition-encounter-diagnosis" ]
      },
      "clinicalStatus": {
        "coding": [ {
          "system": "http://terminology.hl7.org/CodeSystem/condition-clinical",
          "code": "active"
        } ]
      },
      "category": [ {
        "coding": [ {
          "system": "http://terminology.hl7.org/CodeSystem/condition-category",
          "code": "encounter-diagnosis",
          "display": "Encounter Diagnosis"
        } ]
      } ],
      "code": {
        "coding": [ {
          "system": "http://snomed.info/sct",
          "code": "102781000119107",
          "display": "Sensory neuropathy due to type 1 diabetes mellitus (disorder)"
        } ]
      },
      "subject": {
        "reference": "Patient/f5771b74-a7de-439a-a51f-49a3863e086b"
      },
      "onsetDateTime": "2026-01-01T23:59:00.000+00:00"
    },
    "request": {
      "method": "PUT",
      "url": "Condition/5f518151-f0cc-4564-9261-a14c5acfc32e"
    }
  }, {
    "fullUrl": "https://madie.cms.gov/MedicationRequest/3e22a20d-ccef-4f84-bcf6-3abf5d2044f5",
    "resource": {
      "resourceType": "MedicationRequest",
      "id": "3e22a20d-ccef-4f84-bcf6-3abf5d2044f5",
      "meta": {
        "profile": [ "http://hl7.org/fhir/us/qicore/StructureDefinition/qicore-medicationrequest" ]
      },
      "status": "active",
      "intent": "order",
      "doNotPerform": false,
      "medicationCodeableConcept": {
        "coding": [ {
          "system": "http://www.nlm.nih.gov/research/umls/rxnorm",
          "code": "312836",
          "display": "rivastigmine 6 MG Oral Capsule"
        } ]
      },
      "subject": {
        "reference": "Patient/f5771b74-a7de-439a-a51f-49a3863e086b"
      },
      "authoredOn": "2026-12-30T00:00:00.000+00:00",
      "requester": {
        "reference": "Practitioner/example"
      },
      "dispenseRequest": {
        "expectedSupplyDuration": {
          "value": 90,
          "system": "http://unitsofmeasure.org",
          "code": "days"
        }
      }
    },
    "request": {
      "method": "PUT",
      "url": "MedicationRequest/3e22a20d-ccef-4f84-bcf6-3abf5d2044f5"
    }
  }, {
    "fullUrl": "https://madie.cms.gov/Condition/931764ca-fd03-4d1c-815c-d48074331b7e",
    "resource": {
      "resourceType": "Condition",
      "id": "931764ca-fd03-4d1c-815c-d48074331b7e",
      "meta": {
        "profile": [ "http://hl7.org/fhir/us/qicore/StructureDefinition/qicore-condition-problems-health-concerns" ]
      },
      "clinicalStatus": {
        "coding": [ {
          "system": "http://terminology.hl7.org/CodeSystem/condition-clinical",
          "code": "active"
        } ]
      },
      "category": [ {
        "coding": [ {
          "system": "http://terminology.hl7.org/CodeSystem/condition-category",
          "code": "problem-list-item",
          "display": "Problem List Item"
        } ]
      } ],
      "code": {
        "coding": [ {
          "system": "http://snomed.info/sct",
          "code": "217083007",
          "display": "Fall on or from stairs or steps (event)"
        } ]
      },
      "subject": {
        "reference": "Patient/f5771b74-a7de-439a-a51f-49a3863e086b"
      },
      "onsetDateTime": "2026-06-30T23:59:59.000+00:00"
    },
    "request": {
      "method": "PUT",
      "url": "Condition/931764ca-fd03-4d1c-815c-d48074331b7e"
    }
  }, {
    "fullUrl": "https://madie.cms.gov/MeasureReport/50f84e99-bb0e-4b7c-bc0b-b81dfb59c503",
    "resource": {
      "resourceType": "MeasureReport",
      "id": "50f84e99-bb0e-4b7c-bc0b-b81dfb59c503",
      "meta": {
        "profile": [ "http://hl7.org/fhir/us/cqfmeasures/StructureDefinition/test-case-cqfm" ]
      },
      "contained": [ {
        "resourceType": "Parameters",
        "id": "86a4f964-fed3-40a2-9162-2926119d9cda-parameters",
        "parameter": [ {
          "name": "subject",
          "valueString": "f5771b74-a7de-439a-a51f-49a3863e086b"
        } ]
      } ],
      "extension": [ {
        "url": "http://hl7.org/fhir/StructureDefinition/cqf-inputParameters",
        "valueReference": {
          "reference": "#86a4f964-fed3-40a2-9162-2926119d9cda-parameters"
        }
      }, {
        "url": "http://hl7.org/fhir/us/cqfmeasures/StructureDefinition/cqfm-testCaseDescription",
        "valueMarkdown": "Frailty diagnosis overlaps the MP"
      } ],
      "modifierExtension": [ {
        "url": "http://hl7.org/fhir/us/cqfmeasures/StructureDefinition/cqfm-isTestCase",
        "valueBoolean": true
      } ],
      "status": "complete",
      "type": "individual",
      "measure": "https://madie.cms.gov/Measure/CMS122FHIRDiabetesAssessGT9Pct",
      "period": {
        "start": "2026-01-01",
        "end": "2026-12-31"
      },
      "group": [ {
        "id": "Group_1",
        "population": [ {
          "id": "InitialPopulation_1",
          "code": {
            "coding": [ {
              "system": "http://terminology.hl7.org/CodeSystem/measure-population",
              "code": "initial-population",
              "display": "Initial Population"
            } ]
          },
          "count": 1
        }, {
          "id": "Denominator_1",
          "code": {
            "coding": [ {
              "system": "http://terminology.hl7.org/CodeSystem/measure-population",
              "code": "denominator",
              "display": "Denominator"
            } ]
          },
          "count": 1
        }, {
          "id": "DenominatorExclusion_1",
          "code": {
            "coding": [ {
              "system": "http://terminology.hl7.org/CodeSystem/measure-population",
              "code": "denominator-exclusion",
              "display": "Denominator Exclusion"
            } ]
          },
          "count": 1
        }, {
          "id": "Numerator_1",
          "code": {
            "coding": [ {
              "system": "http://terminology.hl7.org/CodeSystem/measure-population",
              "code": "numerator",
              "display": "Numerator"
            } ]
          },
          "count": 0
        } ],
        "measureScore": {
          "value": 1.0
        }
      } ],
      "evaluatedResource": [ {
        "reference": "Patient/f5771b74-a7de-439a-a51f-49a3863e086b"
      }, {
        "reference": "Encounter/e4d73842-92be-41b0-9f30-845156702d01"
      }, {
        "reference": "Condition/5f518151-f0cc-4564-9261-a14c5acfc32e"
      }, {
        "reference": "MedicationRequest/3e22a20d-ccef-4f84-bcf6-3abf5d2044f5"
      }, {
        "reference": "Condition/931764ca-fd03-4d1c-815c-d48074331b7e"
      } ]
    },
    "request": {
      "method": "PUT",
      "url": "MeasureReport/50f84e99-bb0e-4b7c-bc0b-b81dfb59c503"
    }
  } ]
}