{
  "resourceType": "Bundle",
  "id": "612e6f7d02c62a011f2f2008",
  "type": "transaction",
  "entry": [ {
    "fullUrl": "https://madie.cms.gov/Patient/28424502-1b12-461c-937e-d16c3c4716b7",
    "resource": {
      "resourceType": "Patient",
      "id": "28424502-1b12-461c-937e-d16c3c4716b7",
      "meta": {
        "profile": [ "http://hl7.org/fhir/us/qicore/StructureDefinition/qicore-patient" ]
      },
      "text": {
        "status": "generated",
        "div": "<div xmlns=\"http://www.w3.org/1999/xhtml\"><div class=\"hapiHeaderText\">MARivDuringICU <b>NUMERPASS </b></div><table class=\"hapiPropertyTable\"><tbody><tr><td>Identifier</td><td>0f1ead663b0075a3e74fb3655fe4cfdf</td></tr><tr><td>Date of birth</td><td><span>03 March 1974</span></td></tr></tbody></table></div>"
      },
      "extension": [ {
        "url": "http://hl7.org/fhir/us/core/StructureDefinition/us-core-race",
        "extension": [ {
          "url": "ombCategory",
          "valueCoding": {
            "system": "urn:oid:2.16.840.1.113883.6.238",
            "code": "1002-5",
            "display": "American Indian or Alaska Native",
            "userSelected": true
          }
        }, {
          "url": "text",
          "valueString": "American Indian or Alaska Native"
        } ]
      }, {
        "url": "http://hl7.org/fhir/us/core/StructureDefinition/us-core-ethnicity",
        "extension": [ {
          "url": "ombCategory",
          "valueCoding": {
            "system": "urn:oid:2.16.840.1.113883.6.238",
            "code": "2135-2",
            "display": "Hispanic or Latino",
            "userSelected": true
          }
        }, {
          "url": "text",
          "valueString": "Hispanic or Latino"
        } ]
      } ],
      "identifier": [ {
        "type": {
          "coding": [ {
            "system": "http://terminology.hl7.org/CodeSystem/v2-0203",
            "code": "MR"
          } ]
        },
        "system": "https://bonnie-fhir.healthit.gov/",
        "value": "612e6f7d02c62a011f2f2008"
      } ],
      "active": true,
      "name": [ {
        "use": "usual",
        "family": "NUMERPass",
        "given": [ "MARivDuringICU" ]
      } ],
      "gender": "female",
      "birthDate": "1975-03-03"
    },
    "request": {
      "method": "PUT",
      "url": "Patient/28424502-1b12-461c-937e-d16c3c4716b7"
    }
  }, {
    "fullUrl": "https://madie.cms.gov/Encounter/9c4f4e94-9802-4614-a26b-37cbeeb9ec28",
    "resource": {
      "resourceType": "Encounter",
      "id": "9c4f4e94-9802-4614-a26b-37cbeeb9ec28",
      "meta": {
        "profile": [ "http://hl7.org/fhir/us/qicore/StructureDefinition/qicore-encounter" ]
      },
      "status": "finished",
      "class": {
        "system": "http://terminology.hl7.org/CodeSystem/v3-ActCode",
        "code": "IMP",
        "display": "inpatient encounter"
      },
      "type": [ {
        "coding": [ {
          "system": "http://snomed.info/sct",
          "code": "8715000"
        } ]
      } ],
      "subject": {
        "reference": "Patient/28424502-1b12-461c-937e-d16c3c4716b7"
      },
      "period": {
        "start": "2026-12-04T08:00:00.000+00:00",
        "end": "2026-12-30T08:15:00.000+00:00"
      },
      "length": {
        "value": 26.0,
        "unit": "days"
      },
      "location": [ {
        "location": {
          "reference": "Location/7535de7b-03a0-4f07-8487-9e4683fa6e5d"
        },
        "period": {
          "start": "2026-12-06T09:00:00.000+00:00",
          "end": "2026-12-12T08:15:00.000+00:00"
        }
      } ]
    },
    "request": {
      "method": "PUT",
      "url": "Encounter/9c4f4e94-9802-4614-a26b-37cbeeb9ec28"
    }
  }, {
    "fullUrl": "https://madie.cms.gov/Coverage/20f2c99f-ec35-457c-ab6b-c006d748db5e",
    "resource": {
      "resourceType": "Coverage",
      "id": "20f2c99f-ec35-457c-ab6b-c006d748db5e",
      "status": "active",
      "beneficiary": {
        "reference": "Patient/28424502-1b12-461c-937e-d16c3c4716b7"
      },
      "period": {
        "start": "1975-03-03T08:00:00.000+00:00"
      },
      "payor": [ {
        "reference": "Organization/923547da-3310-4072-98cf-4ac9153a632b"
      } ]
    },
    "request": {
      "method": "PUT",
      "url": "Coverage/20f2c99f-ec35-457c-ab6b-c006d748db5e"
    }
  }, {
    "fullUrl": "https://madie.cms.gov/Location/7535de7b-03a0-4f07-8487-9e4683fa6e5d",
    "resource": {
      "resourceType": "Location",
      "id": "7535de7b-03a0-4f07-8487-9e4683fa6e5d",
      "meta": {
        "profile": [ "http://hl7.org/fhir/us/qicore/StructureDefinition/qicore-location" ]
      },
      "identifier": [ {
        "use": "usual",
        "system": "http://exampleoflocation.com",
        "value": "B1-S.F2"
      } ],
      "name": "Medical Surgical East, first floor",
      "type": [ {
        "coding": [ {
          "system": "https://www.cdc.gov/nhsn/cdaportal/terminology/codesystem/hsloc.html",
          "version": "2020",
          "code": "1025-6",
          "display": "Trauma Critical Care",
          "userSelected": true
        } ]
      } ]
    },
    "request": {
      "method": "PUT",
      "url": "Location/7535de7b-03a0-4f07-8487-9e4683fa6e5d"
    }
  }, {
    "fullUrl": "https://madie.cms.gov/MedicationAdministration/c65d5d4e-757f-49fd-ad29-c4a52959d15f",
    "resource": {
      "resourceType": "MedicationAdministration",
      "id": "c65d5d4e-757f-49fd-ad29-c4a52959d15f",
      "meta": {
        "profile": [ "http://hl7.org/fhir/us/qicore/StructureDefinition/qicore-medicationadministration" ]
      },
      "status": "completed",
      "medicationCodeableConcept": {
        "coding": [ {
          "system": "http://www.nlm.nih.gov/research/umls/rxnorm",
          "code": "1114198"
        } ]
      },
      "subject": {
        "reference": "Patient/28424502-1b12-461c-937e-d16c3c4716b7"
      },
      "effectivePeriod": {
        "start": "2026-12-06T11:00:00.000+00:00",
        "end": "2026-12-06T11:05:00.000+00:00"
      }
    },
    "request": {
      "method": "PUT",
      "url": "MedicationAdministration/c65d5d4e-757f-49fd-ad29-c4a52959d15f"
    }
  }, {
    "fullUrl": "https://madie.cms.gov/Organization/923547da-3310-4072-98cf-4ac9153a632b",
    "resource": {
      "resourceType": "Organization",
      "id": "923547da-3310-4072-98cf-4ac9153a632b",
      "meta": {
        "profile": [ "http://hl7.org/fhir/us/qicore/StructureDefinition/qicore-organization" ]
      },
      "identifier": [ {
        "use": "temp",
        "system": "urn:oid:2.16.840.1.113883.4.4",
        "value": "21-3259825"
      } ],
      "active": true,
      "type": [ {
        "coding": [ {
          "system": "http://terminology.hl7.org/CodeSystem/organization-type",
          "code": "pay",
          "display": "Payer"
        } ]
      } ],
      "name": "Blue Cross Blue Shield of Texas",
      "telecom": [ {
        "system": "phone",
        "value": "(+1) 972-766-6900"
      } ],
      "address": [ {
        "use": "billing",
        "type": "postal",
        "line": [ "P.O. Box 660044" ],
        "city": "Dallas",
        "state": "TX",
        "postalCode": "75266-0044",
        "country": "USA"
      } ]
    },
    "request": {
      "method": "PUT",
      "url": "Organization/923547da-3310-4072-98cf-4ac9153a632b"
    }
  }, {
    "fullUrl": "https://madie.cms.gov/MeasureReport/9cba2bab-b4a8-43ac-bc36-4de85fea0a49",
    "resource": {
      "resourceType": "MeasureReport",
      "id": "9cba2bab-b4a8-43ac-bc36-4de85fea0a49",
      "meta": {
        "profile": [ "http://hl7.org/fhir/us/cqfmeasures/StructureDefinition/test-case-cqfm" ]
      },
      "contained": [ {
        "resourceType": "Parameters",
        "id": "f2a39a21-29de-4427-a355-fadc1d8557b8-parameters",
        "parameter": [ {
          "name": "subject",
          "valueString": "28424502-1b12-461c-937e-d16c3c4716b7"
        } ]
      } ],
      "extension": [ {
        "url": "http://hl7.org/fhir/StructureDefinition/cqf-inputParameters",
        "valueReference": {
          "reference": "#f2a39a21-29de-4427-a355-fadc1d8557b8-parameters"
        }
      }, {
        "url": "http://hl7.org/fhir/us/cqfmeasures/StructureDefinition/cqfm-testCaseDescription",
        "valueMarkdown": "Rivaroxaban and Betrixaban for VTE Prophylaxis was administered  during ICU admission\n"
      } ],
      "modifierExtension": [ {
        "url": "http://hl7.org/fhir/us/cqfmeasures/StructureDefinition/cqfm-isTestCase",
        "valueBoolean": true
      } ],
      "status": "complete",
      "type": "individual",
      "measure": "https://madie.cms.gov/Measure/CMS190FHIRVTEProphylaxisICU",
      "period": {
        "start": "2026-01-01",
        "end": "2026-12-31"
      },
      "group": [ {
        "id": "Group_1",
        "population": [ {
          "id": "InitialPopulation_1",
          "code": {
            "coding": [ {
              "system": "http://terminology.hl7.org/CodeSystem/measure-population",
              "code": "initial-population",
              "display": "Initial Population"
            } ]
          },
          "count": 1
        }, {
          "id": "Denominator_1",
          "code": {
            "coding": [ {
              "system": "http://terminology.hl7.org/CodeSystem/measure-population",
              "code": "denominator",
              "display": "Denominator"
            } ]
          },
          "count": 1
        }, {
          "id": "DenominatorExclusion_1",
          "code": {
            "coding": [ {
              "system": "http://terminology.hl7.org/CodeSystem/measure-population",
              "code": "denominator-exclusion",
              "display": "Denominator Exclusion"
            } ]
          },
          "count": 0
        }, {
          "id": "Numerator_1",
          "code": {
            "coding": [ {
              "system": "http://terminology.hl7.org/CodeSystem/measure-population",
              "code": "numerator",
              "display": "Numerator"
            } ]
          },
          "count": 1
        }, {
          "id": "DenominatorException_1",
          "code": {
            "coding": [ {
              "system": "http://terminology.hl7.org/CodeSystem/measure-population",
              "code": "denominator-exception",
              "display": "Denominator Exception"
            } ]
          },
          "count": 0
        } ],
        "measureScore": {
          "value": 0.0
        }
      } ],
      "evaluatedResource": [ {
        "reference": "Patient/28424502-1b12-461c-937e-d16c3c4716b7"
      }, {
        "reference": "Encounter/9c4f4e94-9802-4614-a26b-37cbeeb9ec28"
      }, {
        "reference": "Coverage/20f2c99f-ec35-457c-ab6b-c006d748db5e"
      }, {
        "reference": "Location/7535de7b-03a0-4f07-8487-9e4683fa6e5d"
      }, {
        "reference": "MedicationAdministration/c65d5d4e-757f-49fd-ad29-c4a52959d15f"
      }, {
        "reference": "Organization/923547da-3310-4072-98cf-4ac9153a632b"
      } ]
    },
    "request": {
      "method": "PUT",
      "url": "MeasureReport/9cba2bab-b4a8-43ac-bc36-4de85fea0a49"
    }
  } ]
}