{
  "resourceType": "Bundle",
  "id": "Patient-39-DENEXPass-OneInpatientVisitDuringMP",
  "type": "transaction",
  "entry": [ {
    "fullUrl": "https://madie.cms.gov/Patient/85b60f52-7b08-46f3-946b-cb317b28acf5",
    "resource": {
      "resourceType": "Patient",
      "id": "85b60f52-7b08-46f3-946b-cb317b28acf5",
      "meta": {
        "profile": [ "http://hl7.org/fhir/us/qicore/StructureDefinition/qicore-patient" ]
      },
      "extension": [ {
        "url": "http://hl7.org/fhir/us/core/StructureDefinition/us-core-race",
        "extension": [ {
          "url": "ombCategory",
          "valueCoding": {
            "system": "urn:oid:2.16.840.1.113883.6.238",
            "code": "2028-9",
            "display": "Asian"
          }
        }, {
          "url": "text",
          "valueString": "Asian"
        } ]
      }, {
        "url": "http://hl7.org/fhir/us/core/StructureDefinition/us-core-ethnicity",
        "extension": [ {
          "url": "ombCategory",
          "valueCoding": {
            "system": "urn:oid:2.16.840.1.113883.6.238",
            "code": "2135-2",
            "display": "Hispanic or Latino"
          }
        }, {
          "url": "text",
          "valueString": "Hispanic or Latino"
        } ]
      } ],
      "identifier": [ {
        "system": "http://hospital.smarthealthit.org",
        "value": "999999995"
      } ],
      "name": [ {
        "family": "Bertha",
        "given": [ "Betty" ]
      } ],
      "gender": "female",
      "birthDate": "1959-12-31"
    },
    "request": {
      "method": "PUT",
      "url": "Patient/85b60f52-7b08-46f3-946b-cb317b28acf5"
    }
  }, {
    "fullUrl": "https://madie.cms.gov/Encounter/ed4a7019-12aa-4bc6-9c96-da86e79ac22e",
    "resource": {
      "resourceType": "Encounter",
      "id": "ed4a7019-12aa-4bc6-9c96-da86e79ac22e",
      "meta": {
        "profile": [ "http://hl7.org/fhir/us/qicore/StructureDefinition/qicore-encounter" ]
      },
      "status": "finished",
      "class": {
        "system": "http://terminology.hl7.org/CodeSystem/v3-ActCode",
        "code": "AMB",
        "display": "ambulatory"
      },
      "type": [ {
        "coding": [ {
          "system": "http://snomed.info/sct",
          "code": "185460008",
          "display": "Home visit request by patient (procedure)"
        } ]
      } ],
      "subject": {
        "reference": "Patient/85b60f52-7b08-46f3-946b-cb317b28acf5"
      },
      "period": {
        "start": "2026-01-01T00:00:00.000+00:00",
        "end": "2026-01-01T00:15:00.000+00:00"
      }
    },
    "request": {
      "method": "PUT",
      "url": "Encounter/ed4a7019-12aa-4bc6-9c96-da86e79ac22e"
    }
  }, {
    "fullUrl": "https://madie.cms.gov/Condition/9dbc31cd-2392-4aa8-b4eb-a74a719416b1",
    "resource": {
      "resourceType": "Condition",
      "id": "9dbc31cd-2392-4aa8-b4eb-a74a719416b1",
      "meta": {
        "profile": [ "http://hl7.org/fhir/us/qicore/StructureDefinition/qicore-condition-encounter-diagnosis" ]
      },
      "clinicalStatus": {
        "coding": [ {
          "system": "http://terminology.hl7.org/CodeSystem/condition-clinical",
          "code": "active"
        } ]
      },
      "category": [ {
        "coding": [ {
          "system": "http://terminology.hl7.org/CodeSystem/condition-category",
          "code": "encounter-diagnosis",
          "display": "Encounter Diagnosis"
        } ]
      } ],
      "code": {
        "coding": [ {
          "system": "http://snomed.info/sct",
          "code": "102781000119107",
          "display": "Sensory neuropathy due to type 1 diabetes mellitus (disorder)"
        } ]
      },
      "subject": {
        "reference": "Patient/85b60f52-7b08-46f3-946b-cb317b28acf5"
      },
      "onsetDateTime": "2026-01-01T23:59:00.000+00:00"
    },
    "request": {
      "method": "PUT",
      "url": "Condition/9dbc31cd-2392-4aa8-b4eb-a74a719416b1"
    }
  }, {
    "fullUrl": "https://madie.cms.gov/Condition/cc20a695-5fce-4099-9351-1b91adbc74b8",
    "resource": {
      "resourceType": "Condition",
      "id": "cc20a695-5fce-4099-9351-1b91adbc74b8",
      "meta": {
        "profile": [ "http://hl7.org/fhir/us/qicore/StructureDefinition/qicore-condition-encounter-diagnosis" ]
      },
      "clinicalStatus": {
        "coding": [ {
          "system": "http://terminology.hl7.org/CodeSystem/condition-clinical",
          "code": "active"
        } ]
      },
      "category": [ {
        "coding": [ {
          "system": "http://terminology.hl7.org/CodeSystem/condition-category",
          "code": "encounter-diagnosis",
          "display": "Encounter Diagnosis"
        } ]
      } ],
      "code": {
        "coding": [ {
          "system": "http://snomed.info/sct",
          "code": "101421000119107",
          "display": "Dementia due to Parkinson's disease (disorder)"
        } ]
      },
      "subject": {
        "reference": "Patient/85b60f52-7b08-46f3-946b-cb317b28acf5"
      },
      "onsetDateTime": "2025-12-31T23:59:59.000+00:00"
    },
    "request": {
      "method": "PUT",
      "url": "Condition/cc20a695-5fce-4099-9351-1b91adbc74b8"
    }
  }, {
    "fullUrl": "https://madie.cms.gov/Encounter/bde16daa-1f04-45cc-ab79-0bfe6f8f7f69",
    "resource": {
      "resourceType": "Encounter",
      "id": "bde16daa-1f04-45cc-ab79-0bfe6f8f7f69",
      "meta": {
        "profile": [ "http://hl7.org/fhir/us/qicore/StructureDefinition/qicore-encounter" ]
      },
      "status": "finished",
      "class": {
        "system": "http://terminology.hl7.org/CodeSystem/v3-ActCode",
        "code": "AMB",
        "display": "ambulatory"
      },
      "type": [ {
        "coding": [ {
          "system": "http://snomed.info/sct",
          "code": "183450002",
          "display": "Admission to burn unit (procedure)"
        } ]
      } ],
      "subject": {
        "reference": "Patient/85b60f52-7b08-46f3-946b-cb317b28acf5"
      },
      "period": {
        "start": "2026-05-01T00:00:00.000+00:00",
        "end": "2026-05-01T01:00:00.000+00:00"
      },
      "diagnosis": [ {
        "condition": {
          "reference": "Condition/cc20a695-5fce-4099-9351-1b91adbc74b8"
        }
      } ]
    },
    "request": {
      "method": "PUT",
      "url": "Encounter/bde16daa-1f04-45cc-ab79-0bfe6f8f7f69"
    }
  }, {
    "fullUrl": "https://madie.cms.gov/DeviceRequest/7fde05d2-a690-4aa2-9b1a-d2cea877ef72",
    "resource": {
      "resourceType": "DeviceRequest",
      "id": "7fde05d2-a690-4aa2-9b1a-d2cea877ef72",
      "meta": {
        "profile": [ "http://hl7.org/fhir/us/qicore/StructureDefinition/qicore-devicerequest" ]
      },
      "modifierExtension": [ {
        "url": "http://hl7.org/fhir/5.0/StructureDefinition/extension-DeviceRequest.doNotPerform",
        "valueBoolean": false
      } ],
      "status": "completed",
      "intent": "order",
      "codeCodeableConcept": {
        "coding": [ {
          "system": "http://snomed.info/sct",
          "code": "183240000",
          "display": "Self-propelled wheelchair (physical object)"
        } ]
      },
      "subject": {
        "reference": "Patient/85b60f52-7b08-46f3-946b-cb317b28acf5"
      },
      "authoredOn": "2026-11-01T23:59:00.000+00:00"
    },
    "request": {
      "method": "PUT",
      "url": "DeviceRequest/7fde05d2-a690-4aa2-9b1a-d2cea877ef72"
    }
  }, {
    "fullUrl": "https://madie.cms.gov/MeasureReport/2cb54ad7-4330-49a5-b559-4331cbe5334c",
    "resource": {
      "resourceType": "MeasureReport",
      "id": "2cb54ad7-4330-49a5-b559-4331cbe5334c",
      "meta": {
        "profile": [ "http://hl7.org/fhir/us/cqfmeasures/StructureDefinition/test-case-cqfm" ]
      },
      "contained": [ {
        "resourceType": "Parameters",
        "id": "50fc903e-e3e4-4564-9a73-724923f33469-parameters",
        "parameter": [ {
          "name": "subject",
          "valueString": "85b60f52-7b08-46f3-946b-cb317b28acf5"
        } ]
      } ],
      "extension": [ {
        "url": "http://hl7.org/fhir/StructureDefinition/cqf-inputParameters",
        "valueReference": {
          "reference": "#50fc903e-e3e4-4564-9a73-724923f33469-parameters"
        }
      }, {
        "url": "http://hl7.org/fhir/us/cqfmeasures/StructureDefinition/cqfm-testCaseDescription",
        "valueMarkdown": "One inpatient visit during the MP"
      } ],
      "modifierExtension": [ {
        "url": "http://hl7.org/fhir/us/cqfmeasures/StructureDefinition/cqfm-isTestCase",
        "valueBoolean": true
      } ],
      "status": "complete",
      "type": "individual",
      "measure": "https://madie.cms.gov/Measure/CMS122FHIRDiabetesAssessGT9Pct",
      "period": {
        "start": "2026-01-01",
        "end": "2026-12-31"
      },
      "group": [ {
        "id": "Group_1",
        "population": [ {
          "id": "InitialPopulation_1",
          "code": {
            "coding": [ {
              "system": "http://terminology.hl7.org/CodeSystem/measure-population",
              "code": "initial-population",
              "display": "Initial Population"
            } ]
          },
          "count": 1
        }, {
          "id": "Denominator_1",
          "code": {
            "coding": [ {
              "system": "http://terminology.hl7.org/CodeSystem/measure-population",
              "code": "denominator",
              "display": "Denominator"
            } ]
          },
          "count": 1
        }, {
          "id": "DenominatorExclusion_1",
          "code": {
            "coding": [ {
              "system": "http://terminology.hl7.org/CodeSystem/measure-population",
              "code": "denominator-exclusion",
              "display": "Denominator Exclusion"
            } ]
          },
          "count": 1
        }, {
          "id": "Numerator_1",
          "code": {
            "coding": [ {
              "system": "http://terminology.hl7.org/CodeSystem/measure-population",
              "code": "numerator",
              "display": "Numerator"
            } ]
          },
          "count": 0
        } ],
        "measureScore": {
          "value": 1.0
        }
      } ],
      "evaluatedResource": [ {
        "reference": "Patient/85b60f52-7b08-46f3-946b-cb317b28acf5"
      }, {
        "reference": "Encounter/ed4a7019-12aa-4bc6-9c96-da86e79ac22e"
      }, {
        "reference": "Condition/9dbc31cd-2392-4aa8-b4eb-a74a719416b1"
      }, {
        "reference": "Condition/cc20a695-5fce-4099-9351-1b91adbc74b8"
      }, {
        "reference": "Encounter/bde16daa-1f04-45cc-ab79-0bfe6f8f7f69"
      }, {
        "reference": "DeviceRequest/7fde05d2-a690-4aa2-9b1a-d2cea877ef72"
      } ]
    },
    "request": {
      "method": "PUT",
      "url": "MeasureReport/2cb54ad7-4330-49a5-b559-4331cbe5334c"
    }
  } ]
}