{
  "resourceType": "Bundle",
  "id": "DENEXPass-Age81FrailtyOnly",
  "type": "transaction",
  "entry": [ {
    "fullUrl": "https://madie.cms.gov/Patient/f5b461d7-e382-4616-a763-d745867735d0",
    "resource": {
      "resourceType": "Patient",
      "id": "f5b461d7-e382-4616-a763-d745867735d0",
      "meta": {
        "profile": [ "http://hl7.org/fhir/us/qicore/StructureDefinition/qicore-patient" ]
      },
      "extension": [ {
        "url": "http://hl7.org/fhir/us/core/StructureDefinition/us-core-race",
        "extension": [ {
          "url": "ombCategory",
          "valueCoding": {
            "system": "urn:oid:2.16.840.1.113883.6.238",
            "code": "2028-9",
            "display": "Asian"
          }
        }, {
          "url": "text",
          "valueString": "Asian"
        } ]
      }, {
        "url": "http://hl7.org/fhir/us/core/StructureDefinition/us-core-ethnicity",
        "extension": [ {
          "url": "ombCategory",
          "valueCoding": {
            "system": "urn:oid:2.16.840.1.113883.6.238",
            "code": "2135-2",
            "display": "Hispanic or Latino"
          }
        }, {
          "url": "text",
          "valueString": "Hispanic or Latino"
        } ]
      } ],
      "identifier": [ {
        "system": "http://hospital.smarthealthit.org",
        "value": "999999995"
      } ],
      "name": [ {
        "family": "DENEXPass",
        "given": [ "Age81FrailtyOnly" ]
      } ],
      "gender": "female",
      "birthDate": "1945-12-31"
    },
    "request": {
      "method": "PUT",
      "url": "Patient/f5b461d7-e382-4616-a763-d745867735d0"
    }
  }, {
    "fullUrl": "https://madie.cms.gov/Encounter/338e0210-5da6-4630-8ba6-e2c900eaa037",
    "resource": {
      "resourceType": "Encounter",
      "id": "338e0210-5da6-4630-8ba6-e2c900eaa037",
      "meta": {
        "profile": [ "http://hl7.org/fhir/us/qicore/StructureDefinition/qicore-encounter" ]
      },
      "status": "finished",
      "class": {
        "system": "http://terminology.hl7.org/CodeSystem/v3-ActCode",
        "code": "AMB",
        "display": "ambulatory"
      },
      "type": [ {
        "coding": [ {
          "system": "http://snomed.info/sct",
          "code": "3391000175108",
          "display": "Office visit for pediatric care and assessment (procedure)"
        } ]
      } ],
      "subject": {
        "reference": "Patient/f5b461d7-e382-4616-a763-d745867735d0"
      },
      "period": {
        "start": "2026-01-01T00:00:00.000+00:00",
        "end": "2026-01-01T01:00:00.000+00:00"
      }
    },
    "request": {
      "method": "PUT",
      "url": "Encounter/338e0210-5da6-4630-8ba6-e2c900eaa037"
    }
  }, {
    "fullUrl": "https://madie.cms.gov/Condition/fa1c6ced-45f6-4fc2-ad8d-9fe2fb98eee6",
    "resource": {
      "resourceType": "Condition",
      "id": "fa1c6ced-45f6-4fc2-ad8d-9fe2fb98eee6",
      "meta": {
        "profile": [ "http://hl7.org/fhir/us/qicore/StructureDefinition/qicore-condition-problems-health-concerns" ]
      },
      "clinicalStatus": {
        "coding": [ {
          "system": "http://terminology.hl7.org/CodeSystem/condition-clinical",
          "code": "active"
        } ]
      },
      "category": [ {
        "coding": [ {
          "system": "http://terminology.hl7.org/CodeSystem/condition-category",
          "code": "problem-list-item",
          "display": "Problem List Item"
        } ]
      } ],
      "code": {
        "coding": [ {
          "system": "http://snomed.info/sct",
          "code": "371125006",
          "display": "Labile essential hypertension (disorder)"
        } ]
      },
      "subject": {
        "reference": "Patient/f5b461d7-e382-4616-a763-d745867735d0"
      },
      "onsetDateTime": "2026-06-30T23:59:59.000+00:00"
    },
    "request": {
      "method": "PUT",
      "url": "Condition/fa1c6ced-45f6-4fc2-ad8d-9fe2fb98eee6"
    }
  }, {
    "fullUrl": "https://madie.cms.gov/DeviceRequest/ea81801b-049d-4455-9429-c848dc8283d8",
    "resource": {
      "resourceType": "DeviceRequest",
      "id": "ea81801b-049d-4455-9429-c848dc8283d8",
      "meta": {
        "profile": [ "http://hl7.org/fhir/us/qicore/StructureDefinition/qicore-devicerequest" ]
      },
      "modifierExtension": [ {
        "url": "http://hl7.org/fhir/5.0/StructureDefinition/extension-DeviceRequest.doNotPerform",
        "valueBoolean": false
      } ],
      "status": "completed",
      "intent": "order",
      "codeCodeableConcept": {
        "coding": [ {
          "system": "http://snomed.info/sct",
          "code": "183240000",
          "display": "Self-propelled wheelchair (physical object)"
        } ]
      },
      "subject": {
        "reference": "Patient/f5b461d7-e382-4616-a763-d745867735d0"
      },
      "authoredOn": "2026-11-01T23:59:00.000+00:00"
    },
    "request": {
      "method": "PUT",
      "url": "DeviceRequest/ea81801b-049d-4455-9429-c848dc8283d8"
    }
  }, {
    "fullUrl": "https://madie.cms.gov/MeasureReport/c40356e4-5065-4c08-b691-08705513f287",
    "resource": {
      "resourceType": "MeasureReport",
      "id": "c40356e4-5065-4c08-b691-08705513f287",
      "meta": {
        "profile": [ "http://hl7.org/fhir/us/cqfmeasures/StructureDefinition/test-case-cqfm" ]
      },
      "contained": [ {
        "resourceType": "Parameters",
        "id": "be796069-9bd7-4aa3-a9f5-112035997554-parameters",
        "parameter": [ {
          "name": "subject",
          "valueString": "f5b461d7-e382-4616-a763-d745867735d0"
        } ]
      } ],
      "extension": [ {
        "url": "http://hl7.org/fhir/StructureDefinition/cqf-inputParameters",
        "valueReference": {
          "reference": "#be796069-9bd7-4aa3-a9f5-112035997554-parameters"
        }
      }, {
        "url": "http://hl7.org/fhir/us/cqfmeasures/StructureDefinition/cqfm-testCaseDescription",
        "valueMarkdown": "Age 81 with only frailty"
      } ],
      "modifierExtension": [ {
        "url": "http://hl7.org/fhir/us/cqfmeasures/StructureDefinition/cqfm-isTestCase",
        "valueBoolean": true
      } ],
      "status": "complete",
      "type": "individual",
      "measure": "https://madie.cms.gov/Measure/CMS165FHIRControllingHighBP",
      "period": {
        "start": "2026-01-01",
        "end": "2026-12-31"
      },
      "group": [ {
        "id": "Group_1",
        "population": [ {
          "id": "InitialPopulation_1",
          "code": {
            "coding": [ {
              "system": "http://terminology.hl7.org/CodeSystem/measure-population",
              "code": "initial-population",
              "display": "Initial Population"
            } ]
          },
          "count": 1
        }, {
          "id": "Denominator_1",
          "code": {
            "coding": [ {
              "system": "http://terminology.hl7.org/CodeSystem/measure-population",
              "code": "denominator",
              "display": "Denominator"
            } ]
          },
          "count": 1
        }, {
          "id": "DenominatorExclusion_1",
          "code": {
            "coding": [ {
              "system": "http://terminology.hl7.org/CodeSystem/measure-population",
              "code": "denominator-exclusion",
              "display": "Denominator Exclusion"
            } ]
          },
          "count": 1
        }, {
          "id": "Numerator_1",
          "code": {
            "coding": [ {
              "system": "http://terminology.hl7.org/CodeSystem/measure-population",
              "code": "numerator",
              "display": "Numerator"
            } ]
          },
          "count": 0
        } ],
        "measureScore": {
          "value": 1.0
        }
      } ],
      "evaluatedResource": [ {
        "reference": "Patient/f5b461d7-e382-4616-a763-d745867735d0"
      }, {
        "reference": "Encounter/338e0210-5da6-4630-8ba6-e2c900eaa037"
      }, {
        "reference": "Condition/fa1c6ced-45f6-4fc2-ad8d-9fe2fb98eee6"
      }, {
        "reference": "DeviceRequest/ea81801b-049d-4455-9429-c848dc8283d8"
      } ]
    },
    "request": {
      "method": "PUT",
      "url": "MeasureReport/c40356e4-5065-4c08-b691-08705513f287"
    }
  } ]
}