{
  "resourceType": "Bundle",
  "id": "DENEXFail-HospiceServicesEndOnDec31B4MP",
  "type": "transaction",
  "entry": [ {
    "fullUrl": "https://madie.cms.gov/Patient/ef247fbf-b973-4321-9830-5d184a730a6f",
    "resource": {
      "resourceType": "Patient",
      "id": "ef247fbf-b973-4321-9830-5d184a730a6f",
      "meta": {
        "profile": [ "http://hl7.org/fhir/us/qicore/StructureDefinition/qicore-patient" ]
      },
      "extension": [ {
        "url": "http://hl7.org/fhir/us/core/StructureDefinition/us-core-race",
        "extension": [ {
          "url": "ombCategory",
          "valueCoding": {
            "system": "urn:oid:2.16.840.1.113883.6.238",
            "code": "2028-9",
            "display": "Asian"
          }
        }, {
          "url": "text",
          "valueString": "Asian"
        } ]
      }, {
        "url": "http://hl7.org/fhir/us/core/StructureDefinition/us-core-ethnicity",
        "extension": [ {
          "url": "ombCategory",
          "valueCoding": {
            "system": "urn:oid:2.16.840.1.113883.6.238",
            "code": "2135-2",
            "display": "Hispanic or Latino"
          }
        }, {
          "url": "text",
          "valueString": "Hispanic or Latino"
        } ]
      } ],
      "identifier": [ {
        "system": "http://hospital.smarthealthit.org",
        "value": "999999995"
      } ],
      "name": [ {
        "family": "Bertha",
        "given": [ "Betty" ]
      } ],
      "gender": "female",
      "birthDate": "2007-12-31"
    },
    "request": {
      "method": "PUT",
      "url": "Patient/ef247fbf-b973-4321-9830-5d184a730a6f"
    }
  }, {
    "fullUrl": "https://madie.cms.gov/Encounter/4f130b41-4fc5-4f17-bb0c-05b571f9ebdb",
    "resource": {
      "resourceType": "Encounter",
      "id": "4f130b41-4fc5-4f17-bb0c-05b571f9ebdb",
      "meta": {
        "profile": [ "http://hl7.org/fhir/us/qicore/StructureDefinition/qicore-encounter" ]
      },
      "status": "finished",
      "class": {
        "system": "http://terminology.hl7.org/CodeSystem/v3-ActCode",
        "code": "AMB",
        "display": "ambulatory"
      },
      "type": [ {
        "coding": [ {
          "system": "http://snomed.info/sct",
          "code": "185463005",
          "display": "Visit out of hours (procedure)"
        } ]
      } ],
      "subject": {
        "reference": "Patient/ef247fbf-b973-4321-9830-5d184a730a6f"
      },
      "period": {
        "start": "2026-01-01T00:00:00.000+00:00",
        "end": "2026-01-01T00:00:00.000+00:00"
      }
    },
    "request": {
      "method": "PUT",
      "url": "Encounter/4f130b41-4fc5-4f17-bb0c-05b571f9ebdb"
    }
  }, {
    "fullUrl": "https://madie.cms.gov/Condition/8ffcebf8-9cb1-4e4e-a4e1-962b88c0246e",
    "resource": {
      "resourceType": "Condition",
      "id": "8ffcebf8-9cb1-4e4e-a4e1-962b88c0246e",
      "meta": {
        "profile": [ "http://hl7.org/fhir/us/qicore/StructureDefinition/qicore-condition-encounter-diagnosis" ]
      },
      "clinicalStatus": {
        "coding": [ {
          "system": "http://terminology.hl7.org/CodeSystem/condition-clinical",
          "code": "active"
        } ]
      },
      "category": [ {
        "coding": [ {
          "system": "http://terminology.hl7.org/CodeSystem/condition-category",
          "code": "encounter-diagnosis",
          "display": "Encounter Diagnosis"
        } ]
      } ],
      "code": {
        "coding": [ {
          "system": "http://snomed.info/sct",
          "code": "102781000119107",
          "display": "Sensory neuropathy due to type 1 diabetes mellitus (disorder)"
        } ]
      },
      "subject": {
        "reference": "Patient/ef247fbf-b973-4321-9830-5d184a730a6f"
      },
      "onsetDateTime": "2026-01-01T00:00:00.000+00:00"
    },
    "request": {
      "method": "PUT",
      "url": "Condition/8ffcebf8-9cb1-4e4e-a4e1-962b88c0246e"
    }
  }, {
    "fullUrl": "https://madie.cms.gov/Encounter/4f130b41-4fc5-4f17-bb0c-05b571f9ebdb.1",
    "resource": {
      "resourceType": "Encounter",
      "id": "4f130b41-4fc5-4f17-bb0c-05b571f9ebdb.1",
      "meta": {
        "profile": [ "http://hl7.org/fhir/us/qicore/StructureDefinition/qicore-encounter" ]
      },
      "status": "finished",
      "class": {
        "system": "http://terminology.hl7.org/CodeSystem/v3-ActCode",
        "code": "AMB",
        "display": "ambulatory"
      },
      "type": [ {
        "coding": [ {
          "system": "http://snomed.info/sct",
          "code": "183452005",
          "display": "Emergency hospital admission (procedure)"
        } ]
      } ],
      "subject": {
        "reference": "Patient/ef247fbf-b973-4321-9830-5d184a730a6f"
      },
      "period": {
        "start": "2024-12-31T23:59:59.000+00:00",
        "end": "2024-12-31T23:59:59.000+00:00"
      },
      "hospitalization": {
        "dischargeDisposition": {
          "coding": [ {
            "system": "http://snomed.info/sct",
            "code": "428371000124100",
            "display": "Discharge to healthcare facility for hospice care (procedure)"
          } ]
        }
      }
    },
    "request": {
      "method": "PUT",
      "url": "Encounter/4f130b41-4fc5-4f17-bb0c-05b571f9ebdb.1"
    }
  }, {
    "fullUrl": "https://madie.cms.gov/MeasureReport/240567b4-e532-454c-9033-e8ccd02a506e",
    "resource": {
      "resourceType": "MeasureReport",
      "id": "240567b4-e532-454c-9033-e8ccd02a506e",
      "meta": {
        "profile": [ "http://hl7.org/fhir/us/cqfmeasures/StructureDefinition/test-case-cqfm" ]
      },
      "contained": [ {
        "resourceType": "Parameters",
        "id": "8769e904-9433-4365-a98f-3d5360e5ce0b-parameters",
        "parameter": [ {
          "name": "subject",
          "valueString": "ef247fbf-b973-4321-9830-5d184a730a6f"
        } ]
      } ],
      "extension": [ {
        "url": "http://hl7.org/fhir/StructureDefinition/cqf-inputParameters",
        "valueReference": {
          "reference": "#8769e904-9433-4365-a98f-3d5360e5ce0b-parameters"
        }
      }, {
        "url": "http://hl7.org/fhir/us/cqfmeasures/StructureDefinition/cqfm-testCaseDescription",
        "valueMarkdown": "Patient 18yo w/ an Office Visit Encounter 1/1 of the MP, & Diabetes Condition ending 1/1 during the MP, & Hospice Encounter that ends on 12/31 of the year before the MP."
      } ],
      "modifierExtension": [ {
        "url": "http://hl7.org/fhir/us/cqfmeasures/StructureDefinition/cqfm-isTestCase",
        "valueBoolean": true
      } ],
      "status": "complete",
      "type": "individual",
      "measure": "https://madie.cms.gov/Measure/CMS131FHIRDiabetesEyeExam",
      "period": {
        "start": "2026-01-01",
        "end": "2026-12-31"
      },
      "group": [ {
        "id": "Group_1",
        "population": [ {
          "id": "InitialPopulation_1",
          "code": {
            "coding": [ {
              "system": "http://terminology.hl7.org/CodeSystem/measure-population",
              "code": "initial-population",
              "display": "Initial Population"
            } ]
          },
          "count": 1
        }, {
          "id": "Denominator_1",
          "code": {
            "coding": [ {
              "system": "http://terminology.hl7.org/CodeSystem/measure-population",
              "code": "denominator",
              "display": "Denominator"
            } ]
          },
          "count": 1
        }, {
          "id": "DenominatorExclusion_1",
          "code": {
            "coding": [ {
              "system": "http://terminology.hl7.org/CodeSystem/measure-population",
              "code": "denominator-exclusion",
              "display": "Denominator Exclusion"
            } ]
          },
          "count": 0
        }, {
          "id": "Numerator_1",
          "code": {
            "coding": [ {
              "system": "http://terminology.hl7.org/CodeSystem/measure-population",
              "code": "numerator",
              "display": "Numerator"
            } ]
          },
          "count": 0
        } ],
        "measureScore": {
          "value": 1.0
        }
      } ],
      "evaluatedResource": [ {
        "reference": "Patient/ef247fbf-b973-4321-9830-5d184a730a6f"
      }, {
        "reference": "Encounter/4f130b41-4fc5-4f17-bb0c-05b571f9ebdb"
      }, {
        "reference": "Condition/8ffcebf8-9cb1-4e4e-a4e1-962b88c0246e"
      }, {
        "reference": "Encounter/4f130b41-4fc5-4f17-bb0c-05b571f9ebdb.1"
      } ]
    },
    "request": {
      "method": "PUT",
      "url": "MeasureReport/240567b4-e532-454c-9033-e8ccd02a506e"
    }
  } ]
}