{
  "resourceType": "Bundle",
  "id": "62b1e15a3968556e5150cf3b",
  "type": "collection",
  "entry": [ {
    "fullUrl": "https://madie.cms.gov/Patient/e1b6a53f-c856-41c2-b1fe-ec50d3f23333",
    "resource": {
      "resourceType": "Patient",
      "id": "e1b6a53f-c856-41c2-b1fe-ec50d3f23333",
      "meta": {
        "profile": [ "http://hl7.org/fhir/us/qicore/StructureDefinition/qicore-patient" ]
      },
      "extension": [ {
        "url": "http://hl7.org/fhir/us/core/StructureDefinition/us-core-race",
        "extension": [ {
          "url": "ombCategory",
          "valueCoding": {
            "system": "urn:oid:2.16.840.1.113883.6.238",
            "code": "1002-5",
            "display": "American Indian or Alaska Native",
            "userSelected": true
          }
        }, {
          "url": "text",
          "valueString": "American Indian or Alaska Native"
        } ]
      }, {
        "url": "http://hl7.org/fhir/us/core/StructureDefinition/us-core-ethnicity",
        "extension": [ {
          "url": "ombCategory",
          "valueCoding": {
            "system": "urn:oid:2.16.840.1.113883.6.238",
            "code": "2135-2",
            "display": "Hispanic or Latino",
            "userSelected": true
          }
        }, {
          "url": "text",
          "valueString": "Hispanic or Latino"
        } ]
      }, {
        "url": "http://hl7.org/fhir/us/core/StructureDefinition/us-core-sex",
        "valueCode": "248153007"
      } ],
      "identifier": [ {
        "type": {
          "coding": [ {
            "system": "http://terminology.hl7.org/CodeSystem/v2-0203",
            "code": "MR"
          } ]
        },
        "system": "https://bonnie-fhir.healthit.gov/",
        "value": "62b1e15a3968556e5150cf3b"
      } ],
      "name": [ {
        "family": "DENOMEXPass",
        "given": [ "AdultHistoryOfBipolarRemission" ]
      } ],
      "gender": "male",
      "birthDate": "2008-01-01"
    }
  }, {
    "fullUrl": "https://madie.cms.gov/Encounter/f3c003e0-c51e-4529-ae6c-34183cc15074",
    "resource": {
      "resourceType": "Encounter",
      "id": "f3c003e0-c51e-4529-ae6c-34183cc15074",
      "meta": {
        "profile": [ "http://hl7.org/fhir/us/qicore/StructureDefinition/qicore-encounter" ]
      },
      "status": "finished",
      "class": {
        "system": "http://terminology.hl7.org/CodeSystem/v3-ActCode",
        "code": "AMB",
        "display": "ambulatory"
      },
      "type": [ {
        "coding": [ {
          "system": "http://snomed.info/sct",
          "code": "10197000",
          "display": "Psychiatric interview and evaluation (procedure)",
          "userSelected": true
        } ]
      } ],
      "subject": {
        "reference": "Patient/e1b6a53f-c856-41c2-b1fe-ec50d3f23333"
      },
      "period": {
        "start": "2026-06-21T08:00:00.000Z",
        "end": "2026-06-21T08:15:00.000Z"
      }
    }
  }, {
    "fullUrl": "https://madie.cms.gov/Condition/33552a98-1b80-422d-ba89-9cd21b4134be",
    "resource": {
      "resourceType": "Condition",
      "id": "33552a98-1b80-422d-ba89-9cd21b4134be",
      "meta": {
        "profile": [ "http://hl7.org/fhir/us/qicore/StructureDefinition/qicore-condition-problems-health-concerns" ]
      },
      "clinicalStatus": {
        "coding": [ {
          "system": "http://terminology.hl7.org/CodeSystem/condition-clinical",
          "code": "active",
          "display": "active",
          "userSelected": true
        } ]
      },
      "category": [ {
        "coding": [ {
          "system": "http://terminology.hl7.org/CodeSystem/condition-category",
          "code": "problem-list-item",
          "display": "Problem List Item"
        } ]
      } ],
      "code": {
        "coding": [ {
          "system": "http://snomed.info/sct",
          "code": "12969000",
          "display": "Severe bipolar II disorder, most recent episode major depressive, in full remission (disorder)",
          "userSelected": true
        } ]
      },
      "subject": {
        "reference": "Patient/e1b6a53f-c856-41c2-b1fe-ec50d3f23333"
      },
      "onsetDateTime": "2021-06-15T08:00:00.000Z"
    }
  }, {
    "fullUrl": "https://madie.cms.gov/Coverage/a9b09314-9a7b-4c65-9321-32d17b88f8ab",
    "resource": {
      "resourceType": "Coverage",
      "id": "a9b09314-9a7b-4c65-9321-32d17b88f8ab",
      "meta": {
        "profile": [ "http://hl7.org/fhir/us/qicore/StructureDefinition/qicore-coverage" ]
      },
      "status": "active",
      "type": {
        "coding": [ {
          "system": "https://nahdo.org/sopt",
          "code": "119",
          "display": "Medicare Managed Care Other",
          "userSelected": true
        } ]
      },
      "subscriberId": "123456789",
      "beneficiary": {
        "reference": "Patient/e1b6a53f-c856-41c2-b1fe-ec50d3f23333"
      },
      "relationship": {
        "coding": [ {
          "system": "http://terminology.hl7.org/CodeSystem/subscriber-relationship",
          "code": "self",
          "display": "Self",
          "userSelected": true
        } ]
      },
      "period": {
        "start": "2021-06-21T08:00:00.000Z",
        "end": "2026-06-21T08:15:00.000Z"
      },
      "payor": [ {
        "reference": "Organization/77e7a954-62f2-4c0a-912f-35797b66c224"
      } ]
    }
  }, {
    "fullUrl": "https://madie.cms.gov/Organization/77e7a954-62f2-4c0a-912f-35797b66c224",
    "resource": {
      "resourceType": "Organization",
      "id": "77e7a954-62f2-4c0a-912f-35797b66c224",
      "meta": {
        "profile": [ "http://hl7.org/fhir/us/qicore/StructureDefinition/qicore-organization" ]
      },
      "identifier": [ {
        "use": "temp",
        "system": "urn:oid:2.16.840.1.113883.4.4",
        "value": "21-3259825"
      } ],
      "active": true,
      "type": [ {
        "coding": [ {
          "system": "http://terminology.hl7.org/CodeSystem/organization-type",
          "code": "pay",
          "display": "Payer"
        } ]
      } ],
      "name": "Blue Cross Blue Shield of Texas",
      "telecom": [ {
        "system": "phone",
        "value": "(+1) 972-766-6900"
      } ],
      "address": [ {
        "use": "billing",
        "type": "postal",
        "line": [ "P.O. Box 660044" ],
        "city": "Dallas",
        "state": "TX",
        "postalCode": "75266-0044",
        "country": "USA"
      } ]
    }
  }, {
    "fullUrl": "https://madie.cms.gov/Practitioner/ff784b65-ed65-430b-9296-adf1f17de72c",
    "resource": {
      "resourceType": "Practitioner",
      "id": "ff784b65-ed65-430b-9296-adf1f17de72c",
      "meta": {
        "profile": [ "http://hl7.org/fhir/us/qicore/StructureDefinition/qicore-practitioner" ]
      },
      "identifier": [ {
        "system": "http://hl7.org/fhir/sid/us-npi",
        "value": "1234567893"
      } ],
      "name": [ {
        "family": "Evil",
        "prefix": [ "Dr" ]
      } ]
    }
  }, {
    "fullUrl": "https://madie.cms.gov/MeasureReport/93988ccc-e93b-4aea-85e9-8b074c28777b",
    "resource": {
      "resourceType": "MeasureReport",
      "id": "93988ccc-e93b-4aea-85e9-8b074c28777b",
      "meta": {
        "profile": [ "http://hl7.org/fhir/us/cqfmeasures/StructureDefinition/test-case-cqfm" ]
      },
      "contained": [ {
        "resourceType": "Parameters",
        "id": "14b79ac2-9899-454a-b9d2-57a59a06b8ca-parameters",
        "parameter": [ {
          "name": "subject",
          "valueString": "e1b6a53f-c856-41c2-b1fe-ec50d3f23333"
        } ]
      } ],
      "extension": [ {
        "url": "http://hl7.org/fhir/StructureDefinition/cqf-inputParameters",
        "valueReference": {
          "reference": "#14b79ac2-9899-454a-b9d2-57a59a06b8ca-parameters"
        }
      }, {
        "url": "http://hl7.org/fhir/us/cqfmeasures/StructureDefinition/cqfm-testCaseDescription",
        "valueMarkdown": "18 yo patient with history of bipolar - remission"
      } ],
      "modifierExtension": [ {
        "url": "http://hl7.org/fhir/us/cqfmeasures/StructureDefinition/cqfm-isTestCase",
        "valueBoolean": true
      } ],
      "status": "complete",
      "type": "individual",
      "measure": "https://madie.cms.gov/Measure/CMS2FHIRPCSDepScreenAndFollowUp",
      "period": {
        "start": "2026-01-01",
        "end": "2026-12-31"
      },
      "group": [ {
        "id": "Group_1",
        "population": [ {
          "id": "InitialPopulation_1",
          "code": {
            "coding": [ {
              "system": "http://terminology.hl7.org/CodeSystem/measure-population",
              "code": "initial-population",
              "display": "Initial Population"
            } ]
          },
          "count": 1
        }, {
          "id": "Denominator_1",
          "code": {
            "coding": [ {
              "system": "http://terminology.hl7.org/CodeSystem/measure-population",
              "code": "denominator",
              "display": "Denominator"
            } ]
          },
          "count": 1
        }, {
          "id": "DenominatorExclusion_1",
          "code": {
            "coding": [ {
              "system": "http://terminology.hl7.org/CodeSystem/measure-population",
              "code": "denominator-exclusion",
              "display": "Denominator Exclusion"
            } ]
          },
          "count": 1
        }, {
          "id": "Numerator_1",
          "code": {
            "coding": [ {
              "system": "http://terminology.hl7.org/CodeSystem/measure-population",
              "code": "numerator",
              "display": "Numerator"
            } ]
          },
          "count": 0
        }, {
          "id": "DenominatorException_1",
          "code": {
            "coding": [ {
              "system": "http://terminology.hl7.org/CodeSystem/measure-population",
              "code": "denominator-exception",
              "display": "Denominator Exception"
            } ]
          },
          "count": 0
        } ],
        "measureScore": {
          "value": 1.0
        }
      } ],
      "evaluatedResource": [ {
        "reference": "Patient/e1b6a53f-c856-41c2-b1fe-ec50d3f23333"
      }, {
        "reference": "Encounter/f3c003e0-c51e-4529-ae6c-34183cc15074"
      }, {
        "reference": "Condition/33552a98-1b80-422d-ba89-9cd21b4134be"
      }, {
        "reference": "Coverage/a9b09314-9a7b-4c65-9321-32d17b88f8ab"
      }, {
        "reference": "Organization/77e7a954-62f2-4c0a-912f-35797b66c224"
      }, {
        "reference": "Practitioner/ff784b65-ed65-430b-9296-adf1f17de72c"
      } ]
    }
  } ]
}