{
  "resourceType": "Bundle",
  "id": "649469c3d09ece2c2e9bf93f",
  "type": "collection",
  "entry": [ {
    "fullUrl": "https://madie.cms.gov/Patient/4a461ae6-b9f7-4e9f-aab2-ecc9e65fb298",
    "resource": {
      "resourceType": "Patient",
      "id": "4a461ae6-b9f7-4e9f-aab2-ecc9e65fb298",
      "meta": {
        "profile": [ "http://hl7.org/fhir/us/qicore/StructureDefinition/qicore-patient" ]
      },
      "extension": [ {
        "url": "http://hl7.org/fhir/us/core/StructureDefinition/us-core-race",
        "extension": [ {
          "url": "ombCategory",
          "valueCoding": {
            "system": "urn:oid:2.16.840.1.113883.6.238",
            "code": "2054-5",
            "display": "Black or African American",
            "userSelected": true
          }
        }, {
          "url": "text",
          "valueString": "Black or African American"
        } ]
      }, {
        "url": "http://hl7.org/fhir/us/core/StructureDefinition/us-core-ethnicity",
        "extension": [ {
          "url": "ombCategory",
          "valueCoding": {
            "system": "urn:oid:2.16.840.1.113883.6.238",
            "code": "2186-5",
            "display": "Not Hispanic or Latino",
            "userSelected": true
          }
        }, {
          "url": "text",
          "valueString": "Not Hispanic or Latino"
        } ]
      } ],
      "identifier": [ {
        "type": {
          "coding": [ {
            "system": "http://terminology.hl7.org/CodeSystem/v2-0203",
            "code": "MR"
          } ]
        },
        "system": "https://bonnie-fhir.healthit.gov/",
        "value": "649469c3d09ece2c2e9bf93f"
      } ],
      "name": [ {
        "family": "15NumPass",
        "given": [ "TwoEncJan1andDec31" ]
      } ],
      "gender": "female",
      "birthDate": "2016-08-04"
    }
  }, {
    "fullUrl": "https://madie.cms.gov/Condition/456f3e2d-6864-4fcc-9baa-9bff944db19f",
    "resource": {
      "resourceType": "Condition",
      "id": "456f3e2d-6864-4fcc-9baa-9bff944db19f",
      "meta": {
        "profile": [ "http://hl7.org/fhir/us/qicore/StructureDefinition/qicore-condition-problems-health-concerns" ]
      },
      "clinicalStatus": {
        "coding": [ {
          "system": "http://terminology.hl7.org/CodeSystem/condition-clinical",
          "code": "active",
          "display": "active",
          "userSelected": true
        } ]
      },
      "category": [ {
        "coding": [ {
          "system": "http://terminology.hl7.org/CodeSystem/condition-category",
          "code": "problem-list-item",
          "display": "Problem List Item"
        } ]
      } ],
      "code": {
        "coding": [ {
          "system": "http://hl7.org/fhir/sid/icd-9-cm",
          "version": "2013",
          "code": "042",
          "display": "Human immunodeficiency virus [HIV] disease",
          "userSelected": true
        }, {
          "system": "http://snomed.info/sct",
          "version": "http://snomed.info/sct/731000124108/version/20250301",
          "code": "230180003",
          "userSelected": true
        } ]
      },
      "subject": {
        "reference": "Patient/4a461ae6-b9f7-4e9f-aab2-ecc9e65fb298"
      },
      "onsetDateTime": "2026-01-01T08:00:00.000+00:00",
      "recordedDate": "2026-01-01T08:00:00.000+00:00"
    }
  }, {
    "fullUrl": "https://madie.cms.gov/Encounter/2e670d2c-912a-4ac7-8356-635f0670ede2",
    "resource": {
      "resourceType": "Encounter",
      "id": "2e670d2c-912a-4ac7-8356-635f0670ede2",
      "meta": {
        "profile": [ "http://hl7.org/fhir/us/qicore/StructureDefinition/qicore-encounter" ]
      },
      "status": "finished",
      "class": {
        "system": "http://terminology.hl7.org/CodeSystem/v3-ActCode",
        "code": "AMB",
        "display": "ambulatory"
      },
      "type": [ {
        "coding": [ {
          "system": "http://snomed.info/sct",
          "version": "2022-09",
          "code": "185460008",
          "display": "Home visit request by patient (procedure)",
          "userSelected": true
        } ]
      } ],
      "subject": {
        "reference": "Patient/4a461ae6-b9f7-4e9f-aab2-ecc9e65fb298"
      },
      "period": {
        "start": "2026-02-01T08:00:00.000+00:00",
        "end": "2026-02-01T08:15:00.000+00:00"
      }
    }
  }, {
    "fullUrl": "https://madie.cms.gov/Encounter/606ddc59-8286-416a-b99a-c478d3eba8a7",
    "resource": {
      "resourceType": "Encounter",
      "id": "606ddc59-8286-416a-b99a-c478d3eba8a7",
      "meta": {
        "profile": [ "http://hl7.org/fhir/us/qicore/StructureDefinition/qicore-encounter" ]
      },
      "status": "finished",
      "class": {
        "system": "http://terminology.hl7.org/CodeSystem/v3-ActCode",
        "code": "AMB",
        "display": "ambulatory"
      },
      "type": [ {
        "coding": [ {
          "system": "http://snomed.info/sct",
          "version": "2022-09",
          "code": "185463005",
          "display": "Visit out of hours (procedure)",
          "userSelected": true
        } ]
      } ],
      "subject": {
        "reference": "Patient/4a461ae6-b9f7-4e9f-aab2-ecc9e65fb298"
      },
      "period": {
        "start": "2026-12-31T08:00:00.000+00:00",
        "end": "2026-12-31T08:15:00.000+00:00"
      }
    }
  }, {
    "fullUrl": "https://madie.cms.gov/Coverage/6033ef3b-f50d-411e-b8e4-c7a7fb34428a",
    "resource": {
      "resourceType": "Coverage",
      "id": "6033ef3b-f50d-411e-b8e4-c7a7fb34428a",
      "meta": {
        "profile": [ "http://hl7.org/fhir/us/qicore/StructureDefinition/qicore-coverage" ]
      },
      "status": "active",
      "subscriberId": "123456",
      "beneficiary": {
        "reference": "Patient/4a461ae6-b9f7-4e9f-aab2-ecc9e65fb298"
      },
      "relationship": {
        "coding": [ {
          "system": "http://terminology.hl7.org/CodeSystem/subscriber-relationship",
          "code": "self",
          "display": "Self"
        } ]
      },
      "payor": [ {
        "reference": "Organization/18ef5e3c-c3c9-46d8-ba88-3ef5a58b730d"
      } ]
    }
  }, {
    "fullUrl": "https://madie.cms.gov/Organization/18ef5e3c-c3c9-46d8-ba88-3ef5a58b730d",
    "resource": {
      "resourceType": "Organization",
      "id": "18ef5e3c-c3c9-46d8-ba88-3ef5a58b730d",
      "meta": {
        "profile": [ "http://hl7.org/fhir/us/qicore/StructureDefinition/qicore-organization" ]
      },
      "identifier": [ {
        "use": "temp",
        "system": "urn:oid:2.16.840.1.113883.4.4",
        "value": "21-3259825"
      } ],
      "active": true,
      "type": [ {
        "coding": [ {
          "system": "http://terminology.hl7.org/CodeSystem/organization-type",
          "code": "pay",
          "display": "Payer"
        } ]
      } ],
      "name": "Blue Cross Blue Shield of Texas",
      "telecom": [ {
        "system": "phone",
        "value": "(+1) 972-766-6900"
      } ],
      "address": [ {
        "use": "billing",
        "type": "postal",
        "line": [ "P.O. Box 660044" ],
        "city": "Dallas",
        "state": "TX",
        "postalCode": "75266-0044",
        "country": "USA"
      } ]
    }
  }, {
    "fullUrl": "https://madie.cms.gov/Practitioner/e5416045-041c-441e-b643-921a71ef432d",
    "resource": {
      "resourceType": "Practitioner",
      "id": "e5416045-041c-441e-b643-921a71ef432d",
      "meta": {
        "profile": [ "http://hl7.org/fhir/us/qicore/StructureDefinition/qicore-practitioner" ]
      },
      "identifier": [ {
        "system": "http://hl7.org/fhir/sid/us-npi",
        "value": "1689411712"
      } ],
      "name": [ {
        "family": "Evil",
        "prefix": [ "Dr" ]
      } ]
    }
  }, {
    "fullUrl": "https://madie.cms.gov/MeasureReport/55c41fab-cfb3-4741-ad74-a7dea26a5130",
    "resource": {
      "resourceType": "MeasureReport",
      "id": "55c41fab-cfb3-4741-ad74-a7dea26a5130",
      "meta": {
        "profile": [ "http://hl7.org/fhir/us/cqfmeasures/StructureDefinition/test-case-cqfm" ]
      },
      "contained": [ {
        "resourceType": "Parameters",
        "id": "4bfaccf8-e6ec-4e45-bde9-b348e2e1e886-parameters",
        "parameter": [ {
          "name": "subject",
          "valueString": "4a461ae6-b9f7-4e9f-aab2-ecc9e65fb298"
        } ]
      } ],
      "extension": [ {
        "url": "http://hl7.org/fhir/StructureDefinition/cqf-inputParameters",
        "valueReference": {
          "reference": "#4bfaccf8-e6ec-4e45-bde9-b348e2e1e886-parameters"
        }
      }, {
        "url": "http://hl7.org/fhir/us/cqfmeasures/StructureDefinition/cqfm-testCaseDescription",
        "valueMarkdown": "Patient has two encounters in the MP on Jan 1 and Dec 31 (HIV dx at birth)"
      } ],
      "modifierExtension": [ {
        "url": "http://hl7.org/fhir/us/cqfmeasures/StructureDefinition/cqfm-isTestCase",
        "valueBoolean": true
      } ],
      "status": "complete",
      "type": "individual",
      "measure": "https://madie.cms.gov/Measure/CMS1157FHIRHIVRetention",
      "period": {
        "start": "2026-01-01",
        "end": "2026-12-31"
      },
      "group": [ {
        "id": "Group_1",
        "population": [ {
          "id": "InitialPopulation_1",
          "code": {
            "coding": [ {
              "system": "http://terminology.hl7.org/CodeSystem/measure-population",
              "code": "initial-population",
              "display": "Initial Population"
            } ]
          },
          "count": 1
        }, {
          "id": "Denominator_1",
          "code": {
            "coding": [ {
              "system": "http://terminology.hl7.org/CodeSystem/measure-population",
              "code": "denominator",
              "display": "Denominator"
            } ]
          },
          "count": 1
        }, {
          "id": "Numerator_1",
          "code": {
            "coding": [ {
              "system": "http://terminology.hl7.org/CodeSystem/measure-population",
              "code": "numerator",
              "display": "Numerator"
            } ]
          },
          "count": 1
        } ],
        "measureScore": {
          "value": 1.0
        }
      } ],
      "evaluatedResource": [ {
        "reference": "Patient/4a461ae6-b9f7-4e9f-aab2-ecc9e65fb298"
      }, {
        "reference": "Condition/456f3e2d-6864-4fcc-9baa-9bff944db19f"
      }, {
        "reference": "Encounter/2e670d2c-912a-4ac7-8356-635f0670ede2"
      }, {
        "reference": "Encounter/606ddc59-8286-416a-b99a-c478d3eba8a7"
      }, {
        "reference": "Coverage/6033ef3b-f50d-411e-b8e4-c7a7fb34428a"
      }, {
        "reference": "Organization/18ef5e3c-c3c9-46d8-ba88-3ef5a58b730d"
      }, {
        "reference": "Practitioner/e5416045-041c-441e-b643-921a71ef432d"
      } ]
    }
  } ]
}