{
  "resourceType": "Bundle",
  "id": "465460341631",
  "type": "collection",
  "entry": [ {
    "fullUrl": "https://madie.cms.gov/Patient/778f4fff-72ca-4cfd-b667-8def5cd3411f",
    "resource": {
      "resourceType": "Patient",
      "id": "778f4fff-72ca-4cfd-b667-8def5cd3411f",
      "meta": {
        "profile": [ "http://hl7.org/fhir/us/qicore/StructureDefinition/qicore-patient" ]
      },
      "extension": [ {
        "url": "http://hl7.org/fhir/us/core/StructureDefinition/us-core-race",
        "extension": [ {
          "url": "ombCategory",
          "valueCoding": {
            "system": "urn:oid:2.16.840.1.113883.6.238",
            "code": "2106-3",
            "display": "White"
          }
        }, {
          "url": "text",
          "valueString": "White"
        } ]
      }, {
        "url": "http://hl7.org/fhir/us/core/StructureDefinition/us-core-ethnicity",
        "extension": [ {
          "url": "ombCategory",
          "valueCoding": {
            "system": "urn:oid:2.16.840.1.113883.6.238",
            "code": "2186-5",
            "display": "Not Hispanic or Latino"
          }
        }, {
          "url": "text",
          "valueString": "Not Hispanic or Latino"
        } ]
      } ],
      "identifier": [ {
        "type": {
          "coding": [ {
            "system": "http://terminology.hl7.org/CodeSystem/v2-0203",
            "code": "MR"
          } ]
        },
        "system": "https://bonnie-fhir.healthit.gov/",
        "value": "41835164313131"
      } ],
      "name": [ {
        "family": "IPFail",
        "given": [ "OVWithWrongCode" ]
      } ],
      "gender": "male",
      "birthDate": "1936-04-01"
    }
  }, {
    "fullUrl": "https://madie.cms.gov/Encounter/4501c4f8-3649-43cd-a5bd-ce265d08faa5",
    "resource": {
      "resourceType": "Encounter",
      "id": "4501c4f8-3649-43cd-a5bd-ce265d08faa5",
      "meta": {
        "profile": [ "http://hl7.org/fhir/us/qicore/StructureDefinition/qicore-encounter" ]
      },
      "status": "finished",
      "class": {
        "system": "http://terminology.hl7.org/CodeSystem/v3-ActCode",
        "code": "AMB",
        "display": "ambulatory"
      },
      "type": [ {
        "coding": [ {
          "system": "http://www.ama-assn.org/go/cpt",
          "version": "2024",
          "code": "99213",
          "display": "Established patient office or other outpatient visit, 20-29 minutes"
        } ]
      } ],
      "subject": {
        "reference": "Patient/778f4fff-72ca-4cfd-b667-8def5cd3411f"
      },
      "period": {
        "start": "2026-01-03T08:00:00.000+00:00",
        "end": "2026-01-03T08:15:00.000+00:00"
      }
    }
  }, {
    "fullUrl": "https://madie.cms.gov/Condition/1acdad91-cf60-469d-ad2f-35a05269a066",
    "resource": {
      "resourceType": "Condition",
      "id": "1acdad91-cf60-469d-ad2f-35a05269a066",
      "meta": {
        "profile": [ "http://hl7.org/fhir/us/qicore/StructureDefinition/qicore-condition-problems-health-concerns" ]
      },
      "clinicalStatus": {
        "coding": [ {
          "system": "http://terminology.hl7.org/CodeSystem/condition-clinical",
          "code": "active",
          "display": "Active"
        } ]
      },
      "verificationStatus": {
        "coding": [ {
          "system": "http://terminology.hl7.org/CodeSystem/condition-ver-status",
          "code": "confirmed",
          "display": "Confirmed"
        } ]
      },
      "category": [ {
        "coding": [ {
          "system": "http://terminology.hl7.org/CodeSystem/condition-category",
          "code": "problem-list-item",
          "display": "Problem List Item"
        } ]
      } ],
      "code": {
        "coding": [ {
          "system": "http://hl7.org/fhir/sid/icd-10-cm",
          "version": "2024",
          "code": "C67.1",
          "display": "Malignant neoplasm of dome of bladder"
        } ]
      },
      "subject": {
        "reference": "Patient/778f4fff-72ca-4cfd-b667-8def5cd3411f"
      },
      "onsetDateTime": "2025-12-20T08:00:00.000+00:00"
    }
  }, {
    "fullUrl": "https://madie.cms.gov/Observation/3b8a11cb-13d8-4908-a52a-b51641cc38f7",
    "resource": {
      "resourceType": "Observation",
      "id": "3b8a11cb-13d8-4908-a52a-b51641cc38f7",
      "meta": {
        "profile": [ "http://hl7.org/fhir/us/qicore/StructureDefinition/qicore-observation-lab" ]
      },
      "partOf": [ {
        "reference": "Procedure/231ed2f6-36c9-48ee-9d38-b7c83470edd5"
      } ],
      "status": "final",
      "category": [ {
        "coding": [ {
          "system": "http://terminology.hl7.org/CodeSystem/observation-category",
          "code": "procedure",
          "display": "Procedure"
        } ]
      }, {
        "coding": [ {
          "system": "http://terminology.hl7.org/CodeSystem/observation-category",
          "code": "laboratory",
          "display": "Laboratory"
        } ]
      } ],
      "code": {
        "coding": [ {
          "system": "http://loinc.org",
          "version": "2.80",
          "code": "48671-2",
          "display": "Prostate cancer risk [Likelihood] by Estimated"
        } ]
      },
      "subject": {
        "reference": "Patient/778f4fff-72ca-4cfd-b667-8def5cd3411f"
      },
      "effectivePeriod": {
        "start": "2025-12-22T08:00:00.000+00:00",
        "end": "2025-12-22T08:15:00.000+00:00"
      },
      "issued": "2025-12-22T08:15:00.000+00:00",
      "valueCodeableConcept": {
        "coding": [ {
          "system": "http://snomed.info/sct",
          "version": "http://snomed.info/sct/731000124108/version/20240301",
          "code": "369935001",
          "display": "T1: Urinary tract tumor invades subepithelial connective tissue (finding)"
        } ]
      }
    }
  }, {
    "fullUrl": "https://madie.cms.gov/Procedure/231ed2f6-36c9-48ee-9d38-b7c83470edd5",
    "resource": {
      "resourceType": "Procedure",
      "id": "231ed2f6-36c9-48ee-9d38-b7c83470edd5",
      "meta": {
        "profile": [ "http://hl7.org/fhir/us/qicore/StructureDefinition/qicore-procedure" ]
      },
      "extension": [ {
        "url": "http://hl7.org/fhir/us/qicore/StructureDefinition/qicore-recorded",
        "valueDateTime": "2025-12-22T08:00:00.000+00:00"
      } ],
      "status": "completed",
      "code": {
        "coding": [ {
          "system": "http://snomed.info/sct",
          "version": "http://snomed.info/sct/731000124108/version/20250301",
          "code": "254292007",
          "display": "Tumor staging"
        } ]
      },
      "subject": {
        "reference": "Patient/778f4fff-72ca-4cfd-b667-8def5cd3411f"
      },
      "performedPeriod": {
        "start": "2025-12-22T08:00:00.000+00:00",
        "end": "2025-12-22T08:15:00.000+00:00"
      }
    }
  }, {
    "fullUrl": "https://madie.cms.gov/MeasureReport/084f1fd2-9269-4caa-8f24-a3b07708eced",
    "resource": {
      "resourceType": "MeasureReport",
      "id": "084f1fd2-9269-4caa-8f24-a3b07708eced",
      "meta": {
        "profile": [ "http://hl7.org/fhir/us/cqfmeasures/StructureDefinition/test-case-cqfm" ]
      },
      "contained": [ {
        "resourceType": "Parameters",
        "id": "5eba4413-0964-41e8-ab60-d1de4c89fd65-parameters",
        "parameter": [ {
          "name": "subject",
          "valueString": "778f4fff-72ca-4cfd-b667-8def5cd3411f"
        } ]
      } ],
      "extension": [ {
        "url": "http://hl7.org/fhir/StructureDefinition/cqf-inputParameters",
        "valueReference": {
          "reference": "#5eba4413-0964-41e8-ab60-d1de4c89fd65-parameters"
        }
      }, {
        "url": "http://hl7.org/fhir/us/cqfmeasures/StructureDefinition/cqfm-testCaseDescription",
        "valueMarkdown": "Pt with bladder cancer and encounter with wrong code. Staging done.  Fails IPP as expected."
      } ],
      "modifierExtension": [ {
        "url": "http://hl7.org/fhir/us/cqfmeasures/StructureDefinition/cqfm-isTestCase",
        "valueBoolean": true
      } ],
      "status": "complete",
      "type": "individual",
      "measure": "https://madie.cms.gov/Measure/CMS646FHIRIntravesicalBCGTherapy",
      "period": {
        "start": "2026-01-01",
        "end": "2026-12-31"
      },
      "group": [ {
        "id": "Group_1",
        "population": [ {
          "id": "InitialPopulation_1",
          "code": {
            "coding": [ {
              "system": "http://terminology.hl7.org/CodeSystem/measure-population",
              "code": "initial-population",
              "display": "Initial Population"
            } ]
          },
          "count": 0
        }, {
          "id": "Denominator_1",
          "code": {
            "coding": [ {
              "system": "http://terminology.hl7.org/CodeSystem/measure-population",
              "code": "denominator",
              "display": "Denominator"
            } ]
          },
          "count": 0
        }, {
          "id": "DenominatorExclusion_1",
          "code": {
            "coding": [ {
              "system": "http://terminology.hl7.org/CodeSystem/measure-population",
              "code": "denominator-exclusion",
              "display": "Denominator Exclusion"
            } ]
          },
          "count": 0
        }, {
          "id": "Numerator_1",
          "code": {
            "coding": [ {
              "system": "http://terminology.hl7.org/CodeSystem/measure-population",
              "code": "numerator",
              "display": "Numerator"
            } ]
          },
          "count": 0
        }, {
          "id": "DenominatorException_1",
          "code": {
            "coding": [ {
              "system": "http://terminology.hl7.org/CodeSystem/measure-population",
              "code": "denominator-exception",
              "display": "Denominator Exception"
            } ]
          },
          "count": 0
        } ],
        "measureScore": {
          "value": 1.0
        }
      } ],
      "evaluatedResource": [ {
        "reference": "Patient/778f4fff-72ca-4cfd-b667-8def5cd3411f"
      }, {
        "reference": "Encounter/4501c4f8-3649-43cd-a5bd-ce265d08faa5"
      }, {
        "reference": "Condition/1acdad91-cf60-469d-ad2f-35a05269a066"
      }, {
        "reference": "Observation/3b8a11cb-13d8-4908-a52a-b51641cc38f7"
      }, {
        "reference": "Procedure/231ed2f6-36c9-48ee-9d38-b7c83470edd5"
      } ]
    }
  } ]
}