{
  "resourceType": "Bundle",
  "id": "IPFail-17WithQualEnc",
  "type": "collection",
  "entry": [ {
    "fullUrl": "https://madie.cms.gov/Patient/2956b6dc-66bc-4f87-a642-e1ae45adc786",
    "resource": {
      "resourceType": "Patient",
      "id": "2956b6dc-66bc-4f87-a642-e1ae45adc786",
      "meta": {
        "profile": [ "http://hl7.org/fhir/us/qicore/StructureDefinition/qicore-patient" ]
      },
      "extension": [ {
        "url": "http://hl7.org/fhir/us/core/StructureDefinition/us-core-race",
        "extension": [ {
          "url": "ombCategory",
          "valueCoding": {
            "system": "urn:oid:2.16.840.1.113883.6.238",
            "code": "2028-9",
            "display": "Asian"
          }
        }, {
          "url": "text",
          "valueString": "Asian"
        } ]
      }, {
        "url": "http://hl7.org/fhir/us/core/StructureDefinition/us-core-ethnicity",
        "extension": [ {
          "url": "ombCategory",
          "valueCoding": {
            "system": "urn:oid:2.16.840.1.113883.6.238",
            "code": "2135-2",
            "display": "Hispanic or Latino"
          }
        }, {
          "url": "text",
          "valueString": "Hispanic or Latino"
        } ]
      } ],
      "identifier": [ {
        "system": "http://hospital.smarthealthit.org",
        "value": "999999995"
      } ],
      "name": [ {
        "family": "Bertha",
        "given": [ "Betty" ]
      } ],
      "gender": "female",
      "birthDate": "2008-01-02"
    }
  }, {
    "fullUrl": "https://madie.cms.gov/Encounter/69b2eb20-47b5-4021-a612-fdd5b08a613f",
    "resource": {
      "resourceType": "Encounter",
      "id": "69b2eb20-47b5-4021-a612-fdd5b08a613f",
      "meta": {
        "profile": [ "http://hl7.org/fhir/us/qicore/StructureDefinition/qicore-encounter" ]
      },
      "status": "finished",
      "class": {
        "system": "http://terminology.hl7.org/CodeSystem/v3-ActCode",
        "code": "AMB",
        "display": "ambulatory"
      },
      "type": [ {
        "coding": [ {
          "system": "http://snomed.info/sct",
          "code": "185317003",
          "display": "Telephone encounter (procedure)"
        } ]
      } ],
      "subject": {
        "reference": "Patient/2956b6dc-66bc-4f87-a642-e1ae45adc786"
      },
      "period": {
        "start": "2026-01-01T01:00:00.000+00:00",
        "end": "2026-01-01T01:15:00.000+00:00"
      }
    }
  }, {
    "fullUrl": "https://madie.cms.gov/Encounter/d7974602-df58-4dba-a925-24d1618eebfb",
    "resource": {
      "resourceType": "Encounter",
      "id": "d7974602-df58-4dba-a925-24d1618eebfb",
      "meta": {
        "profile": [ "http://hl7.org/fhir/us/qicore/StructureDefinition/qicore-encounter" ]
      },
      "status": "finished",
      "class": {
        "system": "http://terminology.hl7.org/CodeSystem/v3-ActCode",
        "code": "AMB",
        "display": "ambulatory"
      },
      "type": [ {
        "coding": [ {
          "system": "http://snomed.info/sct",
          "code": "185317003",
          "display": "Telephone encounter (procedure)"
        } ]
      } ],
      "subject": {
        "reference": "Patient/2956b6dc-66bc-4f87-a642-e1ae45adc786"
      },
      "period": {
        "start": "2026-01-02T01:00:00.000+00:00",
        "end": "2026-01-02T01:15:00.000+00:00"
      }
    }
  }, {
    "fullUrl": "https://madie.cms.gov/Condition/fdfc373b-b27c-40db-9554-6c2c7ba7ce6d",
    "resource": {
      "resourceType": "Condition",
      "id": "fdfc373b-b27c-40db-9554-6c2c7ba7ce6d",
      "meta": {
        "profile": [ "http://hl7.org/fhir/us/qicore/StructureDefinition/qicore-condition-problems-health-concerns" ]
      },
      "clinicalStatus": {
        "coding": [ {
          "system": "http://terminology.hl7.org/CodeSystem/condition-clinical",
          "code": "active"
        } ]
      },
      "category": [ {
        "coding": [ {
          "system": "http://terminology.hl7.org/CodeSystem/condition-category",
          "code": "problem-list-item",
          "display": "Problem List Item"
        } ]
      } ],
      "code": {
        "coding": [ {
          "system": "http://snomed.info/sct",
          "version": "http://snomed.info/sct/731000124108/version/20250301",
          "code": "10091002",
          "display": "High output heart failure (disorder)"
        } ]
      },
      "subject": {
        "reference": "Patient/2956b6dc-66bc-4f87-a642-e1ae45adc786"
      },
      "onsetDateTime": "2025-12-31T23:59:00.000+00:00"
    }
  }, {
    "fullUrl": "https://madie.cms.gov/MeasureReport/4731d404-dbb8-411c-a3c4-e790659cf5bf",
    "resource": {
      "resourceType": "MeasureReport",
      "id": "4731d404-dbb8-411c-a3c4-e790659cf5bf",
      "meta": {
        "profile": [ "http://hl7.org/fhir/us/cqfmeasures/StructureDefinition/test-case-cqfm" ]
      },
      "contained": [ {
        "resourceType": "Parameters",
        "id": "19bc1765-8a57-427d-b158-963072410f8b-parameters",
        "parameter": [ {
          "name": "subject",
          "valueString": "2956b6dc-66bc-4f87-a642-e1ae45adc786"
        } ]
      } ],
      "extension": [ {
        "url": "http://hl7.org/fhir/StructureDefinition/cqf-inputParameters",
        "valueReference": {
          "reference": "#19bc1765-8a57-427d-b158-963072410f8b-parameters"
        }
      }, {
        "url": "http://hl7.org/fhir/us/cqfmeasures/StructureDefinition/cqfm-testCaseDescription",
        "valueMarkdown": "Patient is incorrect age"
      } ],
      "modifierExtension": [ {
        "url": "http://hl7.org/fhir/us/cqfmeasures/StructureDefinition/cqfm-isTestCase",
        "valueBoolean": true
      } ],
      "status": "complete",
      "type": "individual",
      "measure": "https://madie.cms.gov/Measure/CMS90FHIRFSAforHeartFailure",
      "period": {
        "start": "2026-01-01",
        "end": "2026-12-31"
      },
      "group": [ {
        "id": "Group_1",
        "population": [ {
          "id": "InitialPopulation_1",
          "code": {
            "coding": [ {
              "system": "http://terminology.hl7.org/CodeSystem/measure-population",
              "code": "initial-population",
              "display": "Initial Population"
            } ]
          },
          "count": 0
        }, {
          "id": "Denominator_1",
          "code": {
            "coding": [ {
              "system": "http://terminology.hl7.org/CodeSystem/measure-population",
              "code": "denominator",
              "display": "Denominator"
            } ]
          },
          "count": 0
        }, {
          "id": "DenominatorExclusion_1",
          "code": {
            "coding": [ {
              "system": "http://terminology.hl7.org/CodeSystem/measure-population",
              "code": "denominator-exclusion",
              "display": "Denominator Exclusion"
            } ]
          },
          "count": 0
        }, {
          "id": "Numerator_1",
          "code": {
            "coding": [ {
              "system": "http://terminology.hl7.org/CodeSystem/measure-population",
              "code": "numerator",
              "display": "Numerator"
            } ]
          },
          "count": 0
        } ],
        "measureScore": {
          "value": 1.0
        }
      } ],
      "evaluatedResource": [ {
        "reference": "Patient/2956b6dc-66bc-4f87-a642-e1ae45adc786"
      }, {
        "reference": "Encounter/69b2eb20-47b5-4021-a612-fdd5b08a613f"
      }, {
        "reference": "Encounter/d7974602-df58-4dba-a925-24d1618eebfb"
      }, {
        "reference": "Condition/fdfc373b-b27c-40db-9554-6c2c7ba7ce6d"
      } ]
    }
  } ]
}