{
  "resourceType": "Bundle",
  "id": "f1f044ef3e654daa9106",
  "type": "transaction",
  "entry": [ {
    "fullUrl": "https://madie.cms.gov/Patient/c85da3dc-b545-42f2-a5d5-d9c7ae88d944",
    "resource": {
      "resourceType": "Patient",
      "id": "c85da3dc-b545-42f2-a5d5-d9c7ae88d944",
      "meta": {
        "profile": [ "http://hl7.org/fhir/us/qicore/StructureDefinition/qicore-patient" ]
      },
      "extension": [ {
        "url": "http://hl7.org/fhir/us/core/StructureDefinition/us-core-race",
        "extension": [ {
          "url": "ombCategory",
          "valueCoding": {
            "system": "urn:oid:2.16.840.1.113883.6.238",
            "code": "1002-5",
            "display": "American Indian or Alaska Native",
            "userSelected": true
          }
        }, {
          "url": "text",
          "valueString": "American Indian or Alaska Native"
        } ]
      }, {
        "url": "http://hl7.org/fhir/us/core/StructureDefinition/us-core-ethnicity",
        "extension": [ {
          "url": "ombCategory",
          "valueCoding": {
            "system": "urn:oid:2.16.840.1.113883.6.238",
            "code": "2135-2",
            "display": "Hispanic or Latino",
            "userSelected": true
          }
        }, {
          "url": "text",
          "valueString": "Hispanic or Latino"
        } ]
      }, {
        "url": "http://hl7.org/fhir/us/core/StructureDefinition/us-core-sex",
        "valueCode": "248152002"
      } ],
      "identifier": [ {
        "type": {
          "coding": [ {
            "system": "http://terminology.hl7.org/CodeSystem/v2-0203",
            "code": "MR"
          } ]
        },
        "system": "https://bonnie-fhir.healthit.gov/",
        "value": "f1f044ef3e654daa9106"
      } ],
      "name": [ {
        "family": "DENEXCL1PASS",
        "given": [ "AneurysmOfHeartWithin24HoursBeforeED" ]
      } ],
      "gender": "female",
      "birthDate": "1990-03-14"
    },
    "request": {
      "method": "PUT",
      "url": "Patient/c85da3dc-b545-42f2-a5d5-d9c7ae88d944"
    }
  }, {
    "fullUrl": "https://madie.cms.gov/Encounter/857084ce-611a-4191-b9de-845667e5300a",
    "resource": {
      "resourceType": "Encounter",
      "id": "857084ce-611a-4191-b9de-845667e5300a",
      "meta": {
        "profile": [ "http://hl7.org/fhir/us/qicore/StructureDefinition/qicore-encounter" ]
      },
      "status": "finished",
      "class": {
        "system": "http://terminology.hl7.org/CodeSystem/v3-ActCode",
        "code": "EMER",
        "display": "emergency",
        "userSelected": true
      },
      "type": [ {
        "coding": [ {
          "system": "http://snomed.info/sct",
          "version": "2020-09",
          "code": "4525004",
          "display": "Emergency department patient visit",
          "userSelected": true
        } ]
      } ],
      "subject": {
        "reference": "Patient/c85da3dc-b545-42f2-a5d5-d9c7ae88d944"
      },
      "period": {
        "start": "2026-10-09T05:00:00.000+00:00",
        "end": "2026-10-13T17:00:00.000+00:00"
      },
      "reasonCode": [ {
        "coding": [ {
          "system": "http://hl7.org/fhir/sid/icd-10-cm",
          "code": "I21.21",
          "display": "ST elevation (STEMI) myocardial infarction involving left circumflex coronary artery",
          "userSelected": true
        } ]
      } ]
    },
    "request": {
      "method": "PUT",
      "url": "Encounter/857084ce-611a-4191-b9de-845667e5300a"
    }
  }, {
    "fullUrl": "https://madie.cms.gov/Condition/b6171a38-c190-40c1-844a-f81495be7c0f",
    "resource": {
      "resourceType": "Condition",
      "id": "b6171a38-c190-40c1-844a-f81495be7c0f",
      "meta": {
        "profile": [ "http://hl7.org/fhir/us/qicore/StructureDefinition/qicore-condition-problems-health-concerns" ]
      },
      "clinicalStatus": {
        "coding": [ {
          "system": "http://terminology.hl7.org/CodeSystem/condition-clinical",
          "code": "active",
          "display": "Active",
          "userSelected": true
        } ]
      },
      "category": [ {
        "coding": [ {
          "system": "http://terminology.hl7.org/CodeSystem/condition-category",
          "code": "problem-list-item",
          "display": "Problem List Item",
          "userSelected": true
        } ]
      } ],
      "code": {
        "coding": [ {
          "system": "http://hl7.org/fhir/sid/icd-10-cm",
          "code": "I25.3",
          "display": "Aneurysm of heart",
          "userSelected": true
        } ]
      },
      "subject": {
        "reference": "Patient/c85da3dc-b545-42f2-a5d5-d9c7ae88d944"
      },
      "onsetDateTime": "2026-10-08T05:00:00.000+00:00"
    },
    "request": {
      "method": "PUT",
      "url": "Condition/b6171a38-c190-40c1-844a-f81495be7c0f"
    }
  }, {
    "fullUrl": "https://madie.cms.gov/MeasureReport/5e83a893-1097-4692-b826-01505c72a4ce",
    "resource": {
      "resourceType": "MeasureReport",
      "id": "5e83a893-1097-4692-b826-01505c72a4ce",
      "meta": {
        "profile": [ "http://hl7.org/fhir/us/cqfmeasures/StructureDefinition/test-case-cqfm" ]
      },
      "contained": [ {
        "resourceType": "Parameters",
        "id": "9be55d7d-7164-499d-94a1-50f00d6850e3-parameters",
        "parameter": [ {
          "name": "subject",
          "valueString": "c85da3dc-b545-42f2-a5d5-d9c7ae88d944"
        } ]
      } ],
      "extension": [ {
        "url": "http://hl7.org/fhir/StructureDefinition/cqf-inputParameters",
        "valueReference": {
          "reference": "#9be55d7d-7164-499d-94a1-50f00d6850e3-parameters"
        }
      }, {
        "url": "http://hl7.org/fhir/us/cqfmeasures/StructureDefinition/cqfm-testCaseDescription",
        "valueMarkdown": "Patient has aneurysm of heart that started within 24 hours before start of ED encounter"
      } ],
      "modifierExtension": [ {
        "url": "http://hl7.org/fhir/us/cqfmeasures/StructureDefinition/cqfm-isTestCase",
        "valueBoolean": true
      } ],
      "status": "complete",
      "type": "individual",
      "measure": "https://madie.cms.gov/Measure/CMS996FHIRAptTxforSTEMI",
      "period": {
        "start": "2026-01-01",
        "end": "2026-12-31"
      },
      "group": [ {
        "id": "Group_1",
        "population": [ {
          "id": "InitialPopulation_1",
          "code": {
            "coding": [ {
              "system": "http://terminology.hl7.org/CodeSystem/measure-population",
              "code": "initial-population",
              "display": "Initial Population"
            } ]
          },
          "count": 1
        }, {
          "id": "Denominator_1",
          "code": {
            "coding": [ {
              "system": "http://terminology.hl7.org/CodeSystem/measure-population",
              "code": "denominator",
              "display": "Denominator"
            } ]
          },
          "count": 1
        }, {
          "id": "DenominatorExclusion_1",
          "code": {
            "coding": [ {
              "system": "http://terminology.hl7.org/CodeSystem/measure-population",
              "code": "denominator-exclusion",
              "display": "Denominator Exclusion"
            } ]
          },
          "count": 1
        }, {
          "id": "Numerator_1",
          "code": {
            "coding": [ {
              "system": "http://terminology.hl7.org/CodeSystem/measure-population",
              "code": "numerator",
              "display": "Numerator"
            } ]
          },
          "count": 0
        }, {
          "id": "DenominatorException_1",
          "code": {
            "coding": [ {
              "system": "http://terminology.hl7.org/CodeSystem/measure-population",
              "code": "denominator-exception",
              "display": "Denominator Exception"
            } ]
          },
          "count": 0
        } ],
        "measureScore": {
          "value": 0.0
        }
      } ],
      "evaluatedResource": [ {
        "reference": "Patient/c85da3dc-b545-42f2-a5d5-d9c7ae88d944"
      }, {
        "reference": "Encounter/857084ce-611a-4191-b9de-845667e5300a"
      }, {
        "reference": "Condition/b6171a38-c190-40c1-844a-f81495be7c0f"
      } ]
    },
    "request": {
      "method": "PUT",
      "url": "MeasureReport/5e83a893-1097-4692-b826-01505c72a4ce"
    }
  } ]
}