{
  "resourceType": "Bundle",
  "id": "6109650598086b538055a113",
  "type": "transaction",
  "entry": [ {
    "fullUrl": "https://madie.cms.gov/Patient/20066c42-858b-4265-8f0a-bb4f64c54faf",
    "resource": {
      "resourceType": "Patient",
      "id": "20066c42-858b-4265-8f0a-bb4f64c54faf",
      "meta": {
        "profile": [ "http://hl7.org/fhir/us/qicore/StructureDefinition/qicore-patient" ]
      },
      "text": {
        "status": "generated",
        "div": "<div xmlns=\"http://www.w3.org/1999/xhtml\"><div class=\"hapiHeaderText\">RiskAssessPsychotherapyEncrelevantPeriod <b>NUMERPASS </b></div><table class=\"hapiPropertyTable\"><tbody><tr><td>Identifier</td><td>93c3e66aae1f7f1a8106f95a744c120c</td></tr><tr><td>Date of birth</td><td><span>24 March 2001</span></td></tr></tbody></table></div>"
      },
      "extension": [ {
        "url": "http://hl7.org/fhir/us/core/StructureDefinition/us-core-race",
        "extension": [ {
          "url": "ombCategory",
          "valueCoding": {
            "system": "urn:oid:2.16.840.1.113883.6.238",
            "code": "2054-5",
            "display": "Black or African American",
            "userSelected": true
          }
        }, {
          "url": "text",
          "valueString": "Black or African American"
        } ]
      }, {
        "url": "http://hl7.org/fhir/us/core/StructureDefinition/us-core-ethnicity",
        "extension": [ {
          "url": "ombCategory",
          "valueCoding": {
            "system": "urn:oid:2.16.840.1.113883.6.238",
            "code": "2186-5",
            "display": "Not Hispanic or Latino",
            "userSelected": true
          }
        }, {
          "url": "text",
          "valueString": "Not Hispanic or Latino"
        } ]
      } ],
      "identifier": [ {
        "type": {
          "coding": [ {
            "system": "http://terminology.hl7.org/CodeSystem/v2-0203",
            "code": "MR"
          } ]
        },
        "system": "https://bonnie-fhir.healthit.gov/",
        "value": "6109650598086b538055a113"
      } ],
      "active": true,
      "name": [ {
        "use": "usual",
        "family": "NUMPass",
        "given": [ "RiskAssmtEncrelevantPeriod" ]
      } ],
      "gender": "male",
      "birthDate": "2016-03-24"
    },
    "request": {
      "method": "PUT",
      "url": "Patient/20066c42-858b-4265-8f0a-bb4f64c54faf"
    }
  }, {
    "fullUrl": "https://madie.cms.gov/Encounter/b01c59d2-3b5d-4687-992d-6938187996e3",
    "resource": {
      "resourceType": "Encounter",
      "id": "b01c59d2-3b5d-4687-992d-6938187996e3",
      "meta": {
        "profile": [ "http://hl7.org/fhir/us/qicore/StructureDefinition/qicore-encounter" ]
      },
      "status": "finished",
      "class": {
        "system": "http://terminology.hl7.org/CodeSystem/v3-ActCode",
        "code": "AMB",
        "display": "ambulatory",
        "userSelected": true
      },
      "type": [ {
        "coding": [ {
          "system": "http://www.ama-assn.org/go/cpt",
          "code": "90832"
        } ]
      } ],
      "subject": {
        "reference": "Patient/20066c42-858b-4265-8f0a-bb4f64c54faf"
      },
      "period": {
        "start": "2026-07-12T11:45:00.000+00:00",
        "end": "2026-07-12T12:00:00.000+00:00"
      },
      "length": {
        "value": 0.0,
        "unit": "days"
      },
      "reasonCode": [ {
        "coding": [ {
          "system": "http://snomed.info/sct",
          "version": "2022-09",
          "code": "10811161000119107",
          "display": "Major depressive disorder in mother complicating pregnancy (disorder)",
          "userSelected": true
        } ]
      } ],
      "diagnosis": [ {
        "condition": {
          "reference": "Condition/a08f5acb-19cb-41fe-afee-52699e7ce074"
        },
        "use": {
          "coding": [ {
            "system": "http://snomed.info/sct",
            "version": "2022-09",
            "code": "10811161000119107",
            "display": "Major depressive disorder in mother complicating pregnancy (disorder)",
            "userSelected": true
          } ]
        }
      } ]
    },
    "request": {
      "method": "PUT",
      "url": "Encounter/b01c59d2-3b5d-4687-992d-6938187996e3"
    }
  }, {
    "fullUrl": "https://madie.cms.gov/Procedure/50823945-1e80-4dab-9a86-0ddf13707806",
    "resource": {
      "resourceType": "Procedure",
      "id": "50823945-1e80-4dab-9a86-0ddf13707806",
      "meta": {
        "profile": [ "http://hl7.org/fhir/us/qicore/StructureDefinition/qicore-procedure" ]
      },
      "extension": [ {
        "url": "http://hl7.org/fhir/us/qicore/StructureDefinition/qicore-recorded",
        "valueDateTime": "2026-07-12T11:47:00.000+00:00"
      } ],
      "status": "completed",
      "code": {
        "coding": [ {
          "system": "http://snomed.info/sct",
          "code": "225337009"
        } ]
      },
      "subject": {
        "reference": "Patient/20066c42-858b-4265-8f0a-bb4f64c54faf"
      },
      "performedPeriod": {
        "start": "2026-07-12T11:45:00.000+00:00",
        "end": "2026-07-12T11:47:00.000+00:00"
      }
    },
    "request": {
      "method": "PUT",
      "url": "Procedure/50823945-1e80-4dab-9a86-0ddf13707806"
    }
  }, {
    "fullUrl": "https://madie.cms.gov/Condition/a08f5acb-19cb-41fe-afee-52699e7ce074",
    "resource": {
      "resourceType": "Condition",
      "id": "a08f5acb-19cb-41fe-afee-52699e7ce074",
      "meta": {
        "profile": [ "http://hl7.org/fhir/us/qicore/StructureDefinition/qicore-condition" ]
      },
      "category": [ {
        "coding": [ {
          "system": "http://terminology.hl7.org/CodeSystem/condition-category",
          "code": "encounter-diagnosis",
          "display": "encounter-diagnosis",
          "userSelected": true
        } ]
      } ],
      "code": {
        "coding": [ {
          "system": "http://snomed.info/sct",
          "version": "2022-09",
          "code": "10811121000119102",
          "display": "Major depressive disorder in mother complicating childbirth (disorder)",
          "userSelected": true
        } ]
      },
      "subject": {
        "reference": "Patient/20066c42-858b-4265-8f0a-bb4f64c54faf"
      },
      "recordedDate": "2026-07-12T11:45:00.000+00:00"
    },
    "request": {
      "method": "PUT",
      "url": "Condition/a08f5acb-19cb-41fe-afee-52699e7ce074"
    }
  }, {
    "fullUrl": "https://madie.cms.gov/Coverage/b8b47e95-cd73-4023-ac63-f4b3d65b036f",
    "resource": {
      "resourceType": "Coverage",
      "id": "b8b47e95-cd73-4023-ac63-f4b3d65b036f",
      "meta": {
        "profile": [ "http://hl7.org/fhir/us/qicore/StructureDefinition/qicore-coverage" ]
      },
      "identifier": [ {
        "system": "http://benefitsinc.com/certificate",
        "value": "12345"
      } ],
      "status": "active",
      "type": {
        "coding": [ {
          "system": "https://nahdo.org/sopt",
          "version": "9.2",
          "code": "1",
          "display": "MEDICARE",
          "userSelected": true
        } ]
      },
      "beneficiary": {
        "reference": "Patient/20066c42-858b-4265-8f0a-bb4f64c54faf"
      },
      "period": {
        "start": "2026-04-01T08:00:00.000+00:00",
        "end": "2026-10-01T08:15:00.000+00:00"
      },
      "payor": [ {
        "reference": "Organization/09a9f547-96e0-4abd-af45-39034a73730e"
      } ]
    },
    "request": {
      "method": "PUT",
      "url": "Coverage/b8b47e95-cd73-4023-ac63-f4b3d65b036f"
    }
  }, {
    "fullUrl": "https://madie.cms.gov/Organization/09a9f547-96e0-4abd-af45-39034a73730e",
    "resource": {
      "resourceType": "Organization",
      "id": "09a9f547-96e0-4abd-af45-39034a73730e",
      "meta": {
        "profile": [ "http://hl7.org/fhir/us/qicore/StructureDefinition/qicore-organization" ]
      },
      "identifier": [ {
        "use": "temp",
        "system": "urn:oid:2.16.840.1.113883.4.4",
        "value": "21-3259825"
      } ],
      "active": true,
      "type": [ {
        "coding": [ {
          "system": "http://terminology.hl7.org/CodeSystem/organization-type",
          "code": "pay",
          "display": "Payer"
        } ]
      } ],
      "name": "Blue Cross Blue Shield of Texas",
      "telecom": [ {
        "system": "phone",
        "value": "(+1) 972-766-6900"
      } ],
      "address": [ {
        "use": "billing",
        "type": "postal",
        "line": [ "P.O. Box 660044" ],
        "city": "Dallas",
        "state": "TX",
        "postalCode": "75266-0044",
        "country": "USA"
      } ]
    },
    "request": {
      "method": "PUT",
      "url": "Organization/09a9f547-96e0-4abd-af45-39034a73730e"
    }
  }, {
    "fullUrl": "https://madie.cms.gov/Practitioner/d7320b8d-21b9-4694-9b0d-022d02fea9cb",
    "resource": {
      "resourceType": "Practitioner",
      "id": "d7320b8d-21b9-4694-9b0d-022d02fea9cb",
      "meta": {
        "profile": [ "http://hl7.org/fhir/us/qicore/StructureDefinition/qicore-practitioner" ]
      },
      "identifier": [ {
        "system": "http://hl7.org/fhir/sid/us-npi",
        "value": "123456"
      } ],
      "name": [ {
        "family": "Evil",
        "prefix": [ "Dr" ]
      } ]
    },
    "request": {
      "method": "PUT",
      "url": "Practitioner/d7320b8d-21b9-4694-9b0d-022d02fea9cb"
    }
  }, {
    "fullUrl": "https://madie.cms.gov/MeasureReport/f5d272c0-297d-464e-8be9-1201aa602d95",
    "resource": {
      "resourceType": "MeasureReport",
      "id": "f5d272c0-297d-464e-8be9-1201aa602d95",
      "meta": {
        "profile": [ "http://hl7.org/fhir/us/cqfmeasures/StructureDefinition/test-case-cqfm" ]
      },
      "contained": [ {
        "resourceType": "Parameters",
        "id": "91f912b5-2b58-44e9-abd7-e4de4611dc3b-parameters",
        "parameter": [ {
          "name": "subject",
          "valueString": "20066c42-858b-4265-8f0a-bb4f64c54faf"
        } ]
      } ],
      "extension": [ {
        "url": "http://hl7.org/fhir/StructureDefinition/cqf-inputParameters",
        "valueReference": {
          "reference": "#91f912b5-2b58-44e9-abd7-e4de4611dc3b-parameters"
        }
      }, {
        "url": "http://hl7.org/fhir/us/cqfmeasures/StructureDefinition/cqfm-testCaseDescription",
        "valueMarkdown": "Patient with depression and suicide risk assessment during psychotherapy encounter using relevantPeriod"
      } ],
      "modifierExtension": [ {
        "url": "http://hl7.org/fhir/us/cqfmeasures/StructureDefinition/cqfm-isTestCase",
        "valueBoolean": true
      } ],
      "status": "complete",
      "type": "individual",
      "measure": "https://madie.cms.gov/Measure/CMS177FHIRChildMDDSuicideAssmt",
      "period": {
        "start": "2026-01-01",
        "end": "2026-12-31"
      },
      "group": [ {
        "id": "Group_1",
        "population": [ {
          "id": "InitialPopulation_1",
          "code": {
            "coding": [ {
              "system": "http://terminology.hl7.org/CodeSystem/measure-population",
              "code": "initial-population",
              "display": "Initial Population"
            } ]
          },
          "count": 1
        }, {
          "id": "Denominator_1",
          "code": {
            "coding": [ {
              "system": "http://terminology.hl7.org/CodeSystem/measure-population",
              "code": "denominator",
              "display": "Denominator"
            } ]
          },
          "count": 1
        }, {
          "id": "Numerator_1",
          "code": {
            "coding": [ {
              "system": "http://terminology.hl7.org/CodeSystem/measure-population",
              "code": "numerator",
              "display": "Numerator"
            } ]
          },
          "count": 1
        } ],
        "measureScore": {
          "value": 0.0
        }
      } ],
      "evaluatedResource": [ {
        "reference": "Patient/20066c42-858b-4265-8f0a-bb4f64c54faf"
      }, {
        "reference": "Encounter/b01c59d2-3b5d-4687-992d-6938187996e3"
      }, {
        "reference": "Procedure/50823945-1e80-4dab-9a86-0ddf13707806"
      }, {
        "reference": "Condition/a08f5acb-19cb-41fe-afee-52699e7ce074"
      }, {
        "reference": "Coverage/b8b47e95-cd73-4023-ac63-f4b3d65b036f"
      }, {
        "reference": "Organization/09a9f547-96e0-4abd-af45-39034a73730e"
      }, {
        "reference": "Practitioner/d7320b8d-21b9-4694-9b0d-022d02fea9cb"
      } ]
    },
    "request": {
      "method": "PUT",
      "url": "MeasureReport/f5d272c0-297d-464e-8be9-1201aa602d95"
    }
  } ]
}