{
  "resourceType": "Bundle",
  "id": "612e6b1602c62a011f2ec5e7",
  "type": "transaction",
  "entry": [ {
    "fullUrl": "https://madie.cms.gov/Patient/83b9921c-2768-4dec-be0c-a93e20f7eaf9",
    "resource": {
      "resourceType": "Patient",
      "id": "83b9921c-2768-4dec-be0c-a93e20f7eaf9",
      "meta": {
        "profile": [ "http://hl7.org/fhir/us/qicore/StructureDefinition/qicore-patient" ]
      },
      "text": {
        "status": "generated",
        "div": "<div xmlns=\"http://www.w3.org/1999/xhtml\"><div class=\"hapiHeaderText\">WarfarinAFDisch_2Encounters <b>NUMERFAIL </b></div><table class=\"hapiPropertyTable\"><tbody><tr><td>Identifier</td><td>f6b3ce4fb2b87a4aa5f00ca8118e0e9a</td></tr><tr><td>Date of birth</td><td><span>02 January 1974</span></td></tr></tbody></table></div>"
      },
      "extension": [ {
        "url": "http://hl7.org/fhir/us/core/StructureDefinition/us-core-race",
        "extension": [ {
          "url": "ombCategory",
          "valueCoding": {
            "system": "urn:oid:2.16.840.1.113883.6.238",
            "code": "1002-5",
            "display": "American Indian or Alaska Native",
            "userSelected": true
          }
        }, {
          "url": "text",
          "valueString": "American Indian or Alaska Native"
        } ]
      }, {
        "url": "http://hl7.org/fhir/us/core/StructureDefinition/us-core-ethnicity",
        "extension": [ {
          "url": "ombCategory",
          "valueCoding": {
            "system": "urn:oid:2.16.840.1.113883.6.238",
            "code": "2135-2",
            "display": "Hispanic or Latino",
            "userSelected": true
          }
        }, {
          "url": "text",
          "valueString": "Hispanic or Latino"
        } ]
      } ],
      "identifier": [ {
        "type": {
          "coding": [ {
            "system": "http://terminology.hl7.org/CodeSystem/v2-0203",
            "code": "MR"
          } ]
        },
        "system": "https://bonnie-fhir.healthit.gov/",
        "value": "612e6b1602c62a011f2ec5e7"
      } ],
      "active": true,
      "name": [ {
        "use": "usual",
        "family": "NUMERFail",
        "given": [ "WarfarinAFDisch2Encounters" ]
      } ],
      "gender": "male",
      "birthDate": "1975-01-02"
    },
    "request": {
      "method": "PUT",
      "url": "Patient/83b9921c-2768-4dec-be0c-a93e20f7eaf9"
    }
  }, {
    "fullUrl": "https://madie.cms.gov/Encounter/41593b16-e067-445c-b3e6-35c9ead70b2e",
    "resource": {
      "resourceType": "Encounter",
      "id": "41593b16-e067-445c-b3e6-35c9ead70b2e",
      "meta": {
        "profile": [ "http://hl7.org/fhir/us/qicore/StructureDefinition/qicore-encounter" ]
      },
      "status": "finished",
      "class": {
        "system": "http://terminology.hl7.org/CodeSystem/v3-ActCode",
        "code": "IMP",
        "display": "inpatient encounter"
      },
      "type": [ {
        "coding": [ {
          "system": "http://snomed.info/sct",
          "code": "8715000"
        } ]
      } ],
      "subject": {
        "reference": "Patient/83b9921c-2768-4dec-be0c-a93e20f7eaf9"
      },
      "period": {
        "start": "2026-10-03T08:00:00.000+00:00",
        "end": "2026-10-05T08:15:00.000+00:00"
      },
      "length": {
        "value": 2,
        "unit": "days"
      },
      "diagnosis": [ {
        "condition": {
          "reference": "Condition/hemorrhagic-stroke-1c3b"
        },
        "rank": 1
      } ]
    },
    "request": {
      "method": "PUT",
      "url": "Encounter/41593b16-e067-445c-b3e6-35c9ead70b2e"
    }
  }, {
    "fullUrl": "https://madie.cms.gov/Encounter/1f2d1bdd-1252-442c-9c90-f5943665f8ce",
    "resource": {
      "resourceType": "Encounter",
      "id": "1f2d1bdd-1252-442c-9c90-f5943665f8ce",
      "meta": {
        "profile": [ "http://hl7.org/fhir/us/qicore/StructureDefinition/qicore-encounter" ]
      },
      "status": "finished",
      "class": {
        "system": "http://terminology.hl7.org/CodeSystem/v3-ActCode",
        "code": "IMP",
        "display": "inpatient encounter"
      },
      "type": [ {
        "coding": [ {
          "system": "http://snomed.info/sct",
          "code": "8715000"
        } ]
      } ],
      "subject": {
        "reference": "Patient/83b9921c-2768-4dec-be0c-a93e20f7eaf9"
      },
      "period": {
        "start": "2026-11-01T08:00:00.000+00:00",
        "end": "2026-11-26T08:15:00.000+00:00"
      },
      "length": {
        "value": 25,
        "unit": "days"
      }
    },
    "request": {
      "method": "PUT",
      "url": "Encounter/1f2d1bdd-1252-442c-9c90-f5943665f8ce"
    }
  }, {
    "fullUrl": "https://madie.cms.gov/Coverage/01479005-5c81-43a4-aa1e-fa5e54e81471",
    "resource": {
      "resourceType": "Coverage",
      "id": "01479005-5c81-43a4-aa1e-fa5e54e81471",
      "status": "active",
      "beneficiary": {
        "reference": "Patient/83b9921c-2768-4dec-be0c-a93e20f7eaf9"
      },
      "period": {
        "start": "1975-01-02T08:00:00.000+00:00"
      },
      "payor": [ {
        "reference": "Organization/0519aba2-f551-408d-91b5-98478e38676c"
      } ]
    },
    "request": {
      "method": "PUT",
      "url": "Coverage/01479005-5c81-43a4-aa1e-fa5e54e81471"
    }
  }, {
    "fullUrl": "https://madie.cms.gov/MedicationAdministration/d552e841-8e1a-4310-82d6-daacfa646dda",
    "resource": {
      "resourceType": "MedicationAdministration",
      "id": "d552e841-8e1a-4310-82d6-daacfa646dda",
      "meta": {
        "profile": [ "http://hl7.org/fhir/us/qicore/StructureDefinition/qicore-medicationadministration" ]
      },
      "status": "completed",
      "medicationCodeableConcept": {
        "coding": [ {
          "system": "http://www.nlm.nih.gov/research/umls/rxnorm",
          "code": "855288"
        } ]
      },
      "subject": {
        "reference": "Patient/83b9921c-2768-4dec-be0c-a93e20f7eaf9"
      },
      "effectiveDateTime": "2026-10-26T08:00:00.000+00:00"
    },
    "request": {
      "method": "PUT",
      "url": "MedicationAdministration/d552e841-8e1a-4310-82d6-daacfa646dda"
    }
  }, {
    "fullUrl": "https://madie.cms.gov/Organization/0519aba2-f551-408d-91b5-98478e38676c",
    "resource": {
      "resourceType": "Organization",
      "id": "0519aba2-f551-408d-91b5-98478e38676c",
      "meta": {
        "profile": [ "http://hl7.org/fhir/us/qicore/StructureDefinition/qicore-organization" ]
      },
      "identifier": [ {
        "use": "temp",
        "system": "urn:oid:2.16.840.1.113883.4.4",
        "value": "21-3259825"
      } ],
      "active": true,
      "type": [ {
        "coding": [ {
          "system": "http://terminology.hl7.org/CodeSystem/organization-type",
          "code": "pay",
          "display": "Payer"
        } ]
      } ],
      "name": "Blue Cross Blue Shield of Texas",
      "telecom": [ {
        "system": "phone",
        "value": "(+1) 972-766-6900"
      } ],
      "address": [ {
        "use": "billing",
        "type": "postal",
        "line": [ "P.O. Box 660044" ],
        "city": "Dallas",
        "state": "TX",
        "postalCode": "75266-0044",
        "country": "USA"
      } ]
    },
    "request": {
      "method": "PUT",
      "url": "Organization/0519aba2-f551-408d-91b5-98478e38676c"
    }
  }, {
    "fullUrl": "https://madie.cms.gov/Practitioner/5a8e2a87-73de-4bd5-a93a-6e349c55ab2e",
    "resource": {
      "resourceType": "Practitioner",
      "id": "5a8e2a87-73de-4bd5-a93a-6e349c55ab2e",
      "identifier": [ {
        "system": "http://hl7.org/fhir/sid/us-npi",
        "value": "123456"
      } ],
      "name": [ {
        "family": "Evil",
        "prefix": [ "Dr" ]
      } ]
    },
    "request": {
      "method": "PUT",
      "url": "Practitioner/5a8e2a87-73de-4bd5-a93a-6e349c55ab2e"
    }
  }, {
    "fullUrl": "https://madie.cms.gov/MeasureReport/48260f55-dfc8-4f5b-97e9-9dd618b3a22e",
    "resource": {
      "resourceType": "MeasureReport",
      "id": "48260f55-dfc8-4f5b-97e9-9dd618b3a22e",
      "meta": {
        "profile": [ "http://hl7.org/fhir/us/cqfmeasures/StructureDefinition/test-case-cqfm" ]
      },
      "contained": [ {
        "resourceType": "Parameters",
        "id": "f836dd3f-464f-477b-bc0e-0e24744d300c-parameters",
        "parameter": [ {
          "name": "subject",
          "valueString": "83b9921c-2768-4dec-be0c-a93e20f7eaf9"
        } ]
      } ],
      "extension": [ {
        "url": "http://hl7.org/fhir/StructureDefinition/cqf-inputParameters",
        "valueReference": {
          "reference": "#f836dd3f-464f-477b-bc0e-0e24744d300c-parameters"
        }
      }, {
        "url": "http://hl7.org/fhir/us/cqfmeasures/StructureDefinition/cqfm-testCaseDescription",
        "valueMarkdown": "2 encounters. warfarin administered after 2nd encounter discharge time\n"
      } ],
      "modifierExtension": [ {
        "url": "http://hl7.org/fhir/us/cqfmeasures/StructureDefinition/cqfm-isTestCase",
        "valueBoolean": true
      } ],
      "status": "complete",
      "type": "individual",
      "measure": "https://madie.cms.gov/Measure/CMS108FHIRVTEProphylaxis",
      "period": {
        "start": "2026-01-01",
        "end": "2026-12-31"
      },
      "group": [ {
        "id": "Group_1",
        "population": [ {
          "id": "InitialPopulation_1",
          "code": {
            "coding": [ {
              "system": "http://terminology.hl7.org/CodeSystem/measure-population",
              "code": "initial-population",
              "display": "Initial Population"
            } ]
          },
          "count": 2
        }, {
          "id": "Denominator_1",
          "code": {
            "coding": [ {
              "system": "http://terminology.hl7.org/CodeSystem/measure-population",
              "code": "denominator",
              "display": "Denominator"
            } ]
          },
          "count": 2
        }, {
          "id": "DenominatorExclusion_1",
          "code": {
            "coding": [ {
              "system": "http://terminology.hl7.org/CodeSystem/measure-population",
              "code": "denominator-exclusion",
              "display": "Denominator Exclusion"
            } ]
          },
          "count": 0
        }, {
          "id": "Numerator_1",
          "code": {
            "coding": [ {
              "system": "http://terminology.hl7.org/CodeSystem/measure-population",
              "code": "numerator",
              "display": "Numerator"
            } ]
          },
          "count": 0
        } ],
        "measureScore": {
          "value": 0.0
        }
      } ],
      "evaluatedResource": [ {
        "reference": "Patient/83b9921c-2768-4dec-be0c-a93e20f7eaf9"
      }, {
        "reference": "Encounter/41593b16-e067-445c-b3e6-35c9ead70b2e"
      }, {
        "reference": "Encounter/1f2d1bdd-1252-442c-9c90-f5943665f8ce"
      }, {
        "reference": "Coverage/01479005-5c81-43a4-aa1e-fa5e54e81471"
      }, {
        "reference": "MedicationAdministration/d552e841-8e1a-4310-82d6-daacfa646dda"
      }, {
        "reference": "Organization/0519aba2-f551-408d-91b5-98478e38676c"
      }, {
        "reference": "Practitioner/5a8e2a87-73de-4bd5-a93a-6e349c55ab2e"
      } ]
    },
    "request": {
      "method": "PUT",
      "url": "MeasureReport/48260f55-dfc8-4f5b-97e9-9dd618b3a22e"
    }
  } ]
}