{
  "resourceType": "Bundle",
  "id": "612e6f2702c62a011f2f0db5",
  "type": "transaction",
  "entry": [ {
    "fullUrl": "https://madie.cms.gov/Patient/9ddea16c-55d3-4dda-a1d8-a256fbff0b64",
    "resource": {
      "resourceType": "Patient",
      "id": "9ddea16c-55d3-4dda-a1d8-a256fbff0b64",
      "meta": {
        "profile": [ "http://hl7.org/fhir/us/qicore/StructureDefinition/qicore-patient" ]
      },
      "text": {
        "status": "generated",
        "div": "<div xmlns=\"http://www.w3.org/1999/xhtml\"><div class=\"hapiHeaderText\">MedRsnLDUHVFP1MinAFAnesEnds1DayAFICU <b>NUMERPASS </b></div><table class=\"hapiPropertyTable\"><tbody><tr><td>Identifier</td><td>c46ac45885afaf33533a822506cc9d0e</td></tr><tr><td>Date of birth</td><td><span>03 March 1974</span></td></tr></tbody></table></div>"
      },
      "extension": [ {
        "url": "http://hl7.org/fhir/us/core/StructureDefinition/us-core-race",
        "extension": [ {
          "url": "ombCategory",
          "valueCoding": {
            "system": "urn:oid:2.16.840.1.113883.6.238",
            "code": "1002-5",
            "display": "American Indian or Alaska Native",
            "userSelected": true
          }
        }, {
          "url": "text",
          "valueString": "American Indian or Alaska Native"
        } ]
      }, {
        "url": "http://hl7.org/fhir/us/core/StructureDefinition/us-core-ethnicity",
        "extension": [ {
          "url": "ombCategory",
          "valueCoding": {
            "system": "urn:oid:2.16.840.1.113883.6.238",
            "code": "2135-2",
            "display": "Hispanic or Latino",
            "userSelected": true
          }
        }, {
          "url": "text",
          "valueString": "Hispanic or Latino"
        } ]
      } ],
      "identifier": [ {
        "type": {
          "coding": [ {
            "system": "http://terminology.hl7.org/CodeSystem/v2-0203",
            "code": "MR"
          } ]
        },
        "system": "https://bonnie-fhir.healthit.gov/",
        "value": "612e6f2702c62a011f2f0db5"
      } ],
      "active": true,
      "name": [ {
        "use": "usual",
        "family": "NUMERPass",
        "given": [ "MedRsnLDUHVFP1MinAFAnesEnds1DayAFICU" ]
      } ],
      "gender": "female",
      "birthDate": "1975-03-03"
    },
    "request": {
      "method": "PUT",
      "url": "Patient/9ddea16c-55d3-4dda-a1d8-a256fbff0b64"
    }
  }, {
    "fullUrl": "https://madie.cms.gov/Encounter/0ddf76fa-9a0c-467d-a20d-d7d38ddb543b",
    "resource": {
      "resourceType": "Encounter",
      "id": "0ddf76fa-9a0c-467d-a20d-d7d38ddb543b",
      "meta": {
        "profile": [ "http://hl7.org/fhir/us/qicore/StructureDefinition/qicore-encounter" ]
      },
      "status": "finished",
      "class": {
        "system": "http://terminology.hl7.org/CodeSystem/v3-ActCode",
        "code": "IMP",
        "display": "inpatient encounter"
      },
      "type": [ {
        "coding": [ {
          "system": "http://snomed.info/sct",
          "code": "8715000"
        } ]
      } ],
      "subject": {
        "reference": "Patient/9ddea16c-55d3-4dda-a1d8-a256fbff0b64"
      },
      "period": {
        "start": "2026-12-01T00:00:00.000+00:00",
        "end": "2026-12-31T23:59:00.000+00:00"
      },
      "length": {
        "value": 30,
        "unit": "days"
      },
      "location": [ {
        "location": {
          "reference": "Location/58db3735-8d66-47c3-b740-d13d309d5192"
        },
        "period": {
          "start": "2026-12-01T05:00:00.000+00:00",
          "end": "2026-12-15T23:59:00.000+00:00"
        }
      } ]
    },
    "request": {
      "method": "PUT",
      "url": "Encounter/0ddf76fa-9a0c-467d-a20d-d7d38ddb543b"
    }
  }, {
    "fullUrl": "https://madie.cms.gov/Coverage/b406caa8-ac6e-4379-967b-e6bfc6a66793",
    "resource": {
      "resourceType": "Coverage",
      "id": "b406caa8-ac6e-4379-967b-e6bfc6a66793",
      "status": "active",
      "beneficiary": {
        "reference": "Patient/9ddea16c-55d3-4dda-a1d8-a256fbff0b64"
      },
      "period": {
        "start": "1975-03-03T08:00:00.000+00:00"
      },
      "payor": [ {
        "reference": "Organization/cd93b02f-eb8b-466f-a7bb-f736a6591117"
      } ]
    },
    "request": {
      "method": "PUT",
      "url": "Coverage/b406caa8-ac6e-4379-967b-e6bfc6a66793"
    }
  }, {
    "fullUrl": "https://madie.cms.gov/MedicationAdministration/379e5c40-e97d-4d9d-bbbc-b102fcd3eeac",
    "resource": {
      "resourceType": "MedicationAdministration",
      "id": "379e5c40-e97d-4d9d-bbbc-b102fcd3eeac",
      "meta": {
        "profile": [ "http://hl7.org/fhir/us/qicore/StructureDefinition/qicore-medicationadministrationnotdone" ]
      },
      "extension": [ {
        "url": "http://hl7.org/fhir/us/qicore/StructureDefinition/qicore-recorded",
        "valueDateTime": "2026-12-02T15:11:00.000+00:00"
      } ],
      "status": "not-done",
      "statusReason": [ {
        "coding": [ {
          "system": "http://snomed.info/sct",
          "code": "183932001",
          "display": "Procedure contraindicated (situation)"
        } ]
      } ],
      "medicationCodeableConcept": {
        "coding": [ {
          "system": "http://www.nlm.nih.gov/research/umls/rxnorm",
          "code": "854228"
        } ]
      },
      "subject": {
        "reference": "Patient/9ddea16c-55d3-4dda-a1d8-a256fbff0b64"
      },
      "effectivePeriod": {
        "start": "2026-12-02T15:11:00.000+00:00"
      }
    },
    "request": {
      "method": "PUT",
      "url": "MedicationAdministration/379e5c40-e97d-4d9d-bbbc-b102fcd3eeac"
    }
  }, {
    "fullUrl": "https://madie.cms.gov/Procedure/57bbf035-a3c5-4387-aa23-a81e4cc9d6dd",
    "resource": {
      "resourceType": "Procedure",
      "id": "57bbf035-a3c5-4387-aa23-a81e4cc9d6dd",
      "meta": {
        "profile": [ "http://hl7.org/fhir/us/qicore/StructureDefinition/qicore-procedure" ]
      },
      "extension": [ {
        "url": "http://hl7.org/fhir/us/qicore/StructureDefinition/qicore-recorded",
        "valueDateTime": "2013-12-04T13:35:00.000+00:00"
      } ],
      "status": "completed",
      "code": {
        "coding": [ {
          "system": "http://snomed.info/sct",
          "code": "18946005"
        } ]
      },
      "subject": {
        "reference": "Patient/9ddea16c-55d3-4dda-a1d8-a256fbff0b64"
      },
      "performedPeriod": {
        "start": "2026-12-02T10:59:00.000+00:00",
        "end": "2026-12-02T15:10:00.000+00:00"
      }
    },
    "request": {
      "method": "PUT",
      "url": "Procedure/57bbf035-a3c5-4387-aa23-a81e4cc9d6dd"
    }
  }, {
    "fullUrl": "https://madie.cms.gov/Location/58db3735-8d66-47c3-b740-d13d309d5192",
    "resource": {
      "resourceType": "Location",
      "id": "58db3735-8d66-47c3-b740-d13d309d5192",
      "meta": {
        "profile": [ "http://hl7.org/fhir/us/qicore/StructureDefinition/qicore-location" ]
      },
      "identifier": [ {
        "use": "usual",
        "system": "http://exampleoflocation.com",
        "value": "B1-S.F2"
      } ],
      "name": "Medical Surgical East, first floor",
      "type": [ {
        "coding": [ {
          "system": "https://www.cdc.gov/nhsn/cdaportal/terminology/codesystem/hsloc.html",
          "code": "1025-6",
          "display": "Trauma Critical Care",
          "userSelected": true
        } ]
      } ]
    },
    "request": {
      "method": "PUT",
      "url": "Location/58db3735-8d66-47c3-b740-d13d309d5192"
    }
  }, {
    "fullUrl": "https://madie.cms.gov/Procedure/6ce002a5-33d7-414f-b230-586b4bc552a9",
    "resource": {
      "resourceType": "Procedure",
      "id": "6ce002a5-33d7-414f-b230-586b4bc552a9",
      "meta": {
        "profile": [ "http://hl7.org/fhir/us/qicore/StructureDefinition/qicore-procedurenotdone" ]
      },
      "extension": [ {
        "url": "http://hl7.org/fhir/us/qicore/StructureDefinition/qicore-recorded",
        "valueDateTime": "2026-12-02T15:11:00.000+00:00"
      } ],
      "status": "not-done",
      "statusReason": {
        "coding": [ {
          "system": "http://snomed.info/sct",
          "code": "183932001",
          "display": "Procedure contraindicated (situation)",
          "userSelected": true
        } ]
      },
      "code": {
        "coding": [ {
          "system": "http://snomed.info/sct",
          "code": "442410008",
          "display": "Application of venous foot pump (procedure)",
          "userSelected": true
        } ]
      },
      "subject": {
        "reference": "Patient/9ddea16c-55d3-4dda-a1d8-a256fbff0b64"
      },
      "_performedDateTime": {
        "extension": [ {
          "url": "http://hl7.org/fhir/StructureDefinition/data-absent-reason",
          "valueCode": "not-performed"
        } ]
      }
    },
    "request": {
      "method": "PUT",
      "url": "Procedure/6ce002a5-33d7-414f-b230-586b4bc552a9"
    }
  }, {
    "fullUrl": "https://madie.cms.gov/Organization/cd93b02f-eb8b-466f-a7bb-f736a6591117",
    "resource": {
      "resourceType": "Organization",
      "id": "cd93b02f-eb8b-466f-a7bb-f736a6591117",
      "meta": {
        "profile": [ "http://hl7.org/fhir/us/qicore/StructureDefinition/qicore-organization" ]
      },
      "identifier": [ {
        "use": "temp",
        "system": "urn:oid:2.16.840.1.113883.4.4",
        "value": "21-3259825"
      } ],
      "active": true,
      "type": [ {
        "coding": [ {
          "system": "http://terminology.hl7.org/CodeSystem/organization-type",
          "code": "pay",
          "display": "Payer"
        } ]
      } ],
      "name": "Blue Cross Blue Shield of Texas",
      "telecom": [ {
        "system": "phone",
        "value": "(+1) 972-766-6900"
      } ],
      "address": [ {
        "use": "billing",
        "type": "postal",
        "line": [ "P.O. Box 660044" ],
        "city": "Dallas",
        "state": "TX",
        "postalCode": "75266-0044",
        "country": "USA"
      } ]
    },
    "request": {
      "method": "PUT",
      "url": "Organization/cd93b02f-eb8b-466f-a7bb-f736a6591117"
    }
  }, {
    "fullUrl": "https://madie.cms.gov/Practitioner/930ce8fe-9280-440f-b236-ff8e839eaf77",
    "resource": {
      "resourceType": "Practitioner",
      "id": "930ce8fe-9280-440f-b236-ff8e839eaf77",
      "identifier": [ {
        "system": "http://hl7.org/fhir/sid/us-npi",
        "value": "123456"
      } ],
      "name": [ {
        "family": "Evil",
        "prefix": [ "Dr" ]
      } ]
    },
    "request": {
      "method": "PUT",
      "url": "Practitioner/930ce8fe-9280-440f-b236-ff8e839eaf77"
    }
  }, {
    "fullUrl": "https://madie.cms.gov/MeasureReport/90c1518e-8e3a-4f2a-b266-9210baffdcbf",
    "resource": {
      "resourceType": "MeasureReport",
      "id": "90c1518e-8e3a-4f2a-b266-9210baffdcbf",
      "meta": {
        "profile": [ "http://hl7.org/fhir/us/cqfmeasures/StructureDefinition/test-case-cqfm" ]
      },
      "contained": [ {
        "resourceType": "Parameters",
        "id": "c0cc967b-ed98-4c9f-af9f-5835e3da7723-parameters",
        "parameter": [ {
          "name": "subject",
          "valueString": "9ddea16c-55d3-4dda-a1d8-a256fbff0b64"
        } ]
      } ],
      "extension": [ {
        "url": "http://hl7.org/fhir/StructureDefinition/cqf-inputParameters",
        "valueReference": {
          "reference": "#c0cc967b-ed98-4c9f-af9f-5835e3da7723-parameters"
        }
      }, {
        "url": "http://hl7.org/fhir/us/cqfmeasures/StructureDefinition/cqfm-testCaseDescription",
        "valueMarkdown": "Patient has a documented reason for no LDUH and a medical reason for no IPC 1 min after anesthesia end (and anesthesia ends 1 day after ICU admission). This case will also satisfy no VTE prophylaxis due to medical reason <=1 day after ICU.start\n"
      } ],
      "modifierExtension": [ {
        "url": "http://hl7.org/fhir/us/cqfmeasures/StructureDefinition/cqfm-isTestCase",
        "valueBoolean": true
      } ],
      "status": "complete",
      "type": "individual",
      "measure": "https://madie.cms.gov/Measure/CMS190FHIRVTEProphylaxisICU",
      "period": {
        "start": "2026-01-01",
        "end": "2026-12-31"
      },
      "group": [ {
        "id": "Group_1",
        "population": [ {
          "id": "InitialPopulation_1",
          "code": {
            "coding": [ {
              "system": "http://terminology.hl7.org/CodeSystem/measure-population",
              "code": "initial-population",
              "display": "Initial Population"
            } ]
          },
          "count": 1
        }, {
          "id": "Denominator_1",
          "code": {
            "coding": [ {
              "system": "http://terminology.hl7.org/CodeSystem/measure-population",
              "code": "denominator",
              "display": "Denominator"
            } ]
          },
          "count": 1
        }, {
          "id": "DenominatorExclusion_1",
          "code": {
            "coding": [ {
              "system": "http://terminology.hl7.org/CodeSystem/measure-population",
              "code": "denominator-exclusion",
              "display": "Denominator Exclusion"
            } ]
          },
          "count": 0
        }, {
          "id": "Numerator_1",
          "code": {
            "coding": [ {
              "system": "http://terminology.hl7.org/CodeSystem/measure-population",
              "code": "numerator",
              "display": "Numerator"
            } ]
          },
          "count": 1
        }, {
          "id": "DenominatorException_1",
          "code": {
            "coding": [ {
              "system": "http://terminology.hl7.org/CodeSystem/measure-population",
              "code": "denominator-exception",
              "display": "Denominator Exception"
            } ]
          },
          "count": 0
        } ],
        "measureScore": {
          "value": 0.0
        }
      } ],
      "evaluatedResource": [ {
        "reference": "Patient/9ddea16c-55d3-4dda-a1d8-a256fbff0b64"
      }, {
        "reference": "Encounter/0ddf76fa-9a0c-467d-a20d-d7d38ddb543b"
      }, {
        "reference": "Coverage/b406caa8-ac6e-4379-967b-e6bfc6a66793"
      }, {
        "reference": "MedicationAdministration/379e5c40-e97d-4d9d-bbbc-b102fcd3eeac"
      }, {
        "reference": "Procedure/57bbf035-a3c5-4387-aa23-a81e4cc9d6dd"
      }, {
        "reference": "Location/58db3735-8d66-47c3-b740-d13d309d5192"
      }, {
        "reference": "Procedure/6ce002a5-33d7-414f-b230-586b4bc552a9"
      }, {
        "reference": "Organization/cd93b02f-eb8b-466f-a7bb-f736a6591117"
      }, {
        "reference": "Practitioner/930ce8fe-9280-440f-b236-ff8e839eaf77"
      } ]
    },
    "request": {
      "method": "PUT",
      "url": "MeasureReport/90c1518e-8e3a-4f2a-b266-9210baffdcbf"
    }
  } ]
}