{
  "resourceType": "Bundle",
  "id": "6109650598086b538055a0dz",
  "type": "transaction",
  "entry": [ {
    "fullUrl": "https://madie.cms.gov/Patient/b14e5a78-7cd5-4f46-ba9d-eba382000cd5",
    "resource": {
      "resourceType": "Patient",
      "id": "b14e5a78-7cd5-4f46-ba9d-eba382000cd5",
      "meta": {
        "profile": [ "http://hl7.org/fhir/us/qicore/StructureDefinition/qicore-patient" ]
      },
      "text": {
        "status": "generated",
        "div": "<div xmlns=\"http://www.w3.org/1999/xhtml\"><div class=\"hapiHeaderText\">RiskAssessPsychotherapyEncrelevantDatetime <b>NUMERPASS </b></div><table class=\"hapiPropertyTable\"><tbody><tr><td>Identifier</td><td>93c3e66aae1f7f1a8106f95a744c120c</td></tr><tr><td>Date of birth</td><td><span>24 March 2001</span></td></tr></tbody></table></div>"
      },
      "extension": [ {
        "url": "http://hl7.org/fhir/us/core/StructureDefinition/us-core-race",
        "extension": [ {
          "url": "ombCategory",
          "valueCoding": {
            "system": "urn:oid:2.16.840.1.113883.6.238",
            "code": "1002-5",
            "display": "American Indian or Alaska Native",
            "userSelected": true
          }
        }, {
          "url": "text",
          "valueString": "American Indian or Alaska Native"
        } ]
      }, {
        "url": "http://hl7.org/fhir/us/core/StructureDefinition/us-core-ethnicity",
        "extension": [ {
          "url": "ombCategory",
          "valueCoding": {
            "system": "urn:oid:2.16.840.1.113883.6.238",
            "code": "2186-5",
            "display": "Not Hispanic or Latino",
            "userSelected": true
          }
        }, {
          "url": "text",
          "valueString": "Not Hispanic or Latino"
        } ]
      } ],
      "identifier": [ {
        "type": {
          "coding": [ {
            "system": "http://terminology.hl7.org/CodeSystem/v2-0203",
            "code": "MR"
          } ]
        },
        "system": "https://bonnie-fhir.healthit.gov/",
        "value": "6109650598086b538055a0dz"
      } ],
      "active": true,
      "name": [ {
        "use": "usual",
        "family": "DENOMPass",
        "given": [ "MultEncNoRiskAssmt" ]
      } ],
      "gender": "male",
      "birthDate": "2016-03-24"
    },
    "request": {
      "method": "PUT",
      "url": "Patient/b14e5a78-7cd5-4f46-ba9d-eba382000cd5"
    }
  }, {
    "fullUrl": "https://madie.cms.gov/Encounter/01133f03-35e4-4df6-9567-8226000ada5a",
    "resource": {
      "resourceType": "Encounter",
      "id": "01133f03-35e4-4df6-9567-8226000ada5a",
      "meta": {
        "profile": [ "http://hl7.org/fhir/us/qicore/StructureDefinition/qicore-encounter" ]
      },
      "status": "finished",
      "class": {
        "system": "http://terminology.hl7.org/CodeSystem/v3-ActCode",
        "code": "AMB",
        "display": "ambulatory",
        "userSelected": true
      },
      "type": [ {
        "coding": [ {
          "system": "http://www.ama-assn.org/go/cpt",
          "code": "90832"
        } ]
      } ],
      "subject": {
        "reference": "Patient/b14e5a78-7cd5-4f46-ba9d-eba382000cd5"
      },
      "period": {
        "start": "2026-07-12T11:45:00.000+00:00",
        "end": "2026-07-12T12:15:00.000+00:00"
      },
      "length": {
        "value": 0,
        "unit": "days"
      },
      "reasonCode": [ {
        "coding": [ {
          "system": "http://snomed.info/sct",
          "version": "2023-09",
          "code": "10811161000119107",
          "display": "Major depressive disorder in mother complicating pregnancy (disorder)",
          "userSelected": true
        } ]
      } ],
      "diagnosis": [ {
        "condition": {
          "reference": "Condition/2cede2af-c1d7-47c6-8e0c-8ece6e2c7e73"
        },
        "use": {
          "coding": [ {
            "system": "http://snomed.info/sct",
            "version": "2023-09",
            "code": "10811161000119107",
            "display": "Major depressive disorder in mother complicating pregnancy (disorder)",
            "userSelected": true
          } ]
        }
      } ]
    },
    "request": {
      "method": "PUT",
      "url": "Encounter/01133f03-35e4-4df6-9567-8226000ada5a"
    }
  }, {
    "fullUrl": "https://madie.cms.gov/Condition/2cede2af-c1d7-47c6-8e0c-8ece6e2c7e73",
    "resource": {
      "resourceType": "Condition",
      "id": "2cede2af-c1d7-47c6-8e0c-8ece6e2c7e73",
      "meta": {
        "profile": [ "http://hl7.org/fhir/us/core/StructureDefinition/us-core-condition-encounter-diagnosis" ]
      },
      "category": [ {
        "coding": [ {
          "system": "http://terminology.hl7.org/CodeSystem/condition-category",
          "code": "encounter-diagnosis",
          "display": "Encounter Diagnosis"
        } ]
      } ],
      "code": {
        "coding": [ {
          "system": "http://snomed.info/sct",
          "version": "2023-09",
          "code": "10811121000119102",
          "display": "Major depressive disorder in mother complicating childbirth (disorder)",
          "userSelected": true
        } ]
      },
      "subject": {
        "reference": "Patient/b14e5a78-7cd5-4f46-ba9d-eba382000cd5"
      },
      "encounter": {
        "reference": "Encounter/26e259c8-3867-42b0-a0ba-b071b212f3d9"
      },
      "recordedDate": "2026-07-12T11:45:00.000+00:00"
    },
    "request": {
      "method": "PUT",
      "url": "Condition/2cede2af-c1d7-47c6-8e0c-8ece6e2c7e73"
    }
  }, {
    "fullUrl": "https://madie.cms.gov/Encounter/26e259c8-3867-42b0-a0ba-b071b212f3d9",
    "resource": {
      "resourceType": "Encounter",
      "id": "26e259c8-3867-42b0-a0ba-b071b212f3d9",
      "meta": {
        "profile": [ "http://hl7.org/fhir/us/qicore/StructureDefinition/qicore-encounter" ]
      },
      "status": "finished",
      "class": {
        "system": "http://terminology.hl7.org/CodeSystem/v3-ActCode",
        "code": "AMB",
        "display": "ambulatory",
        "userSelected": true
      },
      "type": [ {
        "coding": [ {
          "system": "http://www.ama-assn.org/go/cpt",
          "code": "90832"
        } ]
      } ],
      "subject": {
        "reference": "Patient/b14e5a78-7cd5-4f46-ba9d-eba382000cd5"
      },
      "period": {
        "start": "2026-07-14T11:45:00.000+00:00",
        "end": "2026-07-14T12:15:00.000+00:00"
      },
      "length": {
        "value": 0,
        "unit": "days"
      },
      "reasonCode": [ {
        "coding": [ {
          "system": "http://snomed.info/sct",
          "version": "2023-09",
          "code": "10811161000119107",
          "display": "Major depressive disorder in mother complicating pregnancy (disorder)",
          "userSelected": true
        } ]
      } ],
      "diagnosis": [ {
        "condition": {
          "reference": "Condition/2cede2af-c1d7-47c6-8e0c-8ece6e2c7e73"
        },
        "use": {
          "coding": [ {
            "system": "http://snomed.info/sct",
            "version": "2023-09",
            "code": "10811161000119107",
            "display": "Major depressive disorder in mother complicating pregnancy (disorder)",
            "userSelected": true
          } ]
        }
      } ]
    },
    "request": {
      "method": "PUT",
      "url": "Encounter/26e259c8-3867-42b0-a0ba-b071b212f3d9"
    }
  }, {
    "fullUrl": "https://madie.cms.gov/Coverage/35a8ad4c-b553-4dc6-a230-ffd6168edf59",
    "resource": {
      "resourceType": "Coverage",
      "id": "35a8ad4c-b553-4dc6-a230-ffd6168edf59",
      "meta": {
        "profile": [ "http://hl7.org/fhir/us/qicore/StructureDefinition/qicore-coverage" ]
      },
      "identifier": [ {
        "type": {
          "coding": [ {
            "system": "http://terminology.hl7.org/CodeSystem/v2-0203",
            "code": "MB"
          } ]
        }
      } ],
      "status": "active",
      "type": {
        "coding": [ {
          "system": "https://nahdo.org/sopt",
          "code": "19",
          "userSelected": true
        } ]
      },
      "beneficiary": {
        "reference": "Patient/b14e5a78-7cd5-4f46-ba9d-eba382000cd5"
      },
      "dependent": "0",
      "relationship": {
        "coding": [ {
          "system": "http://terminology.hl7.org/CodeSystem/subscriber-relationship",
          "code": "self"
        } ]
      },
      "period": {
        "start": "2026-04-01T08:00:00.000+00:00",
        "end": "2026-10-01T08:15:00.000+00:00"
      },
      "payor": [ {
        "reference": "Organization/0e428f1d-42ff-4c56-8132-37ca1bf4c64f"
      } ]
    },
    "request": {
      "method": "PUT",
      "url": "Coverage/35a8ad4c-b553-4dc6-a230-ffd6168edf59"
    }
  }, {
    "fullUrl": "https://madie.cms.gov/Organization/0e428f1d-42ff-4c56-8132-37ca1bf4c64f",
    "resource": {
      "resourceType": "Organization",
      "id": "0e428f1d-42ff-4c56-8132-37ca1bf4c64f",
      "meta": {
        "profile": [ "http://hl7.org/fhir/us/qicore/StructureDefinition/qicore-organization" ]
      },
      "identifier": [ {
        "use": "temp",
        "system": "urn:oid:2.16.840.1.113883.4.4",
        "value": "21-3259825"
      } ],
      "active": true,
      "type": [ {
        "coding": [ {
          "system": "http://terminology.hl7.org/CodeSystem/organization-type",
          "code": "pay",
          "display": "Payer"
        } ]
      } ],
      "name": "Blue Cross Blue Shield of Texas",
      "telecom": [ {
        "system": "phone",
        "value": "(+1) 972-766-6900"
      } ],
      "address": [ {
        "use": "billing",
        "type": "postal",
        "line": [ "P.O. Box 660044" ],
        "city": "Dallas",
        "state": "TX",
        "postalCode": "75266-0044",
        "country": "USA"
      } ]
    },
    "request": {
      "method": "PUT",
      "url": "Organization/0e428f1d-42ff-4c56-8132-37ca1bf4c64f"
    }
  }, {
    "fullUrl": "https://madie.cms.gov/Practitioner/097a64b8-db08-4535-8337-c2947cc0d5bb",
    "resource": {
      "resourceType": "Practitioner",
      "id": "097a64b8-db08-4535-8337-c2947cc0d5bb",
      "meta": {
        "profile": [ "http://hl7.org/fhir/us/qicore/StructureDefinition/qicore-practitioner" ]
      },
      "identifier": [ {
        "system": "http://hl7.org/fhir/sid/us-npi",
        "value": "1467472159"
      } ],
      "name": [ {
        "family": "Evil",
        "prefix": [ "Dr" ]
      } ]
    },
    "request": {
      "method": "PUT",
      "url": "Practitioner/097a64b8-db08-4535-8337-c2947cc0d5bb"
    }
  }, {
    "fullUrl": "https://madie.cms.gov/MeasureReport/e2682d43-4012-42f6-823b-3c236fedac05",
    "resource": {
      "resourceType": "MeasureReport",
      "id": "e2682d43-4012-42f6-823b-3c236fedac05",
      "meta": {
        "profile": [ "http://hl7.org/fhir/us/cqfmeasures/StructureDefinition/test-case-cqfm" ]
      },
      "contained": [ {
        "resourceType": "Parameters",
        "id": "7f271102-e985-4b58-9626-018c41a4bfb4-parameters",
        "parameter": [ {
          "name": "subject",
          "valueString": "b14e5a78-7cd5-4f46-ba9d-eba382000cd5"
        } ]
      } ],
      "extension": [ {
        "url": "http://hl7.org/fhir/StructureDefinition/cqf-inputParameters",
        "valueReference": {
          "reference": "#7f271102-e985-4b58-9626-018c41a4bfb4-parameters"
        }
      }, {
        "url": "http://hl7.org/fhir/us/cqfmeasures/StructureDefinition/cqfm-testCaseDescription",
        "valueMarkdown": "Patient has multiple encounters with MDD diagnosis during the measurement period with no suicide risk assessment. "
      } ],
      "modifierExtension": [ {
        "url": "http://hl7.org/fhir/us/cqfmeasures/StructureDefinition/cqfm-isTestCase",
        "valueBoolean": true
      } ],
      "status": "complete",
      "type": "individual",
      "measure": "https://madie.cms.gov/Measure/CMS177FHIRChildMDDSuicideAssmt",
      "period": {
        "start": "2026-01-01",
        "end": "2026-12-31"
      },
      "group": [ {
        "id": "Group_1",
        "population": [ {
          "id": "InitialPopulation_1",
          "code": {
            "coding": [ {
              "system": "http://terminology.hl7.org/CodeSystem/measure-population",
              "code": "initial-population",
              "display": "Initial Population"
            } ]
          },
          "count": 2
        }, {
          "id": "Denominator_1",
          "code": {
            "coding": [ {
              "system": "http://terminology.hl7.org/CodeSystem/measure-population",
              "code": "denominator",
              "display": "Denominator"
            } ]
          },
          "count": 2
        }, {
          "id": "Numerator_1",
          "code": {
            "coding": [ {
              "system": "http://terminology.hl7.org/CodeSystem/measure-population",
              "code": "numerator",
              "display": "Numerator"
            } ]
          },
          "count": 0
        } ],
        "measureScore": {
          "value": 0.0
        }
      } ],
      "evaluatedResource": [ {
        "reference": "Patient/b14e5a78-7cd5-4f46-ba9d-eba382000cd5"
      }, {
        "reference": "Encounter/01133f03-35e4-4df6-9567-8226000ada5a"
      }, {
        "reference": "Condition/2cede2af-c1d7-47c6-8e0c-8ece6e2c7e73"
      }, {
        "reference": "Encounter/26e259c8-3867-42b0-a0ba-b071b212f3d9"
      }, {
        "reference": "Coverage/35a8ad4c-b553-4dc6-a230-ffd6168edf59"
      }, {
        "reference": "Organization/0e428f1d-42ff-4c56-8132-37ca1bf4c64f"
      }, {
        "reference": "Practitioner/097a64b8-db08-4535-8337-c2947cc0d5bb"
      } ]
    },
    "request": {
      "method": "PUT",
      "url": "MeasureReport/e2682d43-4012-42f6-823b-3c236fedac05"
    }
  } ]
}