{
  "resourceType": "Bundle",
  "id": "146343513131",
  "type": "collection",
  "entry": [ {
    "fullUrl": "https://madie.cms.gov/Patient/149c3a7c-2b80-47f8-b50d-5c1d233eedb7",
    "resource": {
      "resourceType": "Patient",
      "id": "149c3a7c-2b80-47f8-b50d-5c1d233eedb7",
      "meta": {
        "profile": [ "http://hl7.org/fhir/us/qicore/StructureDefinition/qicore-patient" ]
      },
      "extension": [ {
        "url": "http://hl7.org/fhir/us/core/StructureDefinition/us-core-race",
        "extension": [ {
          "url": "ombCategory",
          "valueCoding": {
            "system": "urn:oid:2.16.840.1.113883.6.238",
            "code": "1002-5",
            "display": "American Indian or Alaska Native"
          }
        }, {
          "url": "text",
          "valueString": "American Indian or Alaska Native"
        } ]
      }, {
        "url": "http://hl7.org/fhir/us/core/StructureDefinition/us-core-ethnicity",
        "extension": [ {
          "url": "ombCategory",
          "valueCoding": {
            "system": "urn:oid:2.16.840.1.113883.6.238",
            "code": "2186-5",
            "display": "Not Hispanic or Latino"
          }
        }, {
          "url": "text",
          "valueString": "Not Hispanic or Latino"
        } ]
      } ],
      "identifier": [ {
        "type": {
          "coding": [ {
            "system": "http://terminology.hl7.org/CodeSystem/v2-0203",
            "code": "MR"
          } ]
        },
        "system": "https://bonnie-fhir.healthit.gov/",
        "value": "431385494631"
      } ],
      "name": [ {
        "family": "DENOMPass",
        "given": [ "ModtoSevLVSD" ]
      } ],
      "gender": "male",
      "birthDate": "1969-06-14"
    }
  }, {
    "fullUrl": "https://madie.cms.gov/MedicationRequest/67202568-7f1f-4c3e-a2e3-1c419250f089",
    "resource": {
      "resourceType": "MedicationRequest",
      "id": "67202568-7f1f-4c3e-a2e3-1c419250f089",
      "meta": {
        "profile": [ "http://hl7.org/fhir/us/qicore/StructureDefinition/qicore-medicationnotrequested" ]
      },
      "status": "completed",
      "intent": "order",
      "doNotPerform": true,
      "medicationCodeableConcept": {
        "coding": [ {
          "system": "http://www.nlm.nih.gov/research/umls/rxnorm",
          "code": "1000001",
          "display": "amlodipine 5 MG / hydrochlorothiazide 25 MG / olmesartan medoxomil 40 MG Oral Tablet",
          "userSelected": true
        } ]
      },
      "subject": {
        "reference": "Patient/149c3a7c-2b80-47f8-b50d-5c1d233eedb7"
      },
      "authoredOn": "2026-05-15T11:50:00.000Z",
      "requester": {
        "reference": "Practitioner/123456"
      },
      "reasonCode": [ {
        "coding": [ {
          "system": "http://snomed.info/sct",
          "code": "134397009",
          "display": "Angiotensin converting enzyme inhibitor declined (situation)",
          "userSelected": true
        } ]
      } ]
    }
  }, {
    "fullUrl": "https://madie.cms.gov/Encounter/5fa22d44-fc18-4930-b962-684eb069be28",
    "resource": {
      "resourceType": "Encounter",
      "id": "5fa22d44-fc18-4930-b962-684eb069be28",
      "meta": {
        "profile": [ "http://hl7.org/fhir/us/qicore/StructureDefinition/qicore-encounter" ]
      },
      "status": "finished",
      "class": {
        "system": "http://terminology.hl7.org/CodeSystem/v3-ActCode",
        "code": "AMB",
        "display": "ambulatory"
      },
      "type": [ {
        "coding": [ {
          "system": "http://snomed.info/sct",
          "version": "http://snomed.info/sct/731000124108/version/20250301",
          "code": "185463005",
          "display": "Visit out of hours"
        } ]
      } ],
      "subject": {
        "reference": "Patient/149c3a7c-2b80-47f8-b50d-5c1d233eedb7"
      },
      "period": {
        "start": "2026-03-31T14:40:00.000Z",
        "end": "2026-03-31T14:40:00.000Z"
      }
    }
  }, {
    "fullUrl": "https://madie.cms.gov/Encounter/25144405-5c61-4628-a9a7-398f86d6e361",
    "resource": {
      "resourceType": "Encounter",
      "id": "25144405-5c61-4628-a9a7-398f86d6e361",
      "meta": {
        "profile": [ "http://hl7.org/fhir/us/qicore/StructureDefinition/qicore-encounter" ]
      },
      "status": "finished",
      "class": {
        "system": "http://terminology.hl7.org/CodeSystem/v3-ActCode",
        "code": "AMB",
        "display": "ambulatory"
      },
      "type": [ {
        "coding": [ {
          "system": "http://snomed.info/sct",
          "version": "http://snomed.info/sct/731000124108/version/20250301",
          "code": "185463005",
          "display": "Visit out of hours"
        } ]
      } ],
      "subject": {
        "reference": "Patient/149c3a7c-2b80-47f8-b50d-5c1d233eedb7"
      },
      "period": {
        "start": "2026-05-15T11:50:00.000Z",
        "end": "2026-05-15T11:50:00.000Z"
      }
    }
  }, {
    "fullUrl": "https://madie.cms.gov/Condition/d9c33f07-c64f-4a62-8c88-b9a5ce7b580d",
    "resource": {
      "resourceType": "Condition",
      "id": "d9c33f07-c64f-4a62-8c88-b9a5ce7b580d",
      "meta": {
        "profile": [ "http://hl7.org/fhir/us/qicore/StructureDefinition/qicore-condition-problems-health-concerns" ]
      },
      "clinicalStatus": {
        "coding": [ {
          "system": "http://terminology.hl7.org/CodeSystem/condition-clinical",
          "code": "active",
          "display": "active"
        } ]
      },
      "verificationStatus": {
        "coding": [ {
          "system": "http://terminology.hl7.org/CodeSystem/condition-ver-status",
          "code": "confirmed",
          "display": "Confirmed"
        } ]
      },
      "category": [ {
        "coding": [ {
          "system": "http://terminology.hl7.org/CodeSystem/condition-category",
          "code": "problem-list-item",
          "display": "Problem List Item"
        } ]
      } ],
      "code": {
        "coding": [ {
          "system": "http://snomed.info/sct",
          "version": "http://snomed.info/sct/731000124108/version/20250301",
          "code": "10091002",
          "display": "High output heart failure (disorder)"
        } ]
      },
      "subject": {
        "reference": "Patient/149c3a7c-2b80-47f8-b50d-5c1d233eedb7"
      },
      "onsetPeriod": {
        "start": "2025-05-17T10:00:00.000Z"
      }
    }
  }, {
    "fullUrl": "https://madie.cms.gov/Condition/2e1a6743-23b4-4fc8-b76f-a2ee09d18cde",
    "resource": {
      "resourceType": "Condition",
      "id": "2e1a6743-23b4-4fc8-b76f-a2ee09d18cde",
      "meta": {
        "profile": [ "http://hl7.org/fhir/us/qicore/StructureDefinition/qicore-condition-problems-health-concerns" ]
      },
      "clinicalStatus": {
        "coding": [ {
          "system": "http://terminology.hl7.org/CodeSystem/condition-clinical",
          "code": "active",
          "display": "Active"
        } ]
      },
      "verificationStatus": {
        "coding": [ {
          "system": "http://terminology.hl7.org/CodeSystem/condition-ver-status",
          "code": "confirmed",
          "display": "Confirmed"
        } ]
      },
      "category": [ {
        "coding": [ {
          "system": "http://terminology.hl7.org/CodeSystem/condition-category",
          "code": "problem-list-item",
          "display": "Problem List Item"
        } ]
      } ],
      "code": {
        "coding": [ {
          "system": "http://snomed.info/sct",
          "version": "http://snomed.info/sct/731000124108/version/20250301",
          "code": "991000124109",
          "display": "Severe left ventricular systolic dysfunction (disorder)"
        } ]
      },
      "subject": {
        "reference": "Patient/149c3a7c-2b80-47f8-b50d-5c1d233eedb7"
      },
      "onsetDateTime": "2026-05-14T11:50:00.000Z"
    }
  }, {
    "fullUrl": "https://madie.cms.gov/MeasureReport/d8d9ace4-d191-4aff-a0e4-6de581275357",
    "resource": {
      "resourceType": "MeasureReport",
      "id": "d8d9ace4-d191-4aff-a0e4-6de581275357",
      "meta": {
        "profile": [ "http://hl7.org/fhir/us/cqfmeasures/StructureDefinition/test-case-cqfm" ]
      },
      "contained": [ {
        "resourceType": "Parameters",
        "id": "163dd252-cd0d-4547-8128-b6626c66bb19-parameters",
        "parameter": [ {
          "name": "subject",
          "valueString": "149c3a7c-2b80-47f8-b50d-5c1d233eedb7"
        } ]
      } ],
      "extension": [ {
        "url": "http://hl7.org/fhir/StructureDefinition/cqf-inputParameters",
        "valueReference": {
          "reference": "#163dd252-cd0d-4547-8128-b6626c66bb19-parameters"
        }
      }, {
        "url": "http://hl7.org/fhir/us/cqfmeasures/StructureDefinition/cqfm-testCaseDescription",
        "valueMarkdown": "Patient has two qualifying encounters, HF diagnosis and LVSD history, is not prescribed/taking ACE/ARB medication because of patient reason instead of medication reason"
      } ],
      "modifierExtension": [ {
        "url": "http://hl7.org/fhir/us/cqfmeasures/StructureDefinition/cqfm-isTestCase",
        "valueBoolean": true
      } ],
      "status": "complete",
      "type": "individual",
      "measure": "https://madie.cms.gov/Measure/CMS135FHIRACEIorARBorARNIforHF",
      "period": {
        "start": "2026-01-01",
        "end": "2026-12-31"
      },
      "group": [ {
        "id": "Group_1",
        "population": [ {
          "id": "InitialPopulation_1",
          "code": {
            "coding": [ {
              "system": "http://terminology.hl7.org/CodeSystem/measure-population",
              "code": "initial-population",
              "display": "Initial Population"
            } ]
          },
          "count": 1
        }, {
          "id": "Denominator_1",
          "code": {
            "coding": [ {
              "system": "http://terminology.hl7.org/CodeSystem/measure-population",
              "code": "denominator",
              "display": "Denominator"
            } ]
          },
          "count": 1
        }, {
          "id": "DenominatorExclusion_1",
          "code": {
            "coding": [ {
              "system": "http://terminology.hl7.org/CodeSystem/measure-population",
              "code": "denominator-exclusion",
              "display": "Denominator Exclusion"
            } ]
          },
          "count": 0
        }, {
          "id": "Numerator_1",
          "code": {
            "coding": [ {
              "system": "http://terminology.hl7.org/CodeSystem/measure-population",
              "code": "numerator",
              "display": "Numerator"
            } ]
          },
          "count": 0
        }, {
          "id": "DenominatorException_1",
          "code": {
            "coding": [ {
              "system": "http://terminology.hl7.org/CodeSystem/measure-population",
              "code": "denominator-exception",
              "display": "Denominator Exception"
            } ]
          },
          "count": 1
        } ],
        "measureScore": {
          "value": 1.0
        }
      } ],
      "evaluatedResource": [ {
        "reference": "Patient/149c3a7c-2b80-47f8-b50d-5c1d233eedb7"
      }, {
        "reference": "MedicationRequest/67202568-7f1f-4c3e-a2e3-1c419250f089"
      }, {
        "reference": "Encounter/5fa22d44-fc18-4930-b962-684eb069be28"
      }, {
        "reference": "Encounter/25144405-5c61-4628-a9a7-398f86d6e361"
      }, {
        "reference": "Condition/d9c33f07-c64f-4a62-8c88-b9a5ce7b580d"
      }, {
        "reference": "Condition/2e1a6743-23b4-4fc8-b76f-a2ee09d18cde"
      } ]
    }
  } ]
}