{
  "resourceType": "Bundle",
  "id": "612e6e9602c62a011f2eef45",
  "type": "transaction",
  "entry": [ {
    "fullUrl": "https://madie.cms.gov/Patient/1242acd7-1a2b-4588-8d23-ea4f3dc1e0d5",
    "resource": {
      "resourceType": "Patient",
      "id": "1242acd7-1a2b-4588-8d23-ea4f3dc1e0d5",
      "meta": {
        "profile": [ "http://hl7.org/fhir/us/qicore/StructureDefinition/qicore-patient" ]
      },
      "text": {
        "status": "generated",
        "div": "<div xmlns=\"http://www.w3.org/1999/xhtml\"><div class=\"hapiHeaderText\">UrologicalSurgeryNotPrin <b>DENEXFAIL </b></div><table class=\"hapiPropertyTable\"><tbody><tr><td>Identifier</td><td>134283073c75bbb3c7689c5516f3a169</td></tr><tr><td>Date of birth</td><td><span>03 March 1974</span></td></tr></tbody></table></div>"
      },
      "extension": [ {
        "url": "http://hl7.org/fhir/us/core/StructureDefinition/us-core-race",
        "extension": [ {
          "url": "ombCategory",
          "valueCoding": {
            "system": "urn:oid:2.16.840.1.113883.6.238",
            "code": "1002-5",
            "display": "American Indian or Alaska Native",
            "userSelected": true
          }
        }, {
          "url": "text",
          "valueString": "American Indian or Alaska Native"
        } ]
      }, {
        "url": "http://hl7.org/fhir/us/core/StructureDefinition/us-core-ethnicity",
        "extension": [ {
          "url": "ombCategory",
          "valueCoding": {
            "system": "urn:oid:2.16.840.1.113883.6.238",
            "code": "2135-2",
            "display": "Hispanic or Latino",
            "userSelected": true
          }
        }, {
          "url": "text",
          "valueString": "Hispanic or Latino"
        } ]
      } ],
      "identifier": [ {
        "type": {
          "coding": [ {
            "system": "http://terminology.hl7.org/CodeSystem/v2-0203",
            "code": "MR"
          } ]
        },
        "system": "https://bonnie-fhir.healthit.gov/",
        "value": "612e6e9602c62a011f2eef45"
      } ],
      "active": true,
      "name": [ {
        "use": "usual",
        "family": "DENEXFail",
        "given": [ "UrologicalSurgeryNotPrin" ]
      } ],
      "gender": "female",
      "birthDate": "1975-03-03"
    },
    "request": {
      "method": "PUT",
      "url": "Patient/1242acd7-1a2b-4588-8d23-ea4f3dc1e0d5"
    }
  }, {
    "fullUrl": "https://madie.cms.gov/Encounter/2aee9fc9-24c9-4357-993b-86fc9bf976f9",
    "resource": {
      "resourceType": "Encounter",
      "id": "2aee9fc9-24c9-4357-993b-86fc9bf976f9",
      "meta": {
        "profile": [ "http://hl7.org/fhir/us/qicore/StructureDefinition/qicore-encounter" ]
      },
      "status": "finished",
      "class": {
        "system": "http://terminology.hl7.org/CodeSystem/v3-ActCode",
        "code": "IMP",
        "display": "inpatient encounter"
      },
      "type": [ {
        "coding": [ {
          "system": "http://snomed.info/sct",
          "code": "8715000"
        } ]
      } ],
      "subject": {
        "reference": "Patient/1242acd7-1a2b-4588-8d23-ea4f3dc1e0d5"
      },
      "period": {
        "start": "2026-12-04T08:00:00.000+00:00",
        "end": "2026-12-30T08:15:00.000+00:00"
      },
      "length": {
        "value": 26.0,
        "unit": "days"
      },
      "location": [ {
        "location": {
          "reference": "Location/0651ec4f-8e52-43df-8e5d-98897b05df79"
        },
        "period": {
          "start": "2026-12-06T08:00:00.000+00:00",
          "end": "2026-12-08T08:15:00.000+00:00"
        }
      } ]
    },
    "request": {
      "method": "PUT",
      "url": "Encounter/2aee9fc9-24c9-4357-993b-86fc9bf976f9"
    }
  }, {
    "fullUrl": "https://madie.cms.gov/Coverage/ab86c96e-acc3-42a6-ac62-f4c8a4c2f037",
    "resource": {
      "resourceType": "Coverage",
      "id": "ab86c96e-acc3-42a6-ac62-f4c8a4c2f037",
      "status": "active",
      "beneficiary": {
        "reference": "Patient/1242acd7-1a2b-4588-8d23-ea4f3dc1e0d5"
      },
      "period": {
        "start": "1975-03-03T08:00:00.000+00:00"
      },
      "payor": [ {
        "reference": "Organization/6324f036-396f-46a7-82cd-be6e8eed6072"
      } ]
    },
    "request": {
      "method": "PUT",
      "url": "Coverage/ab86c96e-acc3-42a6-ac62-f4c8a4c2f037"
    }
  }, {
    "fullUrl": "https://madie.cms.gov/Procedure/52ecca2f-bb15-4753-93f4-65a741cd303d",
    "resource": {
      "resourceType": "Procedure",
      "id": "52ecca2f-bb15-4753-93f4-65a741cd303d",
      "meta": {
        "profile": [ "http://hl7.org/fhir/us/qicore/StructureDefinition/qicore-procedure" ]
      },
      "extension": [ {
        "url": "http://hl7.org/fhir/us/qicore/StructureDefinition/qicore-recorded",
        "valueDateTime": "2013-12-06T13:35:00.000+00:00"
      } ],
      "status": "completed",
      "code": {
        "coding": [ {
          "system": "http://snomed.info/sct",
          "code": "533005"
        } ]
      },
      "subject": {
        "reference": "Patient/1242acd7-1a2b-4588-8d23-ea4f3dc1e0d5"
      },
      "performedPeriod": {
        "start": "2026-12-06T08:15:00.000+00:00",
        "end": "2026-12-06T11:15:00.000+00:00"
      }
    },
    "request": {
      "method": "PUT",
      "url": "Procedure/52ecca2f-bb15-4753-93f4-65a741cd303d"
    }
  }, {
    "fullUrl": "https://madie.cms.gov/Location/0651ec4f-8e52-43df-8e5d-98897b05df79",
    "resource": {
      "resourceType": "Location",
      "id": "0651ec4f-8e52-43df-8e5d-98897b05df79",
      "meta": {
        "profile": [ "http://hl7.org/fhir/us/qicore/StructureDefinition/qicore-location" ]
      },
      "identifier": [ {
        "use": "usual",
        "system": "http://exampleoflocation.com",
        "value": "B1-S.F2"
      } ],
      "name": "Medical Surgical East, first floor",
      "type": [ {
        "coding": [ {
          "system": "https://www.cdc.gov/nhsn/cdaportal/terminology/codesystem/hsloc.html",
          "code": "1025-6",
          "display": "Trauma Critical Care",
          "userSelected": true
        } ]
      } ]
    },
    "request": {
      "method": "PUT",
      "url": "Location/0651ec4f-8e52-43df-8e5d-98897b05df79"
    }
  }, {
    "fullUrl": "https://madie.cms.gov/Organization/6324f036-396f-46a7-82cd-be6e8eed6072",
    "resource": {
      "resourceType": "Organization",
      "id": "6324f036-396f-46a7-82cd-be6e8eed6072",
      "meta": {
        "profile": [ "http://hl7.org/fhir/us/qicore/StructureDefinition/qicore-organization" ]
      },
      "identifier": [ {
        "use": "temp",
        "system": "urn:oid:2.16.840.1.113883.4.4",
        "value": "21-3259825"
      } ],
      "active": true,
      "type": [ {
        "coding": [ {
          "system": "http://terminology.hl7.org/CodeSystem/organization-type",
          "code": "pay",
          "display": "Payer"
        } ]
      } ],
      "name": "Blue Cross Blue Shield of Texas",
      "telecom": [ {
        "system": "phone",
        "value": "(+1) 972-766-6900"
      } ],
      "address": [ {
        "use": "billing",
        "type": "postal",
        "line": [ "P.O. Box 660044" ],
        "city": "Dallas",
        "state": "TX",
        "postalCode": "75266-0044",
        "country": "USA"
      } ]
    },
    "request": {
      "method": "PUT",
      "url": "Organization/6324f036-396f-46a7-82cd-be6e8eed6072"
    }
  }, {
    "fullUrl": "https://madie.cms.gov/Practitioner/1d9d6d6a-b7ea-4385-9c46-9b681d99a1a3",
    "resource": {
      "resourceType": "Practitioner",
      "id": "1d9d6d6a-b7ea-4385-9c46-9b681d99a1a3",
      "identifier": [ {
        "system": "http://hl7.org/fhir/sid/us-npi",
        "value": "123456"
      } ],
      "name": [ {
        "family": "Evil",
        "prefix": [ "Dr" ]
      } ]
    },
    "request": {
      "method": "PUT",
      "url": "Practitioner/1d9d6d6a-b7ea-4385-9c46-9b681d99a1a3"
    }
  }, {
    "fullUrl": "https://madie.cms.gov/MeasureReport/6925f3cd-5104-4cb7-ac31-3907fe55cd5c",
    "resource": {
      "resourceType": "MeasureReport",
      "id": "6925f3cd-5104-4cb7-ac31-3907fe55cd5c",
      "meta": {
        "profile": [ "http://hl7.org/fhir/us/cqfmeasures/StructureDefinition/test-case-cqfm" ]
      },
      "contained": [ {
        "resourceType": "Parameters",
        "id": "b499b299-454b-4ad2-bd8d-cf9352df30f4-parameters",
        "parameter": [ {
          "name": "subject",
          "valueString": "1242acd7-1a2b-4588-8d23-ea4f3dc1e0d5"
        } ]
      } ],
      "extension": [ {
        "url": "http://hl7.org/fhir/StructureDefinition/cqf-inputParameters",
        "valueReference": {
          "reference": "#b499b299-454b-4ad2-bd8d-cf9352df30f4-parameters"
        }
      }, {
        "url": "http://hl7.org/fhir/us/cqfmeasures/StructureDefinition/cqfm-testCaseDescription",
        "valueMarkdown": "Px urological surgery not principal\n"
      } ],
      "modifierExtension": [ {
        "url": "http://hl7.org/fhir/us/cqfmeasures/StructureDefinition/cqfm-isTestCase",
        "valueBoolean": true
      } ],
      "status": "complete",
      "type": "individual",
      "measure": "https://madie.cms.gov/Measure/CMS190FHIRVTEProphylaxisICU",
      "period": {
        "start": "2026-01-01",
        "end": "2026-12-31"
      },
      "group": [ {
        "id": "Group_1",
        "population": [ {
          "id": "InitialPopulation_1",
          "code": {
            "coding": [ {
              "system": "http://terminology.hl7.org/CodeSystem/measure-population",
              "code": "initial-population",
              "display": "Initial Population"
            } ]
          },
          "count": 1
        }, {
          "id": "Denominator_1",
          "code": {
            "coding": [ {
              "system": "http://terminology.hl7.org/CodeSystem/measure-population",
              "code": "denominator",
              "display": "Denominator"
            } ]
          },
          "count": 1
        }, {
          "id": "DenominatorExclusion_1",
          "code": {
            "coding": [ {
              "system": "http://terminology.hl7.org/CodeSystem/measure-population",
              "code": "denominator-exclusion",
              "display": "Denominator Exclusion"
            } ]
          },
          "count": 0
        }, {
          "id": "Numerator_1",
          "code": {
            "coding": [ {
              "system": "http://terminology.hl7.org/CodeSystem/measure-population",
              "code": "numerator",
              "display": "Numerator"
            } ]
          },
          "count": 0
        }, {
          "id": "DenominatorException_1",
          "code": {
            "coding": [ {
              "system": "http://terminology.hl7.org/CodeSystem/measure-population",
              "code": "denominator-exception",
              "display": "Denominator Exception"
            } ]
          },
          "count": 0
        } ],
        "measureScore": {
          "value": 0.0
        }
      } ],
      "evaluatedResource": [ {
        "reference": "Patient/1242acd7-1a2b-4588-8d23-ea4f3dc1e0d5"
      }, {
        "reference": "Encounter/2aee9fc9-24c9-4357-993b-86fc9bf976f9"
      }, {
        "reference": "Coverage/ab86c96e-acc3-42a6-ac62-f4c8a4c2f037"
      }, {
        "reference": "Procedure/52ecca2f-bb15-4753-93f4-65a741cd303d"
      }, {
        "reference": "Location/0651ec4f-8e52-43df-8e5d-98897b05df79"
      }, {
        "reference": "Organization/6324f036-396f-46a7-82cd-be6e8eed6072"
      }, {
        "reference": "Practitioner/1d9d6d6a-b7ea-4385-9c46-9b681d99a1a3"
      } ]
    },
    "request": {
      "method": "PUT",
      "url": "MeasureReport/6925f3cd-5104-4cb7-ac31-3907fe55cd5c"
    }
  } ]
}