{
  "resourceType": "Bundle",
  "id": "6419dca79c0269a68225bb41",
  "type": "transaction",
  "entry": [ {
    "fullUrl": "https://madie.cms.gov/Patient/9efd63da-2bbd-4211-ae3e-d5a6bb6a726a",
    "resource": {
      "resourceType": "Patient",
      "id": "9efd63da-2bbd-4211-ae3e-d5a6bb6a726a",
      "meta": {
        "profile": [ "http://hl7.org/fhir/us/qicore/StructureDefinition/qicore-patient" ]
      },
      "extension": [ {
        "url": "http://hl7.org/fhir/us/core/StructureDefinition/us-core-race",
        "extension": [ {
          "url": "ombCategory",
          "valueCoding": {
            "system": "urn:oid:2.16.840.1.113883.6.238",
            "code": "2106-3",
            "display": "White",
            "userSelected": true
          }
        }, {
          "url": "text",
          "valueString": "White"
        } ]
      }, {
        "url": "http://hl7.org/fhir/us/core/StructureDefinition/us-core-ethnicity",
        "extension": [ {
          "url": "ombCategory",
          "valueCoding": {
            "system": "urn:oid:2.16.840.1.113883.6.238",
            "code": "2186-5",
            "display": "Not Hispanic or Latino",
            "userSelected": true
          }
        }, {
          "url": "text",
          "valueString": "Not Hispanic or Latino"
        } ]
      }, {
        "url": "http://hl7.org/fhir/us/core/StructureDefinition/us-core-sex",
        "valueCode": "248152002"
      } ],
      "identifier": [ {
        "type": {
          "coding": [ {
            "system": "http://terminology.hl7.org/CodeSystem/v2-0203",
            "code": "MR"
          } ]
        },
        "system": "https://bonnie-fhir.healthit.gov/",
        "value": "6419dca79c0269a68225bb41"
      } ],
      "name": [ {
        "family": "1IPPass",
        "given": [ "STEMIStartsDuringEndsDuringEnc" ]
      } ],
      "gender": "female",
      "birthDate": "1985-12-02"
    },
    "request": {
      "method": "PUT",
      "url": "Patient/9efd63da-2bbd-4211-ae3e-d5a6bb6a726a"
    }
  }, {
    "fullUrl": "https://madie.cms.gov/Encounter/f9314044-fb73-43d2-9a6e-bbe5b41187db",
    "resource": {
      "resourceType": "Encounter",
      "id": "f9314044-fb73-43d2-9a6e-bbe5b41187db",
      "meta": {
        "profile": [ "http://hl7.org/fhir/us/qicore/StructureDefinition/qicore-encounter" ]
      },
      "status": "finished",
      "class": {
        "system": "http://terminology.hl7.org/CodeSystem/v3-ActCode",
        "code": "EMER",
        "display": "emergency",
        "userSelected": true
      },
      "type": [ {
        "coding": [ {
          "system": "http://snomed.info/sct",
          "version": "2020-09",
          "code": "4525004",
          "display": "Emergency department patient visit (procedure)",
          "userSelected": true
        } ]
      } ],
      "subject": {
        "reference": "Patient/9efd63da-2bbd-4211-ae3e-d5a6bb6a726a"
      },
      "period": {
        "start": "2026-10-09T08:05:00.000+00:00",
        "end": "2026-10-10T07:15:00.000+00:00"
      },
      "reasonReference": [ {
        "reference": "Condition/9cfe18d4-be73-431c-8059-104e5899df5a"
      } ]
    },
    "request": {
      "method": "PUT",
      "url": "Encounter/f9314044-fb73-43d2-9a6e-bbe5b41187db"
    }
  }, {
    "fullUrl": "https://madie.cms.gov/Condition/9cfe18d4-be73-431c-8059-104e5899df5a",
    "resource": {
      "resourceType": "Condition",
      "id": "9cfe18d4-be73-431c-8059-104e5899df5a",
      "meta": {
        "profile": [ "http://hl7.org/fhir/us/qicore/StructureDefinition/qicore-condition-encounter-diagnosis" ]
      },
      "clinicalStatus": {
        "coding": [ {
          "system": "http://terminology.hl7.org/CodeSystem/condition-clinical",
          "code": "active",
          "display": "active",
          "userSelected": true
        } ]
      },
      "verificationStatus": {
        "coding": [ {
          "system": "http://terminology.hl7.org/CodeSystem/condition-ver-status",
          "code": "confirmed",
          "display": "confirmed",
          "userSelected": true
        } ]
      },
      "category": [ {
        "coding": [ {
          "system": "http://terminology.hl7.org/CodeSystem/condition-category",
          "code": "encounter-diagnosis",
          "display": "Encounter Diagnosis",
          "userSelected": true
        } ]
      } ],
      "code": {
        "coding": [ {
          "system": "http://hl7.org/fhir/sid/icd-10-cm",
          "code": "I21.19",
          "userSelected": true
        } ]
      },
      "subject": {
        "reference": "Patient/9efd63da-2bbd-4211-ae3e-d5a6bb6a726a"
      },
      "encounter": {
        "reference": "Encounter/f9314044-fb73-43d2-9a6e-bbe5b41187db"
      },
      "onsetDateTime": "2026-10-09T08:07:00.000+00:00"
    },
    "request": {
      "method": "PUT",
      "url": "Condition/9cfe18d4-be73-431c-8059-104e5899df5a"
    }
  }, {
    "fullUrl": "https://madie.cms.gov/Coverage/e66728f7-216d-4731-8ef5-eec817779fc2",
    "resource": {
      "resourceType": "Coverage",
      "id": "e66728f7-216d-4731-8ef5-eec817779fc2",
      "meta": {
        "profile": [ "http://hl7.org/fhir/us/qicore/StructureDefinition/qicore-coverage" ]
      },
      "identifier": [ {
        "type": {
          "coding": [ {
            "system": "http://terminology.hl7.org/CodeSystem/v2-0203",
            "code": "MB"
          } ]
        }
      } ],
      "status": "active",
      "beneficiary": {
        "reference": "Patient/9efd63da-2bbd-4211-ae3e-d5a6bb6a726a"
      },
      "relationship": {
        "coding": [ {
          "system": "http://terminology.hl7.org/CodeSystem/subscriber-relationship",
          "code": "self"
        } ]
      },
      "payor": [ {
        "reference": "Organization/c629bf1b-68b7-4d40-a3a2-347a3c416a9f"
      } ]
    },
    "request": {
      "method": "PUT",
      "url": "Coverage/e66728f7-216d-4731-8ef5-eec817779fc2"
    }
  }, {
    "fullUrl": "https://madie.cms.gov/Organization/c629bf1b-68b7-4d40-a3a2-347a3c416a9f",
    "resource": {
      "resourceType": "Organization",
      "id": "c629bf1b-68b7-4d40-a3a2-347a3c416a9f",
      "meta": {
        "profile": [ "http://hl7.org/fhir/us/qicore/StructureDefinition/qicore-organization" ]
      },
      "identifier": [ {
        "use": "temp",
        "system": "urn:oid:2.16.840.1.113883.4.4",
        "value": "21-3259825"
      } ],
      "active": true,
      "type": [ {
        "coding": [ {
          "system": "http://terminology.hl7.org/CodeSystem/organization-type",
          "code": "pay",
          "display": "Payer"
        } ]
      } ],
      "name": "Blue Cross Blue Shield of Texas",
      "telecom": [ {
        "system": "phone",
        "value": "(+1) 972-766-6900"
      } ],
      "address": [ {
        "use": "billing",
        "type": "postal",
        "line": [ "P.O. Box 660044" ],
        "city": "Dallas",
        "state": "TX",
        "postalCode": "75266-0044",
        "country": "USA"
      } ]
    },
    "request": {
      "method": "PUT",
      "url": "Organization/c629bf1b-68b7-4d40-a3a2-347a3c416a9f"
    }
  }, {
    "fullUrl": "https://madie.cms.gov/Practitioner/d7914914-1e52-440d-a7e3-3d56f443a1ac",
    "resource": {
      "resourceType": "Practitioner",
      "id": "d7914914-1e52-440d-a7e3-3d56f443a1ac",
      "meta": {
        "profile": [ "http://hl7.org/fhir/us/qicore/StructureDefinition/qicore-practitioner" ]
      },
      "identifier": [ {
        "system": "http://hl7.org/fhir/sid/us-npi",
        "value": "9999999896"
      } ],
      "name": [ {
        "family": "Evil",
        "prefix": [ "Dr" ]
      } ]
    },
    "request": {
      "method": "PUT",
      "url": "Practitioner/d7914914-1e52-440d-a7e3-3d56f443a1ac"
    }
  }, {
    "fullUrl": "https://madie.cms.gov/MeasureReport/d71b3ea0-f39e-4873-a2ce-c1414af94ba4",
    "resource": {
      "resourceType": "MeasureReport",
      "id": "d71b3ea0-f39e-4873-a2ce-c1414af94ba4",
      "meta": {
        "profile": [ "http://hl7.org/fhir/us/cqfmeasures/StructureDefinition/test-case-cqfm" ]
      },
      "contained": [ {
        "resourceType": "Parameters",
        "id": "8e19ed1a-96f2-4b07-816d-7ebc5bda0593-parameters",
        "parameter": [ {
          "name": "subject",
          "valueString": "9efd63da-2bbd-4211-ae3e-d5a6bb6a726a"
        } ]
      } ],
      "extension": [ {
        "url": "http://hl7.org/fhir/StructureDefinition/cqf-inputParameters",
        "valueReference": {
          "reference": "#8e19ed1a-96f2-4b07-816d-7ebc5bda0593-parameters"
        }
      }, {
        "url": "http://hl7.org/fhir/us/cqfmeasures/StructureDefinition/cqfm-testCaseDescription",
        "valueMarkdown": "Patient is over 18 years old and has an encounter during the MP and STEMI starts during and ends during Encounter "
      } ],
      "modifierExtension": [ {
        "url": "http://hl7.org/fhir/us/cqfmeasures/StructureDefinition/cqfm-isTestCase",
        "valueBoolean": true
      } ],
      "status": "complete",
      "type": "individual",
      "measure": "https://madie.cms.gov/Measure/CMS996FHIRAptTxforSTEMI",
      "period": {
        "start": "2026-01-01",
        "end": "2026-12-31"
      },
      "group": [ {
        "id": "Group_1",
        "population": [ {
          "id": "InitialPopulation_1",
          "code": {
            "coding": [ {
              "system": "http://terminology.hl7.org/CodeSystem/measure-population",
              "code": "initial-population",
              "display": "Initial Population"
            } ]
          },
          "count": 1
        }, {
          "id": "Denominator_1",
          "code": {
            "coding": [ {
              "system": "http://terminology.hl7.org/CodeSystem/measure-population",
              "code": "denominator",
              "display": "Denominator"
            } ]
          },
          "count": 1
        }, {
          "id": "DenominatorExclusion_1",
          "code": {
            "coding": [ {
              "system": "http://terminology.hl7.org/CodeSystem/measure-population",
              "code": "denominator-exclusion",
              "display": "Denominator Exclusion"
            } ]
          },
          "count": 0
        }, {
          "id": "Numerator_1",
          "code": {
            "coding": [ {
              "system": "http://terminology.hl7.org/CodeSystem/measure-population",
              "code": "numerator",
              "display": "Numerator"
            } ]
          },
          "count": 0
        }, {
          "id": "DenominatorException_1",
          "code": {
            "coding": [ {
              "system": "http://terminology.hl7.org/CodeSystem/measure-population",
              "code": "denominator-exception",
              "display": "Denominator Exception"
            } ]
          },
          "count": 0
        } ],
        "measureScore": {
          "value": 0.0
        }
      } ],
      "evaluatedResource": [ {
        "reference": "Patient/9efd63da-2bbd-4211-ae3e-d5a6bb6a726a"
      }, {
        "reference": "Encounter/f9314044-fb73-43d2-9a6e-bbe5b41187db"
      }, {
        "reference": "Condition/9cfe18d4-be73-431c-8059-104e5899df5a"
      }, {
        "reference": "Coverage/e66728f7-216d-4731-8ef5-eec817779fc2"
      }, {
        "reference": "Organization/c629bf1b-68b7-4d40-a3a2-347a3c416a9f"
      }, {
        "reference": "Practitioner/d7914914-1e52-440d-a7e3-3d56f443a1ac"
      } ]
    },
    "request": {
      "method": "PUT",
      "url": "MeasureReport/d71b3ea0-f39e-4873-a2ce-c1414af94ba4"
    }
  } ]
}