{
  "resourceType": "Bundle",
  "id": "64998351cea95c34d9e5774b",
  "type": "collection",
  "entry": [ {
    "fullUrl": "https://madie.cms.gov/Patient/6f46bfc8-e7b3-45a2-82ae-896144b2aebd",
    "resource": {
      "resourceType": "Patient",
      "id": "6f46bfc8-e7b3-45a2-82ae-896144b2aebd",
      "meta": {
        "profile": [ "http://hl7.org/fhir/us/qicore/StructureDefinition/qicore-patient" ]
      },
      "extension": [ {
        "url": "http://hl7.org/fhir/us/core/StructureDefinition/us-core-race",
        "extension": [ {
          "url": "ombCategory",
          "valueCoding": {
            "system": "urn:oid:2.16.840.1.113883.6.238",
            "code": "2076-8",
            "display": "Native Hawaiian or Other Pacific Islander",
            "userSelected": true
          }
        }, {
          "url": "text",
          "valueString": "Native Hawaiian or Other Pacific Islander"
        } ]
      }, {
        "url": "http://hl7.org/fhir/us/core/StructureDefinition/us-core-ethnicity",
        "extension": [ {
          "url": "ombCategory",
          "valueCoding": {
            "system": "urn:oid:2.16.840.1.113883.6.238",
            "code": "2186-5",
            "display": "Not Hispanic or Latino",
            "userSelected": true
          }
        }, {
          "url": "text",
          "valueString": "Not Hispanic or Latino"
        } ]
      } ],
      "identifier": [ {
        "type": {
          "coding": [ {
            "system": "http://terminology.hl7.org/CodeSystem/v2-0203",
            "code": "MR"
          } ]
        },
        "system": "https://bonnie-fhir.healthit.gov/",
        "value": "64998351cea95c34d9e5774b"
      } ],
      "name": [ {
        "family": "NumFail",
        "given": [ "2TestsduringMPBothOver" ]
      } ],
      "gender": "female",
      "birthDate": "1987-05-25"
    }
  }, {
    "fullUrl": "https://madie.cms.gov/Encounter/a49f1ced-f339-43e5-acde-41cb964dd605",
    "resource": {
      "resourceType": "Encounter",
      "id": "a49f1ced-f339-43e5-acde-41cb964dd605",
      "meta": {
        "profile": [ "http://hl7.org/fhir/us/qicore/StructureDefinition/qicore-encounter" ]
      },
      "status": "finished",
      "class": {
        "system": "http://terminology.hl7.org/CodeSystem/v3-ActCode",
        "code": "AMB",
        "display": "ambulatory"
      },
      "type": [ {
        "coding": [ {
          "system": "http://www.ama-assn.org/go/cpt",
          "version": "2023",
          "code": "99381",
          "display": "Initial comprehensive preventive medicine evaluation and management of an individual including an age and gender appropriate history, examination, counseling/anticipatory guidance/risk factor reduction interventions, and the ordering of laboratory/diagnostic procedures, new patient; infant (age younger than 1 year)",
          "userSelected": true
        } ]
      } ],
      "subject": {
        "reference": "Patient/6f46bfc8-e7b3-45a2-82ae-896144b2aebd"
      },
      "period": {
        "start": "2026-03-07T10:00:00.000+00:00",
        "end": "2026-03-07T10:30:00.000+00:00"
      }
    }
  }, {
    "fullUrl": "https://madie.cms.gov/Condition/10be7eb4-207b-4203-9008-8da02c7a5627",
    "resource": {
      "resourceType": "Condition",
      "id": "10be7eb4-207b-4203-9008-8da02c7a5627",
      "meta": {
        "profile": [ "http://hl7.org/fhir/us/qicore/StructureDefinition/qicore-condition-problems-health-concerns" ]
      },
      "clinicalStatus": {
        "coding": [ {
          "system": "http://terminology.hl7.org/CodeSystem/condition-clinical",
          "code": "active",
          "display": "active",
          "userSelected": true
        } ]
      },
      "category": [ {
        "coding": [ {
          "system": "http://terminology.hl7.org/CodeSystem/condition-category",
          "code": "problem-list-item",
          "display": "Problem List Item"
        } ]
      } ],
      "code": {
        "coding": [ {
          "system": "http://hl7.org/fhir/sid/icd-9-cm",
          "version": "2013",
          "code": "042",
          "display": "Human immunodeficiency virus [HIV] disease",
          "userSelected": true
        }, {
          "system": "http://snomed.info/sct",
          "version": "http://snomed.info/sct/731000124108/version/20250301",
          "code": "165816005",
          "userSelected": true
        } ]
      },
      "subject": {
        "reference": "Patient/6f46bfc8-e7b3-45a2-82ae-896144b2aebd"
      },
      "onsetDateTime": "2020-12-02T12:00:00.000+00:00",
      "recordedDate": "2020-12-02T12:00:00.000+00:00"
    }
  }, {
    "fullUrl": "https://madie.cms.gov/Observation/ad7c8ad1-4d28-4b9b-9dca-ede2c96bb979",
    "resource": {
      "resourceType": "Observation",
      "id": "ad7c8ad1-4d28-4b9b-9dca-ede2c96bb979",
      "meta": {
        "profile": [ "http://hl7.org/fhir/us/qicore/StructureDefinition/qicore-observation-lab" ]
      },
      "status": "final",
      "category": [ {
        "coding": [ {
          "system": "http://terminology.hl7.org/CodeSystem/observation-category",
          "code": "laboratory",
          "display": "Laboratory"
        } ]
      }, {
        "coding": [ {
          "system": "http://terminology.hl7.org/CodeSystem/observation-category",
          "code": "survey"
        } ]
      } ],
      "code": {
        "coding": [ {
          "system": "http://loinc.org",
          "version": "2.73",
          "code": "10351-5",
          "display": "HIV 1 RNA [Units/volume] (viral load) in Serum or Plasma by Probe with amplification",
          "userSelected": true
        } ]
      },
      "subject": {
        "reference": "Patient/6f46bfc8-e7b3-45a2-82ae-896144b2aebd"
      },
      "effectiveDateTime": "2026-03-07T08:00:00.000+00:00",
      "issued": "2026-03-07T08:00:00.000+00:00",
      "valueQuantity": {
        "value": 208,
        "unit": "{copies}/mL"
      }
    }
  }, {
    "fullUrl": "https://madie.cms.gov/Observation/77723ea3-35cf-425c-80cb-0db124d2ae40",
    "resource": {
      "resourceType": "Observation",
      "id": "77723ea3-35cf-425c-80cb-0db124d2ae40",
      "meta": {
        "profile": [ "http://hl7.org/fhir/us/qicore/StructureDefinition/qicore-observation-lab" ]
      },
      "status": "final",
      "category": [ {
        "coding": [ {
          "system": "http://terminology.hl7.org/CodeSystem/observation-category",
          "code": "laboratory",
          "display": "Laboratory"
        } ]
      }, {
        "coding": [ {
          "system": "http://terminology.hl7.org/CodeSystem/observation-category",
          "code": "survey"
        } ]
      } ],
      "code": {
        "coding": [ {
          "system": "http://loinc.org",
          "version": "2.73",
          "code": "10351-5",
          "display": "HIV 1 RNA [Units/volume] (viral load) in Serum or Plasma by Probe with amplification",
          "userSelected": true
        } ]
      },
      "subject": {
        "reference": "Patient/6f46bfc8-e7b3-45a2-82ae-896144b2aebd"
      },
      "effectiveDateTime": "2026-12-31T08:02:00.000+00:00",
      "issued": "2026-12-31T08:02:00.000+00:00",
      "valueQuantity": {
        "value": 212,
        "unit": "{copies}/mL"
      }
    }
  }, {
    "fullUrl": "https://madie.cms.gov/Coverage/36f2e6be-2345-41ea-aacc-e01a38e936a8",
    "resource": {
      "resourceType": "Coverage",
      "id": "36f2e6be-2345-41ea-aacc-e01a38e936a8",
      "meta": {
        "profile": [ "http://hl7.org/fhir/us/qicore/StructureDefinition/qicore-coverage" ]
      },
      "status": "active",
      "subscriberId": "123456",
      "beneficiary": {
        "reference": "Patient/6f46bfc8-e7b3-45a2-82ae-896144b2aebd"
      },
      "relationship": {
        "coding": [ {
          "system": "http://terminology.hl7.org/CodeSystem/subscriber-relationship",
          "code": "self",
          "display": "Self"
        } ]
      },
      "payor": [ {
        "reference": "Organization/06551ea6-5a43-4b4a-9fb6-2265318cbdc6"
      } ]
    }
  }, {
    "fullUrl": "https://madie.cms.gov/Organization/06551ea6-5a43-4b4a-9fb6-2265318cbdc6",
    "resource": {
      "resourceType": "Organization",
      "id": "06551ea6-5a43-4b4a-9fb6-2265318cbdc6",
      "meta": {
        "profile": [ "http://hl7.org/fhir/us/qicore/StructureDefinition/qicore-organization" ]
      },
      "identifier": [ {
        "use": "temp",
        "system": "urn:oid:2.16.840.1.113883.4.4",
        "value": "21-3259825"
      } ],
      "active": true,
      "type": [ {
        "coding": [ {
          "system": "http://terminology.hl7.org/CodeSystem/organization-type",
          "code": "pay",
          "display": "Payer"
        } ]
      } ],
      "name": "Blue Cross Blue Shield of Texas",
      "telecom": [ {
        "system": "phone",
        "value": "(+1) 972-766-6900"
      } ],
      "address": [ {
        "use": "billing",
        "type": "postal",
        "line": [ "P.O. Box 660044" ],
        "city": "Dallas",
        "state": "TX",
        "postalCode": "75266-0044",
        "country": "USA"
      } ]
    }
  }, {
    "fullUrl": "https://madie.cms.gov/Practitioner/4d58812e-85b2-41da-abf1-4b6dae73938b",
    "resource": {
      "resourceType": "Practitioner",
      "id": "4d58812e-85b2-41da-abf1-4b6dae73938b",
      "meta": {
        "profile": [ "http://hl7.org/fhir/us/qicore/StructureDefinition/qicore-practitioner" ]
      },
      "identifier": [ {
        "system": "http://hl7.org/fhir/sid/us-npi",
        "value": "1689411712"
      } ],
      "name": [ {
        "family": "Evil",
        "prefix": [ "Dr" ]
      } ]
    }
  }, {
    "fullUrl": "https://madie.cms.gov/MeasureReport/6cfa6c9b-7371-4020-a7cb-d4e1c418bc27",
    "resource": {
      "resourceType": "MeasureReport",
      "id": "6cfa6c9b-7371-4020-a7cb-d4e1c418bc27",
      "meta": {
        "profile": [ "http://hl7.org/fhir/us/cqfmeasures/StructureDefinition/test-case-cqfm" ]
      },
      "contained": [ {
        "resourceType": "Parameters",
        "id": "ac2c298b-ce5f-4db3-bd1b-31db0dd762e4-parameters",
        "parameter": [ {
          "name": "subject",
          "valueString": "6f46bfc8-e7b3-45a2-82ae-896144b2aebd"
        } ]
      } ],
      "extension": [ {
        "url": "http://hl7.org/fhir/StructureDefinition/cqf-inputParameters",
        "valueReference": {
          "reference": "#ac2c298b-ce5f-4db3-bd1b-31db0dd762e4-parameters"
        }
      }, {
        "url": "http://hl7.org/fhir/us/cqfmeasures/StructureDefinition/cqfm-testCaseDescription",
        "valueMarkdown": "Patient with a diagnosis of HIV years before start of the MP and a qualifying encounter during the MP with 2 tests during the MP, both with results over"
      } ],
      "modifierExtension": [ {
        "url": "http://hl7.org/fhir/us/cqfmeasures/StructureDefinition/cqfm-isTestCase",
        "valueBoolean": true
      } ],
      "status": "complete",
      "type": "individual",
      "measure": "https://madie.cms.gov/Measure/CMS314FHIRHIVViralSuppression",
      "period": {
        "start": "2026-01-01",
        "end": "2026-12-31"
      },
      "group": [ {
        "id": "Group_1",
        "population": [ {
          "id": "InitialPopulation_1",
          "code": {
            "coding": [ {
              "system": "http://terminology.hl7.org/CodeSystem/measure-population",
              "code": "initial-population",
              "display": "Initial Population"
            } ]
          },
          "count": 1
        }, {
          "id": "Denominator_1",
          "code": {
            "coding": [ {
              "system": "http://terminology.hl7.org/CodeSystem/measure-population",
              "code": "denominator",
              "display": "Denominator"
            } ]
          },
          "count": 1
        }, {
          "id": "Numerator_1",
          "code": {
            "coding": [ {
              "system": "http://terminology.hl7.org/CodeSystem/measure-population",
              "code": "numerator",
              "display": "Numerator"
            } ]
          },
          "count": 0
        } ],
        "measureScore": {
          "value": 1.0
        }
      } ],
      "evaluatedResource": [ {
        "reference": "Patient/6f46bfc8-e7b3-45a2-82ae-896144b2aebd"
      }, {
        "reference": "Encounter/a49f1ced-f339-43e5-acde-41cb964dd605"
      }, {
        "reference": "Condition/10be7eb4-207b-4203-9008-8da02c7a5627"
      }, {
        "reference": "Observation/ad7c8ad1-4d28-4b9b-9dca-ede2c96bb979"
      }, {
        "reference": "Observation/77723ea3-35cf-425c-80cb-0db124d2ae40"
      }, {
        "reference": "Coverage/36f2e6be-2345-41ea-aacc-e01a38e936a8"
      }, {
        "reference": "Organization/06551ea6-5a43-4b4a-9fb6-2265318cbdc6"
      }, {
        "reference": "Practitioner/4d58812e-85b2-41da-abf1-4b6dae73938b"
      } ]
    }
  } ]
}