{
  "resourceType": "Bundle",
  "id": "612e6f1402c62a011f2f0ad8",
  "type": "transaction",
  "entry": [ {
    "fullUrl": "https://madie.cms.gov/Patient/826c9710-2145-46df-bdcf-c3ba77b46533",
    "resource": {
      "resourceType": "Patient",
      "id": "826c9710-2145-46df-bdcf-c3ba77b46533",
      "meta": {
        "profile": [ "http://hl7.org/fhir/us/qicore/StructureDefinition/qicore-patient" ]
      },
      "text": {
        "status": "generated",
        "div": "<div xmlns=\"http://www.w3.org/1999/xhtml\"><div class=\"hapiHeaderText\">EncDxObstetrics <b>IPFAIL </b></div><table class=\"hapiPropertyTable\"><tbody><tr><td>Identifier</td><td>73dfd43c47660281c0a5408728e85897</td></tr><tr><td>Date of birth</td><td><span>03 March 1974</span></td></tr></tbody></table></div>"
      },
      "extension": [ {
        "url": "http://hl7.org/fhir/us/core/StructureDefinition/us-core-race",
        "extension": [ {
          "url": "ombCategory",
          "valueCoding": {
            "system": "urn:oid:2.16.840.1.113883.6.238",
            "code": "1002-5",
            "display": "American Indian or Alaska Native",
            "userSelected": true
          }
        }, {
          "url": "text",
          "valueString": "American Indian or Alaska Native"
        } ]
      }, {
        "url": "http://hl7.org/fhir/us/core/StructureDefinition/us-core-ethnicity",
        "extension": [ {
          "url": "ombCategory",
          "valueCoding": {
            "system": "urn:oid:2.16.840.1.113883.6.238",
            "code": "2186-5",
            "display": "Not Hispanic or Latino",
            "userSelected": true
          }
        }, {
          "url": "text",
          "valueString": "Not Hispanic or Latino"
        } ]
      } ],
      "identifier": [ {
        "type": {
          "coding": [ {
            "system": "http://terminology.hl7.org/CodeSystem/v2-0203",
            "code": "MR"
          } ]
        },
        "system": "https://bonnie-fhir.healthit.gov/",
        "value": "612e6f1402c62a011f2f0ad8"
      } ],
      "active": true,
      "name": [ {
        "use": "usual",
        "family": "IPFail",
        "given": [ "EncDxObstetricsWRef" ]
      } ],
      "gender": "female",
      "birthDate": "1975-03-03"
    },
    "request": {
      "method": "PUT",
      "url": "Patient/826c9710-2145-46df-bdcf-c3ba77b46533"
    }
  }, {
    "fullUrl": "https://madie.cms.gov/Encounter/bbb24a04-520a-41ea-ac64-5d60d37b811e",
    "resource": {
      "resourceType": "Encounter",
      "id": "bbb24a04-520a-41ea-ac64-5d60d37b811e",
      "meta": {
        "profile": [ "http://hl7.org/fhir/us/qicore/StructureDefinition/qicore-encounter" ]
      },
      "status": "finished",
      "class": {
        "system": "http://terminology.hl7.org/CodeSystem/v3-ActCode",
        "code": "IMP",
        "display": "inpatient encounter"
      },
      "type": [ {
        "coding": [ {
          "system": "http://snomed.info/sct",
          "code": "8715000"
        } ]
      } ],
      "subject": {
        "reference": "Patient/826c9710-2145-46df-bdcf-c3ba77b46533"
      },
      "period": {
        "start": "2026-12-04T08:00:00.000+00:00",
        "end": "2026-12-30T08:15:00.000+00:00"
      },
      "length": {
        "value": 26,
        "unit": "days"
      },
      "reasonReference": [ {
        "reference": "Condition/462a6bb0-b961-4daf-a53f-e9c73265ac35"
      } ],
      "location": [ {
        "location": {
          "reference": "Location/719338e8-379b-4244-8af9-e1df405d65a7"
        },
        "period": {
          "start": "2026-12-06T08:00:00.000+00:00",
          "end": "2026-12-08T08:15:00.000+00:00"
        }
      } ]
    },
    "request": {
      "method": "PUT",
      "url": "Encounter/bbb24a04-520a-41ea-ac64-5d60d37b811e"
    }
  }, {
    "fullUrl": "https://madie.cms.gov/Coverage/604c9001-1db1-45d8-9271-f2c4549fe495",
    "resource": {
      "resourceType": "Coverage",
      "id": "604c9001-1db1-45d8-9271-f2c4549fe495",
      "status": "active",
      "beneficiary": {
        "reference": "Patient/826c9710-2145-46df-bdcf-c3ba77b46533"
      },
      "period": {
        "start": "1975-03-03T08:00:00.000+00:00"
      },
      "payor": [ {
        "reference": "Organization/d3e05423-a8f5-4b5f-b642-e4570dbd3304"
      } ]
    },
    "request": {
      "method": "PUT",
      "url": "Coverage/604c9001-1db1-45d8-9271-f2c4549fe495"
    }
  }, {
    "fullUrl": "https://madie.cms.gov/Condition/462a6bb0-b961-4daf-a53f-e9c73265ac35",
    "resource": {
      "resourceType": "Condition",
      "id": "462a6bb0-b961-4daf-a53f-e9c73265ac35",
      "meta": {
        "profile": [ "http://hl7.org/fhir/us/qicore/StructureDefinition/qicore-condition-encounter-diagnosis" ]
      },
      "category": [ {
        "coding": [ {
          "system": "http://terminology.hl7.org/CodeSystem/condition-category",
          "code": "encounter-diagnosis",
          "display": "Encounter Diagnosis"
        } ]
      } ],
      "code": {
        "coding": [ {
          "system": "http://snomed.info/sct",
          "code": "10217006",
          "display": "Third degree perineal laceration (disorder)",
          "userSelected": true
        } ]
      },
      "subject": {
        "reference": "Patient/826c9710-2145-46df-bdcf-c3ba77b46533"
      },
      "recordedDate": "2026-09-09T08:00:00.000+00:00"
    },
    "request": {
      "method": "PUT",
      "url": "Condition/462a6bb0-b961-4daf-a53f-e9c73265ac35"
    }
  }, {
    "fullUrl": "https://madie.cms.gov/Location/719338e8-379b-4244-8af9-e1df405d65a7",
    "resource": {
      "resourceType": "Location",
      "id": "719338e8-379b-4244-8af9-e1df405d65a7",
      "meta": {
        "profile": [ "http://hl7.org/fhir/us/qicore/StructureDefinition/qicore-location" ]
      },
      "identifier": [ {
        "use": "usual",
        "system": "http://exampleoflocation.com",
        "value": "B1-S.F2"
      } ],
      "name": "Medical Surgical East, first floor",
      "type": [ {
        "coding": [ {
          "system": "https://www.cdc.gov/nhsn/cdaportal/terminology/codesystem/hsloc.html",
          "code": "1025-6",
          "display": "Trauma Critical Care",
          "userSelected": true
        } ]
      } ]
    },
    "request": {
      "method": "PUT",
      "url": "Location/719338e8-379b-4244-8af9-e1df405d65a7"
    }
  }, {
    "fullUrl": "https://madie.cms.gov/Organization/d3e05423-a8f5-4b5f-b642-e4570dbd3304",
    "resource": {
      "resourceType": "Organization",
      "id": "d3e05423-a8f5-4b5f-b642-e4570dbd3304",
      "meta": {
        "profile": [ "http://hl7.org/fhir/us/qicore/StructureDefinition/qicore-organization" ]
      },
      "identifier": [ {
        "use": "temp",
        "system": "urn:oid:2.16.840.1.113883.4.4",
        "value": "21-3259825"
      } ],
      "active": true,
      "type": [ {
        "coding": [ {
          "system": "http://terminology.hl7.org/CodeSystem/organization-type",
          "code": "pay",
          "display": "Payer"
        } ]
      } ],
      "name": "Blue Cross Blue Shield of Texas",
      "telecom": [ {
        "system": "phone",
        "value": "(+1) 972-766-6900"
      } ],
      "address": [ {
        "use": "billing",
        "type": "postal",
        "line": [ "P.O. Box 660044" ],
        "city": "Dallas",
        "state": "TX",
        "postalCode": "75266-0044",
        "country": "USA"
      } ]
    },
    "request": {
      "method": "PUT",
      "url": "Organization/d3e05423-a8f5-4b5f-b642-e4570dbd3304"
    }
  }, {
    "fullUrl": "https://madie.cms.gov/Practitioner/70d1345a-94dc-44e7-999c-3775553f2e3d",
    "resource": {
      "resourceType": "Practitioner",
      "id": "70d1345a-94dc-44e7-999c-3775553f2e3d",
      "identifier": [ {
        "system": "http://hl7.org/fhir/sid/us-npi",
        "value": "123456"
      } ],
      "name": [ {
        "family": "Evil",
        "prefix": [ "Dr" ]
      } ]
    },
    "request": {
      "method": "PUT",
      "url": "Practitioner/70d1345a-94dc-44e7-999c-3775553f2e3d"
    }
  }, {
    "fullUrl": "https://madie.cms.gov/MeasureReport/7089d706-90e3-447f-a607-30d29d7159a3",
    "resource": {
      "resourceType": "MeasureReport",
      "id": "7089d706-90e3-447f-a607-30d29d7159a3",
      "meta": {
        "profile": [ "http://hl7.org/fhir/us/cqfmeasures/StructureDefinition/test-case-cqfm" ]
      },
      "contained": [ {
        "resourceType": "Parameters",
        "id": "c052c5d2-cd13-4c34-95ac-c385090e9389-parameters",
        "parameter": [ {
          "name": "subject",
          "valueString": "826c9710-2145-46df-bdcf-c3ba77b46533"
        } ]
      } ],
      "extension": [ {
        "url": "http://hl7.org/fhir/StructureDefinition/cqf-inputParameters",
        "valueReference": {
          "reference": "#c052c5d2-cd13-4c34-95ac-c385090e9389-parameters"
        }
      }, {
        "url": "http://hl7.org/fhir/us/cqfmeasures/StructureDefinition/cqfm-testCaseDescription",
        "valueMarkdown": "To test if encounter DxObstetrics with DxReference . "
      } ],
      "modifierExtension": [ {
        "url": "http://hl7.org/fhir/us/cqfmeasures/StructureDefinition/cqfm-isTestCase",
        "valueBoolean": true
      } ],
      "status": "complete",
      "type": "individual",
      "measure": "https://madie.cms.gov/Measure/CMS190FHIRVTEProphylaxisICU",
      "period": {
        "start": "2026-01-01",
        "end": "2026-12-31"
      },
      "group": [ {
        "id": "Group_1",
        "population": [ {
          "id": "InitialPopulation_1",
          "code": {
            "coding": [ {
              "system": "http://terminology.hl7.org/CodeSystem/measure-population",
              "code": "initial-population",
              "display": "Initial Population"
            } ]
          },
          "count": 0
        }, {
          "id": "Denominator_1",
          "code": {
            "coding": [ {
              "system": "http://terminology.hl7.org/CodeSystem/measure-population",
              "code": "denominator",
              "display": "Denominator"
            } ]
          },
          "count": 0
        }, {
          "id": "DenominatorExclusion_1",
          "code": {
            "coding": [ {
              "system": "http://terminology.hl7.org/CodeSystem/measure-population",
              "code": "denominator-exclusion",
              "display": "Denominator Exclusion"
            } ]
          },
          "count": 0
        }, {
          "id": "Numerator_1",
          "code": {
            "coding": [ {
              "system": "http://terminology.hl7.org/CodeSystem/measure-population",
              "code": "numerator",
              "display": "Numerator"
            } ]
          },
          "count": 0
        }, {
          "id": "DenominatorException_1",
          "code": {
            "coding": [ {
              "system": "http://terminology.hl7.org/CodeSystem/measure-population",
              "code": "denominator-exception",
              "display": "Denominator Exception"
            } ]
          },
          "count": 0
        } ],
        "measureScore": {
          "value": 0.0
        }
      } ],
      "evaluatedResource": [ {
        "reference": "Patient/826c9710-2145-46df-bdcf-c3ba77b46533"
      }, {
        "reference": "Encounter/bbb24a04-520a-41ea-ac64-5d60d37b811e"
      }, {
        "reference": "Coverage/604c9001-1db1-45d8-9271-f2c4549fe495"
      }, {
        "reference": "Condition/462a6bb0-b961-4daf-a53f-e9c73265ac35"
      }, {
        "reference": "Location/719338e8-379b-4244-8af9-e1df405d65a7"
      }, {
        "reference": "Organization/d3e05423-a8f5-4b5f-b642-e4570dbd3304"
      }, {
        "reference": "Practitioner/70d1345a-94dc-44e7-999c-3775553f2e3d"
      } ]
    },
    "request": {
      "method": "PUT",
      "url": "MeasureReport/7089d706-90e3-447f-a607-30d29d7159a3"
    }
  } ]
}