{
  "resourceType": "Bundle",
  "id": "6499d7e01037008f66e1d7e0",
  "type": "collection",
  "entry": [ {
    "fullUrl": "https://madie.cms.gov/Patient/7ebb36aa-b8dc-4d22-9c09-3250684e3d30",
    "resource": {
      "resourceType": "Patient",
      "id": "7ebb36aa-b8dc-4d22-9c09-3250684e3d30",
      "meta": {
        "profile": [ "http://hl7.org/fhir/us/qicore/StructureDefinition/qicore-patient" ]
      },
      "extension": [ {
        "url": "http://hl7.org/fhir/us/core/StructureDefinition/us-core-race",
        "extension": [ {
          "url": "ombCategory",
          "valueCoding": {
            "system": "urn:oid:2.16.840.1.113883.6.238",
            "code": "2028-9",
            "display": "Asian",
            "userSelected": true
          }
        }, {
          "url": "text",
          "valueString": "Asian"
        } ]
      }, {
        "url": "http://hl7.org/fhir/us/core/StructureDefinition/us-core-ethnicity",
        "extension": [ {
          "url": "ombCategory",
          "valueCoding": {
            "system": "urn:oid:2.16.840.1.113883.6.238",
            "code": "2186-5",
            "display": "Not Hispanic or Latino",
            "userSelected": true
          }
        }, {
          "url": "text",
          "valueString": "Not Hispanic or Latino"
        } ]
      } ],
      "identifier": [ {
        "type": {
          "coding": [ {
            "system": "http://terminology.hl7.org/CodeSystem/v2-0203",
            "code": "MR"
          } ]
        },
        "system": "https://bonnie-fhir.healthit.gov/",
        "value": "6499d7e01037008f66e1d7e0"
      } ],
      "name": [ {
        "family": "NumPass",
        "given": [ "VLTestDec31ofMPResult199" ]
      } ],
      "gender": "female",
      "birthDate": "1987-05-25"
    }
  }, {
    "fullUrl": "https://madie.cms.gov/Condition/12b80d31-4663-4763-913b-9af4e69158de",
    "resource": {
      "resourceType": "Condition",
      "id": "12b80d31-4663-4763-913b-9af4e69158de",
      "meta": {
        "profile": [ "http://hl7.org/fhir/us/qicore/StructureDefinition/qicore-condition-problems-health-concerns" ]
      },
      "clinicalStatus": {
        "coding": [ {
          "system": "http://terminology.hl7.org/CodeSystem/condition-clinical",
          "code": "active",
          "display": "active",
          "userSelected": true
        } ]
      },
      "category": [ {
        "coding": [ {
          "system": "http://terminology.hl7.org/CodeSystem/condition-category",
          "code": "problem-list-item",
          "display": "Problem List Item"
        } ]
      } ],
      "code": {
        "coding": [ {
          "system": "http://hl7.org/fhir/sid/icd-9-cm",
          "version": "2013",
          "code": "042",
          "display": "Human immunodeficiency virus [HIV] disease",
          "userSelected": true
        }, {
          "system": "http://snomed.info/sct",
          "version": "http://snomed.info/sct/731000124108/version/20250301",
          "code": "165816005",
          "userSelected": true
        } ]
      },
      "subject": {
        "reference": "Patient/7ebb36aa-b8dc-4d22-9c09-3250684e3d30"
      },
      "onsetDateTime": "2020-12-02T12:00:00.000+00:00",
      "recordedDate": "2020-12-02T12:00:00.000+00:00"
    }
  }, {
    "fullUrl": "https://madie.cms.gov/Observation/0de76ccc-89b4-408f-a73d-cdc564be736d",
    "resource": {
      "resourceType": "Observation",
      "id": "0de76ccc-89b4-408f-a73d-cdc564be736d",
      "meta": {
        "profile": [ "http://hl7.org/fhir/us/qicore/StructureDefinition/qicore-observation-lab" ]
      },
      "status": "final",
      "category": [ {
        "coding": [ {
          "system": "http://terminology.hl7.org/CodeSystem/observation-category",
          "code": "laboratory",
          "display": "Laboratory"
        } ]
      }, {
        "coding": [ {
          "system": "http://terminology.hl7.org/CodeSystem/observation-category",
          "code": "survey"
        } ]
      } ],
      "code": {
        "coding": [ {
          "system": "http://loinc.org",
          "version": "2.73",
          "code": "10351-5",
          "display": "HIV 1 RNA [Units/volume] (viral load) in Serum or Plasma by Probe with amplification",
          "userSelected": true
        } ]
      },
      "subject": {
        "reference": "Patient/7ebb36aa-b8dc-4d22-9c09-3250684e3d30"
      },
      "effectiveDateTime": "2026-12-31T09:02:00.000+00:00",
      "issued": "2026-12-31T09:02:00.000+00:00",
      "valueQuantity": {
        "value": 199,
        "unit": "{copies}/mL"
      }
    }
  }, {
    "fullUrl": "https://madie.cms.gov/Encounter/d8142151-d9db-4695-86cb-245d3c5770cd",
    "resource": {
      "resourceType": "Encounter",
      "id": "d8142151-d9db-4695-86cb-245d3c5770cd",
      "meta": {
        "profile": [ "http://hl7.org/fhir/us/qicore/StructureDefinition/qicore-encounter" ]
      },
      "status": "finished",
      "class": {
        "system": "http://terminology.hl7.org/CodeSystem/v3-ActCode",
        "code": "AMB",
        "display": "ambulatory"
      },
      "type": [ {
        "coding": [ {
          "system": "http://snomed.info/sct",
          "version": "2022-09",
          "code": "185460008",
          "display": "Home visit request by patient (procedure)",
          "userSelected": true
        } ]
      } ],
      "subject": {
        "reference": "Patient/7ebb36aa-b8dc-4d22-9c09-3250684e3d30"
      },
      "period": {
        "start": "2026-08-27T15:02:00.000+00:00",
        "end": "2026-08-27T15:55:00.000+00:00"
      }
    }
  }, {
    "fullUrl": "https://madie.cms.gov/Coverage/87f1526a-97b9-47d5-a702-0e812eecce1d",
    "resource": {
      "resourceType": "Coverage",
      "id": "87f1526a-97b9-47d5-a702-0e812eecce1d",
      "meta": {
        "profile": [ "http://hl7.org/fhir/us/qicore/StructureDefinition/qicore-coverage" ]
      },
      "status": "active",
      "subscriberId": "123456",
      "beneficiary": {
        "reference": "Patient/7ebb36aa-b8dc-4d22-9c09-3250684e3d30"
      },
      "relationship": {
        "coding": [ {
          "system": "http://terminology.hl7.org/CodeSystem/subscriber-relationship",
          "code": "self",
          "display": "Self"
        } ]
      },
      "payor": [ {
        "reference": "Organization/f6895233-3fa0-4942-bd11-26987b5866f9"
      } ]
    }
  }, {
    "fullUrl": "https://madie.cms.gov/Organization/f6895233-3fa0-4942-bd11-26987b5866f9",
    "resource": {
      "resourceType": "Organization",
      "id": "f6895233-3fa0-4942-bd11-26987b5866f9",
      "meta": {
        "profile": [ "http://hl7.org/fhir/us/qicore/StructureDefinition/qicore-organization" ]
      },
      "identifier": [ {
        "use": "temp",
        "system": "urn:oid:2.16.840.1.113883.4.4",
        "value": "21-3259825"
      } ],
      "active": true,
      "type": [ {
        "coding": [ {
          "system": "http://terminology.hl7.org/CodeSystem/organization-type",
          "code": "pay",
          "display": "Payer"
        } ]
      } ],
      "name": "Blue Cross Blue Shield of Texas",
      "telecom": [ {
        "system": "phone",
        "value": "(+1) 972-766-6900"
      } ],
      "address": [ {
        "use": "billing",
        "type": "postal",
        "line": [ "P.O. Box 660044" ],
        "city": "Dallas",
        "state": "TX",
        "postalCode": "75266-0044",
        "country": "USA"
      } ]
    }
  }, {
    "fullUrl": "https://madie.cms.gov/Practitioner/01a20cfa-e73a-4f27-91c0-82d83bb976c3",
    "resource": {
      "resourceType": "Practitioner",
      "id": "01a20cfa-e73a-4f27-91c0-82d83bb976c3",
      "meta": {
        "profile": [ "http://hl7.org/fhir/us/qicore/StructureDefinition/qicore-practitioner" ]
      },
      "identifier": [ {
        "system": "http://hl7.org/fhir/sid/us-npi",
        "value": "1689411712"
      } ],
      "name": [ {
        "family": "Evil",
        "prefix": [ "Dr" ]
      } ]
    }
  }, {
    "fullUrl": "https://madie.cms.gov/MeasureReport/e3facdfe-6d9e-4708-a48f-08af039ac10b",
    "resource": {
      "resourceType": "MeasureReport",
      "id": "e3facdfe-6d9e-4708-a48f-08af039ac10b",
      "meta": {
        "profile": [ "http://hl7.org/fhir/us/cqfmeasures/StructureDefinition/test-case-cqfm" ]
      },
      "contained": [ {
        "resourceType": "Parameters",
        "id": "b0302562-4a6b-4834-b6b1-0faed7d99513-parameters",
        "parameter": [ {
          "name": "subject",
          "valueString": "7ebb36aa-b8dc-4d22-9c09-3250684e3d30"
        } ]
      } ],
      "extension": [ {
        "url": "http://hl7.org/fhir/StructureDefinition/cqf-inputParameters",
        "valueReference": {
          "reference": "#b0302562-4a6b-4834-b6b1-0faed7d99513-parameters"
        }
      }, {
        "url": "http://hl7.org/fhir/us/cqfmeasures/StructureDefinition/cqfm-testCaseDescription",
        "valueMarkdown": "Patient with a diagnosis of HIV years before start of MP and a qualifying encounter on inside 240 day edge of the MP AND a viral load test on Dec 31 (edge case) during the MP with a result of 199 (under 200)"
      } ],
      "modifierExtension": [ {
        "url": "http://hl7.org/fhir/us/cqfmeasures/StructureDefinition/cqfm-isTestCase",
        "valueBoolean": true
      } ],
      "status": "complete",
      "type": "individual",
      "measure": "https://madie.cms.gov/Measure/CMS314FHIRHIVViralSuppression",
      "period": {
        "start": "2026-01-01",
        "end": "2026-12-31"
      },
      "group": [ {
        "id": "Group_1",
        "population": [ {
          "id": "InitialPopulation_1",
          "code": {
            "coding": [ {
              "system": "http://terminology.hl7.org/CodeSystem/measure-population",
              "code": "initial-population",
              "display": "Initial Population"
            } ]
          },
          "count": 1
        }, {
          "id": "Denominator_1",
          "code": {
            "coding": [ {
              "system": "http://terminology.hl7.org/CodeSystem/measure-population",
              "code": "denominator",
              "display": "Denominator"
            } ]
          },
          "count": 1
        }, {
          "id": "Numerator_1",
          "code": {
            "coding": [ {
              "system": "http://terminology.hl7.org/CodeSystem/measure-population",
              "code": "numerator",
              "display": "Numerator"
            } ]
          },
          "count": 1
        } ],
        "measureScore": {
          "value": 1.0
        }
      } ],
      "evaluatedResource": [ {
        "reference": "Patient/7ebb36aa-b8dc-4d22-9c09-3250684e3d30"
      }, {
        "reference": "Condition/12b80d31-4663-4763-913b-9af4e69158de"
      }, {
        "reference": "Observation/0de76ccc-89b4-408f-a73d-cdc564be736d"
      }, {
        "reference": "Encounter/d8142151-d9db-4695-86cb-245d3c5770cd"
      }, {
        "reference": "Coverage/87f1526a-97b9-47d5-a702-0e812eecce1d"
      }, {
        "reference": "Organization/f6895233-3fa0-4942-bd11-26987b5866f9"
      }, {
        "reference": "Practitioner/01a20cfa-e73a-4f27-91c0-82d83bb976c3"
      } ]
    }
  } ]
}