{
  "resourceType": "Bundle",
  "id": "660dc344ea96f2084262f8e7",
  "type": "transaction",
  "entry": [ {
    "fullUrl": "https://madie.cms.gov/Patient/e26dfcc6-88ac-4532-bbab-e180d2b04e6b",
    "resource": {
      "resourceType": "Patient",
      "id": "e26dfcc6-88ac-4532-bbab-e180d2b04e6b",
      "meta": {
        "profile": [ "http://hl7.org/fhir/us/qicore/StructureDefinition/qicore-patient" ]
      },
      "extension": [ {
        "url": "http://hl7.org/fhir/us/core/StructureDefinition/us-core-race",
        "extension": [ {
          "url": "ombCategory",
          "valueCoding": {
            "system": "urn:oid:2.16.840.1.113883.6.238",
            "code": "1002-5",
            "display": "American Indian or Alaska Native",
            "userSelected": true
          }
        }, {
          "url": "text",
          "valueString": "American Indian or Alaska Native"
        } ]
      }, {
        "url": "http://hl7.org/fhir/us/core/StructureDefinition/us-core-ethnicity",
        "extension": [ {
          "url": "ombCategory",
          "valueCoding": {
            "system": "urn:oid:2.16.840.1.113883.6.238",
            "code": "2135-2",
            "display": "Hispanic or Latino",
            "userSelected": true
          }
        }, {
          "url": "text",
          "valueString": "Hispanic or Latino"
        } ]
      }, {
        "url": "http://hl7.org/fhir/us/core/StructureDefinition/us-core-sex",
        "valueCode": "248153007"
      } ],
      "identifier": [ {
        "type": {
          "coding": [ {
            "system": "http://terminology.hl7.org/CodeSystem/v2-0203",
            "code": "MR"
          } ]
        },
        "system": "https://bonnie-fhir.healthit.gov/",
        "value": "660dc344ea96f2084262f8e7"
      } ],
      "name": [ {
        "family": "DxExclPassStartsBeforeEndsAfterMP",
        "given": [ "DENEXCEPPASS" ]
      } ],
      "gender": "male",
      "birthDate": "1992-10-21"
    },
    "request": {
      "method": "PUT",
      "url": "Patient/e26dfcc6-88ac-4532-bbab-e180d2b04e6b"
    }
  }, {
    "fullUrl": "https://madie.cms.gov/Encounter/b66fb2e8-63ca-4c23-b27d-8efd513a073b",
    "resource": {
      "resourceType": "Encounter",
      "id": "b66fb2e8-63ca-4c23-b27d-8efd513a073b",
      "meta": {
        "profile": [ "http://hl7.org/fhir/us/qicore/StructureDefinition/qicore-encounter" ]
      },
      "status": "finished",
      "class": {
        "system": "http://terminology.hl7.org/CodeSystem/v3-ActCode",
        "code": "EMER",
        "display": "emergency",
        "userSelected": true
      },
      "type": [ {
        "coding": [ {
          "system": "http://snomed.info/sct",
          "version": "2020-09",
          "code": "4525004",
          "display": "Emergency department patient visit (procedure)",
          "userSelected": true
        } ]
      } ],
      "subject": {
        "reference": "Patient/e26dfcc6-88ac-4532-bbab-e180d2b04e6b"
      },
      "period": {
        "start": "2026-11-10T08:05:00.000+00:00",
        "end": "2026-11-11T07:15:00.000+00:00"
      },
      "reasonReference": [ {
        "reference": "Condition/34596c5d-0ebc-414e-95c5-b22388533540"
      } ]
    },
    "request": {
      "method": "PUT",
      "url": "Encounter/b66fb2e8-63ca-4c23-b27d-8efd513a073b"
    }
  }, {
    "fullUrl": "https://madie.cms.gov/Condition/2a948562-8b05-4d71-912c-e801a754ce3b",
    "resource": {
      "resourceType": "Condition",
      "id": "2a948562-8b05-4d71-912c-e801a754ce3b",
      "meta": {
        "profile": [ "http://hl7.org/fhir/us/qicore/StructureDefinition/qicore-condition-problems-health-concerns" ]
      },
      "clinicalStatus": {
        "coding": [ {
          "system": "http://terminology.hl7.org/CodeSystem/condition-clinical",
          "code": "active"
        } ]
      },
      "verificationStatus": {
        "coding": [ {
          "system": "http://terminology.hl7.org/CodeSystem/condition-ver-status",
          "code": "provisional"
        } ]
      },
      "category": [ {
        "coding": [ {
          "system": "http://terminology.hl7.org/CodeSystem/condition-category",
          "code": "problem-list-item",
          "display": "Problem List Item"
        } ]
      } ],
      "severity": {
        "coding": [ {
          "system": "http://snomed.info/sct",
          "code": "24484000",
          "display": "Severe (severity modifier)"
        } ]
      },
      "code": {
        "coding": [ {
          "system": "http://hl7.org/fhir/sid/icd-10-cm",
          "code": "Z92.82",
          "display": "Status post administration of tPA (rtPA) in a different facility within the last 24 hours prior to admission to current facility"
        } ]
      },
      "subject": {
        "reference": "Patient/e26dfcc6-88ac-4532-bbab-e180d2b04e6b"
      },
      "onsetDateTime": "2026-11-08T08:30:00.000+00:00"
    },
    "request": {
      "method": "PUT",
      "url": "Condition/2a948562-8b05-4d71-912c-e801a754ce3b"
    }
  }, {
    "fullUrl": "https://madie.cms.gov/Condition/34596c5d-0ebc-414e-95c5-b22388533540",
    "resource": {
      "resourceType": "Condition",
      "id": "34596c5d-0ebc-414e-95c5-b22388533540",
      "meta": {
        "profile": [ "http://hl7.org/fhir/us/qicore/StructureDefinition/qicore-condition-problems-health-concerns" ]
      },
      "clinicalStatus": {
        "coding": [ {
          "system": "http://terminology.hl7.org/CodeSystem/condition-clinical",
          "code": "active",
          "display": "active",
          "userSelected": true
        } ]
      },
      "verificationStatus": {
        "coding": [ {
          "system": "http://terminology.hl7.org/CodeSystem/condition-ver-status",
          "code": "provisional"
        } ]
      },
      "category": [ {
        "coding": [ {
          "system": "http://terminology.hl7.org/CodeSystem/condition-category",
          "code": "problem-list-item",
          "display": "Problem List Item",
          "userSelected": true
        } ]
      } ],
      "code": {
        "coding": [ {
          "system": "http://snomed.info/sct",
          "version": "2020-09",
          "code": "401303003",
          "display": "Acute ST segment elevation myocardial infarction (disorder)",
          "userSelected": true
        } ]
      },
      "subject": {
        "reference": "Patient/e26dfcc6-88ac-4532-bbab-e180d2b04e6b"
      },
      "onsetDateTime": "2026-11-10T08:30:00.000+00:00"
    },
    "request": {
      "method": "PUT",
      "url": "Condition/34596c5d-0ebc-414e-95c5-b22388533540"
    }
  }, {
    "fullUrl": "https://madie.cms.gov/Condition/d211237a-79ca-43db-bc92-956feb7ef859",
    "resource": {
      "resourceType": "Condition",
      "id": "d211237a-79ca-43db-bc92-956feb7ef859",
      "meta": {
        "profile": [ "http://hl7.org/fhir/us/qicore/StructureDefinition/qicore-condition-problems-health-concerns" ]
      },
      "clinicalStatus": {
        "coding": [ {
          "system": "http://terminology.hl7.org/CodeSystem/condition-clinical",
          "version": "4.0.1",
          "code": "inactive",
          "display": "Inactive",
          "userSelected": true
        } ]
      },
      "category": [ {
        "coding": [ {
          "system": "http://terminology.hl7.org/CodeSystem/condition-category",
          "code": "problem-list-item",
          "display": "Problem List Item",
          "userSelected": true
        } ]
      } ],
      "code": {
        "coding": [ {
          "system": "http://snomed.info/sct",
          "version": "2020-09",
          "code": "162710004",
          "display": "On examination - collapse -cardiac arrest (disorder)",
          "userSelected": true
        } ]
      },
      "subject": {
        "reference": "Patient/e26dfcc6-88ac-4532-bbab-e180d2b04e6b"
      },
      "onsetDateTime": "2026-11-10T09:00:00.000+00:00"
    },
    "request": {
      "method": "PUT",
      "url": "Condition/d211237a-79ca-43db-bc92-956feb7ef859"
    }
  }, {
    "fullUrl": "https://madie.cms.gov/Coverage/e64e5d7a-bd99-4f04-9e36-3afaa47aaf4e",
    "resource": {
      "resourceType": "Coverage",
      "id": "e64e5d7a-bd99-4f04-9e36-3afaa47aaf4e",
      "meta": {
        "profile": [ "http://hl7.org/fhir/us/qicore/StructureDefinition/qicore-coverage" ]
      },
      "identifier": [ {
        "type": {
          "coding": [ {
            "system": "http://terminology.hl7.org/CodeSystem/v2-0203",
            "code": "MB"
          } ]
        }
      } ],
      "status": "active",
      "beneficiary": {
        "reference": "Patient/e26dfcc6-88ac-4532-bbab-e180d2b04e6b"
      },
      "relationship": {
        "coding": [ {
          "system": "http://terminology.hl7.org/CodeSystem/subscriber-relationship",
          "code": "self"
        } ]
      },
      "payor": [ {
        "reference": "Organization/1105ba2c-4e20-4402-ae7e-91aa8405f842"
      } ]
    },
    "request": {
      "method": "PUT",
      "url": "Coverage/e64e5d7a-bd99-4f04-9e36-3afaa47aaf4e"
    }
  }, {
    "fullUrl": "https://madie.cms.gov/Organization/1105ba2c-4e20-4402-ae7e-91aa8405f842",
    "resource": {
      "resourceType": "Organization",
      "id": "1105ba2c-4e20-4402-ae7e-91aa8405f842",
      "meta": {
        "profile": [ "http://hl7.org/fhir/us/qicore/StructureDefinition/qicore-organization" ]
      },
      "identifier": [ {
        "use": "temp",
        "system": "urn:oid:2.16.840.1.113883.4.4",
        "value": "21-3259825"
      } ],
      "active": true,
      "type": [ {
        "coding": [ {
          "system": "http://terminology.hl7.org/CodeSystem/organization-type",
          "code": "pay",
          "display": "Payer"
        } ]
      } ],
      "name": "Blue Cross Blue Shield of Texas",
      "telecom": [ {
        "system": "phone",
        "value": "(+1) 972-766-6900"
      } ],
      "address": [ {
        "use": "billing",
        "type": "postal",
        "line": [ "P.O. Box 660044" ],
        "city": "Dallas",
        "state": "TX",
        "postalCode": "75266-0044",
        "country": "USA"
      } ]
    },
    "request": {
      "method": "PUT",
      "url": "Organization/1105ba2c-4e20-4402-ae7e-91aa8405f842"
    }
  }, {
    "fullUrl": "https://madie.cms.gov/Practitioner/bdfbe64a-5103-4762-addf-76bd2c27cec3",
    "resource": {
      "resourceType": "Practitioner",
      "id": "bdfbe64a-5103-4762-addf-76bd2c27cec3",
      "meta": {
        "profile": [ "http://hl7.org/fhir/us/qicore/StructureDefinition/qicore-practitioner" ]
      },
      "identifier": [ {
        "system": "http://hl7.org/fhir/sid/us-npi",
        "value": "9999999896"
      } ],
      "name": [ {
        "family": "Evil",
        "prefix": [ "Dr" ]
      } ]
    },
    "request": {
      "method": "PUT",
      "url": "Practitioner/bdfbe64a-5103-4762-addf-76bd2c27cec3"
    }
  }, {
    "fullUrl": "https://madie.cms.gov/MeasureReport/f4b893cc-96ac-4721-873a-283bb1887048",
    "resource": {
      "resourceType": "MeasureReport",
      "id": "f4b893cc-96ac-4721-873a-283bb1887048",
      "meta": {
        "profile": [ "http://hl7.org/fhir/us/cqfmeasures/StructureDefinition/test-case-cqfm" ]
      },
      "contained": [ {
        "resourceType": "Parameters",
        "id": "20c2ff1d-dfbe-49e4-9a63-6c5064a80f16-parameters",
        "parameter": [ {
          "name": "subject",
          "valueString": "e26dfcc6-88ac-4532-bbab-e180d2b04e6b"
        } ]
      } ],
      "extension": [ {
        "url": "http://hl7.org/fhir/StructureDefinition/cqf-inputParameters",
        "valueReference": {
          "reference": "#20c2ff1d-dfbe-49e4-9a63-6c5064a80f16-parameters"
        }
      }, {
        "url": "http://hl7.org/fhir/us/cqfmeasures/StructureDefinition/cqfm-testCaseDescription",
        "valueMarkdown": "Patient has diagnosis exception of tPA at another facility more than 24 hours of emergency department visit. Verification status provisional"
      } ],
      "modifierExtension": [ {
        "url": "http://hl7.org/fhir/us/cqfmeasures/StructureDefinition/cqfm-isTestCase",
        "valueBoolean": true
      } ],
      "status": "complete",
      "type": "individual",
      "measure": "https://madie.cms.gov/Measure/CMS996FHIRAptTxforSTEMI",
      "period": {
        "start": "2026-01-01",
        "end": "2026-12-31"
      },
      "group": [ {
        "id": "Group_1",
        "population": [ {
          "id": "InitialPopulation_1",
          "code": {
            "coding": [ {
              "system": "http://terminology.hl7.org/CodeSystem/measure-population",
              "code": "initial-population",
              "display": "Initial Population"
            } ]
          },
          "count": 1
        }, {
          "id": "Denominator_1",
          "code": {
            "coding": [ {
              "system": "http://terminology.hl7.org/CodeSystem/measure-population",
              "code": "denominator",
              "display": "Denominator"
            } ]
          },
          "count": 1
        }, {
          "id": "DenominatorExclusion_1",
          "code": {
            "coding": [ {
              "system": "http://terminology.hl7.org/CodeSystem/measure-population",
              "code": "denominator-exclusion",
              "display": "Denominator Exclusion"
            } ]
          },
          "count": 0
        }, {
          "id": "Numerator_1",
          "code": {
            "coding": [ {
              "system": "http://terminology.hl7.org/CodeSystem/measure-population",
              "code": "numerator",
              "display": "Numerator"
            } ]
          },
          "count": 0
        }, {
          "id": "DenominatorException_1",
          "code": {
            "coding": [ {
              "system": "http://terminology.hl7.org/CodeSystem/measure-population",
              "code": "denominator-exception",
              "display": "Denominator Exception"
            } ]
          },
          "count": 0
        } ],
        "measureScore": {
          "value": 0.0
        }
      } ],
      "evaluatedResource": [ {
        "reference": "Patient/e26dfcc6-88ac-4532-bbab-e180d2b04e6b"
      }, {
        "reference": "Encounter/b66fb2e8-63ca-4c23-b27d-8efd513a073b"
      }, {
        "reference": "Condition/2a948562-8b05-4d71-912c-e801a754ce3b"
      }, {
        "reference": "Condition/34596c5d-0ebc-414e-95c5-b22388533540"
      }, {
        "reference": "Condition/d211237a-79ca-43db-bc92-956feb7ef859"
      }, {
        "reference": "Coverage/e64e5d7a-bd99-4f04-9e36-3afaa47aaf4e"
      }, {
        "reference": "Organization/1105ba2c-4e20-4402-ae7e-91aa8405f842"
      }, {
        "reference": "Practitioner/bdfbe64a-5103-4762-addf-76bd2c27cec3"
      } ]
    },
    "request": {
      "method": "PUT",
      "url": "MeasureReport/f4b893cc-96ac-4721-873a-283bb1887048"
    }
  } ]
}