{
  "resourceType": "Bundle",
  "id": "tests-8415bf7d-2920-4ec3-9774-7a6f4272397e-bundle",
  "type": "transaction",
  "entry": [ {
    "fullUrl": "https://madie.cms.gov/Procedure/364c8c7c-7876-4b2f-baa4-a1aec52e1619",
    "resource": {
      "resourceType": "Procedure",
      "id": "364c8c7c-7876-4b2f-baa4-a1aec52e1619",
      "meta": {
        "profile": [ "http://hl7.org/fhir/us/qicore/StructureDefinition/qicore-procedure" ]
      },
      "extension": [ {
        "url": "http://hl7.org/fhir/us/qicore/StructureDefinition/qicore-recorded",
        "valueDateTime": "2026-04-13T10:20:00.000+00:00"
      } ],
      "status": "completed",
      "code": {
        "coding": [ {
          "system": "http://www.cms.gov/Medicare/Coding/ICD10",
          "code": "0BH13EZ",
          "display": "Insertion of Endotracheal Airway into Trachea, Percutaneous Approach"
        } ],
        "text": "Insertion of Endotracheal Airway into Trachea, Percutaneous Approach"
      },
      "subject": {
        "reference": "Patient/8415bf7d-2920-4ec3-9774-7a6f4272397e"
      },
      "performedPeriod": {
        "start": "2026-04-13T08:00:00.000+00:00",
        "end": "2026-04-13T10:15:00.000+00:00"
      }
    },
    "request": {
      "method": "PUT",
      "url": "Procedure/364c8c7c-7876-4b2f-baa4-a1aec52e1619"
    }
  }, {
    "fullUrl": "https://madie.cms.gov/Procedure/40254c3d-1fef-4588-9bea-b57ad28402c0",
    "resource": {
      "resourceType": "Procedure",
      "id": "40254c3d-1fef-4588-9bea-b57ad28402c0",
      "meta": {
        "profile": [ "http://hl7.org/fhir/us/qicore/StructureDefinition/qicore-procedure" ]
      },
      "extension": [ {
        "url": "http://hl7.org/fhir/us/qicore/StructureDefinition/qicore-recorded",
        "valueDateTime": "2026-04-13T10:20:00.000+00:00"
      } ],
      "status": "completed",
      "code": {
        "coding": [ {
          "system": "http://www.cms.gov/Medicare/Coding/ICD10",
          "code": "0BH13EZ",
          "display": "Insertion of Endotracheal Airway into Trachea, Percutaneous Approach"
        } ],
        "text": "Insertion of Endotracheal Airway into Trachea, Percutaneous Approach"
      },
      "subject": {
        "reference": "Patient/8415bf7d-2920-4ec3-9774-7a6f4272397e"
      },
      "performedPeriod": {
        "start": "2026-04-13T08:00:00.000+00:00",
        "end": "2026-04-13T10:15:00.000+00:00"
      }
    },
    "request": {
      "method": "PUT",
      "url": "Procedure/40254c3d-1fef-4588-9bea-b57ad28402c0"
    }
  }, {
    "fullUrl": "https://madie.cms.gov/Procedure/61785387-4c8c-4927-ae3d-259f36e5bd12",
    "resource": {
      "resourceType": "Procedure",
      "id": "61785387-4c8c-4927-ae3d-259f36e5bd12",
      "meta": {
        "profile": [ "http://hl7.org/fhir/us/qicore/StructureDefinition/qicore-procedure" ]
      },
      "extension": [ {
        "url": "http://hl7.org/fhir/us/qicore/StructureDefinition/qicore-recorded",
        "valueDateTime": "2026-04-12T09:20:00.000+00:00"
      } ],
      "status": "completed",
      "code": {
        "coding": [ {
          "system": "http://www.cms.gov/Medicare/Coding/ICD10",
          "code": "0BH13EZ",
          "display": "Insertion of Endotracheal Airway into Trachea, Percutaneous Approach"
        } ],
        "text": "Insertion of Endotracheal Airway into Trachea, Percutaneous Approach"
      },
      "subject": {
        "reference": "Patient/8415bf7d-2920-4ec3-9774-7a6f4272397e"
      },
      "performedDateTime": "2026-04-12T09:16:00.000+00:00"
    },
    "request": {
      "method": "PUT",
      "url": "Procedure/61785387-4c8c-4927-ae3d-259f36e5bd12"
    }
  }, {
    "fullUrl": "https://madie.cms.gov/Patient/8415bf7d-2920-4ec3-9774-7a6f4272397e",
    "resource": {
      "resourceType": "Patient",
      "id": "8415bf7d-2920-4ec3-9774-7a6f4272397e",
      "meta": {
        "profile": [ "http://hl7.org/fhir/us/qicore/StructureDefinition/qicore-patient" ]
      },
      "extension": [ {
        "url": "http://hl7.org/fhir/us/core/StructureDefinition/us-core-race",
        "extension": [ {
          "url": "ombCategory",
          "valueCoding": {
            "system": "urn:oid:2.16.840.1.113883.6.238",
            "code": "2054-5",
            "display": "Black or African American",
            "userSelected": true
          }
        }, {
          "url": "text",
          "valueString": "Black or African American"
        } ]
      }, {
        "url": "http://hl7.org/fhir/us/core/StructureDefinition/us-core-ethnicity",
        "extension": [ {
          "url": "ombCategory",
          "valueCoding": {
            "system": "urn:oid:2.16.840.1.113883.6.238",
            "code": "2186-5",
            "display": "Not Hispanic or Latino",
            "userSelected": true
          }
        }, {
          "url": "text",
          "valueString": "Not Hispanic or Latino"
        } ]
      } ],
      "identifier": [ {
        "type": {
          "coding": [ {
            "system": "http://terminology.hl7.org/CodeSystem/v2-0203",
            "code": "MR"
          } ]
        },
        "system": "https://bonnie-fhir.healthit.gov/",
        "value": "61152a3b98086b7a79cbd7c1"
      } ],
      "active": true,
      "name": [ {
        "use": "usual",
        "family": "NUMER1Pass",
        "given": [ "3Intubations2DuringProc1OutsideOfProc" ]
      } ],
      "gender": "female",
      "birthDate": "1966-07-12"
    },
    "request": {
      "method": "PUT",
      "url": "Patient/8415bf7d-2920-4ec3-9774-7a6f4272397e"
    }
  }, {
    "fullUrl": "https://madie.cms.gov/Encounter/8f05c379-b4c3-4ede-90f1-158808f8397e",
    "resource": {
      "resourceType": "Encounter",
      "id": "8f05c379-b4c3-4ede-90f1-158808f8397e",
      "meta": {
        "profile": [ "http://hl7.org/fhir/us/qicore/StructureDefinition/qicore-encounter" ]
      },
      "status": "finished",
      "class": {
        "system": "http://terminology.hl7.org/CodeSystem/v3-ActCode",
        "code": "IMP",
        "display": "inpatient encounter"
      },
      "type": [ {
        "coding": [ {
          "system": "http://snomed.info/sct",
          "code": "112689000",
          "display": "Hospital admission, elective, with complete pre-admission work-up"
        } ],
        "text": "Hospital admission, elective, with complete pre-admission work-up"
      } ],
      "priority": {
        "coding": [ {
          "system": "http://snomed.info/sct",
          "code": "103390000"
        } ]
      },
      "subject": {
        "reference": "Patient/8415bf7d-2920-4ec3-9774-7a6f4272397e"
      },
      "period": {
        "start": "2026-04-10T08:00:00.000+00:00",
        "end": "2026-04-17T08:15:00.000+00:00"
      }
    },
    "request": {
      "method": "PUT",
      "url": "Encounter/8f05c379-b4c3-4ede-90f1-158808f8397e"
    }
  }, {
    "fullUrl": "https://madie.cms.gov/Procedure/59cd3c3f-6ef0-4fd5-adf3-89a10e51e9e8",
    "resource": {
      "resourceType": "Procedure",
      "id": "59cd3c3f-6ef0-4fd5-adf3-89a10e51e9e8",
      "meta": {
        "profile": [ "http://hl7.org/fhir/us/qicore/StructureDefinition/qicore-procedure" ]
      },
      "extension": [ {
        "url": "http://hl7.org/fhir/us/qicore/StructureDefinition/qicore-recorded",
        "valueDateTime": "2026-04-12T10:30:00.000+00:00"
      } ],
      "status": "completed",
      "category": {
        "coding": [ {
          "system": "http://snomed.info/sct",
          "code": "18286008",
          "display": "General or neuraxial anesthesia"
        } ]
      },
      "code": {
        "coding": [ {
          "system": "http://snomed.info/sct",
          "code": "112943005",
          "display": "Epidural injection of anesthetic substance, diagnostic, caudal, continuous"
        } ]
      },
      "subject": {
        "reference": "Patient/8415bf7d-2920-4ec3-9774-7a6f4272397e"
      },
      "performedPeriod": {
        "start": "2026-04-12T08:00:00.000+00:00",
        "end": "2026-04-12T10:15:00.000+00:00"
      }
    },
    "request": {
      "method": "PUT",
      "url": "Procedure/59cd3c3f-6ef0-4fd5-adf3-89a10e51e9e8"
    }
  }, {
    "fullUrl": "https://madie.cms.gov/Procedure/983ebed3-8561-4c92-bba5-226afa847fc4",
    "resource": {
      "resourceType": "Procedure",
      "id": "983ebed3-8561-4c92-bba5-226afa847fc4",
      "meta": {
        "profile": [ "http://hl7.org/fhir/us/qicore/StructureDefinition/qicore-procedure" ]
      },
      "extension": [ {
        "url": "http://hl7.org/fhir/us/qicore/StructureDefinition/qicore-recorded",
        "valueDateTime": "2026-04-11T10:20:00.000+00:00"
      } ],
      "status": "completed",
      "category": {
        "coding": [ {
          "system": "http://snomed.info/sct",
          "code": "18286008",
          "display": "General or neuraxial anesthesia"
        } ]
      },
      "code": {
        "coding": [ {
          "system": "http://snomed.info/sct",
          "code": "112943005",
          "display": "Epidural injection of anesthetic substance, diagnostic, caudal, continuous"
        } ]
      },
      "subject": {
        "reference": "Patient/8415bf7d-2920-4ec3-9774-7a6f4272397e"
      },
      "performedPeriod": {
        "start": "2026-04-11T08:00:00.000+00:00",
        "end": "2026-04-11T10:15:00.000+00:00"
      }
    },
    "request": {
      "method": "PUT",
      "url": "Procedure/983ebed3-8561-4c92-bba5-226afa847fc4"
    }
  }, {
    "fullUrl": "https://madie.cms.gov/MeasureReport/8320e2c7-e26f-4fe1-84a6-6d45435386b3",
    "resource": {
      "resourceType": "MeasureReport",
      "id": "8320e2c7-e26f-4fe1-84a6-6d45435386b3",
      "meta": {
        "profile": [ "http://hl7.org/fhir/us/cqfmeasures/StructureDefinition/test-case-cqfm" ]
      },
      "contained": [ {
        "resourceType": "Parameters",
        "id": "b0373462-afc5-4e5e-ba54-84e0a17d8c3c-parameters",
        "parameter": [ {
          "name": "subject",
          "valueString": "8415bf7d-2920-4ec3-9774-7a6f4272397e"
        } ]
      } ],
      "extension": [ {
        "url": "http://hl7.org/fhir/StructureDefinition/cqf-inputParameters",
        "valueReference": {
          "reference": "#b0373462-afc5-4e5e-ba54-84e0a17d8c3c-parameters"
        }
      }, {
        "url": "http://hl7.org/fhir/us/cqfmeasures/StructureDefinition/cqfm-testCaseDescription",
        "valueMarkdown": "Elective hospitalization with 3 procs. 1st intubation during 2nd general anesthesia period so (fails Num 1 criteria) but has 2nd intubation later, outside of proc. Meets Numerator. \nHas a later procedure, with intubation during. Numerator still meets"
      } ],
      "modifierExtension": [ {
        "url": "http://hl7.org/fhir/us/cqfmeasures/StructureDefinition/cqfm-isTestCase",
        "valueBoolean": true
      } ],
      "status": "complete",
      "type": "individual",
      "measure": "https://madie.cms.gov/Measure/CMS1218FHIRHHRF",
      "period": {
        "start": "2026-01-01",
        "end": "2026-12-31"
      },
      "group": [ {
        "id": "Group_1",
        "population": [ {
          "id": "InitialPopulation_1",
          "code": {
            "coding": [ {
              "system": "http://terminology.hl7.org/CodeSystem/measure-population",
              "code": "initial-population",
              "display": "Initial Population"
            } ]
          },
          "count": 1
        }, {
          "id": "Denominator_1",
          "code": {
            "coding": [ {
              "system": "http://terminology.hl7.org/CodeSystem/measure-population",
              "code": "denominator",
              "display": "Denominator"
            } ]
          },
          "count": 1
        }, {
          "id": "DenominatorExclusion_1",
          "code": {
            "coding": [ {
              "system": "http://terminology.hl7.org/CodeSystem/measure-population",
              "code": "denominator-exclusion",
              "display": "Denominator Exclusion"
            } ]
          },
          "count": 0
        }, {
          "id": "Numerator_1",
          "code": {
            "coding": [ {
              "system": "http://terminology.hl7.org/CodeSystem/measure-population",
              "code": "numerator",
              "display": "Numerator"
            } ]
          },
          "count": 1
        } ],
        "measureScore": {
          "value": 0.0
        }
      } ],
      "evaluatedResource": [ {
        "reference": "Procedure/364c8c7c-7876-4b2f-baa4-a1aec52e1619"
      }, {
        "reference": "Procedure/40254c3d-1fef-4588-9bea-b57ad28402c0"
      }, {
        "reference": "Procedure/61785387-4c8c-4927-ae3d-259f36e5bd12"
      }, {
        "reference": "Patient/8415bf7d-2920-4ec3-9774-7a6f4272397e"
      }, {
        "reference": "Encounter/8f05c379-b4c3-4ede-90f1-158808f8397e"
      }, {
        "reference": "Procedure/59cd3c3f-6ef0-4fd5-adf3-89a10e51e9e8"
      }, {
        "reference": "Procedure/983ebed3-8561-4c92-bba5-226afa847fc4"
      } ]
    },
    "request": {
      "method": "PUT",
      "url": "MeasureReport/8320e2c7-e26f-4fe1-84a6-6d45435386b3"
    }
  } ]
}