{
  "resourceType": "Bundle",
  "id": "555a22p15a66f70123c9631c",
  "type": "transaction",
  "entry": [ {
    "fullUrl": "https://madie.cms.gov/Patient/af1fbee0-80d0-47a1-b18f-1a9834c35ed1",
    "resource": {
      "resourceType": "Patient",
      "id": "af1fbee0-80d0-47a1-b18f-1a9834c35ed1",
      "meta": {
        "profile": [ "http://hl7.org/fhir/us/qicore/StructureDefinition/qicore-patient" ]
      },
      "extension": [ {
        "url": "http://hl7.org/fhir/us/core/StructureDefinition/us-core-race",
        "extension": [ {
          "url": "ombCategory",
          "valueCoding": {
            "system": "urn:oid:2.16.840.1.113883.6.238",
            "code": "2028-9",
            "display": "Asian",
            "userSelected": true
          }
        }, {
          "url": "text",
          "valueString": "Asian"
        } ]
      }, {
        "url": "http://hl7.org/fhir/us/core/StructureDefinition/us-core-ethnicity",
        "extension": [ {
          "url": "ombCategory",
          "valueCoding": {
            "system": "urn:oid:2.16.840.1.113883.6.238",
            "code": "2186-5",
            "display": "Not Hispanic or Latino",
            "userSelected": true
          }
        }, {
          "url": "text",
          "valueString": "Not Hispanic or Latino"
        } ]
      } ],
      "identifier": [ {
        "system": "http://hospital.smarthealthit.org",
        "value": "999999999"
      } ],
      "name": [ {
        "family": "NUMERFail",
        "given": [ "AntagInsideORLT12HrsAfterOpioidOutsideOR" ]
      } ],
      "gender": "male",
      "birthDate": "2001-02-01"
    },
    "request": {
      "method": "PUT",
      "url": "Patient/af1fbee0-80d0-47a1-b18f-1a9834c35ed1"
    }
  }, {
    "fullUrl": "https://madie.cms.gov/Encounter/7ea2e177-e8cd-4e7e-b62e-57c207e79e53",
    "resource": {
      "resourceType": "Encounter",
      "id": "7ea2e177-e8cd-4e7e-b62e-57c207e79e53",
      "meta": {
        "profile": [ "http://hl7.org/fhir/us/qicore/StructureDefinition/qicore-encounter" ]
      },
      "status": "finished",
      "class": {
        "system": "http://terminology.hl7.org/CodeSystem/v3-ActCode",
        "code": "IMP",
        "display": "inpatient encounter"
      },
      "type": [ {
        "coding": [ {
          "system": "http://snomed.info/sct",
          "code": "183452005"
        } ]
      } ],
      "subject": {
        "reference": "Patient/af1fbee0-80d0-47a1-b18f-1a9834c35ed1"
      },
      "period": {
        "start": "2026-08-11T08:00:00.000+00:00",
        "end": "2026-08-14T08:15:00.000+00:00"
      },
      "location": [ {
        "location": {
          "reference": "Location/8fab6016-8064-4316-92e5-d62726e75384"
        },
        "period": {
          "start": "2026-08-12T08:00:00.000+00:00",
          "end": "2026-08-12T10:00:00.000+00:00"
        }
      } ]
    },
    "request": {
      "method": "PUT",
      "url": "Encounter/7ea2e177-e8cd-4e7e-b62e-57c207e79e53"
    }
  }, {
    "fullUrl": "https://madie.cms.gov/Location/8fab6016-8064-4316-92e5-d62726e75384",
    "resource": {
      "resourceType": "Location",
      "id": "8fab6016-8064-4316-92e5-d62726e75384",
      "meta": {
        "profile": [ "http://hl7.org/fhir/us/qicore/StructureDefinition/qicore-location" ]
      },
      "identifier": [ {
        "use": "usual",
        "system": "http://exampleoflocation.com",
        "value": "B1-S.F2"
      } ],
      "name": "Medical Surgical East, first floor",
      "type": [ {
        "coding": [ {
          "system": "https://www.cdc.gov/nhsn/cdaportal/terminology/codesystem/hsloc.html",
          "code": "1096-7",
          "display": "Operating Room/Suite"
        } ]
      } ]
    },
    "request": {
      "method": "PUT",
      "url": "Location/8fab6016-8064-4316-92e5-d62726e75384"
    }
  }, {
    "fullUrl": "https://madie.cms.gov/MedicationAdministration/16b0454c-0142-4080-99ef-e2e08889acd6",
    "resource": {
      "resourceType": "MedicationAdministration",
      "id": "16b0454c-0142-4080-99ef-e2e08889acd6",
      "meta": {
        "profile": [ "http://hl7.org/fhir/us/qicore/StructureDefinition/qicore-medicationadministration" ]
      },
      "status": "completed",
      "medicationCodeableConcept": {
        "coding": [ {
          "system": "http://www.nlm.nih.gov/research/umls/rxnorm",
          "code": "1010600",
          "display": "Opioids, All"
        } ]
      },
      "subject": {
        "reference": "Patient/af1fbee0-80d0-47a1-b18f-1a9834c35ed1"
      },
      "effectivePeriod": {
        "start": "2026-08-12T07:00:00.000+00:00",
        "end": "2026-08-12T07:15:00.000+00:00"
      }
    },
    "request": {
      "method": "PUT",
      "url": "MedicationAdministration/16b0454c-0142-4080-99ef-e2e08889acd6"
    }
  }, {
    "fullUrl": "https://madie.cms.gov/MedicationAdministration/c83833e3-6f93-4e72-9a84-1a3882bab07d",
    "resource": {
      "resourceType": "MedicationAdministration",
      "id": "c83833e3-6f93-4e72-9a84-1a3882bab07d",
      "meta": {
        "profile": [ "http://hl7.org/fhir/us/qicore/StructureDefinition/qicore-medicationadministration" ]
      },
      "status": "completed",
      "medicationCodeableConcept": {
        "coding": [ {
          "system": "http://www.nlm.nih.gov/research/umls/rxnorm",
          "code": "1191222",
          "display": "Opioid Antagonist"
        } ]
      },
      "subject": {
        "reference": "Patient/af1fbee0-80d0-47a1-b18f-1a9834c35ed1"
      },
      "effectivePeriod": {
        "start": "2026-08-12T09:00:00.000+00:00",
        "end": "2026-08-12T09:15:00.000+00:00"
      },
      "dosage": {
        "route": {
          "coding": [ {
            "system": "http://snomed.info/sct",
            "code": "34206005",
            "display": "Subcutaneous route"
          } ]
        }
      }
    },
    "request": {
      "method": "PUT",
      "url": "MedicationAdministration/c83833e3-6f93-4e72-9a84-1a3882bab07d"
    }
  }, {
    "fullUrl": "https://madie.cms.gov/Coverage/d48314fb-a2b2-4e1e-a1bc-735cfb2165b2",
    "resource": {
      "resourceType": "Coverage",
      "id": "d48314fb-a2b2-4e1e-a1bc-735cfb2165b2",
      "meta": {
        "profile": [ "http://hl7.org/fhir/us/qicore/StructureDefinition/qicore-coverage" ]
      },
      "status": "active",
      "subscriberId": "523435",
      "beneficiary": {
        "reference": "Patient/af1fbee0-80d0-47a1-b18f-1a9834c35ed1"
      },
      "relationship": {
        "coding": [ {
          "system": "http://terminology.hl7.org/CodeSystem/subscriber-relationship",
          "code": "self"
        } ]
      },
      "payor": [ {
        "reference": "Organization/f741cda0-eacd-4240-9bc4-0656f0d617e6"
      } ]
    },
    "request": {
      "method": "PUT",
      "url": "Coverage/d48314fb-a2b2-4e1e-a1bc-735cfb2165b2"
    }
  }, {
    "fullUrl": "https://madie.cms.gov/Organization/f741cda0-eacd-4240-9bc4-0656f0d617e6",
    "resource": {
      "resourceType": "Organization",
      "id": "f741cda0-eacd-4240-9bc4-0656f0d617e6",
      "meta": {
        "profile": [ "http://hl7.org/fhir/us/qicore/StructureDefinition/qicore-organization" ]
      },
      "identifier": [ {
        "use": "temp",
        "system": "urn:oid:2.16.840.1.113883.4.4",
        "value": "21-3259825"
      } ],
      "active": true,
      "type": [ {
        "coding": [ {
          "system": "http://terminology.hl7.org/CodeSystem/organization-type",
          "code": "pay",
          "display": "Payer"
        } ]
      } ],
      "name": "Blue Cross Blue Shield of Texas",
      "telecom": [ {
        "system": "phone",
        "value": "(+1) 972-766-6900"
      } ],
      "address": [ {
        "use": "billing",
        "type": "postal",
        "line": [ "P.O. Box 660044" ],
        "city": "Dallas",
        "state": "TX",
        "postalCode": "75266-0044",
        "country": "USA"
      } ]
    },
    "request": {
      "method": "PUT",
      "url": "Organization/f741cda0-eacd-4240-9bc4-0656f0d617e6"
    }
  }, {
    "fullUrl": "https://madie.cms.gov/MeasureReport/b5480449-bcfb-4802-a3c5-c6bb26a30d0a",
    "resource": {
      "resourceType": "MeasureReport",
      "id": "b5480449-bcfb-4802-a3c5-c6bb26a30d0a",
      "meta": {
        "profile": [ "http://hl7.org/fhir/us/cqfmeasures/StructureDefinition/test-case-cqfm" ]
      },
      "contained": [ {
        "resourceType": "Parameters",
        "id": "2f3f7a1f-89e1-43d9-ad6e-39bbfeadcedb-parameters",
        "parameter": [ {
          "name": "subject",
          "valueString": "af1fbee0-80d0-47a1-b18f-1a9834c35ed1"
        } ]
      } ],
      "extension": [ {
        "url": "http://hl7.org/fhir/StructureDefinition/cqf-inputParameters",
        "valueReference": {
          "reference": "#2f3f7a1f-89e1-43d9-ad6e-39bbfeadcedb-parameters"
        }
      }, {
        "url": "http://hl7.org/fhir/us/cqfmeasures/StructureDefinition/cqfm-testCaseDescription",
        "valueMarkdown": "Encounter-1 8/11 - 8/14, OR at 8/12 0800 to 1000, MedicationAdministration-1 Opioid is outside OR 8/12 0700, MedicationAdministration-2 antagonist given in OR 8/12 0900"
      } ],
      "modifierExtension": [ {
        "url": "http://hl7.org/fhir/us/cqfmeasures/StructureDefinition/cqfm-isTestCase",
        "valueBoolean": true
      } ],
      "status": "complete",
      "type": "individual",
      "measure": "https://madie.cms.gov/Measure/CMS819FHIRHHORAE",
      "period": {
        "start": "2026-01-01",
        "end": "2026-12-31"
      },
      "group": [ {
        "id": "Group_1",
        "population": [ {
          "id": "InitialPopulation_1",
          "code": {
            "coding": [ {
              "system": "http://terminology.hl7.org/CodeSystem/measure-population",
              "code": "initial-population",
              "display": "Initial Population"
            } ]
          },
          "count": 1
        }, {
          "id": "Denominator_1",
          "code": {
            "coding": [ {
              "system": "http://terminology.hl7.org/CodeSystem/measure-population",
              "code": "denominator",
              "display": "Denominator"
            } ]
          },
          "count": 1
        }, {
          "id": "Numerator_1",
          "code": {
            "coding": [ {
              "system": "http://terminology.hl7.org/CodeSystem/measure-population",
              "code": "numerator",
              "display": "Numerator"
            } ]
          },
          "count": 0
        } ],
        "measureScore": {
          "value": 0.0
        }
      } ],
      "evaluatedResource": [ {
        "reference": "Patient/af1fbee0-80d0-47a1-b18f-1a9834c35ed1"
      }, {
        "reference": "Encounter/7ea2e177-e8cd-4e7e-b62e-57c207e79e53"
      }, {
        "reference": "Location/8fab6016-8064-4316-92e5-d62726e75384"
      }, {
        "reference": "MedicationAdministration/16b0454c-0142-4080-99ef-e2e08889acd6"
      }, {
        "reference": "MedicationAdministration/c83833e3-6f93-4e72-9a84-1a3882bab07d"
      }, {
        "reference": "Coverage/d48314fb-a2b2-4e1e-a1bc-735cfb2165b2"
      }, {
        "reference": "Organization/f741cda0-eacd-4240-9bc4-0656f0d617e6"
      } ]
    },
    "request": {
      "method": "PUT",
      "url": "MeasureReport/b5480449-bcfb-4802-a3c5-c6bb26a30d0a"
    }
  } ]
}