{
  "resourceType": "Bundle",
  "id": "612e6ad402c62a011f2eb5f5",
  "type": "transaction",
  "entry": [ {
    "fullUrl": "https://madie.cms.gov/Patient/dc0dcb01-87f0-4e65-9c36-8cf6174abef1",
    "resource": {
      "resourceType": "Patient",
      "id": "dc0dcb01-87f0-4e65-9c36-8cf6174abef1",
      "meta": {
        "profile": [ "http://hl7.org/fhir/us/qicore/StructureDefinition/qicore-patient" ]
      },
      "text": {
        "status": "generated",
        "div": "<div xmlns=\"http://www.w3.org/1999/xhtml\"><div class=\"hapiHeaderText\">INR4WOdecimal_AfterEndOfAnes <b>NUMERPASS </b></div><table class=\"hapiPropertyTable\"><tbody><tr><td>Identifier</td><td>63ba0f1cce38276422ef5807decdf655</td></tr><tr><td>Date of birth</td><td><span>02 January 1974</span></td></tr></tbody></table></div>"
      },
      "extension": [ {
        "url": "http://hl7.org/fhir/us/core/StructureDefinition/us-core-race",
        "extension": [ {
          "url": "ombCategory",
          "valueCoding": {
            "system": "urn:oid:2.16.840.1.113883.6.238",
            "code": "1002-5",
            "display": "American Indian or Alaska Native",
            "userSelected": true
          }
        }, {
          "url": "text",
          "valueString": "American Indian or Alaska Native"
        } ]
      }, {
        "url": "http://hl7.org/fhir/us/core/StructureDefinition/us-core-ethnicity",
        "extension": [ {
          "url": "ombCategory",
          "valueCoding": {
            "system": "urn:oid:2.16.840.1.113883.6.238",
            "code": "2135-2",
            "display": "Hispanic or Latino",
            "userSelected": true
          }
        }, {
          "url": "text",
          "valueString": "Hispanic or Latino"
        } ]
      } ],
      "identifier": [ {
        "type": {
          "coding": [ {
            "system": "http://terminology.hl7.org/CodeSystem/v2-0203",
            "code": "MR"
          } ]
        },
        "system": "https://bonnie-fhir.healthit.gov/",
        "value": "612e6ad402c62a011f2eb5f5"
      } ],
      "active": true,
      "name": [ {
        "use": "usual",
        "family": "NUMERPass",
        "given": [ "INR4WOdecimalAfterEndOfAnes" ]
      } ],
      "gender": "male",
      "birthDate": "1975-01-02"
    },
    "request": {
      "method": "PUT",
      "url": "Patient/dc0dcb01-87f0-4e65-9c36-8cf6174abef1"
    }
  }, {
    "fullUrl": "https://madie.cms.gov/Encounter/4c1912e8-b6c4-4b35-9ffe-30e2606560c6",
    "resource": {
      "resourceType": "Encounter",
      "id": "4c1912e8-b6c4-4b35-9ffe-30e2606560c6",
      "meta": {
        "profile": [ "http://hl7.org/fhir/us/qicore/StructureDefinition/qicore-encounter" ]
      },
      "status": "finished",
      "class": {
        "system": "http://terminology.hl7.org/CodeSystem/v3-ActCode",
        "code": "IMP",
        "display": "inpatient encounter"
      },
      "type": [ {
        "coding": [ {
          "system": "http://snomed.info/sct",
          "code": "8715000"
        } ]
      } ],
      "subject": {
        "reference": "Patient/dc0dcb01-87f0-4e65-9c36-8cf6174abef1"
      },
      "period": {
        "start": "2026-11-01T08:00:00.000+00:00",
        "end": "2026-11-26T08:15:00.000+00:00"
      },
      "length": {
        "value": 25,
        "unit": "days"
      }
    },
    "request": {
      "method": "PUT",
      "url": "Encounter/4c1912e8-b6c4-4b35-9ffe-30e2606560c6"
    }
  }, {
    "fullUrl": "https://madie.cms.gov/Coverage/a55c8d28-c37d-4142-aec3-9ccea667b5e1",
    "resource": {
      "resourceType": "Coverage",
      "id": "a55c8d28-c37d-4142-aec3-9ccea667b5e1",
      "status": "active",
      "beneficiary": {
        "reference": "Patient/dc0dcb01-87f0-4e65-9c36-8cf6174abef1"
      },
      "period": {
        "start": "1975-01-02T08:00:00.000+00:00"
      },
      "payor": [ {
        "reference": "Organization/6d9df9aa-0dd9-490a-a3f9-e623b489a990"
      } ]
    },
    "request": {
      "method": "PUT",
      "url": "Coverage/a55c8d28-c37d-4142-aec3-9ccea667b5e1"
    }
  }, {
    "fullUrl": "https://madie.cms.gov/Observation/ace64cdd-a8f0-442c-b583-a7816e0f7c5b",
    "resource": {
      "resourceType": "Observation",
      "id": "ace64cdd-a8f0-442c-b583-a7816e0f7c5b",
      "meta": {
        "profile": [ "http://hl7.org/fhir/us/qicore/StructureDefinition/qicore-observation-lab" ]
      },
      "status": "final",
      "category": [ {
        "coding": [ {
          "system": "http://terminology.hl7.org/CodeSystem/observation-category",
          "code": "laboratory",
          "display": "Laboratory"
        } ]
      } ],
      "code": {
        "coding": [ {
          "system": "http://loinc.org",
          "code": "34714-6"
        } ]
      },
      "subject": {
        "reference": "Patient/dc0dcb01-87f0-4e65-9c36-8cf6174abef1"
      },
      "effectiveDateTime": "2026-11-01T09:15:00.000+00:00",
      "issued": "2026-11-01T10:00:00.000+00:00",
      "valueQuantity": {
        "value": 4,
        "unit": "{INR}"
      }
    },
    "request": {
      "method": "PUT",
      "url": "Observation/ace64cdd-a8f0-442c-b583-a7816e0f7c5b"
    }
  }, {
    "fullUrl": "https://madie.cms.gov/Procedure/06a9ece6-a609-491c-b66b-4ed965745771",
    "resource": {
      "resourceType": "Procedure",
      "id": "06a9ece6-a609-491c-b66b-4ed965745771",
      "meta": {
        "profile": [ "http://hl7.org/fhir/us/qicore/StructureDefinition/qicore-procedure" ]
      },
      "extension": [ {
        "url": "http://hl7.org/fhir/us/qicore/StructureDefinition/qicore-recorded",
        "valueDateTime": "2013-11-01T13:35:00.000+00:00"
      } ],
      "status": "completed",
      "code": {
        "coding": [ {
          "system": "http://www.icd10data.com/icd10pcs",
          "code": "3E030FZ"
        }, {
          "system": "http://snomed.info/sct",
          "code": "18946005"
        } ]
      },
      "subject": {
        "reference": "Patient/dc0dcb01-87f0-4e65-9c36-8cf6174abef1"
      },
      "performedPeriod": {
        "start": "2026-11-01T09:00:00.000+00:00",
        "end": "2026-11-01T09:15:00.000+00:00"
      }
    },
    "request": {
      "method": "PUT",
      "url": "Procedure/06a9ece6-a609-491c-b66b-4ed965745771"
    }
  }, {
    "fullUrl": "https://madie.cms.gov/Organization/6d9df9aa-0dd9-490a-a3f9-e623b489a990",
    "resource": {
      "resourceType": "Organization",
      "id": "6d9df9aa-0dd9-490a-a3f9-e623b489a990",
      "meta": {
        "profile": [ "http://hl7.org/fhir/us/qicore/StructureDefinition/qicore-organization" ]
      },
      "identifier": [ {
        "use": "temp",
        "system": "urn:oid:2.16.840.1.113883.4.4",
        "value": "21-3259825"
      } ],
      "active": true,
      "type": [ {
        "coding": [ {
          "system": "http://terminology.hl7.org/CodeSystem/organization-type",
          "code": "pay",
          "display": "Payer"
        } ]
      } ],
      "name": "Blue Cross Blue Shield of Texas",
      "telecom": [ {
        "system": "phone",
        "value": "(+1) 972-766-6900"
      } ],
      "address": [ {
        "use": "billing",
        "type": "postal",
        "line": [ "P.O. Box 660044" ],
        "city": "Dallas",
        "state": "TX",
        "postalCode": "75266-0044",
        "country": "USA"
      } ]
    },
    "request": {
      "method": "PUT",
      "url": "Organization/6d9df9aa-0dd9-490a-a3f9-e623b489a990"
    }
  }, {
    "fullUrl": "https://madie.cms.gov/Practitioner/ebc03544-2b6e-49fa-a4c6-e29e34b4e8f6",
    "resource": {
      "resourceType": "Practitioner",
      "id": "ebc03544-2b6e-49fa-a4c6-e29e34b4e8f6",
      "identifier": [ {
        "system": "http://hl7.org/fhir/sid/us-npi",
        "value": "123456"
      } ],
      "name": [ {
        "family": "Evil",
        "prefix": [ "Dr" ]
      } ]
    },
    "request": {
      "method": "PUT",
      "url": "Practitioner/ebc03544-2b6e-49fa-a4c6-e29e34b4e8f6"
    }
  }, {
    "fullUrl": "https://madie.cms.gov/MeasureReport/7bc64137-ecc6-421a-bb2f-0177667a25b7",
    "resource": {
      "resourceType": "MeasureReport",
      "id": "7bc64137-ecc6-421a-bb2f-0177667a25b7",
      "meta": {
        "profile": [ "http://hl7.org/fhir/us/cqfmeasures/StructureDefinition/test-case-cqfm" ]
      },
      "contained": [ {
        "resourceType": "Parameters",
        "id": "b05fed11-1276-444b-be13-6afdae3aa1ab-parameters",
        "parameter": [ {
          "name": "subject",
          "valueString": "dc0dcb01-87f0-4e65-9c36-8cf6174abef1"
        } ]
      } ],
      "extension": [ {
        "url": "http://hl7.org/fhir/StructureDefinition/cqf-inputParameters",
        "valueReference": {
          "reference": "#b05fed11-1276-444b-be13-6afdae3aa1ab-parameters"
        }
      }, {
        "url": "http://hl7.org/fhir/us/cqfmeasures/StructureDefinition/cqfm-testCaseDescription",
        "valueMarkdown": ">18, dx VTE, LOS<120 day,   LabResult INR>3 no decimal,  on surgery end datetime\n"
      } ],
      "modifierExtension": [ {
        "url": "http://hl7.org/fhir/us/cqfmeasures/StructureDefinition/cqfm-isTestCase",
        "valueBoolean": true
      } ],
      "status": "complete",
      "type": "individual",
      "measure": "https://madie.cms.gov/Measure/CMS108FHIRVTEProphylaxis",
      "period": {
        "start": "2026-01-01",
        "end": "2026-12-31"
      },
      "group": [ {
        "id": "Group_1",
        "population": [ {
          "id": "InitialPopulation_1",
          "code": {
            "coding": [ {
              "system": "http://terminology.hl7.org/CodeSystem/measure-population",
              "code": "initial-population",
              "display": "Initial Population"
            } ]
          },
          "count": 1
        }, {
          "id": "Denominator_1",
          "code": {
            "coding": [ {
              "system": "http://terminology.hl7.org/CodeSystem/measure-population",
              "code": "denominator",
              "display": "Denominator"
            } ]
          },
          "count": 1
        }, {
          "id": "DenominatorExclusion_1",
          "code": {
            "coding": [ {
              "system": "http://terminology.hl7.org/CodeSystem/measure-population",
              "code": "denominator-exclusion",
              "display": "Denominator Exclusion"
            } ]
          },
          "count": 0
        }, {
          "id": "Numerator_1",
          "code": {
            "coding": [ {
              "system": "http://terminology.hl7.org/CodeSystem/measure-population",
              "code": "numerator",
              "display": "Numerator"
            } ]
          },
          "count": 1
        } ],
        "measureScore": {
          "value": 0.0
        }
      } ],
      "evaluatedResource": [ {
        "reference": "Patient/dc0dcb01-87f0-4e65-9c36-8cf6174abef1"
      }, {
        "reference": "Encounter/4c1912e8-b6c4-4b35-9ffe-30e2606560c6"
      }, {
        "reference": "Coverage/a55c8d28-c37d-4142-aec3-9ccea667b5e1"
      }, {
        "reference": "Observation/ace64cdd-a8f0-442c-b583-a7816e0f7c5b"
      }, {
        "reference": "Procedure/06a9ece6-a609-491c-b66b-4ed965745771"
      }, {
        "reference": "Organization/6d9df9aa-0dd9-490a-a3f9-e623b489a990"
      }, {
        "reference": "Practitioner/ebc03544-2b6e-49fa-a4c6-e29e34b4e8f6"
      } ]
    },
    "request": {
      "method": "PUT",
      "url": "MeasureReport/7bc64137-ecc6-421a-bb2f-0177667a25b7"
    }
  } ]
}