{
  "resourceType": "Bundle",
  "id": "62fd4b6a0968f8012246b26e",
  "type": "collection",
  "entry": [ {
    "fullUrl": "https://madie.cms.gov/Patient/b1788e29-83a4-4a89-a488-6d0a861f13cd",
    "resource": {
      "resourceType": "Patient",
      "id": "b1788e29-83a4-4a89-a488-6d0a861f13cd",
      "meta": {
        "profile": [ "http://hl7.org/fhir/us/qicore/StructureDefinition/qicore-patient" ]
      },
      "extension": [ {
        "url": "http://hl7.org/fhir/us/core/StructureDefinition/us-core-race",
        "extension": [ {
          "url": "ombCategory",
          "valueCoding": {
            "system": "urn:oid:2.16.840.1.113883.6.238",
            "code": "1002-5",
            "display": "American Indian or Alaska Native",
            "userSelected": true
          }
        }, {
          "url": "text",
          "valueString": "American Indian or Alaska Native"
        } ]
      }, {
        "url": "http://hl7.org/fhir/us/core/StructureDefinition/us-core-ethnicity",
        "extension": [ {
          "url": "ombCategory",
          "valueCoding": {
            "system": "urn:oid:2.16.840.1.113883.6.238",
            "code": "2135-2",
            "display": "Hispanic or Latino",
            "userSelected": true
          }
        }, {
          "url": "text",
          "valueString": "Hispanic or Latino"
        } ]
      } ],
      "identifier": [ {
        "type": {
          "coding": [ {
            "system": "http://terminology.hl7.org/CodeSystem/v2-0203",
            "code": "MR"
          } ]
        },
        "system": "https://bonnie-fhir.healthit.gov/",
        "value": "62fd4b6a0968f8012246b26e"
      } ],
      "name": [ {
        "family": "NUMERFail",
        "given": [ "ConsNotLinkedToReferral" ]
      } ],
      "gender": "female",
      "birthDate": "1990-12-31"
    }
  }, {
    "fullUrl": "https://madie.cms.gov/ServiceRequest/f32a4f01-8395-4dc6-bc38-ed759ff0f89c",
    "resource": {
      "resourceType": "ServiceRequest",
      "id": "f32a4f01-8395-4dc6-bc38-ed759ff0f89c",
      "meta": {
        "profile": [ "http://hl7.org/fhir/us/qicore/StructureDefinition/qicore-servicerequest" ]
      },
      "status": "active",
      "intent": "order",
      "code": {
        "coding": [ {
          "system": "http://snomed.info/sct",
          "version": "http://snomed.info/sct/731000124108/version/20250301",
          "code": "103696004",
          "display": "Patient referral to specialist (procedure)",
          "userSelected": true
        } ]
      },
      "subject": {
        "reference": "Patient/b1788e29-83a4-4a89-a488-6d0a861f13cd"
      },
      "authoredOn": "2026-06-06T08:00:00.000+00:00"
    }
  }, {
    "fullUrl": "https://madie.cms.gov/Encounter/a4223564-3388-4ff5-a639-ebf46147eade",
    "resource": {
      "resourceType": "Encounter",
      "id": "a4223564-3388-4ff5-a639-ebf46147eade",
      "meta": {
        "profile": [ "http://hl7.org/fhir/us/qicore/StructureDefinition/qicore-encounter" ]
      },
      "status": "finished",
      "class": {
        "system": "http://terminology.hl7.org/CodeSystem/v3-ActCode",
        "code": "AMB",
        "display": "ambulatory"
      },
      "type": [ {
        "coding": [ {
          "system": "http://snomed.info/sct",
          "version": "2022-03",
          "code": "359960003",
          "display": "Ophthalmologic examination and evaluation under general anesthesia, limited (procedure)",
          "userSelected": true
        } ]
      } ],
      "subject": {
        "reference": "Patient/b1788e29-83a4-4a89-a488-6d0a861f13cd"
      },
      "period": {
        "start": "2026-05-27T08:00:00.000+00:00",
        "end": "2026-05-27T09:15:00.000+00:00"
      }
    }
  }, {
    "fullUrl": "https://madie.cms.gov/Task/db912c6f-279b-42d7-bf47-1757640ad767",
    "resource": {
      "resourceType": "Task",
      "id": "db912c6f-279b-42d7-bf47-1757640ad767",
      "meta": {
        "profile": [ "http://hl7.org/fhir/us/qicore/StructureDefinition/qicore-task" ]
      },
      "identifier": [ {
        "use": "official",
        "system": "http:/goodhealth.org/identifiers",
        "value": "20170201-002"
      } ],
      "status": "completed",
      "intent": "order",
      "priority": "routine",
      "code": {
        "coding": [ {
          "system": "http://loinc.org",
          "version": "2.72",
          "code": "11488-4",
          "display": "Consult note",
          "userSelected": true
        } ]
      },
      "for": {
        "reference": "Patient/b1788e29-83a4-4a89-a488-6d0a861f13cd"
      },
      "executionPeriod": {
        "start": "2026-08-09T08:00:00.000+00:00",
        "end": "2026-08-09T08:15:00.000+00:00"
      }
    }
  }, {
    "fullUrl": "https://madie.cms.gov/Coverage/ae3e10b5-ea7c-436c-9c5d-62f35acbc74b",
    "resource": {
      "resourceType": "Coverage",
      "id": "ae3e10b5-ea7c-436c-9c5d-62f35acbc74b",
      "meta": {
        "profile": [ "http://hl7.org/fhir/us/qicore/StructureDefinition/qicore-coverage" ]
      },
      "status": "active",
      "subscriberId": "123456",
      "beneficiary": {
        "reference": "Patient/b1788e29-83a4-4a89-a488-6d0a861f13cd"
      },
      "relationship": {
        "coding": [ {
          "system": "http://terminology.hl7.org/CodeSystem/subscriber-relationship",
          "code": "self",
          "display": "Self"
        } ]
      },
      "payor": [ {
        "reference": "Organization/370b11e0-ed99-4181-a0fc-d5682d82e71a"
      } ]
    }
  }, {
    "fullUrl": "https://madie.cms.gov/Organization/370b11e0-ed99-4181-a0fc-d5682d82e71a",
    "resource": {
      "resourceType": "Organization",
      "id": "370b11e0-ed99-4181-a0fc-d5682d82e71a",
      "meta": {
        "profile": [ "http://hl7.org/fhir/us/qicore/StructureDefinition/qicore-organization" ]
      },
      "identifier": [ {
        "use": "temp",
        "system": "urn:oid:2.16.840.1.113883.4.4",
        "value": "21-3259825"
      } ],
      "active": true,
      "type": [ {
        "coding": [ {
          "system": "http://terminology.hl7.org/CodeSystem/organization-type",
          "code": "pay",
          "display": "Payer"
        } ]
      } ],
      "name": "Blue Cross Blue Shield of Texas",
      "telecom": [ {
        "system": "phone",
        "value": "(+1) 972-766-6900"
      } ],
      "address": [ {
        "use": "billing",
        "type": "postal",
        "line": [ "P.O. Box 660044" ],
        "city": "Dallas",
        "state": "TX",
        "postalCode": "75266-0044",
        "country": "USA"
      } ]
    }
  }, {
    "fullUrl": "https://madie.cms.gov/Practitioner/db0d7bb9-2318-4783-8b3e-b99c3cbf7f2a",
    "resource": {
      "resourceType": "Practitioner",
      "id": "db0d7bb9-2318-4783-8b3e-b99c3cbf7f2a",
      "meta": {
        "profile": [ "http://hl7.org/fhir/us/qicore/StructureDefinition/qicore-practitioner" ]
      },
      "identifier": [ {
        "system": "http://hl7.org/fhir/sid/us-npi",
        "value": "1689411712"
      } ],
      "name": [ {
        "family": "Evil",
        "prefix": [ "Dr" ]
      } ]
    }
  }, {
    "fullUrl": "https://madie.cms.gov/MeasureReport/abf68d61-ea4f-4aad-ac31-90c05e471295",
    "resource": {
      "resourceType": "MeasureReport",
      "id": "abf68d61-ea4f-4aad-ac31-90c05e471295",
      "meta": {
        "profile": [ "http://hl7.org/fhir/us/cqfmeasures/StructureDefinition/test-case-cqfm" ]
      },
      "contained": [ {
        "resourceType": "Parameters",
        "id": "05e970d1-8475-492b-bf67-f70cf5d1816b-parameters",
        "parameter": [ {
          "name": "subject",
          "valueString": "b1788e29-83a4-4a89-a488-6d0a861f13cd"
        } ]
      } ],
      "extension": [ {
        "url": "http://hl7.org/fhir/StructureDefinition/cqf-inputParameters",
        "valueReference": {
          "reference": "#05e970d1-8475-492b-bf67-f70cf5d1816b-parameters"
        }
      }, {
        "url": "http://hl7.org/fhir/us/cqfmeasures/StructureDefinition/cqfm-testCaseDescription",
        "valueMarkdown": "Encounter during MP status finished, Referral Status Active, Intent Order during Referral period.  Consultant Report not linked to Referral.\n"
      } ],
      "modifierExtension": [ {
        "url": "http://hl7.org/fhir/us/cqfmeasures/StructureDefinition/cqfm-isTestCase",
        "valueBoolean": true
      } ],
      "status": "complete",
      "type": "individual",
      "measure": "https://madie.cms.gov/Measure/CMS50FHIRReceiptofSpecialistReport",
      "period": {
        "start": "2026-01-01",
        "end": "2026-12-31"
      },
      "group": [ {
        "id": "Group_1",
        "population": [ {
          "id": "InitialPopulation_1",
          "code": {
            "coding": [ {
              "system": "http://terminology.hl7.org/CodeSystem/measure-population",
              "code": "initial-population",
              "display": "Initial Population"
            } ]
          },
          "count": 1
        }, {
          "id": "Denominator_1",
          "code": {
            "coding": [ {
              "system": "http://terminology.hl7.org/CodeSystem/measure-population",
              "code": "denominator",
              "display": "Denominator"
            } ]
          },
          "count": 1
        }, {
          "id": "Numerator_1",
          "code": {
            "coding": [ {
              "system": "http://terminology.hl7.org/CodeSystem/measure-population",
              "code": "numerator",
              "display": "Numerator"
            } ]
          },
          "count": 0
        } ],
        "measureScore": {
          "value": 1.0
        }
      } ],
      "evaluatedResource": [ {
        "reference": "Patient/b1788e29-83a4-4a89-a488-6d0a861f13cd"
      }, {
        "reference": "ServiceRequest/f32a4f01-8395-4dc6-bc38-ed759ff0f89c"
      }, {
        "reference": "Encounter/a4223564-3388-4ff5-a639-ebf46147eade"
      }, {
        "reference": "Task/db912c6f-279b-42d7-bf47-1757640ad767"
      }, {
        "reference": "Coverage/ae3e10b5-ea7c-436c-9c5d-62f35acbc74b"
      }, {
        "reference": "Organization/370b11e0-ed99-4181-a0fc-d5682d82e71a"
      }, {
        "reference": "Practitioner/db0d7bb9-2318-4783-8b3e-b99c3cbf7f2a"
      } ]
    }
  } ]
}