{
  "resourceType": "Bundle",
  "id": "62c880ec0111a60120dc21f0",
  "type": "transaction",
  "entry": [ {
    "fullUrl": "https://madie.cms.gov/Patient/90d3454a-ca4b-4035-a524-255a2f03bef7",
    "resource": {
      "resourceType": "Patient",
      "id": "90d3454a-ca4b-4035-a524-255a2f03bef7",
      "meta": {
        "profile": [ "http://hl7.org/fhir/us/qicore/StructureDefinition/qicore-patient" ]
      },
      "extension": [ {
        "url": "http://hl7.org/fhir/us/core/StructureDefinition/us-core-race",
        "extension": [ {
          "url": "ombCategory",
          "valueCoding": {
            "system": "urn:oid:2.16.840.1.113883.6.238",
            "code": "1002-5",
            "display": "American Indian or Alaska Native"
          }
        }, {
          "url": "text",
          "valueString": "American Indian or Alaska Native"
        } ]
      }, {
        "url": "http://hl7.org/fhir/us/core/StructureDefinition/us-core-ethnicity",
        "extension": [ {
          "url": "ombCategory",
          "valueCoding": {
            "system": "urn:oid:2.16.840.1.113883.6.238",
            "code": "2135-2",
            "display": "Hispanic or Latino"
          }
        }, {
          "url": "text",
          "valueString": "Hispanic or Latino"
        } ]
      } ],
      "identifier": [ {
        "type": {
          "coding": [ {
            "system": "http://terminology.hl7.org/CodeSystem/v2-0203",
            "code": "MR"
          } ]
        },
        "system": "https://bonnie-fhir.healthit.gov/",
        "value": "62c880ec0111a60120dc21f0"
      } ],
      "active": true,
      "name": [ {
        "use": "usual",
        "family": "NUMERPassPop1",
        "given": [ "MultEp1Num1Den2" ]
      } ],
      "gender": "female",
      "birthDate": "1938-05-13"
    },
    "request": {
      "method": "PUT",
      "url": "Patient/90d3454a-ca4b-4035-a524-255a2f03bef7"
    }
  }, {
    "fullUrl": "https://madie.cms.gov/Observation/6346e2a3-e986-4cb2-8c2c-ab82d1b27a98",
    "resource": {
      "resourceType": "Observation",
      "id": "6346e2a3-e986-4cb2-8c2c-ab82d1b27a98",
      "meta": {
        "profile": [ "http://hl7.org/fhir/us/qicore/StructureDefinition/qicore-observation-screening-assessment" ]
      },
      "status": "final",
      "category": [ {
        "coding": [ {
          "system": "http://terminology.hl7.org/CodeSystem/observation-category",
          "code": "survey",
          "display": "Survey"
        } ],
        "text": "Survey"
      } ],
      "code": {
        "coding": [ {
          "system": "http://loinc.org",
          "code": "38208-5"
        } ]
      },
      "subject": {
        "reference": "Patient/90d3454a-ca4b-4035-a524-255a2f03bef7"
      },
      "effectiveDateTime": "2026-03-03T14:00:00.000+00:00",
      "valueInteger": 10
    },
    "request": {
      "method": "PUT",
      "url": "Observation/6346e2a3-e986-4cb2-8c2c-ab82d1b27a98"
    }
  }, {
    "fullUrl": "https://madie.cms.gov/Observation/975851fd-0b3d-4694-80b3-a15e48f4473a",
    "resource": {
      "resourceType": "Observation",
      "id": "975851fd-0b3d-4694-80b3-a15e48f4473a",
      "meta": {
        "profile": [ "http://hl7.org/fhir/us/qicore/StructureDefinition/qicore-observation-screening-assessment" ]
      },
      "status": "final",
      "category": [ {
        "coding": [ {
          "system": "http://terminology.hl7.org/CodeSystem/observation-category",
          "code": "survey",
          "display": "Survey"
        } ],
        "text": "Survey"
      } ],
      "code": {
        "coding": [ {
          "system": "http://loinc.org",
          "code": "38208-5"
        } ]
      },
      "subject": {
        "reference": "Patient/90d3454a-ca4b-4035-a524-255a2f03bef7"
      },
      "effectiveDateTime": "2026-05-22T08:00:00.000+00:00"
    },
    "request": {
      "method": "PUT",
      "url": "Observation/975851fd-0b3d-4694-80b3-a15e48f4473a"
    }
  }, {
    "fullUrl": "https://madie.cms.gov/Observation/6346e2a3-e986-4cb2-8c2c-ab82d1b27a98l",
    "resource": {
      "resourceType": "Observation",
      "id": "6346e2a3-e986-4cb2-8c2c-ab82d1b27a98l",
      "meta": {
        "profile": [ "http://hl7.org/fhir/us/qicore/StructureDefinition/qicore-observation-screening-assessment" ]
      },
      "status": "final",
      "category": [ {
        "coding": [ {
          "system": "http://terminology.hl7.org/CodeSystem/observation-category",
          "code": "survey",
          "display": "Survey"
        } ],
        "text": "Survey"
      } ],
      "code": {
        "coding": [ {
          "system": "http://loinc.org",
          "code": "38208-5"
        } ]
      },
      "subject": {
        "reference": "Patient/90d3454a-ca4b-4035-a524-255a2f03bef7"
      },
      "effectiveDateTime": "2026-05-30T13:00:00.000+00:00",
      "valueInteger": 5
    },
    "request": {
      "method": "PUT",
      "url": "Observation/6346e2a3-e986-4cb2-8c2c-ab82d1b27a98l"
    }
  }, {
    "fullUrl": "https://madie.cms.gov/Condition/225594c0-2d91-41a3-8e49-cc515ffa58e8",
    "resource": {
      "resourceType": "Condition",
      "id": "225594c0-2d91-41a3-8e49-cc515ffa58e8",
      "meta": {
        "profile": [ "http://hl7.org/fhir/us/qicore/StructureDefinition/qicore-condition-problems-health-concerns" ]
      },
      "clinicalStatus": {
        "coding": [ {
          "system": "http://terminology.hl7.org/CodeSystem/condition-clinical",
          "code": "active",
          "display": "active"
        } ]
      },
      "verificationStatus": {
        "coding": [ {
          "system": "http://terminology.hl7.org/CodeSystem/condition-ver-status",
          "code": "confirmed",
          "display": "Confirmed"
        } ]
      },
      "category": [ {
        "coding": [ {
          "system": "http://terminology.hl7.org/CodeSystem/condition-category",
          "code": "problem-list-item",
          "display": "Problem List Item"
        } ]
      } ],
      "code": {
        "coding": [ {
          "system": "http://hl7.org/fhir/sid/icd-10-cm",
          "code": "C00.0"
        } ]
      },
      "subject": {
        "reference": "Patient/90d3454a-ca4b-4035-a524-255a2f03bef7"
      },
      "onsetDateTime": "2024-11-01T13:30:00.000+00:00"
    },
    "request": {
      "method": "PUT",
      "url": "Condition/225594c0-2d91-41a3-8e49-cc515ffa58e8"
    }
  }, {
    "fullUrl": "https://madie.cms.gov/Encounter/b2dcc338-1f04-4c10-9638-0509c2b0d3cb",
    "resource": {
      "resourceType": "Encounter",
      "id": "b2dcc338-1f04-4c10-9638-0509c2b0d3cb",
      "meta": {
        "profile": [ "http://hl7.org/fhir/us/qicore/StructureDefinition/qicore-encounter" ]
      },
      "status": "finished",
      "class": {
        "system": "http://terminology.hl7.org/CodeSystem/v3-ActCode",
        "code": "AMB",
        "display": "ambulatory",
        "userSelected": true
      },
      "type": [ {
        "coding": [ {
          "system": "http://snomed.info/sct",
          "code": "185463005"
        } ]
      } ],
      "subject": {
        "reference": "Patient/90d3454a-ca4b-4035-a524-255a2f03bef7"
      },
      "period": {
        "start": "2026-01-30T14:00:00.000+00:00",
        "end": "2026-01-30T15:00:00.000+00:00"
      }
    },
    "request": {
      "method": "PUT",
      "url": "Encounter/b2dcc338-1f04-4c10-9638-0509c2b0d3cb"
    }
  }, {
    "fullUrl": "https://madie.cms.gov/Encounter/f2af00f5-be34-4b3d-b2dc-2dd3e046156e",
    "resource": {
      "resourceType": "Encounter",
      "id": "f2af00f5-be34-4b3d-b2dc-2dd3e046156e",
      "meta": {
        "profile": [ "http://hl7.org/fhir/us/qicore/StructureDefinition/qicore-encounter" ]
      },
      "status": "finished",
      "class": {
        "system": "http://terminology.hl7.org/CodeSystem/v3-ActCode",
        "code": "AMB",
        "display": "ambulatory",
        "userSelected": true
      },
      "type": [ {
        "coding": [ {
          "system": "http://snomed.info/sct",
          "code": "185463005"
        } ]
      } ],
      "subject": {
        "reference": "Patient/90d3454a-ca4b-4035-a524-255a2f03bef7"
      },
      "period": {
        "start": "2026-03-03T13:30:00.000+00:00",
        "end": "2026-03-03T14:30:00.000+00:00"
      }
    },
    "request": {
      "method": "PUT",
      "url": "Encounter/f2af00f5-be34-4b3d-b2dc-2dd3e046156e"
    }
  }, {
    "fullUrl": "https://madie.cms.gov/Encounter/006a5ac7-38db-4e03-b84d-74c0d34018e7",
    "resource": {
      "resourceType": "Encounter",
      "id": "006a5ac7-38db-4e03-b84d-74c0d34018e7",
      "meta": {
        "profile": [ "http://hl7.org/fhir/us/qicore/StructureDefinition/qicore-encounter" ]
      },
      "status": "finished",
      "class": {
        "system": "http://terminology.hl7.org/CodeSystem/v3-ActCode",
        "code": "AMB",
        "display": "ambulatory",
        "userSelected": true
      },
      "type": [ {
        "coding": [ {
          "system": "http://www.ama-assn.org/go/cpt",
          "code": "99202"
        } ]
      } ],
      "subject": {
        "reference": "Patient/90d3454a-ca4b-4035-a524-255a2f03bef7"
      },
      "period": {
        "start": "2026-05-30T12:45:00.000+00:00",
        "end": "2026-05-30T13:45:00.000+00:00"
      }
    },
    "request": {
      "method": "PUT",
      "url": "Encounter/006a5ac7-38db-4e03-b84d-74c0d34018e7"
    }
  }, {
    "fullUrl": "https://madie.cms.gov/Encounter/a52dbe5e-cccc-4f21-ac24-c56e7a71c1e5",
    "resource": {
      "resourceType": "Encounter",
      "id": "a52dbe5e-cccc-4f21-ac24-c56e7a71c1e5",
      "meta": {
        "profile": [ "http://hl7.org/fhir/us/qicore/StructureDefinition/qicore-encounter" ]
      },
      "status": "finished",
      "class": {
        "system": "http://terminology.hl7.org/CodeSystem/v3-ActCode",
        "code": "AMB",
        "display": "ambulatory",
        "userSelected": true
      },
      "type": [ {
        "coding": [ {
          "system": "http://www.ama-assn.org/go/cpt",
          "code": "99202"
        } ]
      } ],
      "subject": {
        "reference": "Patient/90d3454a-ca4b-4035-a524-255a2f03bef7"
      },
      "period": {
        "start": "2026-07-03T10:45:00.000+00:00",
        "end": "2026-07-03T11:45:00.000+00:00"
      }
    },
    "request": {
      "method": "PUT",
      "url": "Encounter/a52dbe5e-cccc-4f21-ac24-c56e7a71c1e5"
    }
  }, {
    "fullUrl": "https://madie.cms.gov/Coverage/a2ae9963-ddb3-4ded-bbb1-bf4c4e988c4b",
    "resource": {
      "resourceType": "Coverage",
      "id": "a2ae9963-ddb3-4ded-bbb1-bf4c4e988c4b",
      "meta": {
        "profile": [ "http://hl7.org/fhir/us/qicore/StructureDefinition/qicore-coverage" ]
      },
      "status": "active",
      "beneficiary": {
        "reference": "Patient/90d3454a-ca4b-4035-a524-255a2f03bef7"
      },
      "period": {
        "start": "1938-05-13T08:00:00.000+00:00"
      },
      "payor": [ {
        "reference": "Organization/4c547578-0c88-4447-940a-9f717566b274"
      } ]
    },
    "request": {
      "method": "PUT",
      "url": "Coverage/a2ae9963-ddb3-4ded-bbb1-bf4c4e988c4b"
    }
  }, {
    "fullUrl": "https://madie.cms.gov/Procedure/4ed60961-b93f-4521-b5c2-a37edebd89fe",
    "resource": {
      "resourceType": "Procedure",
      "id": "4ed60961-b93f-4521-b5c2-a37edebd89fe",
      "meta": {
        "profile": [ "http://hl7.org/fhir/us/qicore/StructureDefinition/qicore-procedure" ]
      },
      "extension": [ {
        "url": "http://hl7.org/fhir/us/qicore/StructureDefinition/qicore-recorded",
        "valueDateTime": "2026-02-27T12:35:00.000+00:00"
      } ],
      "status": "completed",
      "code": {
        "coding": [ {
          "system": "http://www.ama-assn.org/go/cpt",
          "code": "96409"
        } ]
      },
      "subject": {
        "reference": "Patient/90d3454a-ca4b-4035-a524-255a2f03bef7"
      },
      "performedPeriod": {
        "start": "2026-02-27T11:30:00.000+00:00",
        "end": "2026-02-27T11:30:00.000+00:00"
      }
    },
    "request": {
      "method": "PUT",
      "url": "Procedure/4ed60961-b93f-4521-b5c2-a37edebd89fe"
    }
  }, {
    "fullUrl": "https://madie.cms.gov/Procedure/0a625b10-62ed-4b99-a835-c3edd6be19a6",
    "resource": {
      "resourceType": "Procedure",
      "id": "0a625b10-62ed-4b99-a835-c3edd6be19a6",
      "meta": {
        "profile": [ "http://hl7.org/fhir/us/qicore/StructureDefinition/qicore-procedure" ]
      },
      "extension": [ {
        "url": "http://hl7.org/fhir/us/qicore/StructureDefinition/qicore-recorded",
        "valueDateTime": "2026-04-01T12:35:00.000+00:00"
      } ],
      "status": "completed",
      "code": {
        "coding": [ {
          "system": "http://www.ama-assn.org/go/cpt",
          "code": "96409"
        } ]
      },
      "subject": {
        "reference": "Patient/90d3454a-ca4b-4035-a524-255a2f03bef7"
      },
      "performedPeriod": {
        "start": "2026-04-01T12:30:00.000+00:00",
        "end": "2026-04-01T12:30:00.000+00:00"
      }
    },
    "request": {
      "method": "PUT",
      "url": "Procedure/0a625b10-62ed-4b99-a835-c3edd6be19a6"
    }
  }, {
    "fullUrl": "https://madie.cms.gov/Procedure/daa2a058-f47b-41fc-9a19-831b3f980224",
    "resource": {
      "resourceType": "Procedure",
      "id": "daa2a058-f47b-41fc-9a19-831b3f980224",
      "meta": {
        "profile": [ "http://hl7.org/fhir/us/qicore/StructureDefinition/qicore-procedure" ]
      },
      "extension": [ {
        "url": "http://hl7.org/fhir/us/qicore/StructureDefinition/qicore-recorded",
        "valueDateTime": "2026-05-30T12:35:00.000+00:00"
      } ],
      "status": "completed",
      "code": {
        "coding": [ {
          "system": "http://snomed.info/sct",
          "code": "169396008"
        } ]
      },
      "subject": {
        "reference": "Patient/90d3454a-ca4b-4035-a524-255a2f03bef7"
      },
      "performedPeriod": {
        "start": "2026-05-30T12:45:00.000+00:00",
        "end": "2026-05-30T13:45:00.000+00:00"
      }
    },
    "request": {
      "method": "PUT",
      "url": "Procedure/daa2a058-f47b-41fc-9a19-831b3f980224"
    }
  }, {
    "fullUrl": "https://madie.cms.gov/Procedure/7e070a3e-1f2e-4566-ba2d-8702b0db2090",
    "resource": {
      "resourceType": "Procedure",
      "id": "7e070a3e-1f2e-4566-ba2d-8702b0db2090",
      "meta": {
        "profile": [ "http://hl7.org/fhir/us/qicore/StructureDefinition/qicore-procedure" ]
      },
      "extension": [ {
        "url": "http://hl7.org/fhir/us/qicore/StructureDefinition/qicore-recorded",
        "valueDateTime": "2026-06-04T12:35:00.000+00:00"
      } ],
      "status": "completed",
      "code": {
        "coding": [ {
          "system": "http://www.ama-assn.org/go/cpt",
          "code": "51720"
        } ]
      },
      "subject": {
        "reference": "Patient/90d3454a-ca4b-4035-a524-255a2f03bef7"
      },
      "performedPeriod": {
        "start": "2026-06-04T15:30:00.000+00:00",
        "end": "2026-06-04T15:30:00.000+00:00"
      }
    },
    "request": {
      "method": "PUT",
      "url": "Procedure/7e070a3e-1f2e-4566-ba2d-8702b0db2090"
    }
  }, {
    "fullUrl": "https://madie.cms.gov/Organization/4c547578-0c88-4447-940a-9f717566b274",
    "resource": {
      "resourceType": "Organization",
      "id": "4c547578-0c88-4447-940a-9f717566b274",
      "meta": {
        "profile": [ "http://hl7.org/fhir/us/qicore/StructureDefinition/qicore-organization" ]
      },
      "identifier": [ {
        "use": "temp",
        "system": "urn:oid:2.16.840.1.113883.4.4",
        "value": "21-3259825"
      } ],
      "active": true,
      "type": [ {
        "coding": [ {
          "system": "http://terminology.hl7.org/CodeSystem/organization-type",
          "code": "pay",
          "display": "Payer"
        } ]
      } ],
      "name": "Blue Cross Blue Shield of Texas",
      "telecom": [ {
        "system": "phone",
        "value": "(+1) 972-766-6900"
      } ],
      "address": [ {
        "use": "billing",
        "type": "postal",
        "line": [ "P.O. Box 660044" ],
        "city": "Dallas",
        "state": "TX",
        "postalCode": "75266-0044",
        "country": "USA"
      } ]
    },
    "request": {
      "method": "PUT",
      "url": "Organization/4c547578-0c88-4447-940a-9f717566b274"
    }
  }, {
    "fullUrl": "https://madie.cms.gov/Practitioner/4d2f2a56-6aee-4998-afe9-fd11fa541dcc",
    "resource": {
      "resourceType": "Practitioner",
      "id": "4d2f2a56-6aee-4998-afe9-fd11fa541dcc",
      "meta": {
        "profile": [ "http://hl7.org/fhir/us/qicore/StructureDefinition/qicore-practitioner" ]
      },
      "identifier": [ {
        "system": "http://hl7.org/fhir/sid/us-npi",
        "value": "1234567890"
      } ],
      "name": [ {
        "family": "Evil",
        "prefix": [ "Dr" ]
      } ]
    },
    "request": {
      "method": "PUT",
      "url": "Practitioner/4d2f2a56-6aee-4998-afe9-fd11fa541dcc"
    }
  }, {
    "fullUrl": "https://madie.cms.gov/MeasureReport/a518ac8d-270d-4777-b241-d68e6d89d348",
    "resource": {
      "resourceType": "MeasureReport",
      "id": "a518ac8d-270d-4777-b241-d68e6d89d348",
      "meta": {
        "profile": [ "http://hl7.org/fhir/us/cqfmeasures/StructureDefinition/test-case-cqfm" ]
      },
      "contained": [ {
        "resourceType": "Parameters",
        "id": "6a5e8f5a-6145-4bb8-a701-87651a9ea76d-parameters",
        "parameter": [ {
          "name": "subject",
          "valueString": "90d3454a-ca4b-4035-a524-255a2f03bef7"
        } ]
      } ],
      "extension": [ {
        "url": "http://hl7.org/fhir/StructureDefinition/cqf-inputParameters",
        "valueReference": {
          "reference": "#6a5e8f5a-6145-4bb8-a701-87651a9ea76d-parameters"
        }
      }, {
        "url": "http://hl7.org/fhir/us/cqfmeasures/StructureDefinition/cqfm-testCaseDescription",
        "valueMarkdown": "Patient with cancer diagnosis overlaps the office visits during measurement period. Chemotherapy administered, and pain intensity assessment was performed during 2 office visits.   \n"
      } ],
      "modifierExtension": [ {
        "url": "http://hl7.org/fhir/us/cqfmeasures/StructureDefinition/cqfm-isTestCase",
        "valueBoolean": true
      } ],
      "status": "complete",
      "type": "individual",
      "measure": "https://madie.cms.gov/Measure/CMS157FHIRPainIntensityQuantified",
      "period": {
        "start": "2026-01-01",
        "end": "2026-12-31"
      },
      "group": [ {
        "id": "Group_1",
        "population": [ {
          "id": "InitialPopulation_1",
          "code": {
            "coding": [ {
              "system": "http://terminology.hl7.org/CodeSystem/measure-population",
              "code": "initial-population",
              "display": "Initial Population"
            } ]
          },
          "count": 2
        }, {
          "id": "Denominator_1",
          "code": {
            "coding": [ {
              "system": "http://terminology.hl7.org/CodeSystem/measure-population",
              "code": "denominator",
              "display": "Denominator"
            } ]
          },
          "count": 2
        }, {
          "id": "Numerator_1",
          "code": {
            "coding": [ {
              "system": "http://terminology.hl7.org/CodeSystem/measure-population",
              "code": "numerator",
              "display": "Numerator"
            } ]
          },
          "count": 2
        } ],
        "measureScore": {
          "value": 0.0
        }
      }, {
        "id": "Group_2",
        "population": [ {
          "id": "InitialPopulation_2",
          "code": {
            "coding": [ {
              "system": "http://terminology.hl7.org/CodeSystem/measure-population",
              "code": "initial-population",
              "display": "Initial Population"
            } ]
          },
          "count": 0
        }, {
          "id": "Denominator_2",
          "code": {
            "coding": [ {
              "system": "http://terminology.hl7.org/CodeSystem/measure-population",
              "code": "denominator",
              "display": "Denominator"
            } ]
          },
          "count": 0
        }, {
          "id": "Numerator_2",
          "code": {
            "coding": [ {
              "system": "http://terminology.hl7.org/CodeSystem/measure-population",
              "code": "numerator",
              "display": "Numerator"
            } ]
          },
          "count": 0
        } ],
        "measureScore": {
          "value": 0.0
        }
      } ],
      "evaluatedResource": [ {
        "reference": "Patient/90d3454a-ca4b-4035-a524-255a2f03bef7"
      }, {
        "reference": "Observation/6346e2a3-e986-4cb2-8c2c-ab82d1b27a98"
      }, {
        "reference": "Observation/975851fd-0b3d-4694-80b3-a15e48f4473a"
      }, {
        "reference": "Observation/6346e2a3-e986-4cb2-8c2c-ab82d1b27a98l"
      }, {
        "reference": "Condition/225594c0-2d91-41a3-8e49-cc515ffa58e8"
      }, {
        "reference": "Encounter/b2dcc338-1f04-4c10-9638-0509c2b0d3cb"
      }, {
        "reference": "Encounter/f2af00f5-be34-4b3d-b2dc-2dd3e046156e"
      }, {
        "reference": "Encounter/006a5ac7-38db-4e03-b84d-74c0d34018e7"
      }, {
        "reference": "Encounter/a52dbe5e-cccc-4f21-ac24-c56e7a71c1e5"
      }, {
        "reference": "Coverage/a2ae9963-ddb3-4ded-bbb1-bf4c4e988c4b"
      }, {
        "reference": "Procedure/4ed60961-b93f-4521-b5c2-a37edebd89fe"
      }, {
        "reference": "Procedure/0a625b10-62ed-4b99-a835-c3edd6be19a6"
      }, {
        "reference": "Procedure/daa2a058-f47b-41fc-9a19-831b3f980224"
      }, {
        "reference": "Procedure/7e070a3e-1f2e-4566-ba2d-8702b0db2090"
      }, {
        "reference": "Organization/4c547578-0c88-4447-940a-9f717566b274"
      }, {
        "reference": "Practitioner/4d2f2a56-6aee-4998-afe9-fd11fa541dcc"
      } ]
    },
    "request": {
      "method": "PUT",
      "url": "MeasureReport/a518ac8d-270d-4777-b241-d68e6d89d348"
    }
  } ]
}