{
  "resourceType": "Bundle",
  "id": "62d728a9c22c612899b40d62",
  "type": "collection",
  "entry": [ {
    "fullUrl": "https://madie.cms.gov/Patient/f9417a57-54e8-4a0b-a516-ab62b8d4aae0",
    "resource": {
      "resourceType": "Patient",
      "id": "f9417a57-54e8-4a0b-a516-ab62b8d4aae0",
      "meta": {
        "profile": [ "http://hl7.org/fhir/us/qicore/StructureDefinition/qicore-patient" ]
      },
      "extension": [ {
        "url": "http://hl7.org/fhir/us/core/StructureDefinition/us-core-race",
        "extension": [ {
          "url": "ombCategory",
          "valueCoding": {
            "system": "urn:oid:2.16.840.1.113883.6.238",
            "code": "2054-5",
            "display": "Black or African American",
            "userSelected": true
          }
        }, {
          "url": "text",
          "valueString": "Black or African American"
        } ]
      }, {
        "url": "http://hl7.org/fhir/us/core/StructureDefinition/us-core-ethnicity",
        "extension": [ {
          "url": "ombCategory",
          "valueCoding": {
            "system": "urn:oid:2.16.840.1.113883.6.238",
            "code": "2135-2",
            "display": "Hispanic or Latino",
            "userSelected": true
          }
        }, {
          "url": "text",
          "valueString": "Hispanic or Latino"
        } ]
      } ],
      "identifier": [ {
        "type": {
          "coding": [ {
            "system": "http://terminology.hl7.org/CodeSystem/v2-0203",
            "code": "MR"
          } ]
        },
        "system": "https://bonnie-fhir.healthit.gov/",
        "value": "62d728a9c22c612899b40d62"
      } ],
      "name": [ {
        "family": "DENEXCEPPassX2",
        "given": [ "2HTN130DeclinedLabOthers" ]
      } ],
      "gender": "male",
      "birthDate": "2007-01-31"
    }
  }, {
    "fullUrl": "https://madie.cms.gov/Encounter/30858017-8211-4d72-97f6-2019d8640334",
    "resource": {
      "resourceType": "Encounter",
      "id": "30858017-8211-4d72-97f6-2019d8640334",
      "meta": {
        "profile": [ "http://hl7.org/fhir/us/qicore/StructureDefinition/qicore-encounter" ]
      },
      "status": "finished",
      "class": {
        "system": "http://terminology.hl7.org/CodeSystem/v3-ActCode",
        "code": "AMB",
        "display": "ambulatory"
      },
      "type": [ {
        "coding": [ {
          "system": "http://snomed.info/sct",
          "version": "2022-03",
          "code": "103705002",
          "display": "Patient status observation (procedure)",
          "userSelected": true
        } ]
      } ],
      "subject": {
        "reference": "Patient/f9417a57-54e8-4a0b-a516-ab62b8d4aae0"
      },
      "period": {
        "start": "2026-01-01T00:00:00.000Z",
        "end": "2026-01-01T00:30:00.000Z"
      }
    }
  }, {
    "fullUrl": "https://madie.cms.gov/Observation/3f0153be-47ac-45d9-adb6-19949da85b83",
    "resource": {
      "resourceType": "Observation",
      "id": "3f0153be-47ac-45d9-adb6-19949da85b83",
      "meta": {
        "profile": [ "http://hl7.org/fhir/us/core/StructureDefinition/us-core-blood-pressure" ]
      },
      "status": "final",
      "category": [ {
        "coding": [ {
          "system": "http://terminology.hl7.org/CodeSystem/observation-category",
          "code": "vital-signs",
          "display": "Vital Signs"
        } ],
        "text": "Vital Signs"
      } ],
      "code": {
        "coding": [ {
          "system": "http://loinc.org",
          "code": "85354-9",
          "display": "Blood pressure panel with all children optional"
        } ]
      },
      "subject": {
        "reference": "Patient/f9417a57-54e8-4a0b-a516-ab62b8d4aae0"
      },
      "effectiveDateTime": "2026-01-01T00:01:00.000Z",
      "component": [ {
        "code": {
          "coding": [ {
            "system": "http://loinc.org",
            "code": "8480-6",
            "display": "Systolic blood pressure"
          } ]
        },
        "valueQuantity": {
          "value": 130,
          "unit": "mmHg",
          "system": "http://unitsofmeasure.org",
          "code": "mm[Hg]"
        }
      }, {
        "code": {
          "coding": [ {
            "system": "http://loinc.org",
            "code": "8462-4",
            "display": "Diastolic blood pressure"
          } ]
        },
        "valueQuantity": {
          "value": 79,
          "unit": "mmHg",
          "system": "http://unitsofmeasure.org",
          "code": "mm[Hg]"
        }
      } ]
    }
  }, {
    "fullUrl": "https://madie.cms.gov/ServiceRequest/8228e40a-abe8-4a6d-a289-38d41f646955",
    "resource": {
      "resourceType": "ServiceRequest",
      "id": "8228e40a-abe8-4a6d-a289-38d41f646955",
      "meta": {
        "profile": [ "http://hl7.org/fhir/us/qicore/StructureDefinition/qicore-servicenotrequested" ]
      },
      "extension": [ {
        "url": "http://hl7.org/fhir/us/qicore/StructureDefinition/qicore-doNotPerformReason",
        "valueCodeableConcept": {
          "coding": [ {
            "system": "http://snomed.info/sct",
            "code": "1296859006",
            "display": "Procedure declined (situation)",
            "userSelected": true
          } ]
        }
      } ],
      "status": "completed",
      "intent": "order",
      "doNotPerform": true,
      "code": {
        "coding": [ {
          "system": "http://snomed.info/sct",
          "version": "2022-03",
          "code": "1181000175107",
          "display": "Recommendation to lose weight (procedure)",
          "userSelected": true
        } ]
      },
      "subject": {
        "reference": "Patient/f9417a57-54e8-4a0b-a516-ab62b8d4aae0"
      },
      "authoredOn": "2026-01-01T00:05:00.000Z"
    }
  }, {
    "fullUrl": "https://madie.cms.gov/Encounter/dda4d891-5f3f-4b7a-bcfb-e9bd53886f3f",
    "resource": {
      "resourceType": "Encounter",
      "id": "dda4d891-5f3f-4b7a-bcfb-e9bd53886f3f",
      "meta": {
        "profile": [ "http://hl7.org/fhir/us/qicore/StructureDefinition/qicore-encounter" ]
      },
      "status": "finished",
      "class": {
        "system": "http://terminology.hl7.org/CodeSystem/v3-ActCode",
        "code": "AMB",
        "display": "ambulatory"
      },
      "type": [ {
        "coding": [ {
          "system": "http://snomed.info/sct",
          "version": "2022-03",
          "code": "103705002",
          "display": "Patient status observation (procedure)",
          "userSelected": true
        } ]
      } ],
      "subject": {
        "reference": "Patient/f9417a57-54e8-4a0b-a516-ab62b8d4aae0"
      },
      "period": {
        "start": "2026-12-31T23:30:00.000Z",
        "end": "2026-12-31T23:59:00.000Z"
      }
    }
  }, {
    "fullUrl": "https://madie.cms.gov/Observation/5c7fe142-e0f9-41ab-972d-4ec1af219650",
    "resource": {
      "resourceType": "Observation",
      "id": "5c7fe142-e0f9-41ab-972d-4ec1af219650",
      "meta": {
        "profile": [ "http://hl7.org/fhir/us/core/StructureDefinition/us-core-blood-pressure" ]
      },
      "status": "final",
      "category": [ {
        "coding": [ {
          "system": "http://terminology.hl7.org/CodeSystem/observation-category",
          "code": "vital-signs",
          "display": "Vital Signs"
        } ],
        "text": "Vital Signs"
      } ],
      "code": {
        "coding": [ {
          "system": "http://loinc.org",
          "code": "85354-9",
          "display": "Blood pressure panel with all children optional"
        } ]
      },
      "subject": {
        "reference": "Patient/f9417a57-54e8-4a0b-a516-ab62b8d4aae0"
      },
      "effectiveDateTime": "2026-12-31T23:31:00.000Z",
      "component": [ {
        "code": {
          "coding": [ {
            "system": "http://loinc.org",
            "code": "8480-6",
            "display": "Systolic blood pressure"
          } ]
        },
        "valueQuantity": {
          "value": 130,
          "unit": "mmHg",
          "system": "http://unitsofmeasure.org",
          "code": "mm[Hg]"
        }
      }, {
        "code": {
          "coding": [ {
            "system": "http://loinc.org",
            "code": "8462-4",
            "display": "Diastolic blood pressure"
          } ]
        },
        "valueQuantity": {
          "value": 89,
          "unit": "mmHg",
          "system": "http://unitsofmeasure.org",
          "code": "mm[Hg]"
        }
      } ]
    }
  }, {
    "fullUrl": "https://madie.cms.gov/ServiceRequest/f07c701d-30e1-4beb-a9f3-025d02cebe12",
    "resource": {
      "resourceType": "ServiceRequest",
      "id": "f07c701d-30e1-4beb-a9f3-025d02cebe12",
      "meta": {
        "profile": [ "http://hl7.org/fhir/us/qicore/StructureDefinition/qicore-servicenotrequested" ]
      },
      "extension": [ {
        "url": "http://hl7.org/fhir/us/qicore/StructureDefinition/qicore-doNotPerformReason",
        "valueCodeableConcept": {
          "coding": [ {
            "system": "http://snomed.info/sct",
            "code": "1296859006",
            "display": "Procedure declined (situation)",
            "userSelected": true
          } ]
        }
      } ],
      "status": "completed",
      "intent": "order",
      "doNotPerform": true,
      "code": {
        "coding": [ {
          "system": "http://snomed.info/sct",
          "version": "2022-03",
          "code": "20093000",
          "display": "Alcohol rehabilitation and detoxification (regime/therapy)",
          "userSelected": true
        } ]
      },
      "subject": {
        "reference": "Patient/f9417a57-54e8-4a0b-a516-ab62b8d4aae0"
      },
      "authoredOn": "2026-12-31T23:01:00.000Z"
    }
  }, {
    "fullUrl": "https://madie.cms.gov/MedicationRequest/15563d32-47c4-424f-9ede-9d87a566d42b",
    "resource": {
      "resourceType": "MedicationRequest",
      "id": "15563d32-47c4-424f-9ede-9d87a566d42b",
      "meta": {
        "profile": [ "http://hl7.org/fhir/us/qicore/StructureDefinition/qicore-mednotrequested" ]
      },
      "status": "completed",
      "intent": "order",
      "doNotPerform": true,
      "medicationCodeableConcept": {
        "coding": [ {
          "system": "http://www.nlm.nih.gov/research/umls/rxnorm",
          "code": "1000001",
          "display": "amlodipine 5 MG / hydrochlorothiazide 25 MG / olmesartan medoxomil 40 MG Oral Tablet",
          "userSelected": true
        } ]
      },
      "subject": {
        "reference": "Patient/f9417a57-54e8-4a0b-a516-ab62b8d4aae0"
      },
      "authoredOn": "2026-12-31T23:58:00.000Z",
      "requester": {
        "reference": "Practitioner/123456"
      },
      "reasonCode": [ {
        "coding": [ {
          "system": "http://snomed.info/sct",
          "code": "1296859006",
          "display": "Procedure declined (situation)"
        } ]
      } ]
    }
  }, {
    "fullUrl": "https://madie.cms.gov/ServiceRequest/891f17b4-a2c6-4f12-87a4-ac5e1c52b012",
    "resource": {
      "resourceType": "ServiceRequest",
      "id": "891f17b4-a2c6-4f12-87a4-ac5e1c52b012",
      "meta": {
        "profile": [ "http://hl7.org/fhir/us/qicore/StructureDefinition/qicore-servicenotrequested" ]
      },
      "extension": [ {
        "url": "http://hl7.org/fhir/us/qicore/StructureDefinition/qicore-doNotPerformReason",
        "valueCodeableConcept": {
          "coding": [ {
            "system": "http://snomed.info/sct",
            "version": "2022-03",
            "code": "413311005",
            "display": "Patient non-compliant - declined intervention / support (situation)",
            "userSelected": true
          } ]
        }
      } ],
      "status": "completed",
      "intent": "order",
      "doNotPerform": true,
      "code": {
        "coding": [ {
          "system": "http://loinc.org",
          "version": "2.72",
          "code": "24320-4",
          "display": "Basic metabolic 1998 panel - Serum or Plasma",
          "userSelected": true
        } ]
      },
      "subject": {
        "reference": "Patient/f9417a57-54e8-4a0b-a516-ab62b8d4aae0"
      },
      "authoredOn": "2026-12-31T23:58:00.000Z"
    }
  }, {
    "fullUrl": "https://madie.cms.gov/ServiceRequest/a2a0f7f9-eef3-4ccd-b32a-4ce5ddc42122",
    "resource": {
      "resourceType": "ServiceRequest",
      "id": "a2a0f7f9-eef3-4ccd-b32a-4ce5ddc42122",
      "meta": {
        "profile": [ "http://hl7.org/fhir/us/qicore/StructureDefinition/qicore-servicenotrequested" ]
      },
      "extension": [ {
        "url": "http://hl7.org/fhir/us/qicore/StructureDefinition/qicore-doNotPerformReason",
        "valueCodeableConcept": {
          "coding": [ {
            "system": "http://snomed.info/sct",
            "version": "2022-03",
            "code": "413311005",
            "display": "Patient non-compliant - declined intervention / support (situation)",
            "userSelected": true
          } ]
        }
      } ],
      "status": "completed",
      "intent": "order",
      "doNotPerform": true,
      "code": {
        "coding": [ {
          "system": "http://loinc.org",
          "code": "34534-8",
          "display": "12 lead EKG panel",
          "userSelected": true
        } ]
      },
      "subject": {
        "reference": "Patient/f9417a57-54e8-4a0b-a516-ab62b8d4aae0"
      },
      "authoredOn": "2026-12-31T23:31:00.000Z"
    }
  }, {
    "fullUrl": "https://madie.cms.gov/ServiceRequest/d2e0a078-7074-472d-acbf-f901b9f3c243",
    "resource": {
      "resourceType": "ServiceRequest",
      "id": "d2e0a078-7074-472d-acbf-f901b9f3c243",
      "meta": {
        "profile": [ "http://hl7.org/fhir/us/qicore/StructureDefinition/qicore-servicenotrequested" ]
      },
      "extension": [ {
        "url": "http://hl7.org/fhir/us/qicore/StructureDefinition/qicore-doNotPerformReason",
        "valueCodeableConcept": {
          "coding": [ {
            "system": "http://snomed.info/sct",
            "version": "2022-03",
            "code": "413311005",
            "display": "Patient non-compliant - declined intervention / support (situation)",
            "userSelected": true
          } ]
        }
      } ],
      "status": "completed",
      "intent": "order",
      "doNotPerform": true,
      "code": {
        "coding": [ {
          "system": "http://snomed.info/sct",
          "code": "183625007",
          "display": "Follow-up 4-6 months (finding)",
          "userSelected": true
        } ]
      },
      "subject": {
        "reference": "Patient/f9417a57-54e8-4a0b-a516-ab62b8d4aae0"
      },
      "authoredOn": "2026-12-31T23:45:00.000Z"
    }
  }, {
    "fullUrl": "https://madie.cms.gov/Coverage/520334d9-01f4-488d-ba74-4414b2eafe31",
    "resource": {
      "resourceType": "Coverage",
      "id": "520334d9-01f4-488d-ba74-4414b2eafe31",
      "meta": {
        "profile": [ "http://hl7.org/fhir/us/qicore/StructureDefinition/qicore-coverage" ]
      },
      "status": "active",
      "subscriberId": "24981354",
      "beneficiary": {
        "reference": "Patient/f9417a57-54e8-4a0b-a516-ab62b8d4aae0"
      },
      "relationship": {
        "coding": [ {
          "system": "http://terminology.hl7.org/CodeSystem/subscriber-relationship",
          "code": "self",
          "display": "Self"
        } ]
      },
      "payor": [ {
        "reference": "Organization/25e87abd-1e56-4708-b324-15c45f511a8e"
      } ]
    }
  }, {
    "fullUrl": "https://madie.cms.gov/Organization/25e87abd-1e56-4708-b324-15c45f511a8e",
    "resource": {
      "resourceType": "Organization",
      "id": "25e87abd-1e56-4708-b324-15c45f511a8e",
      "meta": {
        "profile": [ "http://hl7.org/fhir/us/qicore/StructureDefinition/qicore-organization" ]
      },
      "identifier": [ {
        "use": "temp",
        "system": "urn:oid:2.16.840.1.113883.4.4",
        "value": "21-3259825"
      } ],
      "active": true,
      "type": [ {
        "coding": [ {
          "system": "http://terminology.hl7.org/CodeSystem/organization-type",
          "code": "pay",
          "display": "Payer"
        } ]
      } ],
      "name": "Blue Cross Blue Shield of Texas",
      "telecom": [ {
        "system": "phone",
        "value": "(+1) 972-766-6900"
      } ],
      "address": [ {
        "use": "billing",
        "type": "postal",
        "line": [ "P.O. Box 660044" ],
        "city": "Dallas",
        "state": "TX",
        "postalCode": "75266-0044",
        "country": "USA"
      } ]
    }
  }, {
    "fullUrl": "https://madie.cms.gov/Practitioner/2e8f4199-d37d-4403-a3d0-6777200f907c",
    "resource": {
      "resourceType": "Practitioner",
      "id": "2e8f4199-d37d-4403-a3d0-6777200f907c",
      "meta": {
        "profile": [ "http://hl7.org/fhir/us/qicore/StructureDefinition/qicore-practitioner" ]
      },
      "identifier": [ {
        "system": "http://hl7.org/fhir/sid/us-npi",
        "value": "1003802901"
      } ],
      "name": [ {
        "family": "Evil",
        "prefix": [ "Dr" ]
      } ]
    }
  }, {
    "fullUrl": "https://madie.cms.gov/MeasureReport/e90efb05-4493-4006-a537-3896b6bf37ba",
    "resource": {
      "resourceType": "MeasureReport",
      "id": "e90efb05-4493-4006-a537-3896b6bf37ba",
      "meta": {
        "profile": [ "http://hl7.org/fhir/us/cqfmeasures/StructureDefinition/test-case-cqfm" ]
      },
      "contained": [ {
        "resourceType": "Parameters",
        "id": "42eb0b3c-45a4-44d2-96f4-9a12bc1d2b83-parameters",
        "parameter": [ {
          "name": "subject",
          "valueString": "f9417a57-54e8-4a0b-a516-ab62b8d4aae0"
        } ]
      } ],
      "extension": [ {
        "url": "http://hl7.org/fhir/StructureDefinition/cqf-inputParameters",
        "valueReference": {
          "reference": "#42eb0b3c-45a4-44d2-96f4-9a12bc1d2b83-parameters"
        }
      }, {
        "url": "http://hl7.org/fhir/us/cqfmeasures/StructureDefinition/cqfm-testCaseDescription",
        "valueMarkdown": "2 encounters during MP; BP reading taken in both encounters, 1st enc.  1/01 0000-0030,  BP 130/79, weight loss recommended, pt declined (excepPas; 2nd enc. 12/31 at 2300-2359, BP 130/89 Patient declined lab test, detox, medications (excepPass). "
      } ],
      "modifierExtension": [ {
        "url": "http://hl7.org/fhir/us/cqfmeasures/StructureDefinition/cqfm-isTestCase",
        "valueBoolean": true
      } ],
      "status": "complete",
      "type": "individual",
      "measure": "https://madie.cms.gov/Measure/CMS22FHIRPCSBPScreeningFollowUp",
      "period": {
        "start": "2026-01-01",
        "end": "2026-12-31"
      },
      "group": [ {
        "id": "Group_1",
        "population": [ {
          "id": "InitialPopulation_1",
          "code": {
            "coding": [ {
              "system": "http://terminology.hl7.org/CodeSystem/measure-population",
              "code": "initial-population",
              "display": "Initial Population"
            } ]
          },
          "count": 2
        }, {
          "id": "Denominator_1",
          "code": {
            "coding": [ {
              "system": "http://terminology.hl7.org/CodeSystem/measure-population",
              "code": "denominator",
              "display": "Denominator"
            } ]
          },
          "count": 2
        }, {
          "id": "DenominatorExclusion_1",
          "code": {
            "coding": [ {
              "system": "http://terminology.hl7.org/CodeSystem/measure-population",
              "code": "denominator-exclusion",
              "display": "Denominator Exclusion"
            } ]
          },
          "count": 0
        }, {
          "id": "Numerator_1",
          "code": {
            "coding": [ {
              "system": "http://terminology.hl7.org/CodeSystem/measure-population",
              "code": "numerator",
              "display": "Numerator"
            } ]
          },
          "count": 0
        }, {
          "id": "DenominatorException_1",
          "code": {
            "coding": [ {
              "system": "http://terminology.hl7.org/CodeSystem/measure-population",
              "code": "denominator-exception",
              "display": "Denominator Exception"
            } ]
          },
          "count": 2
        } ],
        "measureScore": {
          "value": 0.0
        }
      } ],
      "evaluatedResource": [ {
        "reference": "Patient/f9417a57-54e8-4a0b-a516-ab62b8d4aae0"
      }, {
        "reference": "Encounter/30858017-8211-4d72-97f6-2019d8640334"
      }, {
        "reference": "Observation/3f0153be-47ac-45d9-adb6-19949da85b83"
      }, {
        "reference": "ServiceRequest/8228e40a-abe8-4a6d-a289-38d41f646955"
      }, {
        "reference": "Encounter/dda4d891-5f3f-4b7a-bcfb-e9bd53886f3f"
      }, {
        "reference": "Observation/5c7fe142-e0f9-41ab-972d-4ec1af219650"
      }, {
        "reference": "ServiceRequest/f07c701d-30e1-4beb-a9f3-025d02cebe12"
      }, {
        "reference": "MedicationRequest/15563d32-47c4-424f-9ede-9d87a566d42b"
      }, {
        "reference": "ServiceRequest/891f17b4-a2c6-4f12-87a4-ac5e1c52b012"
      }, {
        "reference": "ServiceRequest/a2a0f7f9-eef3-4ccd-b32a-4ce5ddc42122"
      }, {
        "reference": "ServiceRequest/d2e0a078-7074-472d-acbf-f901b9f3c243"
      }, {
        "reference": "Coverage/520334d9-01f4-488d-ba74-4414b2eafe31"
      }, {
        "reference": "Organization/25e87abd-1e56-4708-b324-15c45f511a8e"
      }, {
        "reference": "Practitioner/2e8f4199-d37d-4403-a3d0-6777200f907c"
      } ]
    }
  } ]
}