{
  "resourceType": "Bundle",
  "id": "63487c300968f801225401d1",
  "type": "transaction",
  "entry": [ {
    "fullUrl": "https://madie.cms.gov/Patient/5279c487-da7f-459d-9e7b-0b5cb185e3a4",
    "resource": {
      "resourceType": "Patient",
      "id": "5279c487-da7f-459d-9e7b-0b5cb185e3a4",
      "meta": {
        "profile": [ "http://hl7.org/fhir/us/qicore/StructureDefinition/qicore-patient" ]
      },
      "text": {
        "status": "generated",
        "div": "<div xmlns=\"http://www.w3.org/1999/xhtml\"><div class=\"hapiHeaderText\">2AssessAbnPresRelDtTime1BFTimeOfDeliv1AFDelivery<b>DENEXPASS </b></div><table class=\"hapiPropertyTable\"><tbody><tr><td>Identifier</td><td>026ef11ad83a8a7cf2dd9a5df623df3fb5fe5e8210cfb6bc83e410fca26c8633</td></tr><tr><td>Date of birth</td><td><span>14 February 1985</span></td></tr></tbody></table></div>"
      },
      "extension": [ {
        "url": "http://hl7.org/fhir/us/core/StructureDefinition/us-core-race",
        "extension": [ {
          "url": "ombCategory",
          "valueCoding": {
            "system": "urn:oid:2.16.840.1.113883.6.238",
            "code": "1002-5",
            "display": "American Indian or Alaska Native",
            "userSelected": true
          }
        }, {
          "url": "text",
          "valueString": "American Indian or Alaska Native"
        } ]
      }, {
        "url": "http://hl7.org/fhir/us/core/StructureDefinition/us-core-ethnicity",
        "extension": [ {
          "url": "ombCategory",
          "valueCoding": {
            "system": "urn:oid:2.16.840.1.113883.6.238",
            "code": "2135-2",
            "display": "Hispanic or Latino",
            "userSelected": true
          }
        }, {
          "url": "text",
          "valueString": "Hispanic or Latino"
        } ]
      } ],
      "identifier": [ {
        "type": {
          "coding": [ {
            "system": "http://terminology.hl7.org/CodeSystem/v2-0203",
            "code": "MR"
          } ]
        },
        "system": "https://bonnie-fhir.healthit.gov/",
        "value": "63487c300968f801225401d1"
      } ],
      "active": true,
      "name": [ {
        "use": "usual",
        "family": "DENEXPass",
        "given": [ "2AssessAbnPresRelDtTime1BFTimeOfDeliv1AFDelivery" ]
      } ],
      "gender": "female",
      "birthDate": "1998-02-14"
    },
    "request": {
      "method": "PUT",
      "url": "Patient/5279c487-da7f-459d-9e7b-0b5cb185e3a4"
    }
  }, {
    "fullUrl": "https://madie.cms.gov/Observation/f0113586-a7ae-43fc-873c-6048863ef88d",
    "resource": {
      "resourceType": "Observation",
      "id": "f0113586-a7ae-43fc-873c-6048863ef88d",
      "meta": {
        "profile": [ "http://hl7.org/fhir/us/qicore/StructureDefinition/qicore-simple-observation" ]
      },
      "status": "final",
      "category": [ {
        "coding": [ {
          "system": "http://terminology.hl7.org/CodeSystem/observation-category",
          "code": "exam",
          "display": "exam",
          "userSelected": true
        } ]
      } ],
      "code": {
        "coding": [ {
          "system": "http://loinc.org",
          "code": "11996-6"
        } ]
      },
      "subject": {
        "reference": "Patient/5279c487-da7f-459d-9e7b-0b5cb185e3a4"
      },
      "effectiveDateTime": "2026-06-08T08:00:00.000+00:00",
      "performer": [ {
        "reference": "Organization/example1",
        "display": "Hendricks Country Hospital"
      } ],
      "valueInteger": 1
    },
    "request": {
      "method": "PUT",
      "url": "Observation/f0113586-a7ae-43fc-873c-6048863ef88d"
    }
  }, {
    "fullUrl": "https://madie.cms.gov/Observation/b3d9c3a5-e164-4807-a6af-68457088dba6",
    "resource": {
      "resourceType": "Observation",
      "id": "b3d9c3a5-e164-4807-a6af-68457088dba6",
      "meta": {
        "profile": [ "http://hl7.org/fhir/us/qicore/StructureDefinition/qicore-simple-observation" ]
      },
      "status": "final",
      "category": [ {
        "coding": [ {
          "system": "http://terminology.hl7.org/CodeSystem/observation-category",
          "code": "exam",
          "display": "exam",
          "userSelected": true
        } ]
      } ],
      "code": {
        "coding": [ {
          "system": "http://loinc.org",
          "code": "11884-4"
        } ]
      },
      "subject": {
        "reference": "Patient/5279c487-da7f-459d-9e7b-0b5cb185e3a4"
      },
      "effectiveDateTime": "2026-06-08T19:59:00.000+00:00",
      "performer": [ {
        "reference": "Organization/example1",
        "display": "Hendricks Country Hospital"
      } ],
      "valueQuantity": {
        "value": 43,
        "system": "http://unitsofmeasure.org",
        "code": "wk"
      }
    },
    "request": {
      "method": "PUT",
      "url": "Observation/b3d9c3a5-e164-4807-a6af-68457088dba6"
    }
  }, {
    "fullUrl": "https://madie.cms.gov/Observation/ab5226aa-d13f-458f-9fa9-1cfb89e94332",
    "resource": {
      "resourceType": "Observation",
      "id": "ab5226aa-d13f-458f-9fa9-1cfb89e94332",
      "meta": {
        "profile": [ "http://hl7.org/fhir/us/qicore/StructureDefinition/qicore-simple-observation" ]
      },
      "status": "final",
      "category": [ {
        "coding": [ {
          "system": "http://terminology.hl7.org/CodeSystem/observation-category",
          "code": "exam",
          "display": "exam",
          "userSelected": true
        } ]
      } ],
      "code": {
        "coding": [ {
          "system": "http://loinc.org",
          "code": "93857-1"
        } ]
      },
      "subject": {
        "reference": "Patient/5279c487-da7f-459d-9e7b-0b5cb185e3a4"
      },
      "effectiveDateTime": "2026-06-08T20:00:00.000+00:00",
      "performer": [ {
        "reference": "Organization/example1",
        "display": "Hendricks Country Hospital"
      } ],
      "valueDateTime": "2026-06-08T20:00:00.000+00:00"
    },
    "request": {
      "method": "PUT",
      "url": "Observation/ab5226aa-d13f-458f-9fa9-1cfb89e94332"
    }
  }, {
    "fullUrl": "https://madie.cms.gov/Observation/79a80a76-ccff-40b7-971f-3d9bc734ef27",
    "resource": {
      "resourceType": "Observation",
      "id": "79a80a76-ccff-40b7-971f-3d9bc734ef27",
      "meta": {
        "profile": [ "http://hl7.org/fhir/us/qicore/StructureDefinition/qicore-simple-observation" ]
      },
      "status": "final",
      "category": [ {
        "coding": [ {
          "system": "http://terminology.hl7.org/CodeSystem/observation-category",
          "code": "exam",
          "display": "exam",
          "userSelected": true
        } ]
      } ],
      "code": {
        "coding": [ {
          "system": "http://snomed.info/sct",
          "code": "18559007"
        } ]
      },
      "subject": {
        "reference": "Patient/5279c487-da7f-459d-9e7b-0b5cb185e3a4"
      },
      "effectiveDateTime": "2026-06-08T19:59:00.000+00:00",
      "performer": [ {
        "reference": "Organization/example1",
        "display": "Hendricks Country Hospital"
      } ]
    },
    "request": {
      "method": "PUT",
      "url": "Observation/79a80a76-ccff-40b7-971f-3d9bc734ef27"
    }
  }, {
    "fullUrl": "https://madie.cms.gov/Encounter/7d46ccc8-4e53-432a-bbe6-e72ed5e8c89b",
    "resource": {
      "resourceType": "Encounter",
      "id": "7d46ccc8-4e53-432a-bbe6-e72ed5e8c89b",
      "meta": {
        "profile": [ "http://hl7.org/fhir/us/qicore/StructureDefinition/qicore-encounter" ]
      },
      "status": "finished",
      "class": {
        "system": "http://terminology.hl7.org/CodeSystem/v3-ActCode",
        "code": "IMP",
        "display": "inpatient encounter"
      },
      "type": [ {
        "coding": [ {
          "system": "http://snomed.info/sct",
          "code": "8715000"
        } ]
      } ],
      "subject": {
        "reference": "Patient/5279c487-da7f-459d-9e7b-0b5cb185e3a4"
      },
      "period": {
        "start": "2026-06-08T08:00:00.000+00:00",
        "end": "2026-06-10T08:15:00.000+00:00"
      },
      "reasonReference": [ {
        "reference": "Condition/0d6fde61-23ba-411a-90d9-6fd68f9d8864"
      } ]
    },
    "request": {
      "method": "PUT",
      "url": "Encounter/7d46ccc8-4e53-432a-bbe6-e72ed5e8c89b"
    }
  }, {
    "fullUrl": "https://madie.cms.gov/Procedure/f378789f-64b9-4799-b29c-d2a6229002e6",
    "resource": {
      "resourceType": "Procedure",
      "id": "f378789f-64b9-4799-b29c-d2a6229002e6",
      "meta": {
        "profile": [ "http://hl7.org/fhir/us/qicore/StructureDefinition/qicore-procedure" ]
      },
      "extension": [ {
        "url": "http://hl7.org/fhir/us/qicore/StructureDefinition/qicore-recorded",
        "valueDateTime": "2014-04-05T13:35:00.000+00:00"
      } ],
      "status": "completed",
      "code": {
        "coding": [ {
          "system": "http://snomed.info/sct",
          "code": "4504004"
        } ]
      },
      "subject": {
        "reference": "Patient/5279c487-da7f-459d-9e7b-0b5cb185e3a4"
      },
      "performedPeriod": {
        "start": "2026-06-08T20:00:00.000+00:00",
        "end": "2026-06-18T20:00:00.000+00:00"
      }
    },
    "request": {
      "method": "PUT",
      "url": "Procedure/f378789f-64b9-4799-b29c-d2a6229002e6"
    }
  }, {
    "fullUrl": "https://madie.cms.gov/Condition/0d6fde61-23ba-411a-90d9-6fd68f9d8864",
    "resource": {
      "resourceType": "Condition",
      "id": "0d6fde61-23ba-411a-90d9-6fd68f9d8864",
      "meta": {
        "profile": [ "http://hl7.org/fhir/us/qicore/StructureDefinition/qicore-condition-encounter-diagnosis" ]
      },
      "category": [ {
        "coding": [ {
          "system": "http://terminology.hl7.org/CodeSystem/condition-category",
          "code": "encounter-diagnosis",
          "display": "Encounter Diagnosis"
        } ]
      } ],
      "code": {
        "coding": [ {
          "system": "http://snomed.info/sct",
          "version": "2022-09",
          "code": "169826009",
          "display": "Single live birth (finding)",
          "userSelected": true
        } ]
      },
      "subject": {
        "reference": "Patient/5279c487-da7f-459d-9e7b-0b5cb185e3a4"
      },
      "encounter": {
        "reference": "Encounter/7d46ccc8-4e53-432a-bbe6-e72ed5e8c89b"
      },
      "recordedDate": "2026-10-17T08:00:00.000+00:00"
    },
    "request": {
      "method": "PUT",
      "url": "Condition/0d6fde61-23ba-411a-90d9-6fd68f9d8864"
    }
  }, {
    "fullUrl": "https://madie.cms.gov/Observation/5888aa92-e526-40ab-b9b3-ba661b90dad9",
    "resource": {
      "resourceType": "Observation",
      "id": "5888aa92-e526-40ab-b9b3-ba661b90dad9",
      "status": "final",
      "category": [ {
        "coding": [ {
          "system": "http://terminology.hl7.org/CodeSystem/observation-category",
          "code": "exam",
          "display": "exam",
          "userSelected": true
        } ]
      } ],
      "code": {
        "coding": [ {
          "system": "http://snomed.info/sct",
          "version": "2022-09",
          "code": "18559007",
          "display": "Frank breech presentation (finding)",
          "userSelected": true
        } ]
      },
      "subject": {
        "reference": "Patient/5279c487-da7f-459d-9e7b-0b5cb185e3a4"
      },
      "effectiveDateTime": "2026-06-08T20:01:00.000+00:00"
    },
    "request": {
      "method": "PUT",
      "url": "Observation/5888aa92-e526-40ab-b9b3-ba661b90dad9"
    }
  }, {
    "fullUrl": "https://madie.cms.gov/Organization/1f23ace6-b0af-4a21-aeaf-e578e1df3f67",
    "resource": {
      "resourceType": "Organization",
      "id": "1f23ace6-b0af-4a21-aeaf-e578e1df3f67",
      "meta": {
        "profile": [ "http://hl7.org/fhir/us/qicore/StructureDefinition/qicore-organization" ]
      },
      "identifier": [ {
        "use": "temp",
        "system": "urn:oid:2.16.840.1.113883.4.4",
        "value": "21-3259825"
      } ],
      "active": true,
      "type": [ {
        "coding": [ {
          "system": "http://terminology.hl7.org/CodeSystem/organization-type",
          "code": "pay",
          "display": "Payer"
        } ]
      } ],
      "name": "Blue Cross Blue Shield of Texas",
      "telecom": [ {
        "system": "phone",
        "value": "(+1) 972-766-6900"
      } ],
      "address": [ {
        "use": "billing",
        "type": "postal",
        "line": [ "P.O. Box 660044" ],
        "city": "Dallas",
        "state": "TX",
        "postalCode": "75266-0044",
        "country": "USA"
      } ]
    },
    "request": {
      "method": "PUT",
      "url": "Organization/1f23ace6-b0af-4a21-aeaf-e578e1df3f67"
    }
  }, {
    "fullUrl": "https://madie.cms.gov/Practitioner/0929db23-fd6d-4fcd-ba49-d88513d2e7a5",
    "resource": {
      "resourceType": "Practitioner",
      "id": "0929db23-fd6d-4fcd-ba49-d88513d2e7a5",
      "meta": {
        "profile": [ "http://hl7.org/fhir/us/qicore/StructureDefinition/qicore-practitioner" ]
      },
      "identifier": [ {
        "system": "http://hl7.org/fhir/sid/us-npi",
        "value": "1234567890"
      } ],
      "name": [ {
        "family": "Evil",
        "prefix": [ "Dr" ]
      } ]
    },
    "request": {
      "method": "PUT",
      "url": "Practitioner/0929db23-fd6d-4fcd-ba49-d88513d2e7a5"
    }
  }, {
    "fullUrl": "https://madie.cms.gov/MeasureReport/c027bc28-534e-4395-af89-b1521d49aac5",
    "resource": {
      "resourceType": "MeasureReport",
      "id": "c027bc28-534e-4395-af89-b1521d49aac5",
      "meta": {
        "profile": [ "http://hl7.org/fhir/us/cqfmeasures/StructureDefinition/test-case-cqfm" ]
      },
      "contained": [ {
        "resourceType": "Parameters",
        "id": "0bb1f21c-28c9-4202-8959-11a27161f02c-parameters",
        "parameter": [ {
          "name": "subject",
          "valueString": "5279c487-da7f-459d-9e7b-0b5cb185e3a4"
        } ]
      } ],
      "extension": [ {
        "url": "http://hl7.org/fhir/StructureDefinition/cqf-inputParameters",
        "valueReference": {
          "reference": "#0bb1f21c-28c9-4202-8959-11a27161f02c-parameters"
        }
      }, {
        "url": "http://hl7.org/fhir/us/cqfmeasures/StructureDefinition/cqfm-testCaseDescription",
        "valueMarkdown": "EGA 43 weeks; the last Assessment performed Abnormal presentation prior to delivery, another one is after Delivery time. THe logic pick one prior to delivery time.\n"
      } ],
      "modifierExtension": [ {
        "url": "http://hl7.org/fhir/us/cqfmeasures/StructureDefinition/cqfm-isTestCase",
        "valueBoolean": true
      } ],
      "status": "complete",
      "type": "individual",
      "measure": "https://madie.cms.gov/Measure/CMS0334FHIRPCCesareanBirth",
      "period": {
        "start": "2026-01-01",
        "end": "2026-12-31"
      },
      "group": [ {
        "id": "Group_1",
        "population": [ {
          "id": "InitialPopulation_1",
          "code": {
            "coding": [ {
              "system": "http://terminology.hl7.org/CodeSystem/measure-population",
              "code": "initial-population",
              "display": "Initial Population"
            } ]
          },
          "count": 1
        }, {
          "id": "Denominator_1",
          "code": {
            "coding": [ {
              "system": "http://terminology.hl7.org/CodeSystem/measure-population",
              "code": "denominator",
              "display": "Denominator"
            } ]
          },
          "count": 1
        }, {
          "id": "DenominatorExclusion_1",
          "code": {
            "coding": [ {
              "system": "http://terminology.hl7.org/CodeSystem/measure-population",
              "code": "denominator-exclusion",
              "display": "Denominator Exclusion"
            } ]
          },
          "count": 1
        }, {
          "id": "Numerator_1",
          "code": {
            "coding": [ {
              "system": "http://terminology.hl7.org/CodeSystem/measure-population",
              "code": "numerator",
              "display": "Numerator"
            } ]
          },
          "count": 0
        } ],
        "measureScore": {
          "value": 0.0
        }
      } ],
      "evaluatedResource": [ {
        "reference": "Patient/5279c487-da7f-459d-9e7b-0b5cb185e3a4"
      }, {
        "reference": "Observation/f0113586-a7ae-43fc-873c-6048863ef88d"
      }, {
        "reference": "Observation/b3d9c3a5-e164-4807-a6af-68457088dba6"
      }, {
        "reference": "Observation/ab5226aa-d13f-458f-9fa9-1cfb89e94332"
      }, {
        "reference": "Observation/79a80a76-ccff-40b7-971f-3d9bc734ef27"
      }, {
        "reference": "Encounter/7d46ccc8-4e53-432a-bbe6-e72ed5e8c89b"
      }, {
        "reference": "Procedure/f378789f-64b9-4799-b29c-d2a6229002e6"
      }, {
        "reference": "Condition/0d6fde61-23ba-411a-90d9-6fd68f9d8864"
      }, {
        "reference": "Observation/5888aa92-e526-40ab-b9b3-ba661b90dad9"
      }, {
        "reference": "Organization/1f23ace6-b0af-4a21-aeaf-e578e1df3f67"
      }, {
        "reference": "Practitioner/0929db23-fd6d-4fcd-ba49-d88513d2e7a5"
      } ]
    },
    "request": {
      "method": "PUT",
      "url": "MeasureReport/c027bc28-534e-4395-af89-b1521d49aac5"
    }
  } ]
}