{
  "resourceType": "Bundle",
  "id": "DENEXPass-FrailtyDxOverlapsMP",
  "type": "transaction",
  "entry": [ {
    "fullUrl": "https://madie.cms.gov/Patient/e61be907-af68-493f-a6bc-3d93ef8b6c6e",
    "resource": {
      "resourceType": "Patient",
      "id": "e61be907-af68-493f-a6bc-3d93ef8b6c6e",
      "meta": {
        "profile": [ "http://hl7.org/fhir/us/qicore/StructureDefinition/qicore-patient" ]
      },
      "extension": [ {
        "url": "http://hl7.org/fhir/us/core/StructureDefinition/us-core-race",
        "extension": [ {
          "url": "ombCategory",
          "valueCoding": {
            "system": "urn:oid:2.16.840.1.113883.6.238",
            "code": "2028-9",
            "display": "Asian",
            "userSelected": true
          }
        }, {
          "url": "text",
          "valueString": "Asian"
        } ]
      }, {
        "url": "http://hl7.org/fhir/us/core/StructureDefinition/us-core-ethnicity",
        "extension": [ {
          "url": "ombCategory",
          "valueCoding": {
            "system": "urn:oid:2.16.840.1.113883.6.238",
            "code": "2135-2",
            "display": "Hispanic or Latino",
            "userSelected": true
          }
        }, {
          "url": "text",
          "valueString": "Hispanic or Latino"
        } ]
      } ],
      "identifier": [ {
        "type": {
          "coding": [ {
            "system": "http://terminology.hl7.org/CodeSystem/v2-0203",
            "code": "MR"
          } ]
        },
        "system": "http://hospital.smarthealthit.org",
        "value": "999999995"
      } ],
      "name": [ {
        "family": "Bertha",
        "given": [ "Betty" ]
      } ],
      "gender": "female",
      "birthDate": "1957-12-31"
    },
    "request": {
      "method": "PUT",
      "url": "Patient/e61be907-af68-493f-a6bc-3d93ef8b6c6e"
    }
  }, {
    "fullUrl": "https://madie.cms.gov/Encounter/f5b3565a-b0c3-4cc6-afff-fd7b5361960f",
    "resource": {
      "resourceType": "Encounter",
      "id": "f5b3565a-b0c3-4cc6-afff-fd7b5361960f",
      "meta": {
        "profile": [ "http://hl7.org/fhir/us/qicore/StructureDefinition/qicore-encounter" ]
      },
      "status": "finished",
      "class": {
        "system": "http://terminology.hl7.org/CodeSystem/v3-ActCode",
        "code": "AMB",
        "display": "ambulatory"
      },
      "type": [ {
        "coding": [ {
          "system": "http://snomed.info/sct",
          "code": "185460008",
          "display": "Home visit request by patient (procedure)"
        } ]
      } ],
      "subject": {
        "reference": "Patient/e61be907-af68-493f-a6bc-3d93ef8b6c6e"
      },
      "period": {
        "start": "2026-01-01T00:00:00.000+00:00",
        "end": "2026-01-01T00:15:00.000+00:00"
      }
    },
    "request": {
      "method": "PUT",
      "url": "Encounter/f5b3565a-b0c3-4cc6-afff-fd7b5361960f"
    }
  }, {
    "fullUrl": "https://madie.cms.gov/Condition/cf5fc19a-1408-4be4-b92d-655add8cf51e",
    "resource": {
      "resourceType": "Condition",
      "id": "cf5fc19a-1408-4be4-b92d-655add8cf51e",
      "meta": {
        "profile": [ "http://hl7.org/fhir/us/qicore/StructureDefinition/qicore-condition-encounter-diagnosis" ]
      },
      "clinicalStatus": {
        "coding": [ {
          "system": "http://terminology.hl7.org/CodeSystem/condition-clinical",
          "code": "active"
        } ]
      },
      "category": [ {
        "coding": [ {
          "system": "http://terminology.hl7.org/CodeSystem/condition-category",
          "code": "encounter-diagnosis",
          "display": "Encounter Diagnosis"
        } ]
      } ],
      "code": {
        "coding": [ {
          "system": "http://snomed.info/sct",
          "code": "102781000119107",
          "display": "Sensory neuropathy due to type 1 diabetes mellitus (disorder)"
        } ]
      },
      "subject": {
        "reference": "Patient/e61be907-af68-493f-a6bc-3d93ef8b6c6e"
      },
      "onsetDateTime": "2026-01-01T23:59:00.000+00:00"
    },
    "request": {
      "method": "PUT",
      "url": "Condition/cf5fc19a-1408-4be4-b92d-655add8cf51e"
    }
  }, {
    "fullUrl": "https://madie.cms.gov/MedicationRequest/9ffd4f75-9709-4b04-93ee-c0519f508136",
    "resource": {
      "resourceType": "MedicationRequest",
      "id": "9ffd4f75-9709-4b04-93ee-c0519f508136",
      "meta": {
        "profile": [ "http://hl7.org/fhir/us/qicore/StructureDefinition/qicore-medicationrequest" ]
      },
      "status": "active",
      "intent": "order",
      "doNotPerform": false,
      "medicationCodeableConcept": {
        "coding": [ {
          "system": "http://www.nlm.nih.gov/research/umls/rxnorm",
          "code": "312836",
          "display": "rivastigmine 6 MG Oral Capsule"
        } ]
      },
      "subject": {
        "reference": "Patient/e61be907-af68-493f-a6bc-3d93ef8b6c6e"
      },
      "authoredOn": "2026-12-30T00:00:00.000+00:00",
      "requester": {
        "reference": "Practitioner/example"
      },
      "dispenseRequest": {
        "expectedSupplyDuration": {
          "value": 90,
          "system": "http://unitsofmeasure.org",
          "code": "days"
        }
      }
    },
    "request": {
      "method": "PUT",
      "url": "MedicationRequest/9ffd4f75-9709-4b04-93ee-c0519f508136"
    }
  }, {
    "fullUrl": "https://madie.cms.gov/Condition/02a9f67b-c73a-49d7-a76c-c94a08cc5347",
    "resource": {
      "resourceType": "Condition",
      "id": "02a9f67b-c73a-49d7-a76c-c94a08cc5347",
      "meta": {
        "profile": [ "http://hl7.org/fhir/us/qicore/StructureDefinition/qicore-condition-encounter-diagnosis" ]
      },
      "clinicalStatus": {
        "coding": [ {
          "system": "http://terminology.hl7.org/CodeSystem/condition-clinical",
          "code": "active"
        } ]
      },
      "category": [ {
        "coding": [ {
          "system": "http://terminology.hl7.org/CodeSystem/condition-category",
          "code": "encounter-diagnosis",
          "display": "Encounter Diagnosis"
        } ]
      } ],
      "code": {
        "coding": [ {
          "system": "http://snomed.info/sct",
          "code": "217083007",
          "display": "Fall on or from stairs or steps (event)"
        } ]
      },
      "subject": {
        "reference": "Patient/e61be907-af68-493f-a6bc-3d93ef8b6c6e"
      },
      "onsetDateTime": "2026-06-30T23:59:59.000+00:00"
    },
    "request": {
      "method": "PUT",
      "url": "Condition/02a9f67b-c73a-49d7-a76c-c94a08cc5347"
    }
  }, {
    "fullUrl": "https://madie.cms.gov/MeasureReport/a4a3ee93-9b96-4259-9158-e9a1f4929c1f",
    "resource": {
      "resourceType": "MeasureReport",
      "id": "a4a3ee93-9b96-4259-9158-e9a1f4929c1f",
      "meta": {
        "profile": [ "http://hl7.org/fhir/us/cqfmeasures/StructureDefinition/test-case-cqfm" ]
      },
      "contained": [ {
        "resourceType": "Parameters",
        "id": "c30cf64b-fde2-420a-a158-58d0ac15a3af-parameters",
        "parameter": [ {
          "name": "subject",
          "valueString": "e61be907-af68-493f-a6bc-3d93ef8b6c6e"
        } ]
      } ],
      "extension": [ {
        "url": "http://hl7.org/fhir/StructureDefinition/cqf-inputParameters",
        "valueReference": {
          "reference": "#c30cf64b-fde2-420a-a158-58d0ac15a3af-parameters"
        }
      }, {
        "url": "http://hl7.org/fhir/us/cqfmeasures/StructureDefinition/cqfm-testCaseDescription",
        "valueMarkdown": "Frailty diagnosis overlaps the MP"
      } ],
      "modifierExtension": [ {
        "url": "http://hl7.org/fhir/us/cqfmeasures/StructureDefinition/cqfm-isTestCase",
        "valueBoolean": true
      } ],
      "status": "complete",
      "type": "individual",
      "measure": "https://madie.cms.gov/Measure/CMS122FHIRDiabetesAssessGT9Pct",
      "period": {
        "start": "2026-01-01",
        "end": "2026-12-31"
      },
      "group": [ {
        "id": "Group_1",
        "population": [ {
          "id": "InitialPopulation_1",
          "code": {
            "coding": [ {
              "system": "http://terminology.hl7.org/CodeSystem/measure-population",
              "code": "initial-population",
              "display": "Initial Population"
            } ]
          },
          "count": 1
        }, {
          "id": "Denominator_1",
          "code": {
            "coding": [ {
              "system": "http://terminology.hl7.org/CodeSystem/measure-population",
              "code": "denominator",
              "display": "Denominator"
            } ]
          },
          "count": 1
        }, {
          "id": "DenominatorExclusion_1",
          "code": {
            "coding": [ {
              "system": "http://terminology.hl7.org/CodeSystem/measure-population",
              "code": "denominator-exclusion",
              "display": "Denominator Exclusion"
            } ]
          },
          "count": 1
        }, {
          "id": "Numerator_1",
          "code": {
            "coding": [ {
              "system": "http://terminology.hl7.org/CodeSystem/measure-population",
              "code": "numerator",
              "display": "Numerator"
            } ]
          },
          "count": 0
        } ],
        "measureScore": {
          "value": 1.0
        }
      } ],
      "evaluatedResource": [ {
        "reference": "Patient/e61be907-af68-493f-a6bc-3d93ef8b6c6e"
      }, {
        "reference": "Encounter/f5b3565a-b0c3-4cc6-afff-fd7b5361960f"
      }, {
        "reference": "Condition/cf5fc19a-1408-4be4-b92d-655add8cf51e"
      }, {
        "reference": "MedicationRequest/9ffd4f75-9709-4b04-93ee-c0519f508136"
      }, {
        "reference": "Condition/02a9f67b-c73a-49d7-a76c-c94a08cc5347"
      } ]
    },
    "request": {
      "method": "PUT",
      "url": "MeasureReport/a4a3ee93-9b96-4259-9158-e9a1f4929c1f"
    }
  } ]
}