{
  "resourceType": "Bundle",
  "id": "661476b015ed5841a5547ebf",
  "type": "transaction",
  "entry": [ {
    "fullUrl": "https://madie.cms.gov/Patient/3ee1e306-f3db-4d13-b6ab-b1388a23b378",
    "resource": {
      "resourceType": "Patient",
      "id": "3ee1e306-f3db-4d13-b6ab-b1388a23b378",
      "meta": {
        "profile": [ "http://hl7.org/fhir/us/qicore/StructureDefinition/qicore-patient" ]
      },
      "extension": [ {
        "url": "http://hl7.org/fhir/us/core/StructureDefinition/us-core-race",
        "extension": [ {
          "url": "ombCategory",
          "valueCoding": {
            "system": "urn:oid:2.16.840.1.113883.6.238",
            "code": "1002-5",
            "display": "American Indian or Alaska Native",
            "userSelected": true
          }
        }, {
          "url": "text",
          "valueString": "American Indian or Alaska Native"
        } ]
      }, {
        "url": "http://hl7.org/fhir/us/core/StructureDefinition/us-core-ethnicity",
        "extension": [ {
          "url": "ombCategory",
          "valueCoding": {
            "system": "urn:oid:2.16.840.1.113883.6.238",
            "code": "2135-2",
            "display": "Hispanic or Latino",
            "userSelected": true
          }
        }, {
          "url": "text",
          "valueString": "Hispanic or Latino"
        } ]
      }, {
        "url": "http://hl7.org/fhir/us/core/StructureDefinition/us-core-sex",
        "valueCode": "248153007"
      } ],
      "identifier": [ {
        "type": {
          "coding": [ {
            "system": "http://terminology.hl7.org/CodeSystem/v2-0203",
            "code": "MR"
          } ]
        },
        "system": "https://bonnie-fhir.healthit.gov/",
        "value": "661476b015ed5841a5547ebf"
      } ],
      "name": [ {
        "family": "NUMERStrat4Pass",
        "given": [ "AdmittedInpatient" ]
      } ],
      "gender": "male",
      "birthDate": "2009-01-01"
    },
    "request": {
      "method": "PUT",
      "url": "Patient/3ee1e306-f3db-4d13-b6ab-b1388a23b378"
    }
  }, {
    "fullUrl": "https://madie.cms.gov/Encounter/4b75ff74-d990-4f6f-a342-f8e426a78b2f",
    "resource": {
      "resourceType": "Encounter",
      "id": "4b75ff74-d990-4f6f-a342-f8e426a78b2f",
      "meta": {
        "profile": [ "http://hl7.org/fhir/us/qicore/StructureDefinition/qicore-encounter" ]
      },
      "status": "finished",
      "class": {
        "system": "http://terminology.hl7.org/CodeSystem/v3-ActCode",
        "code": "EMER",
        "display": "emergency department"
      },
      "type": [ {
        "coding": [ {
          "system": "http://snomed.info/sct",
          "version": "2023-09",
          "code": "4525004",
          "display": "Emergency department patient visit (procedure)",
          "userSelected": true
        } ]
      } ],
      "subject": {
        "reference": "Patient/3ee1e306-f3db-4d13-b6ab-b1388a23b378"
      },
      "period": {
        "start": "2027-05-01T06:00:00.000+00:00",
        "end": "2027-05-01T13:15:00.000+00:00"
      },
      "diagnosis": [ {
        "condition": {
          "reference": "Condition/8c5e7ea4-6326-41bb-be88-0aac23ae64b2"
        },
        "use": {
          "coding": [ {
            "system": "http://terminology.hl7.org/CodeSystem/diagnosis-role",
            "code": "billing"
          } ]
        },
        "rank": 1
      } ],
      "location": [ {
        "location": {
          "reference": "Location/0d1f7921-8d3d-4414-b95b-5ec48140d20b"
        },
        "period": {
          "start": "2027-05-01T06:00:00.000+00:00",
          "end": "2027-05-01T13:15:00.000+00:00"
        }
      } ]
    },
    "request": {
      "method": "PUT",
      "url": "Encounter/4b75ff74-d990-4f6f-a342-f8e426a78b2f"
    }
  }, {
    "fullUrl": "https://madie.cms.gov/Encounter/f2455537-3f8a-4512-997b-c970202bb8e0",
    "resource": {
      "resourceType": "Encounter",
      "id": "f2455537-3f8a-4512-997b-c970202bb8e0",
      "meta": {
        "profile": [ "http://hl7.org/fhir/us/qicore/StructureDefinition/qicore-encounter" ]
      },
      "status": "finished",
      "class": {
        "system": "http://terminology.hl7.org/CodeSystem/v3-ActCode",
        "code": "IMP",
        "display": "inpatient encounter"
      },
      "type": [ {
        "coding": [ {
          "system": "http://snomed.info/sct",
          "version": "2023-09",
          "code": "183452005",
          "display": "Emergency hospital admission (procedure)",
          "userSelected": true
        } ]
      } ],
      "subject": {
        "reference": "Patient/3ee1e306-f3db-4d13-b6ab-b1388a23b378"
      },
      "period": {
        "start": "2027-05-01T09:00:00.000+00:00",
        "end": "2027-05-03T06:15:00.000+00:00"
      }
    },
    "request": {
      "method": "PUT",
      "url": "Encounter/f2455537-3f8a-4512-997b-c970202bb8e0"
    }
  }, {
    "fullUrl": "https://madie.cms.gov/Location/0d1f7921-8d3d-4414-b95b-5ec48140d20b",
    "resource": {
      "resourceType": "Location",
      "id": "0d1f7921-8d3d-4414-b95b-5ec48140d20b",
      "meta": {
        "profile": [ "http://hl7.org/fhir/us/qicore/StructureDefinition/qicore-location" ]
      },
      "identifier": [ {
        "use": "usual",
        "system": "http://exampleoflocation.com",
        "value": "B1-S.F2"
      } ],
      "name": "Medical Surgical East, first floor",
      "type": [ {
        "coding": [ {
          "system": "https://www.cdc.gov/nhsn/cdaportal/terminology/codesystem/hsloc.html",
          "version": "2022",
          "code": "1108-0",
          "display": "Emergency Department",
          "userSelected": true
        } ]
      } ]
    },
    "request": {
      "method": "PUT",
      "url": "Location/0d1f7921-8d3d-4414-b95b-5ec48140d20b"
    }
  }, {
    "fullUrl": "https://madie.cms.gov/Coverage/afebb6c4-60b8-430a-9a39-6da548dcd085",
    "resource": {
      "resourceType": "Coverage",
      "id": "afebb6c4-60b8-430a-9a39-6da548dcd085",
      "meta": {
        "profile": [ "http://hl7.org/fhir/us/qicore/StructureDefinition/qicore-coverage" ]
      },
      "identifier": [ {
        "type": {
          "coding": [ {
            "system": "http://terminology.hl7.org/CodeSystem/v2-0203",
            "code": "MB"
          } ]
        }
      } ],
      "status": "active",
      "beneficiary": {
        "reference": "Patient/3ee1e306-f3db-4d13-b6ab-b1388a23b378"
      },
      "relationship": {
        "coding": [ {
          "system": "http://terminology.hl7.org/CodeSystem/subscriber-relationship",
          "code": "self"
        } ]
      },
      "payor": [ {
        "reference": "Organization/9b8a2211-1803-4574-b144-a84e97ee51f7"
      } ]
    },
    "request": {
      "method": "PUT",
      "url": "Coverage/afebb6c4-60b8-430a-9a39-6da548dcd085"
    }
  }, {
    "fullUrl": "https://madie.cms.gov/Condition/8c5e7ea4-6326-41bb-be88-0aac23ae64b2",
    "resource": {
      "resourceType": "Condition",
      "id": "8c5e7ea4-6326-41bb-be88-0aac23ae64b2",
      "meta": {
        "profile": [ "http://hl7.org/fhir/us/qicore/StructureDefinition/qicore-condition-encounter-diagnosis" ]
      },
      "category": [ {
        "coding": [ {
          "system": "http://terminology.hl7.org/CodeSystem/condition-category",
          "code": "encounter-diagnosis",
          "display": "Encounter Diagnosis"
        } ]
      } ],
      "code": {
        "coding": [ {
          "system": "http://snomed.info/sct",
          "version": "2023-09",
          "code": "10349009",
          "display": "Multi-infarct dementia with delirium (disorder)",
          "userSelected": true
        } ]
      },
      "subject": {
        "reference": "Patient/3ee1e306-f3db-4d13-b6ab-b1388a23b378"
      },
      "recordedDate": "2027-04-09T08:00:00.000+00:00"
    },
    "request": {
      "method": "PUT",
      "url": "Condition/8c5e7ea4-6326-41bb-be88-0aac23ae64b2"
    }
  }, {
    "fullUrl": "https://madie.cms.gov/claim/ClaimBehavior-NotSubsAbuse",
    "resource": {
      "resourceType": "Claim",
      "id": "ClaimBehavior-NotSubsAbuse",
      "meta": {
        "profile": [ "http://hl7.org/fhir/us/qicore/StructureDefinition/qicore-claim" ]
      },
      "status": "active",
      "type": {
        "coding": [ {
          "system": "http://terminology.hl7.org/CodeSystem/claim-type",
          "code": "institutional"
        } ]
      },
      "use": "claim",
      "patient": {
        "reference": "Patient/3ee1e306-f3db-4d13-b6ab-b1388a23b378"
      },
      "created": "2027-05-01",
      "provider": {
        "reference": "Practitioner/1a7de70c-9bda-4065-a172-e855fea1a4e1"
      },
      "priority": {
        "coding": [ {
          "system": "http://terminology.hl7.org/CodeSystem/processpriority",
          "code": "normal"
        } ]
      },
      "diagnosis": [ {
        "sequence": 1,
        "diagnosisReference": {
          "reference": "Condition/8c5e7ea4-6326-41bb-be88-0aac23ae64b2"
        },
        "type": [ {
          "coding": [ {
            "system": "http://terminology.hl7.org/CodeSystem/ex-diagnosistype",
            "code": "principal"
          } ]
        } ]
      } ],
      "insurance": [ {
        "sequence": 1,
        "focal": true,
        "coverage": {
          "reference": "Coverage/afebb6c4-60b8-430a-9a39-6da548dcd085"
        }
      } ],
      "item": [ {
        "sequence": 1,
        "diagnosisSequence": [ 1 ],
        "productOrService": {
          "coding": [ {
            "system": "http://terminology.hl7.org/CodeSystem/ex-USCLS",
            "code": "99555"
          } ]
        },
        "encounter": [ {
          "reference": "Encounter/4b75ff74-d990-4f6f-a342-f8e426a78b2f"
        } ]
      } ]
    },
    "request": {
      "method": "PUT",
      "url": "Claim/ClaimBehavior-NotSubsAbuse"
    }
  }, {
    "fullUrl": "https://madie.cms.gov/Organization/9b8a2211-1803-4574-b144-a84e97ee51f7",
    "resource": {
      "resourceType": "Organization",
      "id": "9b8a2211-1803-4574-b144-a84e97ee51f7",
      "meta": {
        "profile": [ "http://hl7.org/fhir/us/qicore/StructureDefinition/qicore-organization" ]
      },
      "identifier": [ {
        "use": "temp",
        "system": "urn:oid:2.16.840.1.113883.4.4",
        "value": "21-3259825"
      } ],
      "active": true,
      "type": [ {
        "coding": [ {
          "system": "http://terminology.hl7.org/CodeSystem/organization-type",
          "code": "pay",
          "display": "Payer"
        } ]
      } ],
      "name": "Blue Cross Blue Shield of Texas",
      "telecom": [ {
        "system": "phone",
        "value": "(+1) 972-766-6900"
      } ],
      "address": [ {
        "use": "billing",
        "type": "postal",
        "line": [ "P.O. Box 660044" ],
        "city": "Dallas",
        "state": "TX",
        "postalCode": "75266-0044",
        "country": "USA"
      } ]
    },
    "request": {
      "method": "PUT",
      "url": "Organization/9b8a2211-1803-4574-b144-a84e97ee51f7"
    }
  }, {
    "fullUrl": "https://madie.cms.gov/Practitioner/1a7de70c-9bda-4065-a172-e855fea1a4e1",
    "resource": {
      "resourceType": "Practitioner",
      "id": "1a7de70c-9bda-4065-a172-e855fea1a4e1",
      "meta": {
        "profile": [ "http://hl7.org/fhir/us/qicore/StructureDefinition/qicore-practitioner" ]
      },
      "identifier": [ {
        "system": "http://hl7.org/fhir/sid/us-npi",
        "value": "9999999896"
      } ],
      "name": [ {
        "family": "Evil",
        "prefix": [ "Dr" ]
      } ]
    },
    "request": {
      "method": "PUT",
      "url": "Practitioner/1a7de70c-9bda-4065-a172-e855fea1a4e1"
    }
  }, {
    "fullUrl": "https://madie.cms.gov/MeasureReport/59b44581-152f-4ba4-947b-40649eb23be4",
    "resource": {
      "resourceType": "MeasureReport",
      "id": "59b44581-152f-4ba4-947b-40649eb23be4",
      "meta": {
        "profile": [ "http://hl7.org/fhir/us/cqfmeasures/StructureDefinition/test-case-cqfm" ]
      },
      "contained": [ {
        "resourceType": "Parameters",
        "id": "ffc363bd-fd7f-4b10-ad8f-14ccc5fe7a54-parameters",
        "parameter": [ {
          "name": "subject",
          "valueString": "3ee1e306-f3db-4d13-b6ab-b1388a23b378"
        } ]
      } ],
      "extension": [ {
        "url": "http://hl7.org/fhir/StructureDefinition/cqf-inputParameters",
        "valueReference": {
          "reference": "#ffc363bd-fd7f-4b10-ad8f-14ccc5fe7a54-parameters"
        }
      }, {
        "url": "http://hl7.org/fhir/us/cqfmeasures/StructureDefinition/cqfm-testCaseDescription",
        "valueMarkdown": "Adult, age 18 ED enc first day of MP,  admitted to inpatient (resource: encounter) with behavioral health dx"
      } ],
      "modifierExtension": [ {
        "url": "http://hl7.org/fhir/us/cqfmeasures/StructureDefinition/cqfm-isTestCase",
        "valueBoolean": true
      } ],
      "status": "complete",
      "type": "individual",
      "measure": "https://madie.cms.gov/Measure/CMS1244FHIRECATHOQR",
      "period": {
        "start": "2027-01-01",
        "end": "2027-12-31"
      },
      "group": [ {
        "id": "Group_1",
        "population": [ {
          "id": "InitialPopulation_1",
          "code": {
            "coding": [ {
              "system": "http://terminology.hl7.org/CodeSystem/measure-population",
              "code": "initial-population",
              "display": "Initial Population"
            } ]
          },
          "count": 1
        }, {
          "id": "Denominator_1",
          "code": {
            "coding": [ {
              "system": "http://terminology.hl7.org/CodeSystem/measure-population",
              "code": "denominator",
              "display": "Denominator"
            } ]
          },
          "count": 1
        }, {
          "id": "Numerator_1",
          "code": {
            "coding": [ {
              "system": "http://terminology.hl7.org/CodeSystem/measure-population",
              "code": "numerator",
              "display": "Numerator"
            } ]
          },
          "count": 1
        } ],
        "measureScore": {
          "value": 0.0
        },
        "stratifier": [ {
          "id": "Stratification_1_1",
          "code": [ {
            "text": "Strata-1"
          } ],
          "stratum": [ {
            "value": {
              "text": "Strata-1"
            },
            "population": [ {
              "id": "InitialPopulation_1",
              "code": {
                "coding": [ {
                  "system": "http://terminology.hl7.org/CodeSystem/measure-population",
                  "code": "initial-population",
                  "display": "Initial Population"
                } ]
              },
              "count": 0
            }, {
              "id": "Denominator_1",
              "code": {
                "coding": [ {
                  "system": "http://terminology.hl7.org/CodeSystem/measure-population",
                  "code": "denominator",
                  "display": "Denominator"
                } ]
              },
              "count": 0
            }, {
              "id": "Numerator_1",
              "code": {
                "coding": [ {
                  "system": "http://terminology.hl7.org/CodeSystem/measure-population",
                  "code": "numerator",
                  "display": "Numerator"
                } ]
              },
              "count": 0
            } ]
          } ]
        }, {
          "id": "Stratification_1_2",
          "code": [ {
            "text": "Strata-2"
          } ],
          "stratum": [ {
            "value": {
              "text": "Strata-2"
            },
            "population": [ {
              "id": "InitialPopulation_1",
              "code": {
                "coding": [ {
                  "system": "http://terminology.hl7.org/CodeSystem/measure-population",
                  "code": "initial-population",
                  "display": "Initial Population"
                } ]
              },
              "count": 0
            }, {
              "id": "Denominator_1",
              "code": {
                "coding": [ {
                  "system": "http://terminology.hl7.org/CodeSystem/measure-population",
                  "code": "denominator",
                  "display": "Denominator"
                } ]
              },
              "count": 0
            }, {
              "id": "Numerator_1",
              "code": {
                "coding": [ {
                  "system": "http://terminology.hl7.org/CodeSystem/measure-population",
                  "code": "numerator",
                  "display": "Numerator"
                } ]
              },
              "count": 0
            } ]
          } ]
        }, {
          "id": "Stratification_1_3",
          "code": [ {
            "text": "Strata-3"
          } ],
          "stratum": [ {
            "value": {
              "text": "Strata-3"
            },
            "population": [ {
              "id": "InitialPopulation_1",
              "code": {
                "coding": [ {
                  "system": "http://terminology.hl7.org/CodeSystem/measure-population",
                  "code": "initial-population",
                  "display": "Initial Population"
                } ]
              },
              "count": 0
            }, {
              "id": "Denominator_1",
              "code": {
                "coding": [ {
                  "system": "http://terminology.hl7.org/CodeSystem/measure-population",
                  "code": "denominator",
                  "display": "Denominator"
                } ]
              },
              "count": 0
            }, {
              "id": "Numerator_1",
              "code": {
                "coding": [ {
                  "system": "http://terminology.hl7.org/CodeSystem/measure-population",
                  "code": "numerator",
                  "display": "Numerator"
                } ]
              },
              "count": 0
            } ]
          } ]
        }, {
          "id": "Stratification_1_4",
          "code": [ {
            "text": "Strata-4"
          } ],
          "stratum": [ {
            "value": {
              "text": "Strata-4"
            },
            "population": [ {
              "id": "InitialPopulation_1",
              "code": {
                "coding": [ {
                  "system": "http://terminology.hl7.org/CodeSystem/measure-population",
                  "code": "initial-population",
                  "display": "Initial Population"
                } ]
              },
              "count": 1
            }, {
              "id": "Denominator_1",
              "code": {
                "coding": [ {
                  "system": "http://terminology.hl7.org/CodeSystem/measure-population",
                  "code": "denominator",
                  "display": "Denominator"
                } ]
              },
              "count": 1
            }, {
              "id": "Numerator_1",
              "code": {
                "coding": [ {
                  "system": "http://terminology.hl7.org/CodeSystem/measure-population",
                  "code": "numerator",
                  "display": "Numerator"
                } ]
              },
              "count": 1
            } ]
          } ]
        } ]
      } ],
      "evaluatedResource": [ {
        "reference": "Patient/3ee1e306-f3db-4d13-b6ab-b1388a23b378"
      }, {
        "reference": "Encounter/4b75ff74-d990-4f6f-a342-f8e426a78b2f"
      }, {
        "reference": "Encounter/f2455537-3f8a-4512-997b-c970202bb8e0"
      }, {
        "reference": "Location/0d1f7921-8d3d-4414-b95b-5ec48140d20b"
      }, {
        "reference": "Coverage/afebb6c4-60b8-430a-9a39-6da548dcd085"
      }, {
        "reference": "Condition/8c5e7ea4-6326-41bb-be88-0aac23ae64b2"
      }, {
        "reference": "Claim/ClaimBehavior-NotSubsAbuse"
      }, {
        "reference": "Organization/9b8a2211-1803-4574-b144-a84e97ee51f7"
      }, {
        "reference": "Practitioner/1a7de70c-9bda-4065-a172-e855fea1a4e1"
      } ]
    },
    "request": {
      "method": "PUT",
      "url": "MeasureReport/59b44581-152f-4ba4-947b-40649eb23be4"
    }
  } ]
}