{
  "resourceType": "Bundle",
  "id": "64137e884b11b147841ab908",
  "type": "transaction",
  "entry": [ {
    "fullUrl": "https://madie.cms.gov/Patient/9f3b1077-d99c-4714-a88d-8aecc667fe57",
    "resource": {
      "resourceType": "Patient",
      "id": "9f3b1077-d99c-4714-a88d-8aecc667fe57",
      "meta": {
        "profile": [ "http://hl7.org/fhir/us/qicore/StructureDefinition/qicore-patient" ]
      },
      "extension": [ {
        "url": "http://hl7.org/fhir/us/core/StructureDefinition/us-core-race",
        "extension": [ {
          "url": "ombCategory",
          "valueCoding": {
            "system": "urn:oid:2.16.840.1.113883.6.238",
            "code": "2076-8",
            "display": "Native Hawaiian or Other Pacific Islander",
            "userSelected": true
          }
        }, {
          "url": "text",
          "valueString": "Native Hawaiian or Other Pacific Islander"
        } ]
      }, {
        "url": "http://hl7.org/fhir/us/core/StructureDefinition/us-core-ethnicity",
        "extension": [ {
          "url": "ombCategory",
          "valueCoding": {
            "system": "urn:oid:2.16.840.1.113883.6.238",
            "code": "2186-5",
            "display": "Not Hispanic or Latino",
            "userSelected": true
          }
        }, {
          "url": "text",
          "valueString": "Not Hispanic or Latino"
        } ]
      } ],
      "identifier": [ {
        "type": {
          "coding": [ {
            "system": "http://terminology.hl7.org/CodeSystem/v2-0203",
            "code": "MR"
          } ]
        },
        "system": "https://bonnie-fhir.healthit.gov/",
        "value": "64137e884b11b147841ab908"
      } ],
      "name": [ {
        "family": "NUMERPass",
        "given": [ "AnnualWelllnessEGFRWithUAlbuminAndUCreatine" ]
      } ],
      "gender": "female",
      "birthDate": "1958-12-01"
    },
    "request": {
      "method": "PUT",
      "url": "Patient/9f3b1077-d99c-4714-a88d-8aecc667fe57"
    }
  }, {
    "fullUrl": "https://madie.cms.gov/Condition/52abe6c9-11f5-4f9c-af20-291a905c7355",
    "resource": {
      "resourceType": "Condition",
      "id": "52abe6c9-11f5-4f9c-af20-291a905c7355",
      "meta": {
        "profile": [ "http://hl7.org/fhir/us/qicore/StructureDefinition/qicore-condition-encounter-diagnosis" ]
      },
      "clinicalStatus": {
        "coding": [ {
          "system": "http://terminology.hl7.org/CodeSystem/condition-clinical",
          "code": "active",
          "display": "active",
          "userSelected": true
        } ]
      },
      "category": [ {
        "coding": [ {
          "system": "http://terminology.hl7.org/CodeSystem/condition-category",
          "code": "encounter-diagnosis",
          "display": "Encounter Diagnosis",
          "userSelected": true
        } ]
      } ],
      "code": {
        "coding": [ {
          "system": "http://snomed.info/sct",
          "version": "2021-09",
          "code": "102781000119107",
          "display": "Sensory neuropathy due to type 1 diabetes mellitus (disorder)",
          "userSelected": true
        } ]
      },
      "subject": {
        "reference": "Patient/9f3b1077-d99c-4714-a88d-8aecc667fe57"
      },
      "onsetDateTime": "2024-08-15T08:00:00.000+00:00"
    },
    "request": {
      "method": "PUT",
      "url": "Condition/52abe6c9-11f5-4f9c-af20-291a905c7355"
    }
  }, {
    "fullUrl": "https://madie.cms.gov/Observation/e9c06608-55c1-49e2-b00e-8f62d6dbb752",
    "resource": {
      "resourceType": "Observation",
      "id": "e9c06608-55c1-49e2-b00e-8f62d6dbb752",
      "meta": {
        "profile": [ "http://hl7.org/fhir/us/qicore/StructureDefinition/qicore-observation-lab" ]
      },
      "status": "final",
      "category": [ {
        "coding": [ {
          "system": "http://terminology.hl7.org/CodeSystem/observation-category",
          "code": "laboratory",
          "display": "Laboratory",
          "userSelected": true
        } ]
      } ],
      "code": {
        "coding": [ {
          "system": "http://loinc.org",
          "version": "2.71",
          "code": "1754-1",
          "display": "Albumin [Mass/volume] in Urine",
          "userSelected": true
        } ]
      },
      "subject": {
        "reference": "Patient/9f3b1077-d99c-4714-a88d-8aecc667fe57"
      },
      "effectiveDateTime": "2026-08-15T08:00:00.000+00:00",
      "valueQuantity": {
        "value": 30,
        "unit": "mg/g",
        "system": "http://unitsofmeasure.org",
        "code": "mg/g"
      }
    },
    "request": {
      "method": "PUT",
      "url": "Observation/e9c06608-55c1-49e2-b00e-8f62d6dbb752"
    }
  }, {
    "fullUrl": "https://madie.cms.gov/Encounter/eeb31ce6-b420-40b6-a9c4-848eb5ebdfa6",
    "resource": {
      "resourceType": "Encounter",
      "id": "eeb31ce6-b420-40b6-a9c4-848eb5ebdfa6",
      "meta": {
        "profile": [ "http://hl7.org/fhir/us/qicore/StructureDefinition/qicore-encounter" ]
      },
      "status": "finished",
      "class": {
        "system": "http://terminology.hl7.org/CodeSystem/v3-ActCode",
        "code": "AMB",
        "display": "ambulatory",
        "userSelected": true
      },
      "type": [ {
        "coding": [ {
          "system": "http://snomed.info/sct",
          "version": "2021-09",
          "code": "444971000124105",
          "display": "Annual wellness visit (procedure)",
          "userSelected": true
        } ]
      } ],
      "subject": {
        "reference": "Patient/9f3b1077-d99c-4714-a88d-8aecc667fe57"
      },
      "period": {
        "start": "2026-03-16T08:00:00.000+00:00",
        "end": "2026-03-16T08:15:00.000+00:00"
      }
    },
    "request": {
      "method": "PUT",
      "url": "Encounter/eeb31ce6-b420-40b6-a9c4-848eb5ebdfa6"
    }
  }, {
    "fullUrl": "https://madie.cms.gov/Observation/5f9459b8-e5e6-43b5-9bcc-4e046dbd3b4d",
    "resource": {
      "resourceType": "Observation",
      "id": "5f9459b8-e5e6-43b5-9bcc-4e046dbd3b4d",
      "meta": {
        "profile": [ "http://hl7.org/fhir/us/qicore/StructureDefinition/qicore-observation-lab" ]
      },
      "status": "final",
      "category": [ {
        "coding": [ {
          "system": "http://terminology.hl7.org/CodeSystem/observation-category",
          "code": "laboratory",
          "display": "Laboratory",
          "userSelected": true
        } ]
      } ],
      "code": {
        "coding": [ {
          "system": "http://loinc.org",
          "version": "2.71",
          "code": "2161-8",
          "display": "Creatinine [Mass/volume] in Urine",
          "userSelected": true
        } ]
      },
      "subject": {
        "reference": "Patient/9f3b1077-d99c-4714-a88d-8aecc667fe57"
      },
      "effectiveDateTime": "2026-08-15T08:05:00.000+00:00",
      "valueBoolean": true
    },
    "request": {
      "method": "PUT",
      "url": "Observation/5f9459b8-e5e6-43b5-9bcc-4e046dbd3b4d"
    }
  }, {
    "fullUrl": "https://madie.cms.gov/Observation/4b0f6515-0015-4a52-8853-dd439d0945e5",
    "resource": {
      "resourceType": "Observation",
      "id": "4b0f6515-0015-4a52-8853-dd439d0945e5",
      "meta": {
        "profile": [ "http://hl7.org/fhir/us/qicore/StructureDefinition/qicore-observation-lab" ]
      },
      "status": "final",
      "category": [ {
        "coding": [ {
          "system": "http://terminology.hl7.org/CodeSystem/observation-category",
          "code": "laboratory",
          "display": "Laboratory",
          "userSelected": true
        } ]
      } ],
      "code": {
        "coding": [ {
          "system": "http://loinc.org",
          "version": "2.71",
          "code": "88294-4",
          "display": "Glomerular filtration rate [Volume Rate/Area] in Serum, Plasma or Blood by Creatinine-based formula (CKD-EPI)/1.73 sq M among non black population",
          "userSelected": true
        } ]
      },
      "subject": {
        "reference": "Patient/9f3b1077-d99c-4714-a88d-8aecc667fe57"
      },
      "effectiveDateTime": "2026-08-15T08:00:00.000+00:00",
      "valueQuantity": {
        "value": 30,
        "unit": "mg/g",
        "system": "http://unitsofmeasure.org",
        "code": "mg/g"
      }
    },
    "request": {
      "method": "PUT",
      "url": "Observation/4b0f6515-0015-4a52-8853-dd439d0945e5"
    }
  }, {
    "fullUrl": "https://madie.cms.gov/MeasureReport/f5c94639-261d-4552-8e3e-136a849dbef3",
    "resource": {
      "resourceType": "MeasureReport",
      "id": "f5c94639-261d-4552-8e3e-136a849dbef3",
      "meta": {
        "profile": [ "http://hl7.org/fhir/us/cqfmeasures/StructureDefinition/test-case-cqfm" ]
      },
      "contained": [ {
        "resourceType": "Parameters",
        "id": "a4a5cfc3-bc16-4984-a458-95dcda8ef261-parameters",
        "parameter": [ {
          "name": "subject",
          "valueString": "9f3b1077-d99c-4714-a88d-8aecc667fe57"
        } ]
      } ],
      "extension": [ {
        "url": "http://hl7.org/fhir/StructureDefinition/cqf-inputParameters",
        "valueReference": {
          "reference": "#a4a5cfc3-bc16-4984-a458-95dcda8ef261-parameters"
        }
      }, {
        "url": "http://hl7.org/fhir/us/cqfmeasures/StructureDefinition/cqfm-testCaseDescription",
        "valueMarkdown": "This patient is 67 years old with a qualifying home healthcare encounter and active diabetes starting before the MP, with both qualifying lab tests. This case tests the numerator criteria. "
      } ],
      "modifierExtension": [ {
        "url": "http://hl7.org/fhir/us/cqfmeasures/StructureDefinition/cqfm-isTestCase",
        "valueBoolean": true
      } ],
      "status": "complete",
      "type": "individual",
      "measure": "https://madie.cms.gov/Measure/CMS951FHIRKidneyHealthEval",
      "period": {
        "start": "2026-01-01",
        "end": "2026-12-31"
      },
      "group": [ {
        "id": "Group_1",
        "population": [ {
          "id": "InitialPopulation_1",
          "code": {
            "coding": [ {
              "system": "http://terminology.hl7.org/CodeSystem/measure-population",
              "code": "initial-population",
              "display": "Initial Population"
            } ]
          },
          "count": 1
        }, {
          "id": "Denominator_1",
          "code": {
            "coding": [ {
              "system": "http://terminology.hl7.org/CodeSystem/measure-population",
              "code": "denominator",
              "display": "Denominator"
            } ]
          },
          "count": 1
        }, {
          "id": "DenominatorExclusion_1",
          "code": {
            "coding": [ {
              "system": "http://terminology.hl7.org/CodeSystem/measure-population",
              "code": "denominator-exclusion",
              "display": "Denominator Exclusion"
            } ]
          },
          "count": 0
        }, {
          "id": "Numerator_1",
          "code": {
            "coding": [ {
              "system": "http://terminology.hl7.org/CodeSystem/measure-population",
              "code": "numerator",
              "display": "Numerator"
            } ]
          },
          "count": 1
        } ],
        "measureScore": {
          "value": 1.0
        }
      } ],
      "evaluatedResource": [ {
        "reference": "Patient/9f3b1077-d99c-4714-a88d-8aecc667fe57"
      }, {
        "reference": "Condition/52abe6c9-11f5-4f9c-af20-291a905c7355"
      }, {
        "reference": "Observation/e9c06608-55c1-49e2-b00e-8f62d6dbb752"
      }, {
        "reference": "Encounter/eeb31ce6-b420-40b6-a9c4-848eb5ebdfa6"
      }, {
        "reference": "Observation/5f9459b8-e5e6-43b5-9bcc-4e046dbd3b4d"
      }, {
        "reference": "Observation/4b0f6515-0015-4a52-8853-dd439d0945e5"
      } ]
    },
    "request": {
      "method": "PUT",
      "url": "MeasureReport/f5c94639-261d-4552-8e3e-136a849dbef3"
    }
  } ]
}