{
  "resourceType": "Bundle",
  "id": "NUMFail-InitHOOSSameDayAsTHAFUHOOS299DaysAfterTHA",
  "type": "collection",
  "entry": [ {
    "fullUrl": "https://madie.cms.gov/Patient/d34f0b5f-0646-4b5c-b9dc-7bb84205daa3",
    "resource": {
      "resourceType": "Patient",
      "id": "d34f0b5f-0646-4b5c-b9dc-7bb84205daa3",
      "meta": {
        "profile": [ "http://hl7.org/fhir/us/qicore/StructureDefinition/qicore-patient" ]
      },
      "extension": [ {
        "url": "http://hl7.org/fhir/us/core/StructureDefinition/us-core-race",
        "extension": [ {
          "url": "ombCategory",
          "valueCoding": {
            "system": "urn:oid:2.16.840.1.113883.6.238",
            "code": "2028-9",
            "display": "Asian"
          }
        }, {
          "url": "text",
          "valueString": "Asian"
        } ]
      }, {
        "url": "http://hl7.org/fhir/us/core/StructureDefinition/us-core-ethnicity",
        "extension": [ {
          "url": "ombCategory",
          "valueCoding": {
            "system": "urn:oid:2.16.840.1.113883.6.238",
            "code": "2135-2",
            "display": "Hispanic or Latino"
          }
        }, {
          "url": "text",
          "valueString": "Hispanic or Latino"
        } ]
      } ],
      "identifier": [ {
        "system": "http://hospital.smarthealthit.org",
        "value": "999999995"
      } ],
      "name": [ {
        "family": "Bertha",
        "given": [ "Betty" ]
      } ],
      "gender": "female",
      "birthDate": "2007-01-01"
    }
  }, {
    "fullUrl": "https://madie.cms.gov/Procedure/33433117-7389-4cca-bdbb-05dbaf7a8cce",
    "resource": {
      "resourceType": "Procedure",
      "id": "33433117-7389-4cca-bdbb-05dbaf7a8cce",
      "meta": {
        "profile": [ "http://hl7.org/fhir/us/qicore/StructureDefinition/qicore-procedure" ]
      },
      "extension": [ {
        "url": "http://hl7.org/fhir/us/qicore/StructureDefinition/qicore-recorded",
        "valueDateTime": "2024-11-01T00:00:00.000+00:00"
      } ],
      "status": "completed",
      "code": {
        "coding": [ {
          "system": "http://www.cms.gov/Medicare/Coding/ICD10",
          "code": "0SR9019",
          "display": "Replacement of Right Hip Joint with Metal Synthetic Substitute, Cemented, Open Approach"
        } ]
      },
      "subject": {
        "reference": "Patient/d34f0b5f-0646-4b5c-b9dc-7bb84205daa3"
      },
      "performedPeriod": {
        "start": "2024-11-01T00:00:00.000+00:00",
        "end": "2024-11-01T01:00:00.000+00:00"
      }
    }
  }, {
    "fullUrl": "https://madie.cms.gov/Encounter/35e85d15-6d4e-434e-8900-02a7c4687d3f",
    "resource": {
      "resourceType": "Encounter",
      "id": "35e85d15-6d4e-434e-8900-02a7c4687d3f",
      "meta": {
        "profile": [ "http://hl7.org/fhir/us/qicore/StructureDefinition/qicore-encounter" ]
      },
      "status": "finished",
      "class": {
        "system": "http://terminology.hl7.org/CodeSystem/v3-ActCode",
        "code": "AMB",
        "display": "ambulatory"
      },
      "type": [ {
        "coding": [ {
          "system": "http://snomed.info/sct",
          "version": "http://snomed.info/sct/731000124108/version/20250301",
          "code": "281036007",
          "display": "Follow-up consultation (procedure)"
        } ]
      } ],
      "subject": {
        "reference": "Patient/d34f0b5f-0646-4b5c-b9dc-7bb84205daa3"
      },
      "period": {
        "start": "2025-11-01T00:00:00.000+00:00",
        "end": "2025-11-01T01:15:00.000+00:00"
      }
    }
  }, {
    "fullUrl": "https://madie.cms.gov/Observation/4b721ce7-c6a4-4097-abde-07d4b66fe1fe",
    "resource": {
      "resourceType": "Observation",
      "id": "4b721ce7-c6a4-4097-abde-07d4b66fe1fe",
      "meta": {
        "profile": [ "http://hl7.org/fhir/us/qicore/StructureDefinition/qicore-observation-screening-assessment" ]
      },
      "status": "final",
      "category": [ {
        "coding": [ {
          "system": "http://terminology.hl7.org/CodeSystem/observation-category",
          "code": "survey"
        } ]
      } ],
      "code": {
        "coding": [ {
          "system": "http://loinc.org",
          "code": "72093-8",
          "display": "Quality of life score [HOOS]"
        } ]
      },
      "subject": {
        "reference": "Patient/d34f0b5f-0646-4b5c-b9dc-7bb84205daa3"
      },
      "effectivePeriod": {
        "start": "2024-11-01T00:00:00.000+00:00",
        "end": "2024-11-01T01:00:00.000+00:00"
      },
      "valueInteger": 60
    }
  }, {
    "fullUrl": "https://madie.cms.gov/Observation/c59d0d4e-69fb-458f-a464-97265b994854",
    "resource": {
      "resourceType": "Observation",
      "id": "c59d0d4e-69fb-458f-a464-97265b994854",
      "meta": {
        "profile": [ "http://hl7.org/fhir/us/qicore/StructureDefinition/qicore-observation-screening-assessment" ]
      },
      "status": "final",
      "category": [ {
        "coding": [ {
          "system": "http://terminology.hl7.org/CodeSystem/observation-category",
          "code": "survey"
        } ]
      } ],
      "code": {
        "coding": [ {
          "system": "http://loinc.org",
          "code": "72094-6",
          "display": "Sport-recreation score [HOOS]"
        } ]
      },
      "subject": {
        "reference": "Patient/d34f0b5f-0646-4b5c-b9dc-7bb84205daa3"
      },
      "effectivePeriod": {
        "start": "2024-11-01T00:00:00.000+00:00",
        "end": "2024-11-01T01:00:00.000+00:00"
      },
      "valueInteger": 60
    }
  }, {
    "fullUrl": "https://madie.cms.gov/Observation/a4380509-7910-4373-9d97-4cc78e35dab5",
    "resource": {
      "resourceType": "Observation",
      "id": "a4380509-7910-4373-9d97-4cc78e35dab5",
      "meta": {
        "profile": [ "http://hl7.org/fhir/us/qicore/StructureDefinition/qicore-observation-screening-assessment" ]
      },
      "status": "final",
      "category": [ {
        "coding": [ {
          "system": "http://terminology.hl7.org/CodeSystem/observation-category",
          "code": "survey"
        } ]
      } ],
      "code": {
        "coding": [ {
          "system": "http://loinc.org",
          "code": "72095-3",
          "display": "Activities of daily living score [HOOS]"
        } ]
      },
      "subject": {
        "reference": "Patient/d34f0b5f-0646-4b5c-b9dc-7bb84205daa3"
      },
      "effectivePeriod": {
        "start": "2024-11-01T00:00:00.000+00:00",
        "end": "2024-11-01T01:00:00.000+00:00"
      },
      "valueInteger": 60
    }
  }, {
    "fullUrl": "https://madie.cms.gov/Observation/7207c93d-ecb5-4e75-afea-338a33e3a40f",
    "resource": {
      "resourceType": "Observation",
      "id": "7207c93d-ecb5-4e75-afea-338a33e3a40f",
      "meta": {
        "profile": [ "http://hl7.org/fhir/us/qicore/StructureDefinition/qicore-observation-screening-assessment" ]
      },
      "status": "final",
      "category": [ {
        "coding": [ {
          "system": "http://terminology.hl7.org/CodeSystem/observation-category",
          "code": "survey"
        } ]
      } ],
      "code": {
        "coding": [ {
          "system": "http://loinc.org",
          "code": "72096-1",
          "display": "Symptoms score [HOOS]"
        } ]
      },
      "subject": {
        "reference": "Patient/d34f0b5f-0646-4b5c-b9dc-7bb84205daa3"
      },
      "effectivePeriod": {
        "start": "2024-11-01T00:00:00.000+00:00",
        "end": "2024-11-01T01:00:00.000+00:00"
      },
      "valueInteger": 60
    }
  }, {
    "fullUrl": "https://madie.cms.gov/Observation/3af5c29a-061d-4522-865c-6a1940f0b3ee",
    "resource": {
      "resourceType": "Observation",
      "id": "3af5c29a-061d-4522-865c-6a1940f0b3ee",
      "meta": {
        "profile": [ "http://hl7.org/fhir/us/qicore/StructureDefinition/qicore-observation-screening-assessment" ]
      },
      "status": "final",
      "category": [ {
        "coding": [ {
          "system": "http://terminology.hl7.org/CodeSystem/observation-category",
          "code": "survey"
        } ]
      } ],
      "code": {
        "coding": [ {
          "system": "http://loinc.org",
          "code": "72097-9",
          "display": "Pain score [HOOS]"
        } ]
      },
      "subject": {
        "reference": "Patient/d34f0b5f-0646-4b5c-b9dc-7bb84205daa3"
      },
      "effectivePeriod": {
        "start": "2024-11-01T00:00:00.000+00:00",
        "end": "2024-11-01T01:00:00.000+00:00"
      },
      "valueInteger": 60
    }
  }, {
    "fullUrl": "https://madie.cms.gov/Observation/bc69bc4e-d410-4452-9f35-3b1938a243fe",
    "resource": {
      "resourceType": "Observation",
      "id": "bc69bc4e-d410-4452-9f35-3b1938a243fe",
      "meta": {
        "profile": [ "http://hl7.org/fhir/us/qicore/StructureDefinition/qicore-observation-screening-assessment" ]
      },
      "status": "final",
      "category": [ {
        "coding": [ {
          "system": "http://terminology.hl7.org/CodeSystem/observation-category",
          "code": "survey"
        } ]
      } ],
      "code": {
        "coding": [ {
          "system": "http://loinc.org",
          "code": "72093-8",
          "display": "Quality of life score [HOOS]"
        } ]
      },
      "subject": {
        "reference": "Patient/d34f0b5f-0646-4b5c-b9dc-7bb84205daa3"
      },
      "effectivePeriod": {
        "start": "2025-08-26T00:00:00.000+00:00",
        "end": "2025-08-26T01:00:00.000+00:00"
      },
      "valueInteger": 60
    }
  }, {
    "fullUrl": "https://madie.cms.gov/Observation/7c57530e-6de6-45a3-a82f-2f87cbf8ad9d",
    "resource": {
      "resourceType": "Observation",
      "id": "7c57530e-6de6-45a3-a82f-2f87cbf8ad9d",
      "meta": {
        "profile": [ "http://hl7.org/fhir/us/qicore/StructureDefinition/qicore-observation-screening-assessment" ]
      },
      "status": "final",
      "category": [ {
        "coding": [ {
          "system": "http://terminology.hl7.org/CodeSystem/observation-category",
          "code": "survey"
        } ]
      } ],
      "code": {
        "coding": [ {
          "system": "http://loinc.org",
          "code": "72094-6",
          "display": "Sport-recreation score [HOOS]"
        } ]
      },
      "subject": {
        "reference": "Patient/d34f0b5f-0646-4b5c-b9dc-7bb84205daa3"
      },
      "effectivePeriod": {
        "start": "2025-08-26T00:00:00.000+00:00",
        "end": "2025-08-26T01:00:00.000+00:00"
      },
      "valueInteger": 60
    }
  }, {
    "fullUrl": "https://madie.cms.gov/Observation/919aa6d6-51f4-4567-942b-5756c31ba839",
    "resource": {
      "resourceType": "Observation",
      "id": "919aa6d6-51f4-4567-942b-5756c31ba839",
      "meta": {
        "profile": [ "http://hl7.org/fhir/us/qicore/StructureDefinition/qicore-observation-screening-assessment" ]
      },
      "status": "final",
      "category": [ {
        "coding": [ {
          "system": "http://terminology.hl7.org/CodeSystem/observation-category",
          "code": "survey"
        } ]
      } ],
      "code": {
        "coding": [ {
          "system": "http://loinc.org",
          "code": "72095-3",
          "display": "Activities of daily living score [HOOS]"
        } ]
      },
      "subject": {
        "reference": "Patient/d34f0b5f-0646-4b5c-b9dc-7bb84205daa3"
      },
      "effectivePeriod": {
        "start": "2025-08-26T00:00:00.000+00:00",
        "end": "2025-08-26T01:00:00.000+00:00"
      },
      "valueInteger": 60
    }
  }, {
    "fullUrl": "https://madie.cms.gov/Observation/ffb54c62-29a2-44d0-b338-c418a381dcba",
    "resource": {
      "resourceType": "Observation",
      "id": "ffb54c62-29a2-44d0-b338-c418a381dcba",
      "meta": {
        "profile": [ "http://hl7.org/fhir/us/qicore/StructureDefinition/qicore-observation-screening-assessment" ]
      },
      "status": "final",
      "category": [ {
        "coding": [ {
          "system": "http://terminology.hl7.org/CodeSystem/observation-category",
          "code": "survey"
        } ]
      } ],
      "code": {
        "coding": [ {
          "system": "http://loinc.org",
          "code": "72096-1",
          "display": "Symptoms score [HOOS]"
        } ]
      },
      "subject": {
        "reference": "Patient/d34f0b5f-0646-4b5c-b9dc-7bb84205daa3"
      },
      "effectivePeriod": {
        "start": "2025-08-26T00:00:00.000+00:00",
        "end": "2025-08-26T01:00:00.000+00:00"
      },
      "valueInteger": 60
    }
  }, {
    "fullUrl": "https://madie.cms.gov/Observation/d2fbba47-c786-4590-9c46-af5bc0195337",
    "resource": {
      "resourceType": "Observation",
      "id": "d2fbba47-c786-4590-9c46-af5bc0195337",
      "meta": {
        "profile": [ "http://hl7.org/fhir/us/qicore/StructureDefinition/qicore-observation-screening-assessment" ]
      },
      "status": "final",
      "category": [ {
        "coding": [ {
          "system": "http://terminology.hl7.org/CodeSystem/observation-category",
          "code": "survey"
        } ]
      } ],
      "code": {
        "coding": [ {
          "system": "http://loinc.org",
          "code": "72097-9",
          "display": "Pain score [HOOS]"
        } ]
      },
      "subject": {
        "reference": "Patient/d34f0b5f-0646-4b5c-b9dc-7bb84205daa3"
      },
      "effectivePeriod": {
        "start": "2025-08-26T00:00:00.000+00:00",
        "end": "2025-08-26T01:00:00.000+00:00"
      },
      "valueInteger": 60
    }
  }, {
    "fullUrl": "https://madie.cms.gov/MeasureReport/9344478e-6d4b-4cfb-b0ec-e7ec74e2d044",
    "resource": {
      "resourceType": "MeasureReport",
      "id": "9344478e-6d4b-4cfb-b0ec-e7ec74e2d044",
      "meta": {
        "profile": [ "http://hl7.org/fhir/us/cqfmeasures/StructureDefinition/test-case-cqfm" ]
      },
      "contained": [ {
        "resourceType": "Parameters",
        "id": "9e6ab378-f296-4652-83a6-10041d68f0c6-parameters",
        "parameter": [ {
          "name": "subject",
          "valueString": "d34f0b5f-0646-4b5c-b9dc-7bb84205daa3"
        } ]
      } ],
      "extension": [ {
        "url": "http://hl7.org/fhir/StructureDefinition/cqf-inputParameters",
        "valueReference": {
          "reference": "#9e6ab378-f296-4652-83a6-10041d68f0c6-parameters"
        }
      }, {
        "url": "http://hl7.org/fhir/us/cqfmeasures/StructureDefinition/cqfm-testCaseDescription",
        "valueMarkdown": "Patient w/ a THA Procedure 11/1, Initial Hip Assessment HOOS Same day as THA Procedure(11/1), and FollowUp Hip Assessment HOOS 299 days after THA Procedure (8/26)"
      } ],
      "modifierExtension": [ {
        "url": "http://hl7.org/fhir/us/cqfmeasures/StructureDefinition/cqfm-isTestCase",
        "valueBoolean": true
      } ],
      "status": "complete",
      "type": "individual",
      "measure": "https://madie.cms.gov/Measure/CMS56FHIRFuncStatHipReplacement",
      "period": {
        "start": "2026-01-01",
        "end": "2026-12-31"
      },
      "group": [ {
        "id": "Group_1",
        "population": [ {
          "id": "InitialPopulation_1",
          "code": {
            "coding": [ {
              "system": "http://terminology.hl7.org/CodeSystem/measure-population",
              "code": "initial-population",
              "display": "Initial Population"
            } ]
          },
          "count": 1
        }, {
          "id": "Denominator_1",
          "code": {
            "coding": [ {
              "system": "http://terminology.hl7.org/CodeSystem/measure-population",
              "code": "denominator",
              "display": "Denominator"
            } ]
          },
          "count": 1
        }, {
          "id": "DenominatorExclusion_1",
          "code": {
            "coding": [ {
              "system": "http://terminology.hl7.org/CodeSystem/measure-population",
              "code": "denominator-exclusion",
              "display": "Denominator Exclusion"
            } ]
          },
          "count": 0
        }, {
          "id": "Numerator_1",
          "code": {
            "coding": [ {
              "system": "http://terminology.hl7.org/CodeSystem/measure-population",
              "code": "numerator",
              "display": "Numerator"
            } ]
          },
          "count": 0
        } ],
        "measureScore": {
          "value": 1.0
        }
      } ],
      "evaluatedResource": [ {
        "reference": "Patient/d34f0b5f-0646-4b5c-b9dc-7bb84205daa3"
      }, {
        "reference": "Procedure/33433117-7389-4cca-bdbb-05dbaf7a8cce"
      }, {
        "reference": "Encounter/35e85d15-6d4e-434e-8900-02a7c4687d3f"
      }, {
        "reference": "Observation/4b721ce7-c6a4-4097-abde-07d4b66fe1fe"
      }, {
        "reference": "Observation/c59d0d4e-69fb-458f-a464-97265b994854"
      }, {
        "reference": "Observation/a4380509-7910-4373-9d97-4cc78e35dab5"
      }, {
        "reference": "Observation/7207c93d-ecb5-4e75-afea-338a33e3a40f"
      }, {
        "reference": "Observation/3af5c29a-061d-4522-865c-6a1940f0b3ee"
      }, {
        "reference": "Observation/bc69bc4e-d410-4452-9f35-3b1938a243fe"
      }, {
        "reference": "Observation/7c57530e-6de6-45a3-a82f-2f87cbf8ad9d"
      }, {
        "reference": "Observation/919aa6d6-51f4-4567-942b-5756c31ba839"
      }, {
        "reference": "Observation/ffb54c62-29a2-44d0-b338-c418a381dcba"
      }, {
        "reference": "Observation/d2fbba47-c786-4590-9c46-af5bc0195337"
      } ]
    }
  } ]
}