{
  "resourceType": "Bundle",
  "id": "649f2e939f80b525f0f78200",
  "type": "collection",
  "entry": [ {
    "fullUrl": "https://madie.cms.gov/Patient/c51459e4-0636-452f-9cbc-d73b599ad7c5",
    "resource": {
      "resourceType": "Patient",
      "id": "c51459e4-0636-452f-9cbc-d73b599ad7c5",
      "meta": {
        "profile": [ "http://hl7.org/fhir/us/qicore/StructureDefinition/qicore-patient" ]
      },
      "extension": [ {
        "url": "http://hl7.org/fhir/us/core/StructureDefinition/us-core-race",
        "extension": [ {
          "url": "ombCategory",
          "valueCoding": {
            "system": "urn:oid:2.16.840.1.113883.6.238",
            "code": "2054-5",
            "display": "Black or African American",
            "userSelected": true
          }
        }, {
          "url": "text",
          "valueString": "Black or African American"
        } ]
      }, {
        "url": "http://hl7.org/fhir/us/core/StructureDefinition/us-core-ethnicity",
        "extension": [ {
          "url": "ombCategory",
          "valueCoding": {
            "system": "urn:oid:2.16.840.1.113883.6.238",
            "code": "2186-5",
            "display": "Not Hispanic or Latino",
            "userSelected": true
          }
        }, {
          "url": "text",
          "valueString": "Not Hispanic or Latino"
        } ]
      } ],
      "identifier": [ {
        "type": {
          "coding": [ {
            "system": "http://terminology.hl7.org/CodeSystem/v2-0203",
            "code": "MR"
          } ]
        },
        "system": "https://bonnie-fhir.healthit.gov/",
        "value": "649f2e939f80b525f0f78200"
      } ],
      "name": [ {
        "family": "NUMFail",
        "given": [ "1LabAfterMP2LabDuringMP" ]
      } ],
      "gender": "female",
      "birthDate": "2001-02-04"
    }
  }, {
    "fullUrl": "https://madie.cms.gov/Condition/89186412-5dc4-4a6d-8724-7bafac9eb478",
    "resource": {
      "resourceType": "Condition",
      "id": "89186412-5dc4-4a6d-8724-7bafac9eb478",
      "meta": {
        "profile": [ "http://hl7.org/fhir/us/qicore/StructureDefinition/qicore-condition-problems-health-concerns" ]
      },
      "clinicalStatus": {
        "coding": [ {
          "system": "http://terminology.hl7.org/CodeSystem/condition-clinical",
          "code": "active",
          "display": "active",
          "userSelected": true
        } ]
      },
      "category": [ {
        "coding": [ {
          "system": "http://terminology.hl7.org/CodeSystem/condition-category",
          "code": "problem-list-item",
          "display": "Problem List Item"
        } ]
      } ],
      "code": {
        "coding": [ {
          "system": "http://hl7.org/fhir/sid/icd-9-cm",
          "version": "2013",
          "code": "042",
          "display": "Human immunodeficiency virus [HIV] disease",
          "userSelected": true
        }, {
          "system": "http://snomed.info/sct",
          "version": "http://snomed.info/sct/731000124108/version/20250301",
          "code": "165816005",
          "userSelected": true
        } ]
      },
      "subject": {
        "reference": "Patient/c51459e4-0636-452f-9cbc-d73b599ad7c5"
      },
      "onsetDateTime": "2018-09-28T08:00:00.000+00:00",
      "recordedDate": "2018-09-28T08:00:00.000+00:00"
    }
  }, {
    "fullUrl": "https://madie.cms.gov/Encounter/caab8c52-de37-4b42-b0ee-a655ef3308f4",
    "resource": {
      "resourceType": "Encounter",
      "id": "caab8c52-de37-4b42-b0ee-a655ef3308f4",
      "meta": {
        "profile": [ "http://hl7.org/fhir/us/qicore/StructureDefinition/qicore-encounter" ]
      },
      "status": "finished",
      "class": {
        "system": "http://terminology.hl7.org/CodeSystem/v3-ActCode",
        "code": "AMB",
        "display": "ambulatory"
      },
      "type": [ {
        "coding": [ {
          "system": "http://www.ama-assn.org/go/cpt",
          "version": "2023",
          "code": "99381",
          "display": "Initial comprehensive preventive medicine evaluation and management of an individual including an age and gender appropriate history, examination, counseling/anticipatory guidance/risk factor reduction interventions, and the ordering of laboratory/diagnostic procedures, new patient; infant (age younger than 1 year)",
          "userSelected": true
        } ]
      } ],
      "subject": {
        "reference": "Patient/c51459e4-0636-452f-9cbc-d73b599ad7c5"
      },
      "period": {
        "start": "2026-09-28T08:00:00.000+00:00",
        "end": "2026-09-28T08:30:00.000+00:00"
      }
    }
  }, {
    "fullUrl": "https://madie.cms.gov/Observation/316d0892-d5bd-4801-b7ad-c1b15f8822ae",
    "resource": {
      "resourceType": "Observation",
      "id": "316d0892-d5bd-4801-b7ad-c1b15f8822ae",
      "meta": {
        "profile": [ "http://hl7.org/fhir/us/qicore/StructureDefinition/qicore-observation-lab" ]
      },
      "status": "final",
      "category": [ {
        "coding": [ {
          "system": "http://terminology.hl7.org/CodeSystem/observation-category",
          "code": "laboratory",
          "display": "Laboratory"
        } ]
      }, {
        "coding": [ {
          "system": "http://terminology.hl7.org/CodeSystem/observation-category",
          "code": "survey"
        } ]
      } ],
      "code": {
        "coding": [ {
          "system": "http://loinc.org",
          "version": "2.73",
          "code": "11084-1",
          "display": "Reagin Ab [Titer] in Serum",
          "userSelected": true
        } ]
      },
      "subject": {
        "reference": "Patient/c51459e4-0636-452f-9cbc-d73b599ad7c5"
      },
      "effectiveDateTime": "2026-10-31T08:16:00.000+00:00",
      "issued": "2026-10-31T08:16:00.000+00:00",
      "valueQuantity": {
        "value": 28
      }
    }
  }, {
    "fullUrl": "https://madie.cms.gov/Observation/cac830a5-6381-413c-966c-6c5cfbcfc551",
    "resource": {
      "resourceType": "Observation",
      "id": "cac830a5-6381-413c-966c-6c5cfbcfc551",
      "meta": {
        "profile": [ "http://hl7.org/fhir/us/qicore/StructureDefinition/qicore-observation-lab" ]
      },
      "status": "final",
      "category": [ {
        "coding": [ {
          "system": "http://terminology.hl7.org/CodeSystem/observation-category",
          "code": "laboratory",
          "display": "Laboratory"
        } ]
      }, {
        "coding": [ {
          "system": "http://terminology.hl7.org/CodeSystem/observation-category",
          "code": "survey"
        } ]
      } ],
      "code": {
        "coding": [ {
          "system": "http://loinc.org",
          "version": "2.73",
          "code": "21414-8",
          "display": "Neisseria gonorrhoeae DNA [Presence] in Cervical mucus by NAA with probe detection",
          "userSelected": true
        } ]
      },
      "subject": {
        "reference": "Patient/c51459e4-0636-452f-9cbc-d73b599ad7c5"
      },
      "effectiveDateTime": "2027-01-31T08:00:00.000+00:00",
      "issued": "2027-01-31T08:00:00.000+00:00",
      "valueQuantity": {
        "value": 19
      }
    }
  }, {
    "fullUrl": "https://madie.cms.gov/Observation/5f92ea37-a84c-414a-a7bf-5273d19fe086",
    "resource": {
      "resourceType": "Observation",
      "id": "5f92ea37-a84c-414a-a7bf-5273d19fe086",
      "meta": {
        "profile": [ "http://hl7.org/fhir/us/qicore/StructureDefinition/qicore-observation-lab" ]
      },
      "status": "final",
      "category": [ {
        "coding": [ {
          "system": "http://terminology.hl7.org/CodeSystem/observation-category",
          "code": "laboratory",
          "display": "Laboratory"
        } ]
      }, {
        "coding": [ {
          "system": "http://terminology.hl7.org/CodeSystem/observation-category",
          "code": "survey"
        } ]
      } ],
      "code": {
        "coding": [ {
          "system": "http://loinc.org",
          "version": "2.73",
          "code": "14463-4",
          "display": "Chlamydia trachomatis [Presence] in Cervix by Organism specific culture",
          "userSelected": true
        } ]
      },
      "subject": {
        "reference": "Patient/c51459e4-0636-452f-9cbc-d73b599ad7c5"
      },
      "effectivePeriod": {
        "start": "2026-10-31T08:16:00.000+00:00",
        "end": "2026-10-31T08:17:00.000+00:00"
      },
      "issued": "2026-10-31T08:16:00.000+00:00",
      "valueQuantity": {
        "value": 12
      }
    }
  }, {
    "fullUrl": "https://madie.cms.gov/Coverage/310fa133-2adb-47a3-bc35-6e19a6e8f81e",
    "resource": {
      "resourceType": "Coverage",
      "id": "310fa133-2adb-47a3-bc35-6e19a6e8f81e",
      "meta": {
        "profile": [ "http://hl7.org/fhir/us/qicore/StructureDefinition/qicore-coverage" ]
      },
      "status": "active",
      "subscriberId": "123456",
      "beneficiary": {
        "reference": "Patient/c51459e4-0636-452f-9cbc-d73b599ad7c5"
      },
      "relationship": {
        "coding": [ {
          "system": "http://terminology.hl7.org/CodeSystem/subscriber-relationship",
          "code": "self",
          "display": "Self"
        } ]
      },
      "payor": [ {
        "reference": "Organization/98c7b3d5-fed3-4e0d-9cc1-bcbfd912a721"
      } ]
    }
  }, {
    "fullUrl": "https://madie.cms.gov/Organization/98c7b3d5-fed3-4e0d-9cc1-bcbfd912a721",
    "resource": {
      "resourceType": "Organization",
      "id": "98c7b3d5-fed3-4e0d-9cc1-bcbfd912a721",
      "meta": {
        "profile": [ "http://hl7.org/fhir/us/qicore/StructureDefinition/qicore-organization" ]
      },
      "identifier": [ {
        "use": "temp",
        "system": "urn:oid:2.16.840.1.113883.4.4",
        "value": "21-3259825"
      } ],
      "active": true,
      "type": [ {
        "coding": [ {
          "system": "http://terminology.hl7.org/CodeSystem/organization-type",
          "code": "pay",
          "display": "Payer"
        } ]
      } ],
      "name": "Blue Cross Blue Shield of Texas",
      "telecom": [ {
        "system": "phone",
        "value": "(+1) 972-766-6900"
      } ],
      "address": [ {
        "use": "billing",
        "type": "postal",
        "line": [ "P.O. Box 660044" ],
        "city": "Dallas",
        "state": "TX",
        "postalCode": "75266-0044",
        "country": "USA"
      } ]
    }
  }, {
    "fullUrl": "https://madie.cms.gov/Practitioner/2bdd0b17-f587-4cc6-b5ff-c8b0507c15c6",
    "resource": {
      "resourceType": "Practitioner",
      "id": "2bdd0b17-f587-4cc6-b5ff-c8b0507c15c6",
      "meta": {
        "profile": [ "http://hl7.org/fhir/us/qicore/StructureDefinition/qicore-practitioner" ]
      },
      "identifier": [ {
        "system": "http://hl7.org/fhir/sid/us-npi",
        "value": "1689411712"
      } ],
      "name": [ {
        "family": "Evil",
        "prefix": [ "Dr" ]
      } ]
    }
  }, {
    "fullUrl": "https://madie.cms.gov/MeasureReport/a4f9372d-e62d-44ee-8e95-677741ab2448",
    "resource": {
      "resourceType": "MeasureReport",
      "id": "a4f9372d-e62d-44ee-8e95-677741ab2448",
      "meta": {
        "profile": [ "http://hl7.org/fhir/us/cqfmeasures/StructureDefinition/test-case-cqfm" ]
      },
      "contained": [ {
        "resourceType": "Parameters",
        "id": "ecd2a577-bf28-4757-a3df-f72689e41813-parameters",
        "parameter": [ {
          "name": "subject",
          "valueString": "c51459e4-0636-452f-9cbc-d73b599ad7c5"
        } ]
      } ],
      "extension": [ {
        "url": "http://hl7.org/fhir/StructureDefinition/cqf-inputParameters",
        "valueReference": {
          "reference": "#ecd2a577-bf28-4757-a3df-f72689e41813-parameters"
        }
      }, {
        "url": "http://hl7.org/fhir/us/cqfmeasures/StructureDefinition/cqfm-testCaseDescription",
        "valueMarkdown": "Patient is over 13 years old with an encounter - 1 STI screen after MP, 2 STI screen during MP"
      } ],
      "modifierExtension": [ {
        "url": "http://hl7.org/fhir/us/cqfmeasures/StructureDefinition/cqfm-isTestCase",
        "valueBoolean": true
      } ],
      "status": "complete",
      "type": "individual",
      "measure": "https://madie.cms.gov/Measure/CMS1188FHIRHIVSTITesting",
      "period": {
        "start": "2026-01-01",
        "end": "2026-12-31"
      },
      "group": [ {
        "id": "Group_1",
        "population": [ {
          "id": "InitialPopulation_1",
          "code": {
            "coding": [ {
              "system": "http://terminology.hl7.org/CodeSystem/measure-population",
              "code": "initial-population",
              "display": "Initial Population"
            } ]
          },
          "count": 1
        }, {
          "id": "Denominator_1",
          "code": {
            "coding": [ {
              "system": "http://terminology.hl7.org/CodeSystem/measure-population",
              "code": "denominator",
              "display": "Denominator"
            } ]
          },
          "count": 1
        }, {
          "id": "Numerator_1",
          "code": {
            "coding": [ {
              "system": "http://terminology.hl7.org/CodeSystem/measure-population",
              "code": "numerator",
              "display": "Numerator"
            } ]
          },
          "count": 0
        } ],
        "measureScore": {
          "value": 1.0
        }
      } ],
      "evaluatedResource": [ {
        "reference": "Patient/c51459e4-0636-452f-9cbc-d73b599ad7c5"
      }, {
        "reference": "Condition/89186412-5dc4-4a6d-8724-7bafac9eb478"
      }, {
        "reference": "Encounter/caab8c52-de37-4b42-b0ee-a655ef3308f4"
      }, {
        "reference": "Observation/316d0892-d5bd-4801-b7ad-c1b15f8822ae"
      }, {
        "reference": "Observation/cac830a5-6381-413c-966c-6c5cfbcfc551"
      }, {
        "reference": "Observation/5f92ea37-a84c-414a-a7bf-5273d19fe086"
      }, {
        "reference": "Coverage/310fa133-2adb-47a3-bc35-6e19a6e8f81e"
      }, {
        "reference": "Organization/98c7b3d5-fed3-4e0d-9cc1-bcbfd912a721"
      }, {
        "reference": "Practitioner/2bdd0b17-f587-4cc6-b5ff-c8b0507c15c6"
      } ]
    }
  } ]
}