{
  "resourceType": "Bundle",
  "id": "62df1ffb0056b6e23ec6759d",
  "type": "collection",
  "entry": [ {
    "fullUrl": "https://madie.cms.gov/Patient/1ba2fc33-1a1b-416b-bb3c-79ba5d0d3359",
    "resource": {
      "resourceType": "Patient",
      "id": "1ba2fc33-1a1b-416b-bb3c-79ba5d0d3359",
      "meta": {
        "profile": [ "http://hl7.org/fhir/us/qicore/StructureDefinition/qicore-patient" ]
      },
      "extension": [ {
        "url": "http://hl7.org/fhir/us/core/StructureDefinition/us-core-race",
        "extension": [ {
          "url": "ombCategory",
          "valueCoding": {
            "system": "urn:oid:2.16.840.1.113883.6.238",
            "code": "2106-3",
            "display": "White",
            "userSelected": true
          }
        }, {
          "url": "text",
          "valueString": "White"
        } ]
      }, {
        "url": "http://hl7.org/fhir/us/core/StructureDefinition/us-core-ethnicity",
        "extension": [ {
          "url": "ombCategory",
          "valueCoding": {
            "system": "urn:oid:2.16.840.1.113883.6.238",
            "code": "2186-5",
            "display": "Not Hispanic or Latino",
            "userSelected": true
          }
        }, {
          "url": "text",
          "valueString": "Not Hispanic or Latino"
        } ]
      } ],
      "identifier": [ {
        "type": {
          "coding": [ {
            "system": "http://terminology.hl7.org/CodeSystem/v2-0203",
            "code": "MR"
          } ]
        },
        "system": "https://bonnie-fhir.healthit.gov/",
        "value": "62df1ffb0056b6e23ec6759d"
      } ],
      "name": [ {
        "family": "NUMERFail",
        "given": [ "HighBMIAndInterventionOrderedFollowUpConditionEndsB4InterventionOrder" ]
      } ],
      "gender": "unknown",
      "birthDate": "1957-11-07"
    }
  }, {
    "fullUrl": "https://madie.cms.gov/Encounter/bdb6616e-742f-4602-b6f0-85e7c642ccd0",
    "resource": {
      "resourceType": "Encounter",
      "id": "bdb6616e-742f-4602-b6f0-85e7c642ccd0",
      "meta": {
        "profile": [ "http://hl7.org/fhir/us/qicore/StructureDefinition/qicore-encounter" ]
      },
      "status": "finished",
      "class": {
        "system": "http://terminology.hl7.org/CodeSystem/v3-ActCode",
        "code": "AMB",
        "display": "ambulatory"
      },
      "type": [ {
        "coding": [ {
          "system": "http://snomed.info/sct",
          "code": "10197000",
          "display": "Psychiatric interview and evaluation (procedure)",
          "userSelected": true
        } ]
      } ],
      "subject": {
        "reference": "Patient/1ba2fc33-1a1b-416b-bb3c-79ba5d0d3359"
      },
      "period": {
        "start": "2026-01-01T00:00:00.000+00:00",
        "end": "2026-01-01T00:30:00.000+00:00"
      }
    }
  }, {
    "fullUrl": "https://madie.cms.gov/Observation/e559b402-0d03-4387-987c-ffd596c6a680",
    "resource": {
      "resourceType": "Observation",
      "id": "e559b402-0d03-4387-987c-ffd596c6a680",
      "meta": {
        "profile": [ "http://hl7.org/fhir/us/core/StructureDefinition/us-core-bmi" ]
      },
      "status": "final",
      "category": [ {
        "coding": [ {
          "system": "http://terminology.hl7.org/CodeSystem/observation-category",
          "code": "vital-signs",
          "display": "Vital Signs"
        } ]
      } ],
      "code": {
        "coding": [ {
          "system": "http://loinc.org",
          "code": "39156-5",
          "display": "Body mass index (BMI) [Ratio]",
          "userSelected": true
        } ]
      },
      "subject": {
        "reference": "Patient/1ba2fc33-1a1b-416b-bb3c-79ba5d0d3359"
      },
      "effectiveDateTime": "2026-01-01T08:05:00.000+00:00",
      "valueQuantity": {
        "value": 17,
        "unit": "kg/m2",
        "system": "http://unitsofmeasure.org",
        "code": "kg/m2"
      }
    }
  }, {
    "fullUrl": "https://madie.cms.gov/Condition/48b9d28c-393b-43e4-9aac-07a2e5fa387b",
    "resource": {
      "resourceType": "Condition",
      "id": "48b9d28c-393b-43e4-9aac-07a2e5fa387b",
      "meta": {
        "profile": [ "http://hl7.org/fhir/us/qicore/StructureDefinition/qicore-condition-encounter-diagnosis" ]
      },
      "clinicalStatus": {
        "coding": [ {
          "system": "http://terminology.hl7.org/CodeSystem/condition-clinical",
          "code": "inactive",
          "display": "inactive",
          "userSelected": true
        } ]
      },
      "category": [ {
        "coding": [ {
          "system": "http://terminology.hl7.org/CodeSystem/condition-category",
          "code": "encounter-diagnosis",
          "display": "Encounter Diagnosis"
        }, {
          "system": "http://snomed.info/sct",
          "code": "439401001",
          "display": "Diagnosis"
        } ]
      } ],
      "code": {
        "coding": [ {
          "system": "http://snomed.info/sct",
          "code": "162863004",
          "display": "Body mass index 25-29 - overweight (finding)",
          "userSelected": true
        } ]
      },
      "subject": {
        "reference": "Patient/1ba2fc33-1a1b-416b-bb3c-79ba5d0d3359"
      },
      "onsetDateTime": "2025-01-01T08:00:00.000+00:00",
      "abatementDateTime": "2026-12-31T11:59:00.000+00:00"
    }
  }, {
    "fullUrl": "https://madie.cms.gov/ServiceRequest/c935a343-9129-4719-abfa-4d148b61823f",
    "resource": {
      "resourceType": "ServiceRequest",
      "id": "c935a343-9129-4719-abfa-4d148b61823f",
      "meta": {
        "profile": [ "http://hl7.org/fhir/us/qicore/StructureDefinition/qicore-servicerequest" ]
      },
      "status": "active",
      "intent": "order",
      "code": {
        "coding": [ {
          "system": "http://snomed.info/sct",
          "code": "182922004",
          "display": "Dietary regime (regime/therapy)",
          "userSelected": true
        } ]
      },
      "subject": {
        "reference": "Patient/1ba2fc33-1a1b-416b-bb3c-79ba5d0d3359"
      },
      "authoredOn": "2026-01-01T00:30:00.000+00:00"
    }
  }, {
    "fullUrl": "https://madie.cms.gov/Coverage/2ea09d5e-c540-4456-96d1-214065bcee6a",
    "resource": {
      "resourceType": "Coverage",
      "id": "2ea09d5e-c540-4456-96d1-214065bcee6a",
      "meta": {
        "profile": [ "http://hl7.org/fhir/us/qicore/StructureDefinition/qicore-coverage" ]
      },
      "status": "active",
      "subscriberId": "123456",
      "beneficiary": {
        "reference": "Patient/1ba2fc33-1a1b-416b-bb3c-79ba5d0d3359"
      },
      "relationship": {
        "coding": [ {
          "system": "http://terminology.hl7.org/CodeSystem/subscriber-relationship",
          "code": "self",
          "display": "Self",
          "userSelected": true
        } ]
      },
      "payor": [ {
        "reference": "Organization/00858652-7d88-4688-b410-91968a7139b2"
      } ]
    }
  }, {
    "fullUrl": "https://madie.cms.gov/Organization/00858652-7d88-4688-b410-91968a7139b2",
    "resource": {
      "resourceType": "Organization",
      "id": "00858652-7d88-4688-b410-91968a7139b2",
      "meta": {
        "profile": [ "http://hl7.org/fhir/us/qicore/StructureDefinition/qicore-organization" ]
      },
      "identifier": [ {
        "use": "temp",
        "system": "urn:oid:2.16.840.1.113883.4.4",
        "value": "21-3259825"
      } ],
      "active": true,
      "type": [ {
        "coding": [ {
          "system": "http://terminology.hl7.org/CodeSystem/organization-type",
          "code": "pay",
          "display": "Payer"
        } ]
      } ],
      "name": "Blue Cross Blue Shield of Texas",
      "telecom": [ {
        "system": "phone",
        "value": "(+1) 972-766-6900"
      } ],
      "address": [ {
        "use": "billing",
        "type": "postal",
        "line": [ "P.O. Box 660044" ],
        "city": "Dallas",
        "state": "TX",
        "postalCode": "75266-0044",
        "country": "USA"
      } ]
    }
  }, {
    "fullUrl": "https://madie.cms.gov/MeasureReport/adfc850a-59ae-456e-9d12-5e656e6b9296",
    "resource": {
      "resourceType": "MeasureReport",
      "id": "adfc850a-59ae-456e-9d12-5e656e6b9296",
      "meta": {
        "profile": [ "http://hl7.org/fhir/us/cqfmeasures/StructureDefinition/test-case-cqfm" ]
      },
      "contained": [ {
        "resourceType": "Parameters",
        "id": "3e5e1a90-fbd9-4708-8303-81a7ff3772aa-parameters",
        "parameter": [ {
          "name": "subject",
          "valueString": "1ba2fc33-1a1b-416b-bb3c-79ba5d0d3359"
        } ]
      } ],
      "extension": [ {
        "url": "http://hl7.org/fhir/StructureDefinition/cqf-inputParameters",
        "valueReference": {
          "reference": "#3e5e1a90-fbd9-4708-8303-81a7ff3772aa-parameters"
        }
      }, {
        "url": "http://hl7.org/fhir/us/cqfmeasures/StructureDefinition/cqfm-testCaseDescription",
        "valueMarkdown": "High BMI with intervention ordered - f/u for above nl BMI, condition overweight. Fails because condition dateTime ends before intervention order "
      } ],
      "modifierExtension": [ {
        "url": "http://hl7.org/fhir/us/cqfmeasures/StructureDefinition/cqfm-isTestCase",
        "valueBoolean": true
      } ],
      "status": "complete",
      "type": "individual",
      "measure": "https://madie.cms.gov/Measure/CMS69FHIRPCSBMIScreenAndFollowUp",
      "period": {
        "start": "2026-01-01",
        "end": "2026-12-31"
      },
      "group": [ {
        "id": "Group_1",
        "population": [ {
          "id": "InitialPopulation_1",
          "code": {
            "coding": [ {
              "system": "http://terminology.hl7.org/CodeSystem/measure-population",
              "code": "initial-population",
              "display": "Initial Population"
            } ]
          },
          "count": 1
        }, {
          "id": "Denominator_1",
          "code": {
            "coding": [ {
              "system": "http://terminology.hl7.org/CodeSystem/measure-population",
              "code": "denominator",
              "display": "Denominator"
            } ]
          },
          "count": 1
        }, {
          "id": "DenominatorExclusion_1",
          "code": {
            "coding": [ {
              "system": "http://terminology.hl7.org/CodeSystem/measure-population",
              "code": "denominator-exclusion",
              "display": "Denominator Exclusion"
            } ]
          },
          "count": 0
        }, {
          "id": "Numerator_1",
          "code": {
            "coding": [ {
              "system": "http://terminology.hl7.org/CodeSystem/measure-population",
              "code": "numerator",
              "display": "Numerator"
            } ]
          },
          "count": 0
        }, {
          "id": "DenominatorException_1",
          "code": {
            "coding": [ {
              "system": "http://terminology.hl7.org/CodeSystem/measure-population",
              "code": "denominator-exception",
              "display": "Denominator Exception"
            } ]
          },
          "count": 0
        } ],
        "measureScore": {
          "value": 1.0
        }
      } ],
      "evaluatedResource": [ {
        "reference": "Patient/1ba2fc33-1a1b-416b-bb3c-79ba5d0d3359"
      }, {
        "reference": "Encounter/bdb6616e-742f-4602-b6f0-85e7c642ccd0"
      }, {
        "reference": "Observation/e559b402-0d03-4387-987c-ffd596c6a680"
      }, {
        "reference": "Condition/48b9d28c-393b-43e4-9aac-07a2e5fa387b"
      }, {
        "reference": "ServiceRequest/c935a343-9129-4719-abfa-4d148b61823f"
      }, {
        "reference": "Coverage/2ea09d5e-c540-4456-96d1-214065bcee6a"
      }, {
        "reference": "Organization/00858652-7d88-4688-b410-91968a7139b2"
      } ]
    }
  } ]
}