{
  "resourceType": "Bundle",
  "id": "612e6e7d02c62a011f2ee908",
  "type": "transaction",
  "entry": [ {
    "fullUrl": "https://madie.cms.gov/Patient/a82cd0c1-900e-4ab3-a498-840ac1608486",
    "resource": {
      "resourceType": "Patient",
      "id": "a82cd0c1-900e-4ab3-a498-840ac1608486",
      "meta": {
        "profile": [ "http://hl7.org/fhir/us/qicore/StructureDefinition/qicore-patient" ]
      },
      "text": {
        "status": "generated",
        "div": "<div xmlns=\"http://www.w3.org/1999/xhtml\"><div class=\"hapiHeaderText\">CMODuringEDDoNotPerformTrue <b>DENEXFail </b></div><table class=\"hapiPropertyTable\"><tbody><tr><td>Identifier</td><td>45452ea1dc23640e1878befc89e45fab</td></tr><tr><td>Date of birth</td><td><span>03 March 1974</span></td></tr></tbody></table></div>"
      },
      "extension": [ {
        "url": "http://hl7.org/fhir/us/core/StructureDefinition/us-core-race",
        "extension": [ {
          "url": "ombCategory",
          "valueCoding": {
            "system": "urn:oid:2.16.840.1.113883.6.238",
            "code": "1002-5",
            "display": "American Indian or Alaska Native",
            "userSelected": true
          }
        }, {
          "url": "text",
          "valueString": "American Indian or Alaska Native"
        } ]
      }, {
        "url": "http://hl7.org/fhir/us/core/StructureDefinition/us-core-ethnicity",
        "extension": [ {
          "url": "ombCategory",
          "valueCoding": {
            "system": "urn:oid:2.16.840.1.113883.6.238",
            "code": "2135-2",
            "display": "Hispanic or Latino",
            "userSelected": true
          }
        }, {
          "url": "text",
          "valueString": "Hispanic or Latino"
        } ]
      } ],
      "identifier": [ {
        "type": {
          "coding": [ {
            "system": "http://terminology.hl7.org/CodeSystem/v2-0203",
            "code": "MR"
          } ]
        },
        "system": "https://bonnie-fhir.healthit.gov/",
        "value": "612e6e7d02c62a011f2ee908"
      } ],
      "active": true,
      "name": [ {
        "use": "usual",
        "family": "DENEXFail",
        "given": [ "CMODuringEDDoNotPerformFalse" ]
      } ],
      "gender": "female",
      "birthDate": "1975-03-03"
    },
    "request": {
      "method": "PUT",
      "url": "Patient/a82cd0c1-900e-4ab3-a498-840ac1608486"
    }
  }, {
    "fullUrl": "https://madie.cms.gov/Encounter/8fe2e02c-e73d-42a3-b314-a2dba4012dfb",
    "resource": {
      "resourceType": "Encounter",
      "id": "8fe2e02c-e73d-42a3-b314-a2dba4012dfb",
      "meta": {
        "profile": [ "http://hl7.org/fhir/us/qicore/StructureDefinition/qicore-encounter" ]
      },
      "status": "finished",
      "class": {
        "system": "http://terminology.hl7.org/CodeSystem/v3-ActCode",
        "code": "EMER",
        "display": "emergency"
      },
      "type": [ {
        "coding": [ {
          "system": "http://snomed.info/sct",
          "code": "4525004"
        } ]
      } ],
      "subject": {
        "reference": "Patient/a82cd0c1-900e-4ab3-a498-840ac1608486"
      },
      "period": {
        "start": "2026-12-04T06:00:00.000+00:00",
        "end": "2026-12-04T07:15:00.000+00:00"
      },
      "length": {
        "value": 0,
        "unit": "days"
      }
    },
    "request": {
      "method": "PUT",
      "url": "Encounter/8fe2e02c-e73d-42a3-b314-a2dba4012dfb"
    }
  }, {
    "fullUrl": "https://madie.cms.gov/Encounter/d18cb192-b282-415d-8a08-25d60695b12e",
    "resource": {
      "resourceType": "Encounter",
      "id": "d18cb192-b282-415d-8a08-25d60695b12e",
      "meta": {
        "profile": [ "http://hl7.org/fhir/us/qicore/StructureDefinition/qicore-encounter" ]
      },
      "status": "finished",
      "class": {
        "system": "http://terminology.hl7.org/CodeSystem/v3-ActCode",
        "code": "IMP",
        "display": "inpatient encounter"
      },
      "type": [ {
        "coding": [ {
          "system": "http://snomed.info/sct",
          "code": "8715000"
        } ]
      } ],
      "subject": {
        "reference": "Patient/a82cd0c1-900e-4ab3-a498-840ac1608486"
      },
      "period": {
        "start": "2026-12-04T08:00:00.000+00:00",
        "end": "2026-12-30T08:15:00.000+00:00"
      },
      "length": {
        "value": 26,
        "unit": "days"
      },
      "location": [ {
        "location": {
          "reference": "Location/f6d645a5-f482-4bd9-8a72-fc6d6a7d9b2f"
        },
        "period": {
          "start": "2026-12-26T08:00:00.000+00:00",
          "end": "2026-12-28T08:15:00.000+00:00"
        }
      } ]
    },
    "request": {
      "method": "PUT",
      "url": "Encounter/d18cb192-b282-415d-8a08-25d60695b12e"
    }
  }, {
    "fullUrl": "https://madie.cms.gov/ServiceRequest/7cea0777-487d-44d7-a28b-34f2aba77a06",
    "resource": {
      "resourceType": "ServiceRequest",
      "id": "7cea0777-487d-44d7-a28b-34f2aba77a06",
      "meta": {
        "profile": [ "http://hl7.org/fhir/us/qicore/StructureDefinition/qicore-servicenotrequested" ]
      },
      "extension": [ {
        "url": "http://hl7.org/fhir/us/qicore/StructureDefinition/qicore-doNotPerformReason",
        "valueCodeableConcept": {
          "coding": [ {
            "system": "http://snomed.info/sct",
            "code": "416406003",
            "display": "Procedure discontinued (situation)"
          } ]
        }
      } ],
      "status": "completed",
      "intent": "order",
      "doNotPerform": false,
      "code": {
        "coding": [ {
          "system": "http://snomed.info/sct",
          "code": "133918004"
        } ]
      },
      "subject": {
        "reference": "Patient/a82cd0c1-900e-4ab3-a498-840ac1608486"
      },
      "authoredOn": "2026-12-04T06:30:00.000+00:00"
    },
    "request": {
      "method": "PUT",
      "url": "ServiceRequest/7cea0777-487d-44d7-a28b-34f2aba77a06"
    }
  }, {
    "fullUrl": "https://madie.cms.gov/Coverage/29ec597c-7253-4c1d-8e74-e284dd8ccf9a",
    "resource": {
      "resourceType": "Coverage",
      "id": "29ec597c-7253-4c1d-8e74-e284dd8ccf9a",
      "status": "active",
      "beneficiary": {
        "reference": "Patient/a82cd0c1-900e-4ab3-a498-840ac1608486"
      },
      "period": {
        "start": "1975-03-03T08:00:00.000+00:00"
      },
      "payor": [ {
        "reference": "Organization/bd98c618-6098-4749-b734-bbbfdaaf3c5c"
      } ]
    },
    "request": {
      "method": "PUT",
      "url": "Coverage/29ec597c-7253-4c1d-8e74-e284dd8ccf9a"
    }
  }, {
    "fullUrl": "https://madie.cms.gov/Location/ef2aa92c-3426-4c2f-9fc1-6a63fc1dbd4a",
    "resource": {
      "resourceType": "Location",
      "id": "ef2aa92c-3426-4c2f-9fc1-6a63fc1dbd4a",
      "type": [ {
        "coding": [ {
          "system": "http://cts.nlm.nih.gov/fhir/cs/hsloc",
          "version": "2020",
          "code": "1025-6",
          "display": "Trauma Critical Care",
          "userSelected": true
        } ]
      } ]
    },
    "request": {
      "method": "PUT",
      "url": "Location/ef2aa92c-3426-4c2f-9fc1-6a63fc1dbd4a"
    }
  }, {
    "fullUrl": "https://madie.cms.gov/Location/f6d645a5-f482-4bd9-8a72-fc6d6a7d9b2f",
    "resource": {
      "resourceType": "Location",
      "id": "f6d645a5-f482-4bd9-8a72-fc6d6a7d9b2f",
      "meta": {
        "profile": [ "http://hl7.org/fhir/us/qicore/StructureDefinition/qicore-location" ]
      },
      "identifier": [ {
        "use": "usual",
        "system": "http://exampleoflocation.com",
        "value": "B1-S.F2"
      } ],
      "name": "Medical Surgical East, first floor",
      "type": [ {
        "coding": [ {
          "system": "https://www.cdc.gov/nhsn/cdaportal/terminology/codesystem/hsloc.html",
          "code": "1025-6",
          "display": "Trauma Critical Care",
          "userSelected": true
        } ]
      } ]
    },
    "request": {
      "method": "PUT",
      "url": "Location/f6d645a5-f482-4bd9-8a72-fc6d6a7d9b2f"
    }
  }, {
    "fullUrl": "https://madie.cms.gov/Organization/bd98c618-6098-4749-b734-bbbfdaaf3c5c",
    "resource": {
      "resourceType": "Organization",
      "id": "bd98c618-6098-4749-b734-bbbfdaaf3c5c",
      "meta": {
        "profile": [ "http://hl7.org/fhir/us/qicore/StructureDefinition/qicore-organization" ]
      },
      "identifier": [ {
        "use": "temp",
        "system": "urn:oid:2.16.840.1.113883.4.4",
        "value": "21-3259825"
      } ],
      "active": true,
      "type": [ {
        "coding": [ {
          "system": "http://terminology.hl7.org/CodeSystem/organization-type",
          "code": "pay",
          "display": "Payer"
        } ]
      } ],
      "name": "Blue Cross Blue Shield of Texas",
      "telecom": [ {
        "system": "phone",
        "value": "(+1) 972-766-6900"
      } ],
      "address": [ {
        "use": "billing",
        "type": "postal",
        "line": [ "P.O. Box 660044" ],
        "city": "Dallas",
        "state": "TX",
        "postalCode": "75266-0044",
        "country": "USA"
      } ]
    },
    "request": {
      "method": "PUT",
      "url": "Organization/bd98c618-6098-4749-b734-bbbfdaaf3c5c"
    }
  }, {
    "fullUrl": "https://madie.cms.gov/Practitioner/f4b98921-fd11-4fee-9aac-7fbb598fa199",
    "resource": {
      "resourceType": "Practitioner",
      "id": "f4b98921-fd11-4fee-9aac-7fbb598fa199",
      "identifier": [ {
        "system": "http://hl7.org/fhir/sid/us-npi",
        "value": "123456"
      } ],
      "name": [ {
        "family": "Evil",
        "prefix": [ "Dr" ]
      } ]
    },
    "request": {
      "method": "PUT",
      "url": "Practitioner/f4b98921-fd11-4fee-9aac-7fbb598fa199"
    }
  }, {
    "fullUrl": "https://madie.cms.gov/MeasureReport/94a26fc6-de93-43a2-9be0-2ca52b24d988",
    "resource": {
      "resourceType": "MeasureReport",
      "id": "94a26fc6-de93-43a2-9be0-2ca52b24d988",
      "meta": {
        "profile": [ "http://hl7.org/fhir/us/cqfmeasures/StructureDefinition/test-case-cqfm" ]
      },
      "contained": [ {
        "resourceType": "Parameters",
        "id": "8db1fe9e-a3ae-4387-a599-ced65bdf6fe6-parameters",
        "parameter": [ {
          "name": "subject",
          "valueString": "a82cd0c1-900e-4ab3-a498-840ac1608486"
        } ]
      } ],
      "extension": [ {
        "url": "http://hl7.org/fhir/StructureDefinition/cqf-inputParameters",
        "valueReference": {
          "reference": "#8db1fe9e-a3ae-4387-a599-ced65bdf6fe6-parameters"
        }
      }, {
        "url": "http://hl7.org/fhir/us/cqfmeasures/StructureDefinition/cqfm-testCaseDescription",
        "valueMarkdown": "To test and cover CMO doNotPerform is true"
      } ],
      "modifierExtension": [ {
        "url": "http://hl7.org/fhir/us/cqfmeasures/StructureDefinition/cqfm-isTestCase",
        "valueBoolean": true
      } ],
      "status": "complete",
      "type": "individual",
      "measure": "https://madie.cms.gov/Measure/CMS190FHIRVTEProphylaxisICU",
      "period": {
        "start": "2026-01-01",
        "end": "2026-12-31"
      },
      "group": [ {
        "id": "Group_1",
        "population": [ {
          "id": "InitialPopulation_1",
          "code": {
            "coding": [ {
              "system": "http://terminology.hl7.org/CodeSystem/measure-population",
              "code": "initial-population",
              "display": "Initial Population"
            } ]
          },
          "count": 1
        }, {
          "id": "Denominator_1",
          "code": {
            "coding": [ {
              "system": "http://terminology.hl7.org/CodeSystem/measure-population",
              "code": "denominator",
              "display": "Denominator"
            } ]
          },
          "count": 1
        }, {
          "id": "DenominatorExclusion_1",
          "code": {
            "coding": [ {
              "system": "http://terminology.hl7.org/CodeSystem/measure-population",
              "code": "denominator-exclusion",
              "display": "Denominator Exclusion"
            } ]
          },
          "count": 0
        }, {
          "id": "Numerator_1",
          "code": {
            "coding": [ {
              "system": "http://terminology.hl7.org/CodeSystem/measure-population",
              "code": "numerator",
              "display": "Numerator"
            } ]
          },
          "count": 0
        }, {
          "id": "DenominatorException_1",
          "code": {
            "coding": [ {
              "system": "http://terminology.hl7.org/CodeSystem/measure-population",
              "code": "denominator-exception",
              "display": "Denominator Exception"
            } ]
          },
          "count": 0
        } ],
        "measureScore": {
          "value": 0.0
        }
      } ],
      "evaluatedResource": [ {
        "reference": "Patient/a82cd0c1-900e-4ab3-a498-840ac1608486"
      }, {
        "reference": "Encounter/8fe2e02c-e73d-42a3-b314-a2dba4012dfb"
      }, {
        "reference": "Encounter/d18cb192-b282-415d-8a08-25d60695b12e"
      }, {
        "reference": "ServiceRequest/7cea0777-487d-44d7-a28b-34f2aba77a06"
      }, {
        "reference": "Coverage/29ec597c-7253-4c1d-8e74-e284dd8ccf9a"
      }, {
        "reference": "Location/ef2aa92c-3426-4c2f-9fc1-6a63fc1dbd4a"
      }, {
        "reference": "Location/f6d645a5-f482-4bd9-8a72-fc6d6a7d9b2f"
      }, {
        "reference": "Organization/bd98c618-6098-4749-b734-bbbfdaaf3c5c"
      }, {
        "reference": "Practitioner/f4b98921-fd11-4fee-9aac-7fbb598fa199"
      } ]
    },
    "request": {
      "method": "PUT",
      "url": "MeasureReport/94a26fc6-de93-43a2-9be0-2ca52b24d988"
    }
  } ]
}