{
  "resourceType": "Bundle",
  "id": "6494686fd09ece2c2e9bf937",
  "type": "collection",
  "entry": [ {
    "fullUrl": "https://madie.cms.gov/Patient/b142f5b4-0f0e-4a68-9943-d2a1a9359639",
    "resource": {
      "resourceType": "Patient",
      "id": "b142f5b4-0f0e-4a68-9943-d2a1a9359639",
      "meta": {
        "profile": [ "http://hl7.org/fhir/us/qicore/StructureDefinition/qicore-patient" ]
      },
      "extension": [ {
        "url": "http://hl7.org/fhir/us/core/StructureDefinition/us-core-race",
        "extension": [ {
          "url": "ombCategory",
          "valueCoding": {
            "system": "urn:oid:2.16.840.1.113883.6.238",
            "code": "2028-9",
            "display": "Asian",
            "userSelected": true
          }
        }, {
          "url": "text",
          "valueString": "Asian"
        } ]
      }, {
        "url": "http://hl7.org/fhir/us/core/StructureDefinition/us-core-ethnicity",
        "extension": [ {
          "url": "ombCategory",
          "valueCoding": {
            "system": "urn:oid:2.16.840.1.113883.6.238",
            "code": "2186-5",
            "display": "Not Hispanic or Latino",
            "userSelected": true
          }
        }, {
          "url": "text",
          "valueString": "Not Hispanic or Latino"
        } ]
      } ],
      "identifier": [ {
        "type": {
          "coding": [ {
            "system": "http://terminology.hl7.org/CodeSystem/v2-0203",
            "code": "MR"
          } ]
        },
        "system": "https://bonnie-fhir.healthit.gov/",
        "value": "6494686fd09ece2c2e9bf937"
      } ],
      "name": [ {
        "family": "13NumPass",
        "given": [ "EncInMPVLafterEncDuringMPOver90Days" ]
      } ],
      "gender": "female",
      "birthDate": "1991-05-08"
    }
  }, {
    "fullUrl": "https://madie.cms.gov/Condition/292de98c-df60-4489-bda1-fd956969996d",
    "resource": {
      "resourceType": "Condition",
      "id": "292de98c-df60-4489-bda1-fd956969996d",
      "meta": {
        "profile": [ "http://hl7.org/fhir/us/qicore/StructureDefinition/qicore-condition-problems-health-concerns" ]
      },
      "clinicalStatus": {
        "coding": [ {
          "system": "http://terminology.hl7.org/CodeSystem/condition-clinical",
          "code": "active",
          "display": "active",
          "userSelected": true
        } ]
      },
      "category": [ {
        "coding": [ {
          "system": "http://terminology.hl7.org/CodeSystem/condition-category",
          "code": "problem-list-item",
          "display": "Problem List Item"
        } ]
      } ],
      "code": {
        "coding": [ {
          "system": "http://hl7.org/fhir/sid/icd-9-cm",
          "version": "2013",
          "code": "042",
          "display": "Human immunodeficiency virus [HIV] disease",
          "userSelected": true
        }, {
          "system": "http://snomed.info/sct",
          "version": "http://snomed.info/sct/731000124108/version/20250301",
          "code": "165816005",
          "userSelected": true
        } ]
      },
      "subject": {
        "reference": "Patient/b142f5b4-0f0e-4a68-9943-d2a1a9359639"
      },
      "onsetDateTime": "2002-11-19T08:00:00.000+00:00",
      "recordedDate": "2002-11-19T08:00:00.000+00:00"
    }
  }, {
    "fullUrl": "https://madie.cms.gov/Observation/e0c4db00-691f-4b0d-9cce-65b0c7380de9",
    "resource": {
      "resourceType": "Observation",
      "id": "e0c4db00-691f-4b0d-9cce-65b0c7380de9",
      "meta": {
        "profile": [ "http://hl7.org/fhir/us/qicore/StructureDefinition/qicore-observation-lab" ]
      },
      "status": "final",
      "category": [ {
        "coding": [ {
          "system": "http://terminology.hl7.org/CodeSystem/observation-category",
          "code": "laboratory",
          "display": "Laboratory"
        } ]
      }, {
        "coding": [ {
          "system": "http://terminology.hl7.org/CodeSystem/observation-category",
          "code": "survey"
        } ]
      } ],
      "code": {
        "coding": [ {
          "system": "http://loinc.org",
          "version": "2.73",
          "code": "10351-5",
          "display": "HIV 1 RNA [Units/volume] (viral load) in Serum or Plasma by Probe with amplification",
          "userSelected": true
        } ]
      },
      "subject": {
        "reference": "Patient/b142f5b4-0f0e-4a68-9943-d2a1a9359639"
      },
      "effectiveDateTime": "2026-05-01T08:00:00.000+00:00",
      "dataAbsentReason": {
        "coding": [ {
          "system": "http://terminology.hl7.org/CodeSystem/data-absent-reason",
          "code": "unknown",
          "display": "Unknown"
        } ]
      }
    }
  }, {
    "fullUrl": "https://madie.cms.gov/Encounter/fb4c4ac6-4815-4ae6-9bbc-406fe6734e77",
    "resource": {
      "resourceType": "Encounter",
      "id": "fb4c4ac6-4815-4ae6-9bbc-406fe6734e77",
      "meta": {
        "profile": [ "http://hl7.org/fhir/us/qicore/StructureDefinition/qicore-encounter" ]
      },
      "status": "finished",
      "class": {
        "system": "http://terminology.hl7.org/CodeSystem/v3-ActCode",
        "code": "AMB",
        "display": "ambulatory"
      },
      "type": [ {
        "coding": [ {
          "system": "http://www.ama-assn.org/go/cpt",
          "version": "2023",
          "code": "99385",
          "display": "Initial comprehensive preventive medicine evaluation and management of an individual including an age and gender appropriate history, examination, counseling/anticipatory guidance/risk factor reduction interventions, and the ordering of laboratory/diagnostic procedures, new patient; 18-39 years",
          "userSelected": true
        } ]
      } ],
      "subject": {
        "reference": "Patient/b142f5b4-0f0e-4a68-9943-d2a1a9359639"
      },
      "period": {
        "start": "2026-01-30T08:00:00.000+00:00",
        "end": "2026-01-30T08:15:00.000+00:00"
      }
    }
  }, {
    "fullUrl": "https://madie.cms.gov/Coverage/a6881143-5c85-46ef-b074-563da233d076",
    "resource": {
      "resourceType": "Coverage",
      "id": "a6881143-5c85-46ef-b074-563da233d076",
      "meta": {
        "profile": [ "http://hl7.org/fhir/us/qicore/StructureDefinition/qicore-coverage" ]
      },
      "status": "active",
      "subscriberId": "123456",
      "beneficiary": {
        "reference": "Patient/b142f5b4-0f0e-4a68-9943-d2a1a9359639"
      },
      "relationship": {
        "coding": [ {
          "system": "http://terminology.hl7.org/CodeSystem/subscriber-relationship",
          "code": "self",
          "display": "Self"
        } ]
      },
      "payor": [ {
        "reference": "Organization/35023717-c813-4091-94f9-c6dd35f2af86"
      } ]
    }
  }, {
    "fullUrl": "https://madie.cms.gov/Organization/35023717-c813-4091-94f9-c6dd35f2af86",
    "resource": {
      "resourceType": "Organization",
      "id": "35023717-c813-4091-94f9-c6dd35f2af86",
      "meta": {
        "profile": [ "http://hl7.org/fhir/us/qicore/StructureDefinition/qicore-organization" ]
      },
      "identifier": [ {
        "use": "temp",
        "system": "urn:oid:2.16.840.1.113883.4.4",
        "value": "21-3259825"
      } ],
      "active": true,
      "type": [ {
        "coding": [ {
          "system": "http://terminology.hl7.org/CodeSystem/organization-type",
          "code": "pay",
          "display": "Payer"
        } ]
      } ],
      "name": "Blue Cross Blue Shield of Texas",
      "telecom": [ {
        "system": "phone",
        "value": "(+1) 972-766-6900"
      } ],
      "address": [ {
        "use": "billing",
        "type": "postal",
        "line": [ "P.O. Box 660044" ],
        "city": "Dallas",
        "state": "TX",
        "postalCode": "75266-0044",
        "country": "USA"
      } ]
    }
  }, {
    "fullUrl": "https://madie.cms.gov/Practitioner/3289b5fa-2d65-4944-9f11-f5988a9339fc",
    "resource": {
      "resourceType": "Practitioner",
      "id": "3289b5fa-2d65-4944-9f11-f5988a9339fc",
      "meta": {
        "profile": [ "http://hl7.org/fhir/us/qicore/StructureDefinition/qicore-practitioner" ]
      },
      "identifier": [ {
        "system": "http://hl7.org/fhir/sid/us-npi",
        "value": "1689411712"
      } ],
      "name": [ {
        "family": "Evil",
        "prefix": [ "Dr" ]
      } ]
    }
  }, {
    "fullUrl": "https://madie.cms.gov/MeasureReport/8eada8a3-3c4e-4438-af4a-5ecc7d40cb68",
    "resource": {
      "resourceType": "MeasureReport",
      "id": "8eada8a3-3c4e-4438-af4a-5ecc7d40cb68",
      "meta": {
        "profile": [ "http://hl7.org/fhir/us/cqfmeasures/StructureDefinition/test-case-cqfm" ]
      },
      "contained": [ {
        "resourceType": "Parameters",
        "id": "c9884051-a37a-4d0e-a235-b60105fd7bba-parameters",
        "parameter": [ {
          "name": "subject",
          "valueString": "b142f5b4-0f0e-4a68-9943-d2a1a9359639"
        } ]
      } ],
      "extension": [ {
        "url": "http://hl7.org/fhir/StructureDefinition/cqf-inputParameters",
        "valueReference": {
          "reference": "#c9884051-a37a-4d0e-a235-b60105fd7bba-parameters"
        }
      }, {
        "url": "http://hl7.org/fhir/us/cqfmeasures/StructureDefinition/cqfm-testCaseDescription",
        "valueMarkdown": "Patient has an encounter during the first 240 days of the MP and a VL test on 5/1 (over 90 days after Enc)"
      } ],
      "modifierExtension": [ {
        "url": "http://hl7.org/fhir/us/cqfmeasures/StructureDefinition/cqfm-isTestCase",
        "valueBoolean": true
      } ],
      "status": "complete",
      "type": "individual",
      "measure": "https://madie.cms.gov/Measure/CMS1157FHIRHIVRetention",
      "period": {
        "start": "2026-01-01",
        "end": "2026-12-31"
      },
      "group": [ {
        "id": "Group_1",
        "population": [ {
          "id": "InitialPopulation_1",
          "code": {
            "coding": [ {
              "system": "http://terminology.hl7.org/CodeSystem/measure-population",
              "code": "initial-population",
              "display": "Initial Population"
            } ]
          },
          "count": 1
        }, {
          "id": "Denominator_1",
          "code": {
            "coding": [ {
              "system": "http://terminology.hl7.org/CodeSystem/measure-population",
              "code": "denominator",
              "display": "Denominator"
            } ]
          },
          "count": 1
        }, {
          "id": "Numerator_1",
          "code": {
            "coding": [ {
              "system": "http://terminology.hl7.org/CodeSystem/measure-population",
              "code": "numerator",
              "display": "Numerator"
            } ]
          },
          "count": 1
        } ],
        "measureScore": {
          "value": 1.0
        }
      } ],
      "evaluatedResource": [ {
        "reference": "Patient/b142f5b4-0f0e-4a68-9943-d2a1a9359639"
      }, {
        "reference": "Condition/292de98c-df60-4489-bda1-fd956969996d"
      }, {
        "reference": "Observation/e0c4db00-691f-4b0d-9cce-65b0c7380de9"
      }, {
        "reference": "Encounter/fb4c4ac6-4815-4ae6-9bbc-406fe6734e77"
      }, {
        "reference": "Coverage/a6881143-5c85-46ef-b074-563da233d076"
      }, {
        "reference": "Organization/35023717-c813-4091-94f9-c6dd35f2af86"
      }, {
        "reference": "Practitioner/3289b5fa-2d65-4944-9f11-f5988a9339fc"
      } ]
    }
  } ]
}