{
  "resourceType": "Bundle",
  "id": "63598dd9c35f1c19df09adbd",
  "type": "transaction",
  "entry": [ {
    "fullUrl": "https://madie.cms.gov/Patient/2fb0f85b-1d63-4dc2-ace9-5d3b17c920c3",
    "resource": {
      "resourceType": "Patient",
      "id": "2fb0f85b-1d63-4dc2-ace9-5d3b17c920c3",
      "meta": {
        "profile": [ "http://hl7.org/fhir/us/qicore/StructureDefinition/qicore-patient" ]
      },
      "text": {
        "status": "generated",
        "div": "<div xmlns=\"http://www.w3.org/1999/xhtml\"><div class=\"hapiHeaderText\">RISKHR24hours1MinB4EDOTTriageEnc<b>RISKFail</b></div><table class=\"hapiPropertyTable\"><tbody><tr><td>Date of birth</td><td><span>01 February 2004</span></td></tr></tbody></table></div>"
      },
      "extension": [ {
        "url": "http://hl7.org/fhir/us/core/StructureDefinition/us-core-race",
        "extension": [ {
          "url": "ombCategory",
          "valueCoding": {
            "system": "urn:oid:2.16.840.1.113883.6.238",
            "code": "1002-5",
            "display": "American Indian or Alaska Native",
            "userSelected": true
          }
        }, {
          "url": "text",
          "valueString": "American Indian or Alaska Native"
        } ]
      }, {
        "url": "http://hl7.org/fhir/us/core/StructureDefinition/us-core-ethnicity",
        "extension": [ {
          "url": "ombCategory",
          "valueCoding": {
            "system": "urn:oid:2.16.840.1.113883.6.238",
            "code": "2135-2",
            "display": "Hispanic or Latino",
            "userSelected": true
          }
        }, {
          "url": "text",
          "valueString": "Hispanic or Latino"
        } ]
      } ],
      "identifier": [ {
        "type": {
          "coding": [ {
            "system": "http://terminology.hl7.org/CodeSystem/v2-0203",
            "code": "MR"
          } ]
        },
        "system": "https://bonnie-fhir.healthit.gov/",
        "value": "63598dd9c35f1c19df09adbd"
      } ],
      "active": true,
      "name": [ {
        "use": "usual",
        "family": "RiskFail",
        "given": [ "RISKHR24hours1MinB4EDOTTriageEnc" ]
      } ],
      "gender": "female",
      "birthDate": "2005-02-01"
    },
    "request": {
      "method": "PUT",
      "url": "Patient/2fb0f85b-1d63-4dc2-ace9-5d3b17c920c3"
    }
  }, {
    "fullUrl": "https://madie.cms.gov/Observation/ac51765b-26c7-4c59-a762-959046b81659",
    "resource": {
      "resourceType": "Observation",
      "id": "ac51765b-26c7-4c59-a762-959046b81659",
      "meta": {
        "profile": [ "http://hl7.org/fhir/us/qicore/StructureDefinition/qicore-simple-observation" ]
      },
      "status": "final",
      "category": [ {
        "coding": [ {
          "system": "http://terminology.hl7.org/CodeSystem/observation-category",
          "code": "exam",
          "display": "exam",
          "userSelected": true
        } ]
      } ],
      "code": {
        "coding": [ {
          "system": "http://loinc.org",
          "code": "93857-1"
        } ]
      },
      "subject": {
        "reference": "Patient/2fb0f85b-1d63-4dc2-ace9-5d3b17c920c3"
      },
      "effectiveDateTime": "2026-02-01T08:00:00.000+00:00",
      "performer": [ {
        "reference": "Organization/example1",
        "display": "Hendricks Country Hospital"
      } ],
      "valueDateTime": "2026-02-01T08:00:00.000+00:00"
    },
    "request": {
      "method": "PUT",
      "url": "Observation/ac51765b-26c7-4c59-a762-959046b81659"
    }
  }, {
    "fullUrl": "https://madie.cms.gov/Observation/548375b6-227a-4856-87d3-8d77c6cbaacb",
    "resource": {
      "resourceType": "Observation",
      "id": "548375b6-227a-4856-87d3-8d77c6cbaacb",
      "meta": {
        "profile": [ "http://hl7.org/fhir/us/qicore/StructureDefinition/qicore-simple-observation" ]
      },
      "status": "final",
      "category": [ {
        "coding": [ {
          "system": "http://terminology.hl7.org/CodeSystem/observation-category",
          "code": "exam",
          "display": "exam",
          "userSelected": true
        } ]
      } ],
      "code": {
        "coding": [ {
          "system": "http://loinc.org",
          "code": "11884-4"
        } ]
      },
      "subject": {
        "reference": "Patient/2fb0f85b-1d63-4dc2-ace9-5d3b17c920c3"
      },
      "effectiveDateTime": "2026-02-01T08:00:00.000+00:00",
      "performer": [ {
        "reference": "Organization/example1",
        "display": "Hendricks Country Hospital"
      } ],
      "valueQuantity": {
        "value": 21,
        "system": "http://unitsofmeasure.org",
        "code": "wk"
      }
    },
    "request": {
      "method": "PUT",
      "url": "Observation/548375b6-227a-4856-87d3-8d77c6cbaacb"
    }
  }, {
    "fullUrl": "https://madie.cms.gov/Condition/4d342d42-dab3-446e-8d71-6d45c71694f3",
    "resource": {
      "resourceType": "Condition",
      "id": "4d342d42-dab3-446e-8d71-6d45c71694f3",
      "meta": {
        "profile": [ "http://hl7.org/fhir/us/qicore/StructureDefinition/qicore-condition-encounter-diagnosis" ]
      },
      "category": [ {
        "coding": [ {
          "system": "http://terminology.hl7.org/CodeSystem/condition-category",
          "code": "encounter-diagnosis",
          "display": "Encounter Diagnosis"
        } ]
      } ],
      "code": {
        "coding": [ {
          "system": "http://hl7.org/fhir/sid/icd-10-cm",
          "code": "Z3A.21",
          "display": "21 weeks gestation",
          "userSelected": true
        } ]
      },
      "subject": {
        "reference": "Patient/2fb0f85b-1d63-4dc2-ace9-5d3b17c920c3"
      },
      "recordedDate": "2026-10-26T08:00:00.000+00:00"
    },
    "request": {
      "method": "PUT",
      "url": "Condition/4d342d42-dab3-446e-8d71-6d45c71694f3"
    }
  }, {
    "fullUrl": "https://madie.cms.gov/Encounter/8eabcc1f-4063-42f7-9d93-139ffeaf6d8a",
    "resource": {
      "resourceType": "Encounter",
      "id": "8eabcc1f-4063-42f7-9d93-139ffeaf6d8a",
      "meta": {
        "profile": [ "http://hl7.org/fhir/us/qicore/StructureDefinition/qicore-encounter" ]
      },
      "status": "finished",
      "class": {
        "system": "http://terminology.hl7.org/CodeSystem/v3-ActCode",
        "code": "IMP",
        "display": "inpatient encounter"
      },
      "type": [ {
        "coding": [ {
          "system": "http://snomed.info/sct",
          "code": "183452005"
        } ]
      } ],
      "subject": {
        "reference": "Patient/2fb0f85b-1d63-4dc2-ace9-5d3b17c920c3"
      },
      "period": {
        "start": "2026-02-01T08:00:00.000+00:00",
        "end": "2026-02-05T08:15:00.000+00:00"
      },
      "reasonReference": [ {
        "reference": "Condition/4d342d42-dab3-446e-8d71-6d45c71694f3"
      } ]
    },
    "request": {
      "method": "PUT",
      "url": "Encounter/8eabcc1f-4063-42f7-9d93-139ffeaf6d8a"
    }
  }, {
    "fullUrl": "https://madie.cms.gov/Encounter/16078bcd-ed40-43c5-beab-77169e556b14",
    "resource": {
      "resourceType": "Encounter",
      "id": "16078bcd-ed40-43c5-beab-77169e556b14",
      "meta": {
        "profile": [ "http://hl7.org/fhir/us/qicore/StructureDefinition/qicore-encounter" ]
      },
      "status": "finished",
      "class": {
        "system": "http://terminology.hl7.org/CodeSystem/v3-ActCode",
        "code": "EMER",
        "display": "emergency"
      },
      "type": [ {
        "coding": [ {
          "system": "http://snomed.info/sct",
          "code": "4525004"
        } ]
      } ],
      "subject": {
        "reference": "Patient/2fb0f85b-1d63-4dc2-ace9-5d3b17c920c3"
      },
      "period": {
        "start": "2026-02-01T07:00:00.000+00:00",
        "end": "2026-02-01T07:59:00.000+00:00"
      }
    },
    "request": {
      "method": "PUT",
      "url": "Encounter/16078bcd-ed40-43c5-beab-77169e556b14"
    }
  }, {
    "fullUrl": "https://madie.cms.gov/Procedure/435e2415-5db5-4494-ab78-9a3b29c90f56",
    "resource": {
      "resourceType": "Procedure",
      "id": "435e2415-5db5-4494-ab78-9a3b29c90f56",
      "meta": {
        "profile": [ "http://hl7.org/fhir/us/qicore/StructureDefinition/qicore-procedure" ]
      },
      "extension": [ {
        "url": "http://hl7.org/fhir/us/qicore/StructureDefinition/qicore-recorded",
        "valueDateTime": "2026-02-04T13:35:00.000+00:00"
      } ],
      "status": "completed",
      "code": {
        "coding": [ {
          "system": "http://snomed.info/sct",
          "code": "10745001"
        } ]
      },
      "subject": {
        "reference": "Patient/2fb0f85b-1d63-4dc2-ace9-5d3b17c920c3"
      },
      "performedPeriod": {
        "start": "2026-02-01T08:00:00.000+00:00",
        "end": "2026-02-05T08:15:00.000+00:00"
      }
    },
    "request": {
      "method": "PUT",
      "url": "Procedure/435e2415-5db5-4494-ab78-9a3b29c90f56"
    }
  }, {
    "fullUrl": "https://madie.cms.gov/Observation/26b9ecad-63e6-4c52-a04e-11a5da5e8a2d",
    "resource": {
      "resourceType": "Observation",
      "id": "26b9ecad-63e6-4c52-a04e-11a5da5e8a2d",
      "meta": {
        "profile": [ "https://hl7.org/fhir/us/core/STU6.1/StructureDefinition-us-core-heart-rate.html" ]
      },
      "status": "final",
      "category": [ {
        "coding": [ {
          "system": "http://terminology.hl7.org/CodeSystem/observation-category",
          "code": "vital-signs",
          "display": "vital-signs",
          "userSelected": true
        } ]
      } ],
      "code": {
        "coding": [ {
          "system": "http://loinc.org",
          "version": "2.73",
          "code": "8867-4",
          "display": "Heart Rate"
        } ]
      },
      "subject": {
        "reference": "Patient/2fb0f85b-1d63-4dc2-ace9-5d3b17c920c3"
      },
      "effectiveDateTime": "2026-01-31T06:59:00.000+00:00",
      "valueQuantity": {
        "value": 85,
        "unit": "/min",
        "system": "http://unitsofmeasure.org",
        "code": "/min"
      }
    },
    "request": {
      "method": "PUT",
      "url": "Observation/26b9ecad-63e6-4c52-a04e-11a5da5e8a2d"
    }
  }, {
    "fullUrl": "https://madie.cms.gov/MeasureReport/df97efc5-fbff-4201-9e5b-a15cd8da5374",
    "resource": {
      "resourceType": "MeasureReport",
      "id": "df97efc5-fbff-4201-9e5b-a15cd8da5374",
      "meta": {
        "profile": [ "http://hl7.org/fhir/us/cqfmeasures/StructureDefinition/test-case-cqfm" ]
      },
      "contained": [ {
        "resourceType": "Parameters",
        "id": "d1506bbb-818f-4c91-aed0-9e549f8c62c8-parameters",
        "parameter": [ {
          "name": "subject",
          "valueString": "2fb0f85b-1d63-4dc2-ace9-5d3b17c920c3"
        } ]
      } ],
      "extension": [ {
        "url": "http://hl7.org/fhir/StructureDefinition/cqf-inputParameters",
        "valueReference": {
          "reference": "#d1506bbb-818f-4c91-aed0-9e549f8c62c8-parameters"
        }
      }, {
        "url": "http://hl7.org/fhir/us/cqfmeasures/StructureDefinition/cqfm-testCaseDescription",
        "valueMarkdown": "Patient with heart rate that starts 24 hours and 1 minute before ED OB Triage encounter.  \n"
      } ],
      "modifierExtension": [ {
        "url": "http://hl7.org/fhir/us/cqfmeasures/StructureDefinition/cqfm-isTestCase",
        "valueBoolean": true
      } ],
      "status": "complete",
      "type": "individual",
      "measure": "https://madie.cms.gov/Measure/CMS1028FHIRPCSevereOBComps",
      "period": {
        "start": "2026-01-01",
        "end": "2026-12-31"
      },
      "group": [ {
        "id": "Group_1",
        "population": [ {
          "id": "InitialPopulation_1",
          "code": {
            "coding": [ {
              "system": "http://terminology.hl7.org/CodeSystem/measure-population",
              "code": "initial-population",
              "display": "Initial Population"
            } ]
          },
          "count": 1
        }, {
          "id": "Denominator_1",
          "code": {
            "coding": [ {
              "system": "http://terminology.hl7.org/CodeSystem/measure-population",
              "code": "denominator",
              "display": "Denominator"
            } ]
          },
          "count": 1
        }, {
          "id": "Numerator_1",
          "code": {
            "coding": [ {
              "system": "http://terminology.hl7.org/CodeSystem/measure-population",
              "code": "numerator",
              "display": "Numerator"
            } ]
          },
          "count": 0
        }, {
          "id": "NumeratorExclusion_1",
          "code": {
            "coding": [ {
              "system": "http://terminology.hl7.org/CodeSystem/measure-population",
              "code": "numerator-exclusion",
              "display": "Numerator Exclusion"
            } ]
          },
          "count": 0
        } ],
        "measureScore": {
          "value": 0.0
        }
      }, {
        "id": "Group_2",
        "population": [ {
          "id": "InitialPopulation_2",
          "code": {
            "coding": [ {
              "system": "http://terminology.hl7.org/CodeSystem/measure-population",
              "code": "initial-population",
              "display": "Initial Population"
            } ]
          },
          "count": 1
        }, {
          "id": "Denominator_2",
          "code": {
            "coding": [ {
              "system": "http://terminology.hl7.org/CodeSystem/measure-population",
              "code": "denominator",
              "display": "Denominator"
            } ]
          },
          "count": 1
        }, {
          "id": "Numerator_2",
          "code": {
            "coding": [ {
              "system": "http://terminology.hl7.org/CodeSystem/measure-population",
              "code": "numerator",
              "display": "Numerator"
            } ]
          },
          "count": 0
        }, {
          "id": "NumeratorExclusion_2",
          "code": {
            "coding": [ {
              "system": "http://terminology.hl7.org/CodeSystem/measure-population",
              "code": "numerator-exclusion",
              "display": "Numerator Exclusion"
            } ]
          },
          "count": 0
        } ],
        "measureScore": {
          "value": 0.0
        }
      } ],
      "evaluatedResource": [ {
        "reference": "Patient/2fb0f85b-1d63-4dc2-ace9-5d3b17c920c3"
      }, {
        "reference": "Observation/ac51765b-26c7-4c59-a762-959046b81659"
      }, {
        "reference": "Observation/548375b6-227a-4856-87d3-8d77c6cbaacb"
      }, {
        "reference": "Condition/4d342d42-dab3-446e-8d71-6d45c71694f3"
      }, {
        "reference": "Encounter/8eabcc1f-4063-42f7-9d93-139ffeaf6d8a"
      }, {
        "reference": "Encounter/16078bcd-ed40-43c5-beab-77169e556b14"
      }, {
        "reference": "Procedure/435e2415-5db5-4494-ab78-9a3b29c90f56"
      }, {
        "reference": "Observation/26b9ecad-63e6-4c52-a04e-11a5da5e8a2d"
      } ]
    },
    "request": {
      "method": "PUT",
      "url": "MeasureReport/df97efc5-fbff-4201-9e5b-a15cd8da5374"
    }
  } ]
}