{
  "resourceType": "Bundle",
  "id": "tests-IPPFail-OutpatientEncounter-bundle",
  "type": "transaction",
  "entry": [ {
    "fullUrl": "https://madie.cms.gov/Encounter/b2d6af9a-bbf7-4ca8-ab3d-1a67cff91a5c",
    "resource": {
      "resourceType": "Encounter",
      "id": "b2d6af9a-bbf7-4ca8-ab3d-1a67cff91a5c",
      "meta": {
        "profile": [ "http://hl7.org/fhir/us/qicore/StructureDefinition/qicore-encounter" ]
      },
      "status": "finished",
      "class": {
        "system": "http://terminology.hl7.org/CodeSystem/v3-ActCode",
        "code": "IMP",
        "display": "Inpatient encounter"
      },
      "type": [ {
        "coding": [ {
          "system": "http://www.ama-assn.org/go/cpt",
          "code": "99212",
          "display": "Office or other outpatient visit for the evaluation and management of an established patient, which requires a medically appropriate history and/or examination and straightforward medical decision making. When using time for code selection, 10-19 minutes of total time is spent on the date of the encounter."
        } ]
      } ],
      "subject": {
        "reference": "Patient/2db388f4-f539-47a4-9736-69b0c6649e01"
      },
      "period": {
        "start": "2026-07-11T08:00:00.000Z",
        "end": "2026-07-11T09:00:00.000Z"
      }
    },
    "request": {
      "method": "PUT",
      "url": "Encounter/b2d6af9a-bbf7-4ca8-ab3d-1a67cff91a5c"
    }
  }, {
    "fullUrl": "https://madie.cms.gov/MedicationAdministration/7dbec1d1-3d50-43f4-8554-79c2b5d2e4d7",
    "resource": {
      "resourceType": "MedicationAdministration",
      "id": "7dbec1d1-3d50-43f4-8554-79c2b5d2e4d7",
      "meta": {
        "profile": [ "http://hl7.org/fhir/us/qicore/StructureDefinition/qicore-medicationadministration" ]
      },
      "status": "completed",
      "medicationCodeableConcept": {
        "coding": [ {
          "system": "http://www.nlm.nih.gov/research/umls/rxnorm",
          "code": "1860167",
          "display": "3 ML insulin degludec 100 UNT/ML / liraglutide 3.6 MG/ML Pen Injector"
        } ]
      },
      "subject": {
        "reference": "Patient/2db388f4-f539-47a4-9736-69b0c6649e01"
      },
      "effectivePeriod": {
        "start": "2026-07-11T08:00:00.000Z",
        "end": "2026-07-11T09:00:00.000Z"
      }
    },
    "request": {
      "method": "PUT",
      "url": "MedicationAdministration/7dbec1d1-3d50-43f4-8554-79c2b5d2e4d7"
    }
  }, {
    "fullUrl": "https://madie.cms.gov/Patient/2db388f4-f539-47a4-9736-69b0c6649e01",
    "resource": {
      "resourceType": "Patient",
      "id": "2db388f4-f539-47a4-9736-69b0c6649e01",
      "meta": {
        "profile": [ "http://hl7.org/fhir/us/qicore/StructureDefinition/qicore-patient" ]
      },
      "extension": [ {
        "url": "http://hl7.org/fhir/us/core/StructureDefinition/us-core-race",
        "extension": [ {
          "url": "ombCategory",
          "valueCoding": {
            "system": "urn:oid:2.16.840.1.113883.6.238",
            "code": "2106-3",
            "display": "White"
          }
        }, {
          "url": "text",
          "valueString": "White"
        } ]
      }, {
        "url": "http://hl7.org/fhir/us/core/StructureDefinition/us-core-ethnicity",
        "extension": [ {
          "url": "ombCategory",
          "valueCoding": {
            "system": "urn:oid:2.16.840.1.113883.6.238",
            "code": "2135-2",
            "display": "Hispanic or Latino"
          }
        }, {
          "url": "text",
          "valueString": "Hispanic or Latino"
        } ]
      }, {
        "url": "http://hl7.org/fhir/us/core/StructureDefinition/us-core-sex",
        "valueCode": "248153007"
      } ],
      "identifier": [ {
        "system": "http://hospital.smarthealthit.org",
        "value": "999999999"
      } ],
      "name": [ {
        "family": "CMSIPPFail",
        "given": [ "OutpatientEncounter" ]
      } ],
      "gender": "female",
      "birthDate": "2000-07-11"
    },
    "request": {
      "method": "PUT",
      "url": "Patient/2db388f4-f539-47a4-9736-69b0c6649e01"
    }
  }, {
    "fullUrl": "https://madie.cms.gov/MeasureReport/13e17cda-25e3-408d-b005-858924be73d2",
    "resource": {
      "resourceType": "MeasureReport",
      "id": "13e17cda-25e3-408d-b005-858924be73d2",
      "meta": {
        "profile": [ "http://hl7.org/fhir/us/cqfmeasures/StructureDefinition/test-case-cqfm" ]
      },
      "contained": [ {
        "resourceType": "Parameters",
        "id": "39f47764-d3dc-409b-ad4f-e27743805394-parameters",
        "parameter": [ {
          "name": "subject",
          "valueString": "2db388f4-f539-47a4-9736-69b0c6649e01"
        } ]
      } ],
      "extension": [ {
        "url": "http://hl7.org/fhir/StructureDefinition/cqf-inputParameters",
        "valueReference": {
          "reference": "#39f47764-d3dc-409b-ad4f-e27743805394-parameters"
        }
      }, {
        "url": "http://hl7.org/fhir/us/cqfmeasures/StructureDefinition/cqfm-testCaseDescription",
        "valueMarkdown": "Patient had hypoglycemic medication administered, but was during a non-qualifying encounter (outpatient visit code). No inpatient encounter so does not meet IPP/Denom. \n\n(CMS #15)"
      } ],
      "modifierExtension": [ {
        "url": "http://hl7.org/fhir/us/cqfmeasures/StructureDefinition/cqfm-isTestCase",
        "valueBoolean": true
      } ],
      "status": "complete",
      "type": "individual",
      "measure": "https://madie.cms.gov/Measure/NHSNGlycemicControlHypoglycemiaInitialPopulation",
      "period": {
        "start": "2026-01-01",
        "end": "2026-12-31"
      },
      "group": [ {
        "id": "Group_1",
        "population": [ {
          "id": "InitialPopulation_1",
          "code": {
            "coding": [ {
              "system": "http://terminology.hl7.org/CodeSystem/measure-population",
              "code": "initial-population",
              "display": "Initial Population"
            } ]
          },
          "count": 0
        } ],
        "measureScore": {
          "value": 0.0
        }
      } ],
      "evaluatedResource": [ {
        "reference": "Encounter/b2d6af9a-bbf7-4ca8-ab3d-1a67cff91a5c"
      }, {
        "reference": "MedicationAdministration/7dbec1d1-3d50-43f4-8554-79c2b5d2e4d7"
      }, {
        "reference": "Patient/2db388f4-f539-47a4-9736-69b0c6649e01"
      } ]
    },
    "request": {
      "method": "PUT",
      "url": "MeasureReport/13e17cda-25e3-408d-b005-858924be73d2"
    }
  } ]
}