{
  "resourceType": "Bundle",
  "id": "633b3f9f0968f80122503cdb",
  "type": "transaction",
  "entry": [ {
    "fullUrl": "https://madie.cms.gov/Patient/88bf07ab-7d0d-4610-a2f1-15b1774d33fa",
    "resource": {
      "resourceType": "Patient",
      "id": "88bf07ab-7d0d-4610-a2f1-15b1774d33fa",
      "meta": {
        "profile": [ "http://hl7.org/fhir/us/qicore/StructureDefinition/qicore-patient" ]
      },
      "text": {
        "status": "generated",
        "div": "<div xmlns=\"http://www.w3.org/1999/xhtml\"><div class=\"hapiHeaderText\">HystWithAccreta <b>NUMEXFail</b></div><table class=\"hapiPropertyTable\"><tbody><tr><td>Date of birth</td><td><span>01 February 2004</span></td></tr></tbody></table></div>"
      },
      "extension": [ {
        "url": "http://hl7.org/fhir/us/core/StructureDefinition/us-core-race",
        "extension": [ {
          "url": "ombCategory",
          "valueCoding": {
            "system": "urn:oid:2.16.840.1.113883.6.238",
            "code": "1002-5",
            "display": "American Indian or Alaska Native",
            "userSelected": true
          }
        }, {
          "url": "text",
          "valueString": "American Indian or Alaska Native"
        } ]
      }, {
        "url": "http://hl7.org/fhir/us/core/StructureDefinition/us-core-ethnicity",
        "extension": [ {
          "url": "ombCategory",
          "valueCoding": {
            "system": "urn:oid:2.16.840.1.113883.6.238",
            "code": "2135-2",
            "display": "Hispanic or Latino",
            "userSelected": true
          }
        }, {
          "url": "text",
          "valueString": "Hispanic or Latino"
        } ]
      } ],
      "identifier": [ {
        "type": {
          "coding": [ {
            "system": "http://terminology.hl7.org/CodeSystem/v2-0203",
            "code": "MR"
          } ]
        },
        "system": "https://bonnie-fhir.healthit.gov/",
        "value": "633b3f9f0968f80122503cdb"
      } ],
      "active": true,
      "name": [ {
        "use": "usual",
        "family": "NUMEXFail",
        "given": [ "HystWithAccreta" ]
      } ],
      "gender": "female",
      "birthDate": "2005-02-01"
    },
    "request": {
      "method": "PUT",
      "url": "Patient/88bf07ab-7d0d-4610-a2f1-15b1774d33fa"
    }
  }, {
    "fullUrl": "https://madie.cms.gov/Observation/7578a2e5-064d-4dbf-aaba-244feaa6c714",
    "resource": {
      "resourceType": "Observation",
      "id": "7578a2e5-064d-4dbf-aaba-244feaa6c714",
      "meta": {
        "profile": [ "http://hl7.org/fhir/us/qicore/StructureDefinition/qicore-simple-observation" ]
      },
      "status": "final",
      "category": [ {
        "coding": [ {
          "system": "http://terminology.hl7.org/CodeSystem/observation-category",
          "code": "exam",
          "display": "exam",
          "userSelected": true
        } ]
      } ],
      "code": {
        "coding": [ {
          "system": "http://loinc.org",
          "code": "93857-1"
        } ]
      },
      "subject": {
        "reference": "Patient/88bf07ab-7d0d-4610-a2f1-15b1774d33fa"
      },
      "effectiveDateTime": "2026-02-01T08:00:00.000+00:00",
      "performer": [ {
        "reference": "Organization/example1",
        "display": "Hendricks Country Hospital"
      } ],
      "valueDateTime": "2026-02-01T08:00:00.000+00:00"
    },
    "request": {
      "method": "PUT",
      "url": "Observation/7578a2e5-064d-4dbf-aaba-244feaa6c714"
    }
  }, {
    "fullUrl": "https://madie.cms.gov/Observation/3e99f224-9ec7-4d60-b97f-00fcecb5d5fa",
    "resource": {
      "resourceType": "Observation",
      "id": "3e99f224-9ec7-4d60-b97f-00fcecb5d5fa",
      "meta": {
        "profile": [ "http://hl7.org/fhir/us/qicore/StructureDefinition/qicore-simple-observation" ]
      },
      "status": "final",
      "category": [ {
        "coding": [ {
          "system": "http://terminology.hl7.org/CodeSystem/observation-category",
          "code": "exam",
          "display": "exam",
          "userSelected": true
        } ]
      } ],
      "code": {
        "coding": [ {
          "system": "http://loinc.org",
          "code": "11884-4"
        } ]
      },
      "subject": {
        "reference": "Patient/88bf07ab-7d0d-4610-a2f1-15b1774d33fa"
      },
      "effectiveDateTime": "2026-02-01T08:00:00.000+00:00",
      "performer": [ {
        "reference": "Organization/example1",
        "display": "Hendricks Country Hospital"
      } ],
      "valueQuantity": {
        "value": 20,
        "system": "http://unitsofmeasure.org",
        "code": "wk"
      }
    },
    "request": {
      "method": "PUT",
      "url": "Observation/3e99f224-9ec7-4d60-b97f-00fcecb5d5fa"
    }
  }, {
    "fullUrl": "https://madie.cms.gov/Condition/9392bf00-b76f-4b9e-aa45-a9524bb9e052",
    "resource": {
      "resourceType": "Condition",
      "id": "9392bf00-b76f-4b9e-aa45-a9524bb9e052",
      "meta": {
        "profile": [ "http://hl7.org/fhir/us/qicore/StructureDefinition/qicore-condition-encounter-diagnosis" ]
      },
      "category": [ {
        "coding": [ {
          "system": "http://terminology.hl7.org/CodeSystem/condition-category",
          "code": "encounter-diagnosis",
          "display": "Encounter Diagnosis"
        } ]
      } ],
      "code": {
        "coding": [ {
          "system": "http://hl7.org/fhir/sid/icd-10-cm",
          "version": "2023",
          "code": "Z3A.20",
          "display": "20 weeks gestation",
          "userSelected": true
        } ]
      },
      "subject": {
        "reference": "Patient/88bf07ab-7d0d-4610-a2f1-15b1774d33fa"
      },
      "recordedDate": "2026-10-26T08:00:00.000+00:00"
    },
    "request": {
      "method": "PUT",
      "url": "Condition/9392bf00-b76f-4b9e-aa45-a9524bb9e052"
    }
  }, {
    "fullUrl": "https://madie.cms.gov/Observation/bae43afb-abc1-4d3f-937e-43779d38d73b",
    "resource": {
      "resourceType": "Observation",
      "id": "bae43afb-abc1-4d3f-937e-43779d38d73b",
      "meta": {
        "profile": [ "http://hl7.org/fhir/us/qicore/StructureDefinition/qicore-simple-observation" ]
      },
      "status": "final",
      "category": [ {
        "coding": [ {
          "system": "http://terminology.hl7.org/CodeSystem/observation-category",
          "code": "exam",
          "display": "exam",
          "userSelected": true
        } ]
      } ],
      "code": {
        "coding": [ {
          "system": "https://www.cms.gov/medicare/coding-billing/icd-10-codes",
          "code": "O43.219"
        } ]
      },
      "subject": {
        "reference": "Patient/88bf07ab-7d0d-4610-a2f1-15b1774d33fa"
      },
      "effectiveDateTime": "2026-02-01T08:00:00.000+00:00",
      "performer": [ {
        "reference": "Organization/example1",
        "display": "Hendricks Country Hospital"
      } ]
    },
    "request": {
      "method": "PUT",
      "url": "Observation/bae43afb-abc1-4d3f-937e-43779d38d73b"
    }
  }, {
    "fullUrl": "https://madie.cms.gov/Encounter/f2fc8692-2dba-4d1d-b0f7-9dbae4876c4f",
    "resource": {
      "resourceType": "Encounter",
      "id": "f2fc8692-2dba-4d1d-b0f7-9dbae4876c4f",
      "meta": {
        "profile": [ "http://hl7.org/fhir/us/qicore/StructureDefinition/qicore-encounter" ]
      },
      "status": "finished",
      "class": {
        "system": "http://terminology.hl7.org/CodeSystem/v3-ActCode",
        "code": "IMP",
        "display": "inpatient encounter"
      },
      "type": [ {
        "coding": [ {
          "system": "http://snomed.info/sct",
          "code": "183452005"
        } ]
      } ],
      "subject": {
        "reference": "Patient/88bf07ab-7d0d-4610-a2f1-15b1774d33fa"
      },
      "period": {
        "start": "2026-02-01T08:00:00.000+00:00",
        "end": "2026-02-05T08:15:00.000+00:00"
      },
      "reasonReference": [ {
        "reference": "Condition/9392bf00-b76f-4b9e-aa45-a9524bb9e052"
      } ]
    },
    "request": {
      "method": "PUT",
      "url": "Encounter/f2fc8692-2dba-4d1d-b0f7-9dbae4876c4f"
    }
  }, {
    "fullUrl": "https://madie.cms.gov/Coverage/bfeb7042-428d-4bd6-bb0c-c73648962f1b",
    "resource": {
      "resourceType": "Coverage",
      "id": "bfeb7042-428d-4bd6-bb0c-c73648962f1b",
      "status": "active",
      "subscriberId": "523435",
      "beneficiary": {
        "reference": "Patient/88bf07ab-7d0d-4610-a2f1-15b1774d33fa"
      },
      "relationship": {
        "coding": [ {
          "system": "http://terminology.hl7.org/CodeSystem/subscriber-relationship",
          "code": "self"
        } ]
      },
      "period": {
        "start": "2005-02-01T08:00:00.000+00:00"
      },
      "payor": [ {
        "reference": "Organization/729b7c6e-0d47-48b9-a16c-437bb9df4ad8"
      } ]
    },
    "request": {
      "method": "PUT",
      "url": "Coverage/bfeb7042-428d-4bd6-bb0c-c73648962f1b"
    }
  }, {
    "fullUrl": "https://madie.cms.gov/Procedure/b5a190e3-6e69-4eb7-97e5-eb0c7f2bf707",
    "resource": {
      "resourceType": "Procedure",
      "id": "b5a190e3-6e69-4eb7-97e5-eb0c7f2bf707",
      "meta": {
        "profile": [ "http://hl7.org/fhir/us/qicore/StructureDefinition/qicore-procedure" ]
      },
      "extension": [ {
        "url": "http://hl7.org/fhir/us/qicore/StructureDefinition/qicore-recorded",
        "valueDateTime": "2014-04-05T13:35:00.000+00:00"
      } ],
      "status": "completed",
      "code": {
        "coding": [ {
          "system": "http://snomed.info/sct",
          "code": "10745001"
        } ]
      },
      "subject": {
        "reference": "Patient/88bf07ab-7d0d-4610-a2f1-15b1774d33fa"
      },
      "performedPeriod": {
        "start": "2026-02-01T08:00:00.000+00:00",
        "end": "2026-02-05T08:15:00.000+00:00"
      }
    },
    "request": {
      "method": "PUT",
      "url": "Procedure/b5a190e3-6e69-4eb7-97e5-eb0c7f2bf707"
    }
  }, {
    "fullUrl": "https://madie.cms.gov/Procedure/326630db-f347-429b-b03e-9663bb174bad",
    "resource": {
      "resourceType": "Procedure",
      "id": "326630db-f347-429b-b03e-9663bb174bad",
      "meta": {
        "profile": [ "http://hl7.org/fhir/us/qicore/StructureDefinition/qicore-procedure" ]
      },
      "extension": [ {
        "url": "http://hl7.org/fhir/us/qicore/StructureDefinition/qicore-recorded",
        "valueDateTime": "2026-02-01T04:01:00.000+00:00"
      } ],
      "status": "completed",
      "code": {
        "coding": [ {
          "system": "http://snomed.info/sct",
          "code": "11050006"
        } ]
      },
      "subject": {
        "reference": "Patient/88bf07ab-7d0d-4610-a2f1-15b1774d33fa"
      },
      "performedPeriod": {
        "start": "2026-02-04T00:00:00.000+00:00",
        "end": "2026-02-04T11:59:00.000+00:00"
      }
    },
    "request": {
      "method": "PUT",
      "url": "Procedure/326630db-f347-429b-b03e-9663bb174bad"
    }
  }, {
    "fullUrl": "https://madie.cms.gov/Organization/729b7c6e-0d47-48b9-a16c-437bb9df4ad8",
    "resource": {
      "resourceType": "Organization",
      "id": "729b7c6e-0d47-48b9-a16c-437bb9df4ad8",
      "meta": {
        "profile": [ "http://hl7.org/fhir/us/qicore/StructureDefinition/qicore-organization" ]
      },
      "identifier": [ {
        "use": "temp",
        "system": "urn:oid:2.16.840.1.113883.4.4",
        "value": "21-3259825"
      } ],
      "active": true,
      "type": [ {
        "coding": [ {
          "system": "http://terminology.hl7.org/CodeSystem/organization-type",
          "code": "pay",
          "display": "Payer"
        } ]
      } ],
      "name": "Blue Cross Blue Shield of Texas",
      "telecom": [ {
        "system": "phone",
        "value": "(+1) 972-766-6900"
      } ],
      "address": [ {
        "use": "billing",
        "type": "postal",
        "line": [ "P.O. Box 660044" ],
        "city": "Dallas",
        "state": "TX",
        "postalCode": "75266-0044",
        "country": "USA"
      } ]
    },
    "request": {
      "method": "PUT",
      "url": "Organization/729b7c6e-0d47-48b9-a16c-437bb9df4ad8"
    }
  }, {
    "fullUrl": "https://madie.cms.gov/Practitioner/4f7975b2-208e-4925-8e78-5a1be17fd4a9",
    "resource": {
      "resourceType": "Practitioner",
      "id": "4f7975b2-208e-4925-8e78-5a1be17fd4a9",
      "meta": {
        "profile": [ "http://hl7.org/fhir/us/qicore/StructureDefinition/qicore-practitioner" ]
      },
      "identifier": [ {
        "system": "http://hl7.org/fhir/sid/us-npi",
        "value": "9999999896"
      } ],
      "name": [ {
        "family": "Evil",
        "prefix": [ "Dr" ]
      } ]
    },
    "request": {
      "method": "PUT",
      "url": "Practitioner/4f7975b2-208e-4925-8e78-5a1be17fd4a9"
    }
  }, {
    "fullUrl": "https://madie.cms.gov/MeasureReport/e1bebd8a-ea9e-4ea4-bf12-f8f6e4ee5606",
    "resource": {
      "resourceType": "MeasureReport",
      "id": "e1bebd8a-ea9e-4ea4-bf12-f8f6e4ee5606",
      "meta": {
        "profile": [ "http://hl7.org/fhir/us/cqfmeasures/StructureDefinition/test-case-cqfm" ]
      },
      "contained": [ {
        "resourceType": "Parameters",
        "id": "1e7aadc8-725d-4772-8174-bb2784570290-parameters",
        "parameter": [ {
          "name": "subject",
          "valueString": "88bf07ab-7d0d-4610-a2f1-15b1774d33fa"
        } ]
      } ],
      "extension": [ {
        "url": "http://hl7.org/fhir/StructureDefinition/cqf-inputParameters",
        "valueReference": {
          "reference": "#1e7aadc8-725d-4772-8174-bb2784570290-parameters"
        }
      }, {
        "url": "http://hl7.org/fhir/us/cqfmeasures/StructureDefinition/cqfm-testCaseDescription",
        "valueMarkdown": "Hysterectomy SOC with Placenta Accreta"
      } ],
      "modifierExtension": [ {
        "url": "http://hl7.org/fhir/us/cqfmeasures/StructureDefinition/cqfm-isTestCase",
        "valueBoolean": true
      } ],
      "status": "complete",
      "type": "individual",
      "measure": "https://madie.cms.gov/Measure/CMS1028FHIRPCSevereOBComps",
      "period": {
        "start": "2026-01-01",
        "end": "2026-12-31"
      },
      "group": [ {
        "id": "Group_1",
        "population": [ {
          "id": "InitialPopulation_1",
          "code": {
            "coding": [ {
              "system": "http://terminology.hl7.org/CodeSystem/measure-population",
              "code": "initial-population",
              "display": "Initial Population"
            } ]
          },
          "count": 1
        }, {
          "id": "Denominator_1",
          "code": {
            "coding": [ {
              "system": "http://terminology.hl7.org/CodeSystem/measure-population",
              "code": "denominator",
              "display": "Denominator"
            } ]
          },
          "count": 1
        }, {
          "id": "Numerator_1",
          "code": {
            "coding": [ {
              "system": "http://terminology.hl7.org/CodeSystem/measure-population",
              "code": "numerator",
              "display": "Numerator"
            } ]
          },
          "count": 1
        }, {
          "id": "NumeratorExclusion_1",
          "code": {
            "coding": [ {
              "system": "http://terminology.hl7.org/CodeSystem/measure-population",
              "code": "numerator-exclusion",
              "display": "Numerator Exclusion"
            } ]
          },
          "count": 0
        } ],
        "measureScore": {
          "value": 0.0
        }
      }, {
        "id": "Group_2",
        "population": [ {
          "id": "InitialPopulation_2",
          "code": {
            "coding": [ {
              "system": "http://terminology.hl7.org/CodeSystem/measure-population",
              "code": "initial-population",
              "display": "Initial Population"
            } ]
          },
          "count": 1
        }, {
          "id": "Denominator_2",
          "code": {
            "coding": [ {
              "system": "http://terminology.hl7.org/CodeSystem/measure-population",
              "code": "denominator",
              "display": "Denominator"
            } ]
          },
          "count": 1
        }, {
          "id": "Numerator_2",
          "code": {
            "coding": [ {
              "system": "http://terminology.hl7.org/CodeSystem/measure-population",
              "code": "numerator",
              "display": "Numerator"
            } ]
          },
          "count": 1
        }, {
          "id": "NumeratorExclusion_2",
          "code": {
            "coding": [ {
              "system": "http://terminology.hl7.org/CodeSystem/measure-population",
              "code": "numerator-exclusion",
              "display": "Numerator Exclusion"
            } ]
          },
          "count": 0
        } ],
        "measureScore": {
          "value": 0.0
        }
      } ],
      "evaluatedResource": [ {
        "reference": "Patient/88bf07ab-7d0d-4610-a2f1-15b1774d33fa"
      }, {
        "reference": "Observation/7578a2e5-064d-4dbf-aaba-244feaa6c714"
      }, {
        "reference": "Observation/3e99f224-9ec7-4d60-b97f-00fcecb5d5fa"
      }, {
        "reference": "Condition/9392bf00-b76f-4b9e-aa45-a9524bb9e052"
      }, {
        "reference": "Observation/bae43afb-abc1-4d3f-937e-43779d38d73b"
      }, {
        "reference": "Encounter/f2fc8692-2dba-4d1d-b0f7-9dbae4876c4f"
      }, {
        "reference": "Coverage/bfeb7042-428d-4bd6-bb0c-c73648962f1b"
      }, {
        "reference": "Procedure/b5a190e3-6e69-4eb7-97e5-eb0c7f2bf707"
      }, {
        "reference": "Procedure/326630db-f347-429b-b03e-9663bb174bad"
      }, {
        "reference": "Organization/729b7c6e-0d47-48b9-a16c-437bb9df4ad8"
      }, {
        "reference": "Practitioner/4f7975b2-208e-4925-8e78-5a1be17fd4a9"
      } ]
    },
    "request": {
      "method": "PUT",
      "url": "MeasureReport/e1bebd8a-ea9e-4ea4-bf12-f8f6e4ee5606"
    }
  } ]
}