{
  "resourceType": "Bundle",
  "id": "632334c2414ba67d4e1d1c32",
  "type": "transaction",
  "entry": [ {
    "fullUrl": "https://madie.cms.gov/Patient/0e3be52f-723e-4df4-a584-337daa19e259",
    "resource": {
      "resourceType": "Patient",
      "id": "0e3be52f-723e-4df4-a584-337daa19e259",
      "meta": {
        "profile": [ "http://hl7.org/fhir/us/qicore/StructureDefinition/qicore-patient" ]
      },
      "extension": [ {
        "url": "http://hl7.org/fhir/us/core/StructureDefinition/us-core-race",
        "extension": [ {
          "url": "ombCategory",
          "valueCoding": {
            "system": "urn:oid:2.16.840.1.113883.6.238",
            "code": "2076-8",
            "display": "Native Hawaiian or Other Pacific Islander",
            "userSelected": true
          }
        }, {
          "url": "text",
          "valueString": "Native Hawaiian or Other Pacific Islander"
        } ]
      }, {
        "url": "http://hl7.org/fhir/us/core/StructureDefinition/us-core-ethnicity",
        "extension": [ {
          "url": "ombCategory",
          "valueCoding": {
            "system": "urn:oid:2.16.840.1.113883.6.238",
            "code": "2135-2",
            "display": "Hispanic or Latino",
            "userSelected": true
          }
        }, {
          "url": "text",
          "valueString": "Hispanic or Latino"
        } ]
      } ],
      "identifier": [ {
        "system": "http://hospital.smarthealthit.org",
        "value": "999999999"
      } ],
      "name": [ {
        "family": "DENEXPass",
        "given": [ "HospiceCareReferral" ]
      } ],
      "gender": "female",
      "birthDate": "2006-12-31"
    },
    "request": {
      "method": "PUT",
      "url": "Patient/0e3be52f-723e-4df4-a584-337daa19e259"
    }
  }, {
    "fullUrl": "https://madie.cms.gov/Encounter/22a0c972-187e-43a0-83fd-9b161f315176",
    "resource": {
      "resourceType": "Encounter",
      "id": "22a0c972-187e-43a0-83fd-9b161f315176",
      "meta": {
        "profile": [ "http://hl7.org/fhir/us/qicore/StructureDefinition/qicore-encounter" ]
      },
      "status": "finished",
      "class": {
        "system": "http://terminology.hl7.org/CodeSystem/v3-ActCode",
        "code": "IMP",
        "display": "inpatient encounter"
      },
      "type": [ {
        "coding": [ {
          "system": "http://snomed.info/sct",
          "code": "183452005",
          "display": "Emergency hospital admission (procedure)",
          "userSelected": true
        } ]
      } ],
      "subject": {
        "reference": "Patient/0e3be52f-723e-4df4-a584-337daa19e259"
      },
      "period": {
        "start": "2026-01-01T00:01:00.000+00:00",
        "end": "2026-01-02T08:30:00.000+00:00"
      },
      "hospitalization": {
        "dischargeDisposition": {
          "coding": [ {
            "system": "http://snomed.info/sct",
            "code": "183919006",
            "display": "Urgent admission to hospice (procedure)",
            "userSelected": true
          } ]
        }
      }
    },
    "request": {
      "method": "PUT",
      "url": "Encounter/22a0c972-187e-43a0-83fd-9b161f315176"
    }
  }, {
    "fullUrl": "https://madie.cms.gov/MedicationRequest/15d2ddde-5744-4869-8a0b-1417b81d5db6",
    "resource": {
      "resourceType": "MedicationRequest",
      "id": "15d2ddde-5744-4869-8a0b-1417b81d5db6",
      "meta": {
        "profile": [ "http://hl7.org/fhir/us/qicore/StructureDefinition/qicore-medicationrequest" ]
      },
      "status": "active",
      "intent": "order",
      "category": [ {
        "coding": [ {
          "system": "http://terminology.hl7.org/CodeSystem/medicationrequest-category",
          "code": "discharge",
          "display": "Discharge",
          "userSelected": true
        } ]
      } ],
      "doNotPerform": false,
      "medicationCodeableConcept": {
        "coding": [ {
          "system": "http://www.nlm.nih.gov/research/umls/rxnorm",
          "code": "1014599",
          "display": "acetaminophen 300 MG / oxycodone hydrochloride 10 MG Oral Tablet",
          "userSelected": true
        } ]
      },
      "subject": {
        "reference": "Patient/0e3be52f-723e-4df4-a584-337daa19e259"
      },
      "authoredOn": "2026-01-02T08:30:00.000+00:00",
      "requester": {
        "reference": "Practitioner/4ab4f616-5ab5-44ba-9cfc-9d6d5e6e4026"
      }
    },
    "request": {
      "method": "PUT",
      "url": "MedicationRequest/15d2ddde-5744-4869-8a0b-1417b81d5db6"
    }
  }, {
    "fullUrl": "https://madie.cms.gov/Practitioner/4ab4f616-5ab5-44ba-9cfc-9d6d5e6e4026",
    "resource": {
      "resourceType": "Practitioner",
      "id": "4ab4f616-5ab5-44ba-9cfc-9d6d5e6e4026",
      "meta": {
        "profile": [ "http://hl7.org/fhir/us/qicore/StructureDefinition/qicore-practitioner" ]
      },
      "identifier": [ {
        "system": "http://hl7.org/fhir/sid/us-npi",
        "value": "9999999896"
      } ],
      "active": true,
      "name": [ {
        "family": "Ramires",
        "given": [ "Alma" ],
        "prefix": [ "Dr" ]
      } ],
      "address": [ {
        "use": "home",
        "line": [ "534 Erewhon St" ],
        "city": "Netherville",
        "state": "IN",
        "postalCode": "46131"
      } ],
      "qualification": [ {
        "identifier": [ {
          "system": "http://goodhealth.org/prIdentifier",
          "value": "12345"
        } ],
        "code": {
          "coding": [ {
            "system": "http://terminology.hl7.org/CodeSystem/v2-0360|2.7",
            "code": "BS",
            "display": "Bachelor of Science"
          } ],
          "text": "Bachelor of Science"
        },
        "period": {
          "start": "1995"
        },
        "issuer": {
          "display": "Example University"
        }
      } ]
    },
    "request": {
      "method": "PUT",
      "url": "Practitioner/4ab4f616-5ab5-44ba-9cfc-9d6d5e6e4026"
    }
  }, {
    "fullUrl": "https://madie.cms.gov/Coverage/792ff763-0751-4667-ae57-f6aba6c6037c",
    "resource": {
      "resourceType": "Coverage",
      "id": "792ff763-0751-4667-ae57-f6aba6c6037c",
      "meta": {
        "profile": [ "http://hl7.org/fhir/us/qicore/StructureDefinition/qicore-coverage" ]
      },
      "status": "active",
      "subscriberId": "523435",
      "beneficiary": {
        "reference": "Patient/0e3be52f-723e-4df4-a584-337daa19e259"
      },
      "relationship": {
        "coding": [ {
          "system": "http://terminology.hl7.org/CodeSystem/subscriber-relationship",
          "code": "self"
        } ]
      },
      "payor": [ {
        "reference": "Organization/c5626885-a63f-4b39-9d7b-46fa2fb4203f"
      } ]
    },
    "request": {
      "method": "PUT",
      "url": "Coverage/792ff763-0751-4667-ae57-f6aba6c6037c"
    }
  }, {
    "fullUrl": "https://madie.cms.gov/Organization/c5626885-a63f-4b39-9d7b-46fa2fb4203f",
    "resource": {
      "resourceType": "Organization",
      "id": "c5626885-a63f-4b39-9d7b-46fa2fb4203f",
      "meta": {
        "profile": [ "http://hl7.org/fhir/us/qicore/StructureDefinition/qicore-organization" ]
      },
      "identifier": [ {
        "use": "temp",
        "system": "urn:oid:2.16.840.1.113883.4.4",
        "value": "21-3259825"
      } ],
      "active": true,
      "type": [ {
        "coding": [ {
          "system": "http://terminology.hl7.org/CodeSystem/organization-type",
          "code": "pay",
          "display": "Payer"
        } ]
      } ],
      "name": "Blue Cross Blue Shield of Texas",
      "telecom": [ {
        "system": "phone",
        "value": "(+1) 972-766-6900"
      } ],
      "address": [ {
        "use": "billing",
        "type": "postal",
        "line": [ "P.O. Box 660044" ],
        "city": "Dallas",
        "state": "TX",
        "postalCode": "75266-0044",
        "country": "USA"
      } ]
    },
    "request": {
      "method": "PUT",
      "url": "Organization/c5626885-a63f-4b39-9d7b-46fa2fb4203f"
    }
  }, {
    "fullUrl": "https://madie.cms.gov/MeasureReport/f60bc331-4c9d-43f1-a528-d79b233e0d19",
    "resource": {
      "resourceType": "MeasureReport",
      "id": "f60bc331-4c9d-43f1-a528-d79b233e0d19",
      "meta": {
        "profile": [ "http://hl7.org/fhir/us/cqfmeasures/StructureDefinition/test-case-cqfm" ]
      },
      "contained": [ {
        "resourceType": "Parameters",
        "id": "a82c5b46-8d59-44fb-b35a-1ad49146c6f8-parameters",
        "parameter": [ {
          "name": "subject",
          "valueString": "0e3be52f-723e-4df4-a584-337daa19e259"
        } ]
      } ],
      "extension": [ {
        "url": "http://hl7.org/fhir/StructureDefinition/cqf-inputParameters",
        "valueReference": {
          "reference": "#a82c5b46-8d59-44fb-b35a-1ad49146c6f8-parameters"
        }
      }, {
        "url": "http://hl7.org/fhir/us/cqfmeasures/StructureDefinition/cqfm-testCaseDescription",
        "valueMarkdown": "Age18, Encounter 01/01 -01/02,  opioid ordered at discharge, discharge disposition of hospice "
      } ],
      "modifierExtension": [ {
        "url": "http://hl7.org/fhir/us/cqfmeasures/StructureDefinition/cqfm-isTestCase",
        "valueBoolean": true
      } ],
      "status": "complete",
      "type": "individual",
      "measure": "https://madie.cms.gov/Measure/CMS506FHIRSafeUseofOpioids",
      "period": {
        "start": "2026-01-01",
        "end": "2026-12-31"
      },
      "group": [ {
        "id": "Group_1",
        "population": [ {
          "id": "InitialPopulation_1",
          "code": {
            "coding": [ {
              "system": "http://terminology.hl7.org/CodeSystem/measure-population",
              "code": "initial-population",
              "display": "Initial Population"
            } ]
          },
          "count": 1
        }, {
          "id": "Denominator_1",
          "code": {
            "coding": [ {
              "system": "http://terminology.hl7.org/CodeSystem/measure-population",
              "code": "denominator",
              "display": "Denominator"
            } ]
          },
          "count": 1
        }, {
          "id": "DenominatorExclusion_1",
          "code": {
            "coding": [ {
              "system": "http://terminology.hl7.org/CodeSystem/measure-population",
              "code": "denominator-exclusion",
              "display": "Denominator Exclusion"
            } ]
          },
          "count": 1
        }, {
          "id": "Numerator_1",
          "code": {
            "coding": [ {
              "system": "http://terminology.hl7.org/CodeSystem/measure-population",
              "code": "numerator",
              "display": "Numerator"
            } ]
          },
          "count": 0
        } ],
        "measureScore": {
          "value": 0.0
        }
      } ],
      "evaluatedResource": [ {
        "reference": "Patient/0e3be52f-723e-4df4-a584-337daa19e259"
      }, {
        "reference": "Encounter/22a0c972-187e-43a0-83fd-9b161f315176"
      }, {
        "reference": "MedicationRequest/15d2ddde-5744-4869-8a0b-1417b81d5db6"
      }, {
        "reference": "Practitioner/4ab4f616-5ab5-44ba-9cfc-9d6d5e6e4026"
      }, {
        "reference": "Coverage/792ff763-0751-4667-ae57-f6aba6c6037c"
      }, {
        "reference": "Organization/c5626885-a63f-4b39-9d7b-46fa2fb4203f"
      } ]
    },
    "request": {
      "method": "PUT",
      "url": "MeasureReport/f60bc331-4c9d-43f1-a528-d79b233e0d19"
    }
  } ]
}