{
  "resourceType": "Bundle",
  "id": "60f82c2e98086b570510e271",
  "type": "transaction",
  "entry": [ {
    "fullUrl": "https://madie.cms.gov/Patient/47b12717-f90f-406a-a114-16fddfbaf8c2",
    "resource": {
      "resourceType": "Patient",
      "id": "47b12717-f90f-406a-a114-16fddfbaf8c2",
      "meta": {
        "profile": [ "http://hl7.org/fhir/us/qicore/StructureDefinition/qicore-patient" ]
      },
      "text": {
        "status": "generated",
        "div": "<div xmlns=\"http://www.w3.org/1999/xhtml\"><div class=\"hapiHeaderText\">EncPrinDx=Afib/Flutter <b>IPPFAIL </b></div><table class=\"hapiPropertyTable\"><tbody><tr><td>Identifier</td><td>6b4f64b42db275e27090e0e95feaf581</td></tr><tr><td>Date of birth</td><td><span>01 December 1960</span></td></tr></tbody></table></div>"
      },
      "extension": [ {
        "url": "http://hl7.org/fhir/us/core/StructureDefinition/us-core-race",
        "extension": [ {
          "url": "ombCategory",
          "valueCoding": {
            "system": "urn:oid:2.16.840.1.113883.6.238",
            "code": "1002-5",
            "display": "American Indian or Alaska Native",
            "userSelected": true
          }
        }, {
          "url": "text",
          "valueString": "American Indian or Alaska Native"
        } ]
      }, {
        "url": "http://hl7.org/fhir/us/core/StructureDefinition/us-core-ethnicity",
        "extension": [ {
          "url": "ombCategory",
          "valueCoding": {
            "system": "urn:oid:2.16.840.1.113883.6.238",
            "code": "2135-2",
            "display": "Hispanic or Latino",
            "userSelected": true
          }
        }, {
          "url": "text",
          "valueString": "Hispanic or Latino"
        } ]
      } ],
      "identifier": [ {
        "type": {
          "coding": [ {
            "system": "http://terminology.hl7.org/CodeSystem/v2-0203",
            "code": "MR"
          } ]
        },
        "system": "https://bonnie-fhir.healthit.gov/",
        "value": "60f82c2e98086b570510e271"
      } ],
      "active": true,
      "name": [ {
        "use": "usual",
        "family": "IPPFail",
        "given": [ "EncPrinDxAfibFlutter" ]
      } ],
      "gender": "male",
      "birthDate": "1961-12-01"
    },
    "request": {
      "method": "PUT",
      "url": "Patient/47b12717-f90f-406a-a114-16fddfbaf8c2"
    }
  }, {
    "fullUrl": "https://madie.cms.gov/Encounter/c558a1b1-70e8-4f47-b090-a75f5dccb363",
    "resource": {
      "resourceType": "Encounter",
      "id": "c558a1b1-70e8-4f47-b090-a75f5dccb363",
      "meta": {
        "profile": [ "http://hl7.org/fhir/us/qicore/StructureDefinition/qicore-encounter" ]
      },
      "status": "finished",
      "class": {
        "system": "http://terminology.hl7.org/CodeSystem/v3-ActCode",
        "code": "IMP",
        "display": "inpatient encounter"
      },
      "type": [ {
        "coding": [ {
          "system": "http://snomed.info/sct",
          "code": "32485007"
        } ]
      } ],
      "subject": {
        "reference": "Patient/47b12717-f90f-406a-a114-16fddfbaf8c2"
      },
      "period": {
        "start": "2026-02-08T08:00:00.000+00:00",
        "end": "2026-02-10T08:15:00.000+00:00"
      },
      "length": {
        "value": 2,
        "unit": "days"
      },
      "reasonReference": [ {
        "reference": "Condition/atrial-fibrillation-flutter-f80a"
      } ]
    },
    "request": {
      "method": "PUT",
      "url": "Encounter/c558a1b1-70e8-4f47-b090-a75f5dccb363"
    }
  }, {
    "fullUrl": "https://madie.cms.gov/claim/5ca62962b8484628b8de1ec5",
    "resource": {
      "resourceType": "Claim",
      "id": "5ca62962b8484628b8de1ec5",
      "meta": {
        "profile": [ "http://hl7.org/fhir/us/qicore/StructureDefinition/qicore-claim" ]
      },
      "status": "active",
      "type": {
        "coding": [ {
          "system": "http://terminology.hl7.org/CodeSystem/claim-type",
          "code": "institutional"
        } ]
      },
      "use": "claim",
      "patient": {
        "reference": "Patient/47b12717-f90f-406a-a114-16fddfbaf8c2"
      },
      "created": "2026-12-01",
      "provider": {
        "reference": "Practitioner/06514c7e-1fad-4d18-9c79-ccc4011a1731"
      },
      "priority": {
        "coding": [ {
          "system": "http://terminology.hl7.org/CodeSystem/processpriority",
          "code": "normal"
        } ]
      },
      "diagnosis": [ {
        "sequence": 1,
        "diagnosisCodeableConcept": {
          "coding": [ {
            "system": "http://hl7.org/fhir/sid/icd-10-cm",
            "code": "I48.91"
          } ]
        },
        "type": [ {
          "coding": [ {
            "system": "http://terminology.hl7.org/CodeSystem/ex-diagnosistype",
            "code": "principal"
          } ]
        } ]
      } ],
      "insurance": [ {
        "sequence": 1,
        "focal": true,
        "coverage": {
          "reference": "Coverage/5fa041661c76ba66d9959367"
        }
      } ],
      "item": [ {
        "sequence": 1,
        "diagnosisSequence": [ 1 ],
        "productOrService": {
          "coding": [ {
            "system": "http://terminology.hl7.org/CodeSystem/ex-USCLS",
            "code": "99555"
          } ]
        },
        "encounter": [ {
          "reference": "Encounter/c558a1b1-70e8-4f47-b090-a75f5dccb363"
        } ]
      } ]
    },
    "request": {
      "method": "PUT",
      "url": "Claim/5ca62962b8484628b8de1ec5"
    }
  }, {
    "fullUrl": "https://madie.cms.gov/Coverage/668731a3-ca1b-478b-8f98-aee95a4b7112",
    "resource": {
      "resourceType": "Coverage",
      "id": "668731a3-ca1b-478b-8f98-aee95a4b7112",
      "status": "active",
      "beneficiary": {
        "reference": "Patient/47b12717-f90f-406a-a114-16fddfbaf8c2"
      },
      "period": {
        "start": "1961-12-01T08:00:00.000+00:00"
      },
      "payor": [ {
        "reference": "Organization/30ad621c-0fdf-47e7-b731-0142053a4f63"
      } ]
    },
    "request": {
      "method": "PUT",
      "url": "Coverage/668731a3-ca1b-478b-8f98-aee95a4b7112"
    }
  }, {
    "fullUrl": "https://madie.cms.gov/Organization/30ad621c-0fdf-47e7-b731-0142053a4f63",
    "resource": {
      "resourceType": "Organization",
      "id": "30ad621c-0fdf-47e7-b731-0142053a4f63",
      "meta": {
        "profile": [ "http://hl7.org/fhir/us/qicore/StructureDefinition/qicore-organization" ]
      },
      "identifier": [ {
        "use": "temp",
        "system": "urn:oid:2.16.840.1.113883.4.4",
        "value": "21-3259825"
      } ],
      "active": true,
      "type": [ {
        "coding": [ {
          "system": "http://terminology.hl7.org/CodeSystem/organization-type",
          "code": "pay",
          "display": "Payer"
        } ]
      } ],
      "name": "Blue Cross Blue Shield of Texas",
      "telecom": [ {
        "system": "phone",
        "value": "(+1) 972-766-6900"
      } ],
      "address": [ {
        "use": "billing",
        "type": "postal",
        "line": [ "P.O. Box 660044" ],
        "city": "Dallas",
        "state": "TX",
        "postalCode": "75266-0044",
        "country": "USA"
      } ]
    },
    "request": {
      "method": "PUT",
      "url": "Organization/30ad621c-0fdf-47e7-b731-0142053a4f63"
    }
  }, {
    "fullUrl": "https://madie.cms.gov/Practitioner/06514c7e-1fad-4d18-9c79-ccc4011a1731",
    "resource": {
      "resourceType": "Practitioner",
      "id": "06514c7e-1fad-4d18-9c79-ccc4011a1731",
      "identifier": [ {
        "system": "http://hl7.org/fhir/sid/us-npi",
        "value": "123456"
      } ],
      "name": [ {
        "family": "Evil",
        "prefix": [ "Dr" ]
      } ]
    },
    "request": {
      "method": "PUT",
      "url": "Practitioner/06514c7e-1fad-4d18-9c79-ccc4011a1731"
    }
  }, {
    "fullUrl": "https://madie.cms.gov/MeasureReport/cca1e1bb-a988-4837-be37-7d82279fe6d7",
    "resource": {
      "resourceType": "MeasureReport",
      "id": "cca1e1bb-a988-4837-be37-7d82279fe6d7",
      "meta": {
        "profile": [ "http://hl7.org/fhir/us/cqfmeasures/StructureDefinition/test-case-cqfm" ]
      },
      "contained": [ {
        "resourceType": "Parameters",
        "id": "6b99cfd2-77a7-4853-b573-cd37bbc6bd45-parameters",
        "parameter": [ {
          "name": "subject",
          "valueString": "47b12717-f90f-406a-a114-16fddfbaf8c2"
        } ]
      } ],
      "extension": [ {
        "url": "http://hl7.org/fhir/StructureDefinition/cqf-inputParameters",
        "valueReference": {
          "reference": "#6b99cfd2-77a7-4853-b573-cd37bbc6bd45-parameters"
        }
      }, {
        "url": "http://hl7.org/fhir/us/cqfmeasures/StructureDefinition/cqfm-testCaseDescription",
        "valueMarkdown": "Enc Principal diagnosis not in value set ( is Afib/Flutter)\n"
      } ],
      "modifierExtension": [ {
        "url": "http://hl7.org/fhir/us/cqfmeasures/StructureDefinition/cqfm-isTestCase",
        "valueBoolean": true
      } ],
      "status": "complete",
      "type": "individual",
      "measure": "https://madie.cms.gov/Measure/CMS72FHIRSTKAntithromboticDay2",
      "period": {
        "start": "2026-01-01",
        "end": "2026-12-31"
      },
      "group": [ {
        "id": "Group_1",
        "population": [ {
          "id": "InitialPopulation_1",
          "code": {
            "coding": [ {
              "system": "http://terminology.hl7.org/CodeSystem/measure-population",
              "code": "initial-population",
              "display": "Initial Population"
            } ]
          },
          "count": 0
        }, {
          "id": "Denominator_1",
          "code": {
            "coding": [ {
              "system": "http://terminology.hl7.org/CodeSystem/measure-population",
              "code": "denominator",
              "display": "Denominator"
            } ]
          },
          "count": 0
        }, {
          "id": "DenominatorExclusion_1",
          "code": {
            "coding": [ {
              "system": "http://terminology.hl7.org/CodeSystem/measure-population",
              "code": "denominator-exclusion",
              "display": "Denominator Exclusion"
            } ]
          },
          "count": 0
        }, {
          "id": "Numerator_1",
          "code": {
            "coding": [ {
              "system": "http://terminology.hl7.org/CodeSystem/measure-population",
              "code": "numerator",
              "display": "Numerator"
            } ]
          },
          "count": 0
        }, {
          "id": "DenominatorException_1",
          "code": {
            "coding": [ {
              "system": "http://terminology.hl7.org/CodeSystem/measure-population",
              "code": "denominator-exception",
              "display": "Denominator Exception"
            } ]
          },
          "count": 0
        } ],
        "measureScore": {
          "value": 0.0
        }
      } ],
      "evaluatedResource": [ {
        "reference": "Patient/47b12717-f90f-406a-a114-16fddfbaf8c2"
      }, {
        "reference": "Encounter/c558a1b1-70e8-4f47-b090-a75f5dccb363"
      }, {
        "reference": "Claim/5ca62962b8484628b8de1ec5"
      }, {
        "reference": "Coverage/668731a3-ca1b-478b-8f98-aee95a4b7112"
      }, {
        "reference": "Organization/30ad621c-0fdf-47e7-b731-0142053a4f63"
      }, {
        "reference": "Practitioner/06514c7e-1fad-4d18-9c79-ccc4011a1731"
      } ]
    },
    "request": {
      "method": "PUT",
      "url": "MeasureReport/cca1e1bb-a988-4837-be37-7d82279fe6d7"
    }
  } ]
}